# Version 2.1 - nm, norm@500 to 1, cut digits, bergeron_130000_90.dat_130000
# Wavelength(nm)  Flambda(ergs/cm^s/s/nm)
300.00 7.024
300.10 7.015
300.20 7.006
300.30 6.997
300.40 6.988
300.50 6.98
300.60 6.971
300.70 6.962
300.80 6.953
300.90 6.944
301.00 6.935
301.10 6.927
301.20 6.918
301.30 6.909
301.40 6.9
301.50 6.892
301.60 6.883
301.70 6.874
301.80 6.866
301.90 6.857
302.00 6.848
302.10 6.84
302.20 6.831
302.30 6.822
302.40 6.814
302.50 6.805
302.60 6.797
302.70 6.788
302.80 6.779
302.90 6.771
303.00 6.762
303.10 6.754
303.20 6.745
303.30 6.737
303.40 6.728
303.50 6.72
303.60 6.712
303.70 6.703
303.80 6.695
303.90 6.686
304.00 6.678
304.10 6.67
304.20 6.661
304.30 6.653
304.40 6.645
304.50 6.636
304.60 6.628
304.70 6.62
304.80 6.611
304.90 6.603
305.00 6.595
305.10 6.587
305.20 6.578
305.30 6.57
305.40 6.562
305.50 6.554
305.60 6.545
305.70 6.537
305.80 6.529
305.90 6.521
306.00 6.513
306.10 6.505
306.20 6.497
306.30 6.489
306.40 6.48
306.50 6.472
306.60 6.464
306.70 6.456
306.80 6.448
306.90 6.44
307.00 6.432
307.10 6.424
307.20 6.416
307.30 6.408
307.40 6.4
307.50 6.392
307.60 6.384
307.70 6.377
307.80 6.369
307.90 6.361
308.00 6.353
308.10 6.345
308.20 6.337
308.30 6.329
308.40 6.321
308.50 6.314
308.60 6.306
308.70 6.298
308.80 6.29
308.90 6.282
309.00 6.275
309.10 6.267
309.20 6.259
309.30 6.252
309.40 6.244
309.50 6.236
309.60 6.228
309.70 6.221
309.80 6.213
309.90 6.205
310.00 6.198
310.10 6.19
310.20 6.183
310.30 6.175
310.40 6.167
310.50 6.16
310.60 6.152
310.70 6.145
310.80 6.137
310.90 6.13
311.00 6.122
311.10 6.114
311.20 6.107
311.30 6.099
311.40 6.092
311.50 6.085
311.60 6.077
311.70 6.07
311.80 6.062
311.90 6.055
312.00 6.047
312.10 6.04
312.20 6.033
312.30 6.025
312.40 6.018
312.50 6.011
312.60 6.003
312.70 5.996
312.80 5.988
312.90 5.981
313.00 5.974
313.10 5.967
313.20 5.959
313.30 5.952
313.40 5.945
313.50 5.938
313.60 5.93
313.70 5.923
313.80 5.916
313.90 5.909
314.00 5.902
314.10 5.894
314.20 5.887
314.30 5.88
314.40 5.873
314.50 5.866
314.60 5.859
314.70 5.852
314.80 5.844
314.90 5.837
315.00 5.83
315.10 5.823
315.20 5.816
315.30 5.809
315.40 5.802
315.50 5.795
315.60 5.788
315.70 5.781
315.80 5.774
315.90 5.767
316.00 5.76
316.10 5.753
316.20 5.746
316.30 5.739
316.40 5.732
316.50 5.725
316.60 5.718
316.70 5.712
316.80 5.705
316.90 5.698
317.00 5.691
317.10 5.684
317.20 5.677
317.30 5.67
317.40 5.664
317.50 5.657
317.60 5.65
317.70 5.643
317.80 5.636
317.90 5.63
318.00 5.623
318.10 5.616
318.20 5.609
318.30 5.603
318.40 5.596
318.50 5.589
318.60 5.583
318.70 5.576
318.80 5.569
318.90 5.562
319.00 5.556
319.10 5.549
319.20 5.543
319.30 5.536
319.40 5.529
319.50 5.523
319.60 5.516
319.70 5.509
319.80 5.503
319.90 5.496
320.00 5.49
320.10 5.483
320.20 5.477
320.30 5.47
320.40 5.464
320.50 5.457
320.60 5.451
320.70 5.444
320.80 5.438
320.90 5.431
321.00 5.425
321.10 5.418
321.20 5.412
321.30 5.405
321.40 5.399
321.50 5.392
321.60 5.386
321.70 5.38
321.80 5.373
321.90 5.367
322.00 5.361
322.10 5.354
322.20 5.348
322.30 5.341
322.40 5.335
322.50 5.329
322.60 5.322
322.70 5.316
322.80 5.31
322.90 5.304
323.00 5.297
323.10 5.291
323.20 5.285
323.30 5.279
323.40 5.272
323.50 5.266
323.60 5.26
323.70 5.254
323.80 5.247
323.90 5.241
324.00 5.235
324.10 5.229
324.20 5.223
324.30 5.217
324.40 5.21
324.50 5.204
324.60 5.198
324.70 5.192
324.80 5.186
324.90 5.18
325.00 5.174
325.10 5.168
325.20 5.162
325.30 5.156
325.40 5.149
325.50 5.143
325.60 5.137
325.70 5.131
325.80 5.125
325.90 5.119
326.00 5.113
326.10 5.107
326.20 5.101
326.30 5.095
326.40 5.089
326.50 5.083
326.60 5.077
326.70 5.072
326.80 5.066
326.90 5.06
327.00 5.054
327.10 5.048
327.20 5.042
327.30 5.036
327.40 5.03
327.50 5.024
327.60 5.018
327.70 5.013
327.80 5.007
327.90 5.001
328.00 4.995
328.10 4.989
328.20 4.983
328.30 4.978
328.40 4.972
328.50 4.966
328.60 4.96
328.70 4.955
328.80 4.949
328.90 4.943
329.00 4.937
329.10 4.931
329.20 4.926
329.30 4.92
329.40 4.914
329.50 4.909
329.60 4.903
329.70 4.897
329.80 4.892
329.90 4.886
330.00 4.88
330.10 4.875
330.20 4.869
330.30 4.863
330.40 4.858
330.50 4.852
330.60 4.847
330.70 4.841
330.80 4.835
330.90 4.83
331.00 4.824
331.10 4.819
331.20 4.813
331.30 4.807
331.40 4.802
331.50 4.796
331.60 4.791
331.70 4.785
331.80 4.78
331.90 4.774
332.00 4.769
332.10 4.763
332.20 4.758
332.30 4.752
332.40 4.747
332.50 4.741
332.60 4.736
332.70 4.73
332.80 4.725
332.90 4.72
333.00 4.714
333.10 4.709
333.20 4.703
333.30 4.698
333.40 4.693
333.50 4.687
333.60 4.682
333.70 4.676
333.80 4.671
333.90 4.666
334.00 4.66
334.10 4.655
334.20 4.65
334.30 4.644
334.40 4.639
334.50 4.634
334.60 4.628
334.70 4.623
334.80 4.618
334.90 4.613
335.00 4.607
335.10 4.602
335.20 4.597
335.30 4.592
335.40 4.586
335.50 4.581
335.60 4.576
335.70 4.571
335.80 4.565
335.90 4.56
336.00 4.555
336.10 4.55
336.20 4.545
336.30 4.54
336.40 4.534
336.50 4.529
336.60 4.524
336.70 4.519
336.80 4.514
336.90 4.509
337.00 4.504
337.10 4.498
337.20 4.493
337.30 4.488
337.40 4.483
337.50 4.478
337.60 4.473
337.70 4.468
337.80 4.463
337.90 4.458
338.00 4.453
338.10 4.448
338.20 4.443
338.30 4.438
338.40 4.433
338.50 4.428
338.60 4.423
338.70 4.418
338.80 4.413
338.90 4.408
339.00 4.403
339.10 4.398
339.20 4.393
339.30 4.388
339.40 4.383
339.50 4.378
339.60 4.373
339.70 4.368
339.80 4.363
339.90 4.358
340.00 4.353
340.10 4.348
340.20 4.343
340.30 4.339
340.40 4.334
340.50 4.329
340.60 4.324
340.70 4.319
340.80 4.314
340.90 4.309
341.00 4.305
341.10 4.3
341.20 4.295
341.30 4.29
341.40 4.285
341.50 4.28
341.60 4.276
341.70 4.271
341.80 4.266
341.90 4.261
342.00 4.256
342.10 4.252
342.20 4.247
342.30 4.242
342.40 4.238
342.50 4.233
342.60 4.228
342.70 4.223
342.80 4.219
342.90 4.214
343.00 4.209
343.10 4.205
343.20 4.2
343.30 4.195
343.40 4.19
343.50 4.186
343.60 4.181
343.70 4.176
343.80 4.172
343.90 4.167
344.00 4.162
344.10 4.158
344.20 4.153
344.30 4.149
344.40 4.144
344.50 4.139
344.60 4.135
344.70 4.13
344.80 4.126
344.90 4.121
345.00 4.117
345.10 4.112
345.20 4.107
345.30 4.103
345.40 4.098
345.50 4.094
345.60 4.089
345.70 4.085
345.80 4.08
345.90 4.076
346.00 4.071
346.10 4.067
346.20 4.062
346.30 4.058
346.40 4.053
346.50 4.049
346.60 4.044
346.70 4.04
346.80 4.035
346.90 4.031
347.00 4.026
347.10 4.022
347.20 4.017
347.30 4.013
347.40 4.009
347.50 4.004
347.60 4
347.70 3.995
347.80 3.991
347.90 3.987
348.00 3.982
348.10 3.978
348.20 3.973
348.30 3.969
348.40 3.965
348.50 3.96
348.60 3.956
348.70 3.952
348.80 3.947
348.90 3.943
349.00 3.939
349.10 3.934
349.20 3.93
349.30 3.926
349.40 3.921
349.50 3.917
349.60 3.913
349.70 3.908
349.80 3.904
349.90 3.9
350.00 3.896
350.10 3.891
350.20 3.887
350.30 3.883
350.40 3.879
350.50 3.874
350.60 3.87
350.70 3.866
350.80 3.862
350.90 3.858
351.00 3.853
351.10 3.849
351.20 3.845
351.30 3.841
351.40 3.837
351.50 3.832
351.60 3.828
351.70 3.824
351.80 3.82
351.90 3.816
352.00 3.811
352.10 3.807
352.20 3.803
352.30 3.799
352.40 3.795
352.50 3.791
352.60 3.787
352.70 3.783
352.80 3.778
352.90 3.774
353.00 3.77
353.10 3.766
353.20 3.762
353.30 3.758
353.40 3.754
353.50 3.75
353.60 3.746
353.70 3.742
353.80 3.738
353.90 3.734
354.00 3.73
354.10 3.726
354.20 3.721
354.30 3.717
354.40 3.713
354.50 3.709
354.60 3.705
354.70 3.701
354.80 3.697
354.90 3.693
355.00 3.689
355.10 3.686
355.20 3.682
355.30 3.678
355.40 3.674
355.50 3.67
355.60 3.666
355.70 3.662
355.80 3.658
355.90 3.654
356.00 3.65
356.10 3.646
356.20 3.642
356.30 3.638
356.40 3.634
356.50 3.63
356.60 3.626
356.70 3.623
356.80 3.619
356.90 3.615
357.00 3.611
357.10 3.607
357.20 3.603
357.30 3.599
357.40 3.595
357.50 3.591
357.60 3.588
357.70 3.584
357.80 3.58
357.90 3.576
358.00 3.572
358.10 3.568
358.20 3.565
358.30 3.561
358.40 3.557
358.50 3.553
358.60 3.549
358.70 3.546
358.80 3.542
358.90 3.538
359.00 3.534
359.10 3.531
359.20 3.527
359.30 3.523
359.40 3.519
359.50 3.515
359.60 3.512
359.70 3.508
359.80 3.504
359.90 3.5
360.00 3.497
360.10 3.493
360.20 3.489
360.30 3.486
360.40 3.482
360.50 3.478
360.60 3.475
360.70 3.471
360.80 3.467
360.90 3.463
361.00 3.46
361.10 3.456
361.20 3.452
361.30 3.449
361.40 3.445
361.50 3.441
361.60 3.438
361.70 3.434
361.80 3.43
361.90 3.427
362.00 3.423
362.10 3.42
362.20 3.416
362.30 3.412
362.40 3.409
362.50 3.405
362.60 3.402
362.70 3.398
362.80 3.394
362.90 3.391
363.00 3.387
363.10 3.384
363.20 3.38
363.30 3.376
363.40 3.373
363.50 3.369
363.60 3.366
363.70 3.362
363.80 3.359
363.90 3.355
364.00 3.352
364.10 3.348
364.20 3.345
364.30 3.341
364.40 3.337
364.50 3.334
364.60 3.33
364.70 3.327
364.80 3.323
364.90 3.32
365.00 3.317
365.10 3.313
365.20 3.31
365.30 3.306
365.40 3.303
365.50 3.299
365.60 3.296
365.70 3.292
365.80 3.289
365.90 3.285
366.00 3.282
366.10 3.278
366.20 3.275
366.30 3.272
366.40 3.268
366.50 3.265
366.60 3.261
366.70 3.258
366.80 3.254
366.90 3.251
367.00 3.248
367.10 3.244
367.20 3.241
367.30 3.237
367.40 3.234
367.50 3.231
367.60 3.227
367.70 3.224
367.80 3.22
367.90 3.217
368.00 3.214
368.10 3.21
368.20 3.207
368.30 3.204
368.40 3.2
368.50 3.197
368.60 3.193
368.70 3.19
368.80 3.187
368.90 3.183
369.00 3.18
369.10 3.177
369.20 3.173
369.30 3.17
369.40 3.167
369.50 3.163
369.60 3.16
369.70 3.157
369.80 3.153
369.90 3.15
370.00 3.147
370.10 3.143
370.20 3.14
370.30 3.137
370.40 3.133
370.50 3.13
370.60 3.127
370.70 3.123
370.80 3.12
370.90 3.117
371.00 3.114
371.10 3.11
371.20 3.107
371.30 3.104
371.40 3.101
371.50 3.097
371.60 3.094
371.70 3.091
371.80 3.088
371.90 3.084
372.00 3.081
372.10 3.078
372.20 3.075
372.30 3.072
372.40 3.069
372.50 3.065
372.60 3.062
372.70 3.059
372.80 3.056
372.90 3.053
373.00 3.05
373.10 3.047
373.20 3.044
373.30 3.04
373.40 3.037
373.50 3.034
373.60 3.031
373.70 3.028
373.80 3.025
373.90 3.022
374.00 3.019
374.10 3.016
374.20 3.012
374.30 3.009
374.40 3.006
374.50 3.003
374.60 3
374.70 2.997
374.80 2.994
374.90 2.991
375.00 2.987
375.10 2.984
375.20 2.981
375.30 2.978
375.40 2.975
375.50 2.972
375.60 2.969
375.70 2.966
375.80 2.963
375.90 2.96
376.00 2.957
376.10 2.953
376.20 2.95
376.30 2.947
376.40 2.944
376.50 2.941
376.60 2.938
376.70 2.935
376.80 2.932
376.90 2.929
377.00 2.926
377.10 2.923
377.20 2.92
377.30 2.917
377.40 2.914
377.50 2.911
377.60 2.908
377.70 2.905
377.80 2.902
377.90 2.899
378.00 2.896
378.10 2.893
378.20 2.89
378.30 2.887
378.40 2.884
378.50 2.881
378.60 2.879
378.70 2.876
378.80 2.873
378.90 2.87
379.00 2.867
379.10 2.864
379.20 2.861
379.30 2.858
379.40 2.855
379.50 2.852
379.60 2.849
379.70 2.846
379.80 2.843
379.90 2.841
380.00 2.838
380.10 2.835
380.20 2.832
380.30 2.829
380.40 2.826
380.50 2.823
380.60 2.82
380.70 2.818
380.80 2.815
380.90 2.812
381.00 2.809
381.10 2.806
381.20 2.803
381.30 2.801
381.40 2.798
381.50 2.795
381.60 2.792
381.70 2.789
381.80 2.786
381.90 2.784
382.00 2.781
382.10 2.778
382.20 2.775
382.30 2.773
382.40 2.77
382.50 2.767
382.60 2.764
382.70 2.761
382.80 2.759
382.90 2.756
383.00 2.753
383.10 2.75
383.20 2.748
383.30 2.745
383.40 2.742
383.50 2.739
383.60 2.737
383.70 2.734
383.80 2.731
383.90 2.728
384.00 2.726
384.10 2.723
384.20 2.72
384.30 2.718
384.40 2.715
384.50 2.712
384.60 2.71
384.70 2.707
384.80 2.704
384.90 2.701
385.00 2.699
385.10 2.696
385.20 2.693
385.30 2.691
385.40 2.688
385.50 2.685
385.60 2.683
385.70 2.68
385.80 2.678
385.90 2.675
386.00 2.672
386.10 2.67
386.20 2.667
386.30 2.664
386.40 2.662
386.50 2.659
386.60 2.656
386.70 2.654
386.80 2.651
386.90 2.649
387.00 2.646
387.10 2.643
387.20 2.641
387.30 2.638
387.40 2.636
387.50 2.633
387.60 2.63
387.70 2.628
387.80 2.625
387.90 2.623
388.00 2.62
388.10 2.618
388.20 2.615
388.30 2.613
388.40 2.61
388.50 2.608
388.60 2.605
388.70 2.603
388.80 2.6
388.90 2.598
389.00 2.595
389.10 2.593
389.20 2.59
389.30 2.587
389.40 2.585
389.50 2.582
389.60 2.58
389.70 2.578
389.80 2.575
389.90 2.573
390.00 2.57
390.10 2.568
390.20 2.565
390.30 2.563
390.40 2.56
390.50 2.558
390.60 2.555
390.70 2.553
390.80 2.55
390.90 2.548
391.00 2.546
391.10 2.543
391.20 2.541
391.30 2.538
391.40 2.536
391.50 2.533
391.60 2.531
391.70 2.529
391.80 2.526
391.90 2.524
392.00 2.521
392.10 2.519
392.20 2.516
392.30 2.514
392.40 2.511
392.50 2.509
392.60 2.507
392.70 2.504
392.80 2.502
392.90 2.499
393.00 2.497
393.10 2.494
393.20 2.492
393.30 2.49
393.40 2.487
393.50 2.485
393.60 2.482
393.70 2.48
393.80 2.477
393.90 2.475
394.00 2.472
394.10 2.47
394.20 2.468
394.30 2.465
394.40 2.463
394.50 2.46
394.60 2.458
394.70 2.455
394.80 2.453
394.90 2.451
395.00 2.448
395.10 2.446
395.20 2.443
395.30 2.441
395.40 2.438
395.50 2.436
395.60 2.434
395.70 2.431
395.80 2.429
395.90 2.426
396.00 2.424
396.10 2.421
396.20 2.419
396.30 2.417
396.40 2.414
396.50 2.412
396.60 2.41
396.70 2.407
396.80 2.405
396.90 2.403
397.00 2.401
397.10 2.398
397.20 2.396
397.30 2.394
397.40 2.392
397.50 2.39
397.60 2.388
397.70 2.386
397.80 2.383
397.90 2.381
398.00 2.379
398.10 2.377
398.20 2.375
398.30 2.373
398.40 2.371
398.50 2.369
398.60 2.367
398.70 2.365
398.80 2.363
398.90 2.361
399.00 2.359
399.10 2.357
399.20 2.355
399.30 2.353
399.40 2.351
399.50 2.349
399.60 2.347
399.70 2.344
399.80 2.342
399.90 2.34
400.00 2.338
400.10 2.336
400.20 2.334
400.30 2.332
400.40 2.33
400.50 2.328
400.60 2.326
400.70 2.324
400.80 2.322
400.90 2.32
401.00 2.317
401.10 2.315
401.20 2.313
401.30 2.311
401.40 2.309
401.50 2.307
401.60 2.305
401.70 2.303
401.80 2.3
401.90 2.298
402.00 2.296
402.10 2.294
402.20 2.292
402.30 2.29
402.40 2.287
402.50 2.285
402.60 2.283
402.70 2.281
402.80 2.279
402.90 2.276
403.00 2.274
403.10 2.272
403.20 2.27
403.30 2.267
403.40 2.265
403.50 2.263
403.60 2.261
403.70 2.258
403.80 2.256
403.90 2.254
404.00 2.252
404.10 2.249
404.20 2.247
404.30 2.245
404.40 2.242
404.50 2.24
404.60 2.238
404.70 2.235
404.80 2.233
404.90 2.231
405.00 2.228
405.10 2.226
405.20 2.223
405.30 2.221
405.40 2.219
405.50 2.216
405.60 2.214
405.70 2.211
405.80 2.209
405.90 2.207
406.00 2.204
406.10 2.202
406.20 2.199
406.30 2.197
406.40 2.194
406.50 2.192
406.60 2.189
406.70 2.187
406.80 2.184
406.90 2.182
407.00 2.179
407.10 2.177
407.20 2.174
407.30 2.172
407.40 2.169
407.50 2.166
407.60 2.164
407.70 2.161
407.80 2.159
407.90 2.156
408.00 2.154
408.10 2.151
408.20 2.149
408.30 2.146
408.40 2.143
408.50 2.141
408.60 2.138
408.70 2.136
408.80 2.133
408.90 2.131
409.00 2.128
409.10 2.126
409.20 2.124
409.30 2.121
409.40 2.119
409.50 2.117
409.60 2.115
409.70 2.113
409.80 2.111
409.90 2.11
410.00 2.108
410.10 2.107
410.20 2.105
410.30 2.103
410.40 2.1
410.50 2.098
410.60 2.096
410.70 2.094
410.80 2.092
410.90 2.091
411.00 2.089
411.10 2.088
411.20 2.086
411.30 2.085
411.40 2.083
411.50 2.082
411.60 2.081
411.70 2.079
411.80 2.078
411.90 2.077
412.00 2.075
412.10 2.074
412.20 2.073
412.30 2.072
412.40 2.07
412.50 2.069
412.60 2.068
412.70 2.067
412.80 2.065
412.90 2.064
413.00 2.063
413.10 2.061
413.20 2.06
413.30 2.059
413.40 2.057
413.50 2.056
413.60 2.055
413.70 2.053
413.80 2.052
413.90 2.051
414.00 2.049
414.10 2.048
414.20 2.047
414.30 2.045
414.40 2.044
414.50 2.042
414.60 2.041
414.70 2.04
414.80 2.038
414.90 2.037
415.00 2.035
415.10 2.034
415.20 2.032
415.30 2.031
415.40 2.029
415.50 2.028
415.60 2.026
415.70 2.025
415.80 2.023
415.90 2.022
416.00 2.02
416.10 2.019
416.20 2.017
416.30 2.016
416.40 2.014
416.50 2.013
416.60 2.011
416.70 2.01
416.80 2.008
416.90 2.006
417.00 2.005
417.10 2.003
417.20 2.002
417.30 2
417.40 1.998
417.50 1.997
417.60 1.995
417.70 1.994
417.80 1.992
417.90 1.99
418.00 1.989
418.10 1.987
418.20 1.985
418.30 1.984
418.40 1.982
418.50 1.98
418.60 1.979
418.70 1.977
418.80 1.975
418.90 1.974
419.00 1.972
419.10 1.97
419.20 1.969
419.30 1.967
419.40 1.965
419.50 1.964
419.60 1.962
419.70 1.96
419.80 1.958
419.90 1.957
420.00 1.955
420.10 1.953
420.20 1.952
420.30 1.95
420.40 1.948
420.50 1.946
420.60 1.945
420.70 1.943
420.80 1.941
420.90 1.939
421.00 1.938
421.10 1.936
421.20 1.934
421.30 1.932
421.40 1.931
421.50 1.929
421.60 1.927
421.70 1.925
421.80 1.924
421.90 1.922
422.00 1.92
422.10 1.918
422.20 1.916
422.30 1.915
422.40 1.913
422.50 1.911
422.60 1.909
422.70 1.907
422.80 1.906
422.90 1.904
423.00 1.902
423.10 1.9
423.20 1.898
423.30 1.896
423.40 1.895
423.50 1.893
423.60 1.891
423.70 1.889
423.80 1.887
423.90 1.885
424.00 1.883
424.10 1.882
424.20 1.88
424.30 1.878
424.40 1.876
424.50 1.874
424.60 1.872
424.70 1.87
424.80 1.868
424.90 1.866
425.00 1.865
425.10 1.863
425.20 1.861
425.30 1.859
425.40 1.857
425.50 1.855
425.60 1.853
425.70 1.851
425.80 1.849
425.90 1.847
426.00 1.845
426.10 1.843
426.20 1.841
426.30 1.839
426.40 1.837
426.50 1.835
426.60 1.833
426.70 1.831
426.80 1.829
426.90 1.827
427.00 1.825
427.10 1.823
427.20 1.82
427.30 1.818
427.40 1.816
427.50 1.814
427.60 1.812
427.70 1.81
427.80 1.808
427.90 1.805
428.00 1.803
428.10 1.801
428.20 1.799
428.30 1.797
428.40 1.794
428.50 1.792
428.60 1.79
428.70 1.787
428.80 1.785
428.90 1.783
429.00 1.781
429.10 1.778
429.20 1.776
429.30 1.773
429.40 1.771
429.50 1.769
429.60 1.766
429.70 1.764
429.80 1.761
429.90 1.759
430.00 1.756
430.10 1.754
430.20 1.751
430.30 1.749
430.40 1.746
430.50 1.743
430.60 1.741
430.70 1.738
430.80 1.735
430.90 1.733
431.00 1.73
431.10 1.727
431.20 1.725
431.30 1.722
431.40 1.719
431.50 1.716
431.60 1.713
431.70 1.711
431.80 1.708
431.90 1.705
432.00 1.702
432.10 1.699
432.20 1.697
432.30 1.694
432.40 1.691
432.50 1.688
432.60 1.685
432.70 1.682
432.80 1.679
432.90 1.677
433.00 1.674
433.10 1.671
433.20 1.668
433.30 1.665
433.40 1.662
433.50 1.658
433.60 1.655
433.70 1.652
433.80 1.648
433.90 1.644
434.00 1.642
434.10 1.641
434.20 1.64
434.30 1.641
434.40 1.642
434.50 1.643
434.60 1.643
434.70 1.644
434.80 1.644
434.90 1.644
435.00 1.644
435.10 1.644
435.20 1.644
435.30 1.644
435.40 1.644
435.50 1.644
435.60 1.644
435.70 1.644
435.80 1.644
435.90 1.644
436.00 1.644
436.10 1.644
436.20 1.643
436.30 1.643
436.40 1.643
436.50 1.643
436.60 1.643
436.70 1.643
436.80 1.642
436.90 1.642
437.00 1.642
437.10 1.642
437.20 1.641
437.30 1.641
437.40 1.641
437.50 1.64
437.60 1.64
437.70 1.639
437.80 1.639
437.90 1.638
438.00 1.638
438.10 1.638
438.20 1.637
438.30 1.636
438.40 1.636
438.50 1.635
438.60 1.635
438.70 1.634
438.80 1.633
438.90 1.633
439.00 1.632
439.10 1.631
439.20 1.631
439.30 1.63
439.40 1.629
439.50 1.628
439.60 1.628
439.70 1.627
439.80 1.626
439.90 1.625
440.00 1.624
440.10 1.623
440.20 1.622
440.30 1.622
440.40 1.621
440.50 1.62
440.60 1.619
440.70 1.618
440.80 1.617
440.90 1.616
441.00 1.615
441.10 1.614
441.20 1.613
441.30 1.612
441.40 1.611
441.50 1.61
441.60 1.609
441.70 1.608
441.80 1.607
441.90 1.606
442.00 1.605
442.10 1.604
442.20 1.602
442.30 1.601
442.40 1.6
442.50 1.599
442.60 1.598
442.70 1.597
442.80 1.596
442.90 1.595
443.00 1.593
443.10 1.592
443.20 1.591
443.30 1.59
443.40 1.589
443.50 1.588
443.60 1.587
443.70 1.585
443.80 1.584
443.90 1.583
444.00 1.582
444.10 1.581
444.20 1.579
444.30 1.578
444.40 1.577
444.50 1.576
444.60 1.575
444.70 1.573
444.80 1.572
444.90 1.571
445.00 1.57
445.10 1.568
445.20 1.567
445.30 1.566
445.40 1.565
445.50 1.564
445.60 1.562
445.70 1.561
445.80 1.56
445.90 1.559
446.00 1.557
446.10 1.556
446.20 1.555
446.30 1.554
446.40 1.552
446.50 1.551
446.60 1.55
446.70 1.549
446.80 1.547
446.90 1.546
447.00 1.545
447.10 1.544
447.20 1.542
447.30 1.541
447.40 1.54
447.50 1.539
447.60 1.537
447.70 1.536
447.80 1.535
447.90 1.534
448.00 1.532
448.10 1.531
448.20 1.53
448.30 1.529
448.40 1.527
448.50 1.526
448.60 1.525
448.70 1.523
448.80 1.522
448.90 1.521
449.00 1.52
449.10 1.518
449.20 1.517
449.30 1.516
449.40 1.515
449.50 1.513
449.60 1.512
449.70 1.511
449.80 1.51
449.90 1.508
450.00 1.507
450.10 1.506
450.20 1.505
450.30 1.503
450.40 1.502
450.50 1.501
450.60 1.5
450.70 1.498
450.80 1.497
450.90 1.496
451.00 1.495
451.10 1.493
451.20 1.492
451.30 1.491
451.40 1.49
451.50 1.488
451.60 1.487
451.70 1.486
451.80 1.485
451.90 1.483
452.00 1.482
452.10 1.481
452.20 1.48
452.30 1.478
452.40 1.477
452.50 1.476
452.60 1.475
452.70 1.473
452.80 1.472
452.90 1.471
453.00 1.47
453.10 1.468
453.20 1.467
453.30 1.466
453.40 1.465
453.50 1.463
453.60 1.462
453.70 1.461
453.80 1.46
453.90 1.458
454.00 1.457
454.10 1.456
454.20 1.455
454.30 1.454
454.40 1.452
454.50 1.451
454.60 1.45
454.70 1.449
454.80 1.447
454.90 1.446
455.00 1.445
455.10 1.444
455.20 1.443
455.30 1.441
455.40 1.44
455.50 1.439
455.60 1.438
455.70 1.436
455.80 1.435
455.90 1.434
456.00 1.433
456.10 1.432
456.20 1.43
456.30 1.429
456.40 1.428
456.50 1.427
456.60 1.426
456.70 1.424
456.80 1.423
456.90 1.422
457.00 1.421
457.10 1.42
457.20 1.418
457.30 1.417
457.40 1.416
457.50 1.415
457.60 1.414
457.70 1.412
457.80 1.411
457.90 1.41
458.00 1.409
458.10 1.408
458.20 1.406
458.30 1.405
458.40 1.404
458.50 1.403
458.60 1.402
458.70 1.4
458.80 1.399
458.90 1.398
459.00 1.397
459.10 1.396
459.20 1.394
459.30 1.393
459.40 1.392
459.50 1.391
459.60 1.39
459.70 1.389
459.80 1.387
459.90 1.386
460.00 1.385
460.10 1.384
460.20 1.383
460.30 1.382
460.40 1.38
460.50 1.379
460.60 1.378
460.70 1.377
460.80 1.376
460.90 1.375
461.00 1.373
461.10 1.372
461.20 1.371
461.30 1.37
461.40 1.369
461.50 1.368
461.60 1.366
461.70 1.365
461.80 1.364
461.90 1.363
462.00 1.362
462.10 1.361
462.20 1.359
462.30 1.358
462.40 1.357
462.50 1.356
462.60 1.355
462.70 1.354
462.80 1.353
462.90 1.351
463.00 1.35
463.10 1.349
463.20 1.348
463.30 1.347
463.40 1.346
463.50 1.345
463.60 1.343
463.70 1.342
463.80 1.341
463.90 1.34
464.00 1.339
464.10 1.338
464.20 1.337
464.30 1.336
464.40 1.334
464.50 1.333
464.60 1.332
464.70 1.331
464.80 1.33
464.90 1.329
465.00 1.328
465.10 1.326
465.20 1.325
465.30 1.324
465.40 1.323
465.50 1.322
465.60 1.321
465.70 1.32
465.80 1.319
465.90 1.317
466.00 1.316
466.10 1.315
466.20 1.314
466.30 1.313
466.40 1.312
466.50 1.311
466.60 1.31
466.70 1.309
466.80 1.307
466.90 1.306
467.00 1.305
467.10 1.304
467.20 1.303
467.30 1.302
467.40 1.301
467.50 1.3
467.60 1.299
467.70 1.297
467.80 1.296
467.90 1.295
468.00 1.294
468.10 1.293
468.20 1.292
468.30 1.291
468.40 1.29
468.50 1.289
468.60 1.288
468.70 1.286
468.80 1.285
468.90 1.284
469.00 1.283
469.10 1.282
469.20 1.281
469.30 1.28
469.40 1.279
469.50 1.278
469.60 1.276
469.70 1.275
469.80 1.274
469.90 1.273
470.00 1.272
470.10 1.271
470.20 1.27
470.30 1.269
470.40 1.268
470.50 1.267
470.60 1.266
470.70 1.264
470.80 1.263
470.90 1.262
471.00 1.261
471.10 1.26
471.20 1.259
471.30 1.258
471.40 1.257
471.50 1.256
471.60 1.255
471.70 1.253
471.80 1.252
471.90 1.251
472.00 1.25
472.10 1.249
472.20 1.248
472.30 1.247
472.40 1.246
472.50 1.245
472.60 1.244
472.70 1.242
472.80 1.241
472.90 1.24
473.00 1.239
473.10 1.238
473.20 1.237
473.30 1.236
473.40 1.235
473.50 1.234
473.60 1.233
473.70 1.231
473.80 1.23
473.90 1.229
474.00 1.228
474.10 1.227
474.20 1.226
474.30 1.225
474.40 1.224
474.50 1.222
474.60 1.221
474.70 1.22
474.80 1.219
474.90 1.218
475.00 1.217
475.10 1.216
475.20 1.215
475.30 1.213
475.40 1.212
475.50 1.211
475.60 1.21
475.70 1.209
475.80 1.208
475.90 1.207
476.00 1.205
476.10 1.204
476.20 1.203
476.30 1.202
476.40 1.201
476.50 1.2
476.60 1.198
476.70 1.197
476.80 1.196
476.90 1.195
477.00 1.194
477.10 1.193
477.20 1.191
477.30 1.19
477.40 1.189
477.50 1.188
477.60 1.186
477.70 1.185
477.80 1.184
477.90 1.183
478.00 1.182
478.10 1.18
478.20 1.179
478.30 1.178
478.40 1.176
478.50 1.175
478.60 1.174
478.70 1.173
478.80 1.171
478.90 1.17
479.00 1.169
479.10 1.167
479.20 1.166
479.30 1.165
479.40 1.163
479.50 1.162
479.60 1.16
479.70 1.159
479.80 1.158
479.90 1.156
480.00 1.155
480.10 1.153
480.20 1.152
480.30 1.15
480.40 1.149
480.50 1.147
480.60 1.146
480.70 1.144
480.80 1.143
480.90 1.141
481.00 1.14
481.10 1.138
481.20 1.136
481.30 1.135
481.40 1.133
481.50 1.131
481.60 1.129
481.70 1.128
481.80 1.126
481.90 1.124
482.00 1.123
482.10 1.121
482.20 1.119
482.30 1.117
482.40 1.115
482.50 1.113
482.60 1.111
482.70 1.109
482.80 1.107
482.90 1.105
483.00 1.103
483.10 1.101
483.20 1.099
483.30 1.097
483.40 1.095
483.50 1.093
483.60 1.09
483.70 1.088
483.80 1.086
483.90 1.084
484.00 1.082
484.10 1.079
484.20 1.077
484.30 1.075
484.40 1.073
484.50 1.07
484.60 1.068
484.70 1.066
484.80 1.063
484.90 1.061
485.00 1.059
485.10 1.057
485.20 1.055
485.30 1.053
485.40 1.051
485.50 1.049
485.60 1.049
485.70 1.048
485.80 1.05
485.90 1.052
486.00 1.056
486.10 1.059
486.20 1.058
486.30 1.051
486.40 1.047
486.50 1.043
486.60 1.041
486.70 1.04
486.80 1.039
486.90 1.039
487.00 1.039
487.10 1.04
487.20 1.04
487.30 1.041
487.40 1.041
487.50 1.042
487.60 1.042
487.70 1.043
487.80 1.044
487.90 1.044
488.00 1.045
488.10 1.046
488.20 1.046
488.30 1.047
488.40 1.047
488.50 1.048
488.60 1.048
488.70 1.049
488.80 1.049
488.90 1.05
489.00 1.05
489.10 1.05
489.20 1.051
489.30 1.051
489.40 1.051
489.50 1.051
489.60 1.051
489.70 1.052
489.80 1.052
489.90 1.052
490.00 1.052
490.10 1.052
490.20 1.052
490.30 1.052
490.40 1.052
490.50 1.052
490.60 1.052
490.70 1.052
490.80 1.052
490.90 1.052
491.00 1.052
491.10 1.052
491.20 1.052
491.30 1.051
491.40 1.051
491.50 1.051
491.60 1.051
491.70 1.05
491.80 1.05
491.90 1.05
492.00 1.049
492.10 1.049
492.20 1.049
492.30 1.048
492.40 1.048
492.50 1.048
492.60 1.047
492.70 1.047
492.80 1.046
492.90 1.046
493.00 1.045
493.10 1.045
493.20 1.045
493.30 1.044
493.40 1.043
493.50 1.043
493.60 1.042
493.70 1.042
493.80 1.041
493.90 1.041
494.00 1.04
494.10 1.04
494.20 1.039
494.30 1.039
494.40 1.038
494.50 1.037
494.60 1.037
494.70 1.036
494.80 1.036
494.90 1.035
495.00 1.034
495.10 1.034
495.20 1.033
495.30 1.033
495.40 1.032
495.50 1.031
495.60 1.031
495.70 1.03
495.80 1.029
495.90 1.029
496.00 1.028
496.10 1.027
496.20 1.027
496.30 1.026
496.40 1.025
496.50 1.025
496.60 1.024
496.70 1.023
496.80 1.023
496.90 1.022
497.00 1.021
497.10 1.021
497.20 1.02
497.30 1.019
497.40 1.019
497.50 1.018
497.60 1.017
497.70 1.016
497.80 1.016
497.90 1.015
498.00 1.014
498.10 1.014
498.20 1.013
498.30 1.012
498.40 1.012
498.50 1.011
498.60 1.01
498.70 1.009
498.80 1.009
498.90 1.008
499.00 1.007
499.10 1.007
499.20 1.006
499.30 1.005
499.40 1.004
499.50 1.004
499.60 1.003
499.70 1.002
499.80 1.001
499.90 1.001
500.00 1
500.10 0.9993
500.20 0.9985
500.30 0.9978
500.40 0.9971
500.50 0.9964
500.60 0.9956
500.70 0.9949
500.80 0.9942
500.90 0.9934
501.00 0.9927
501.10 0.992
501.20 0.9913
501.30 0.9905
501.40 0.9898
501.50 0.9891
501.60 0.9883
501.70 0.9876
501.80 0.9869
501.90 0.9861
502.00 0.9854
502.10 0.9847
502.20 0.984
502.30 0.9832
502.40 0.9825
502.50 0.9818
502.60 0.981
502.70 0.9803
502.80 0.9796
502.90 0.9788
503.00 0.9781
503.10 0.9774
503.20 0.9766
503.30 0.9759
503.40 0.9752
503.50 0.9745
503.60 0.9737
503.70 0.973
503.80 0.9723
503.90 0.9715
504.00 0.9708
504.10 0.9701
504.20 0.9694
504.30 0.9686
504.40 0.9679
504.50 0.9672
504.60 0.9665
504.70 0.9657
504.80 0.965
504.90 0.9643
505.00 0.9635
505.10 0.9628
505.20 0.9621
505.30 0.9614
505.40 0.9606
505.50 0.9599
505.60 0.9592
505.70 0.9585
505.80 0.9578
505.90 0.957
506.00 0.9563
506.10 0.9556
506.20 0.9549
506.30 0.9542
506.40 0.9534
506.50 0.9527
506.60 0.952
506.70 0.9513
506.80 0.9506
506.90 0.9499
507.00 0.9491
507.10 0.9484
507.20 0.9477
507.30 0.947
507.40 0.9463
507.50 0.9456
507.60 0.9448
507.70 0.9441
507.80 0.9434
507.90 0.9427
508.00 0.942
508.10 0.9413
508.20 0.9406
508.30 0.9399
508.40 0.9392
508.50 0.9384
508.60 0.9377
508.70 0.937
508.80 0.9363
508.90 0.9356
509.00 0.9349
509.10 0.9342
509.20 0.9335
509.30 0.9328
509.40 0.9321
509.50 0.9314
509.60 0.9307
509.70 0.93
509.80 0.9293
509.90 0.9286
510.00 0.9279
510.10 0.9272
510.20 0.9265
510.30 0.9258
510.40 0.9251
510.50 0.9244
510.60 0.9237
510.70 0.923
510.80 0.9223
510.90 0.9216
511.00 0.9209
511.10 0.9202
511.20 0.9195
511.30 0.9188
511.40 0.9181
511.50 0.9174
511.60 0.9167
511.70 0.916
511.80 0.9154
511.90 0.9147
512.00 0.914
512.10 0.9133
512.20 0.9126
512.30 0.9119
512.40 0.9112
512.50 0.9105
512.60 0.9098
512.70 0.9092
512.80 0.9085
512.90 0.9078
513.00 0.9071
513.10 0.9064
513.20 0.9057
513.30 0.9051
513.40 0.9044
513.50 0.9037
513.60 0.903
513.70 0.9023
513.80 0.9017
513.90 0.901
514.00 0.9003
514.10 0.8996
514.20 0.8989
514.30 0.8983
514.40 0.8976
514.50 0.8969
514.60 0.8962
514.70 0.8956
514.80 0.8949
514.90 0.8942
515.00 0.8936
515.10 0.8929
515.20 0.8922
515.30 0.8915
515.40 0.8909
515.50 0.8902
515.60 0.8895
515.70 0.8889
515.80 0.8882
515.90 0.8875
516.00 0.8869
516.10 0.8862
516.20 0.8855
516.30 0.8849
516.40 0.8842
516.50 0.8835
516.60 0.8829
516.70 0.8822
516.80 0.8816
516.90 0.8809
517.00 0.8802
517.10 0.8796
517.20 0.8789
517.30 0.8783
517.40 0.8776
517.50 0.8769
517.60 0.8763
517.70 0.8756
517.80 0.875
517.90 0.8743
518.00 0.8737
518.10 0.873
518.20 0.8724
518.30 0.8717
518.40 0.8711
518.50 0.8704
518.60 0.8698
518.70 0.8691
518.80 0.8685
518.90 0.8678
519.00 0.8672
519.10 0.8665
519.20 0.8659
519.30 0.8652
519.40 0.8646
519.50 0.8639
519.60 0.8633
519.70 0.8626
519.80 0.862
519.90 0.8613
520.00 0.8607
520.10 0.8601
520.20 0.8594
520.30 0.8588
520.40 0.8581
520.50 0.8575
520.60 0.8569
520.70 0.8562
520.80 0.8556
520.90 0.8549
521.00 0.8543
521.10 0.8537
521.20 0.853
521.30 0.8524
521.40 0.8518
521.50 0.8511
521.60 0.8505
521.70 0.8499
521.80 0.8492
521.90 0.8486
522.00 0.848
522.10 0.8473
522.20 0.8467
522.30 0.8461
522.40 0.8454
522.50 0.8448
522.60 0.8442
522.70 0.8436
522.80 0.8429
522.90 0.8423
523.00 0.8417
523.10 0.8411
523.20 0.8404
523.30 0.8398
523.40 0.8392
523.50 0.8386
523.60 0.8379
523.70 0.8373
523.80 0.8367
523.90 0.8361
524.00 0.8355
524.10 0.8348
524.20 0.8342
524.30 0.8336
524.40 0.833
524.50 0.8324
524.60 0.8317
524.70 0.8311
524.80 0.8305
524.90 0.8299
525.00 0.8293
525.10 0.8287
525.20 0.8281
525.30 0.8274
525.40 0.8268
525.50 0.8262
525.60 0.8256
525.70 0.825
525.80 0.8244
525.90 0.8238
526.00 0.8232
526.10 0.8226
526.20 0.822
526.30 0.8213
526.40 0.8207
526.50 0.8201
526.60 0.8195
526.70 0.8189
526.80 0.8183
526.90 0.8177
527.00 0.8171
527.10 0.8165
527.20 0.8159
527.30 0.8153
527.40 0.8147
527.50 0.8141
527.60 0.8135
527.70 0.8129
527.80 0.8123
527.90 0.8117
528.00 0.8111
528.10 0.8105
528.20 0.8099
528.30 0.8093
528.40 0.8087
528.50 0.8081
528.60 0.8075
528.70 0.8069
528.80 0.8063
528.90 0.8058
529.00 0.8052
529.10 0.8046
529.20 0.804
529.30 0.8034
529.40 0.8028
529.50 0.8022
529.60 0.8016
529.70 0.801
529.80 0.8004
529.90 0.7999
530.00 0.7993
530.10 0.7987
530.20 0.7981
530.30 0.7975
530.40 0.7969
530.50 0.7963
530.60 0.7958
530.70 0.7952
530.80 0.7946
530.90 0.794
531.00 0.7934
531.10 0.7928
531.20 0.7923
531.30 0.7917
531.40 0.7911
531.50 0.7905
531.60 0.7899
531.70 0.7894
531.80 0.7888
531.90 0.7882
532.00 0.7876
532.10 0.7871
532.20 0.7865
532.30 0.7859
532.40 0.7853
532.50 0.7848
532.60 0.7842
532.70 0.7836
532.80 0.783
532.90 0.7825
533.00 0.7819
533.10 0.7813
533.20 0.7808
533.30 0.7802
533.40 0.7796
533.50 0.7791
533.60 0.7785
533.70 0.7779
533.80 0.7774
533.90 0.7768
534.00 0.7762
534.10 0.7757
534.20 0.7751
534.30 0.7745
534.40 0.774
534.50 0.7734
534.60 0.7728
534.70 0.7723
534.80 0.7717
534.90 0.7711
535.00 0.7706
535.10 0.77
535.20 0.7695
535.30 0.7689
535.40 0.7683
535.50 0.7678
535.60 0.7672
535.70 0.7667
535.80 0.7661
535.90 0.7656
536.00 0.765
536.10 0.7644
536.20 0.7639
536.30 0.7633
536.40 0.7628
536.50 0.7622
536.60 0.7617
536.70 0.7611
536.80 0.7606
536.90 0.76
537.00 0.7595
537.10 0.7589
537.20 0.7584
537.30 0.7578
537.40 0.7573
537.50 0.7567
537.60 0.7562
537.70 0.7556
537.80 0.7551
537.90 0.7545
538.00 0.754
538.10 0.7534
538.20 0.7529
538.30 0.7524
538.40 0.7518
538.50 0.7513
538.60 0.7507
538.70 0.7502
538.80 0.7496
538.90 0.7491
539.00 0.7486
539.10 0.748
539.20 0.7475
539.30 0.7469
539.40 0.7464
539.50 0.7459
539.60 0.7453
539.70 0.7448
539.80 0.7442
539.90 0.7437
540.00 0.7432
540.10 0.7426
540.20 0.7421
540.30 0.7416
540.40 0.741
540.50 0.7405
540.60 0.74
540.70 0.7394
540.80 0.7389
540.90 0.7384
541.00 0.7378
541.10 0.7373
541.20 0.7368
541.30 0.7362
541.40 0.7357
541.50 0.7352
541.60 0.7347
541.70 0.7341
541.80 0.7336
541.90 0.7331
542.00 0.7325
542.10 0.732
542.20 0.7315
542.30 0.731
542.40 0.7304
542.50 0.7299
542.60 0.7294
542.70 0.7289
542.80 0.7284
542.90 0.7278
543.00 0.7273
543.10 0.7268
543.20 0.7263
543.30 0.7257
543.40 0.7252
543.50 0.7247
543.60 0.7242
543.70 0.7237
543.80 0.7231
543.90 0.7226
544.00 0.7221
544.10 0.7216
544.20 0.7211
544.30 0.7206
544.40 0.72
544.50 0.7195
544.60 0.719
544.70 0.7185
544.80 0.718
544.90 0.7175
545.00 0.717
545.10 0.7164
545.20 0.7159
545.30 0.7154
545.40 0.7149
545.50 0.7144
545.60 0.7139
545.70 0.7134
545.80 0.7129
545.90 0.7124
546.00 0.7119
546.10 0.7114
546.20 0.7108
546.30 0.7103
546.40 0.7098
546.50 0.7093
546.60 0.7088
546.70 0.7083
546.80 0.7078
546.90 0.7073
547.00 0.7068
547.10 0.7063
547.20 0.7058
547.30 0.7053
547.40 0.7048
547.50 0.7043
547.60 0.7038
547.70 0.7033
547.80 0.7028
547.90 0.7023
548.00 0.7018
548.10 0.7013
548.20 0.7008
548.30 0.7003
548.40 0.6998
548.50 0.6993
548.60 0.6988
548.70 0.6983
548.80 0.6978
548.90 0.6973
549.00 0.6968
549.10 0.6963
549.20 0.6958
549.30 0.6953
549.40 0.6948
549.50 0.6944
549.60 0.6939
549.70 0.6934
549.80 0.6929
549.90 0.6924
550.00 0.6919
550.10 0.6914
550.20 0.6909
550.30 0.6904
550.40 0.6899
550.50 0.6895
550.60 0.689
550.70 0.6885
550.80 0.688
550.90 0.6875
551.00 0.687
551.10 0.6865
551.20 0.6861
551.30 0.6856
551.40 0.6851
551.50 0.6846
551.60 0.6841
551.70 0.6836
551.80 0.6832
551.90 0.6827
552.00 0.6822
552.10 0.6817
552.20 0.6812
552.30 0.6807
552.40 0.6803
552.50 0.6798
552.60 0.6793
552.70 0.6788
552.80 0.6783
552.90 0.6779
553.00 0.6774
553.10 0.6769
553.20 0.6764
553.30 0.676
553.40 0.6755
553.50 0.675
553.60 0.6745
553.70 0.6741
553.80 0.6736
553.90 0.6731
554.00 0.6726
554.10 0.6722
554.20 0.6717
554.30 0.6712
554.40 0.6707
554.50 0.6703
554.60 0.6698
554.70 0.6693
554.80 0.6689
554.90 0.6684
555.00 0.6679
555.10 0.6675
555.20 0.667
555.30 0.6665
555.40 0.666
555.50 0.6656
555.60 0.6651
555.70 0.6646
555.80 0.6642
555.90 0.6637
556.00 0.6632
556.10 0.6628
556.20 0.6623
556.30 0.6619
556.40 0.6614
556.50 0.6609
556.60 0.6605
556.70 0.66
556.80 0.6595
556.90 0.6591
557.00 0.6586
557.10 0.6582
557.20 0.6577
557.30 0.6572
557.40 0.6568
557.50 0.6563
557.60 0.6559
557.70 0.6554
557.80 0.655
557.90 0.6545
558.00 0.654
558.10 0.6536
558.20 0.6531
558.30 0.6527
558.40 0.6522
558.50 0.6518
558.60 0.6513
558.70 0.6508
558.80 0.6504
558.90 0.6499
559.00 0.6495
559.10 0.649
559.20 0.6486
559.30 0.6481
559.40 0.6477
559.50 0.6472
559.60 0.6468
559.70 0.6463
559.80 0.6459
559.90 0.6454
560.00 0.645
560.10 0.6445
560.20 0.6441
560.30 0.6436
560.40 0.6432
560.50 0.6427
560.60 0.6423
560.70 0.6418
560.80 0.6414
560.90 0.641
561.00 0.6405
561.10 0.6401
561.20 0.6396
561.30 0.6392
561.40 0.6387
561.50 0.6383
561.60 0.6378
561.70 0.6374
561.80 0.637
561.90 0.6365
562.00 0.6361
562.10 0.6356
562.20 0.6352
562.30 0.6348
562.40 0.6343
562.50 0.6339
562.60 0.6334
562.70 0.633
562.80 0.6326
562.90 0.6321
563.00 0.6317
563.10 0.6312
563.20 0.6308
563.30 0.6304
563.40 0.6299
563.50 0.6295
563.60 0.6291
563.70 0.6286
563.80 0.6282
563.90 0.6278
564.00 0.6273
564.10 0.6269
564.20 0.6265
564.30 0.626
564.40 0.6256
564.50 0.6252
564.60 0.6247
564.70 0.6243
564.80 0.6239
564.90 0.6234
565.00 0.623
565.10 0.6226
565.20 0.6221
565.30 0.6217
565.40 0.6213
565.50 0.6209
565.60 0.6204
565.70 0.62
565.80 0.6196
565.90 0.6191
566.00 0.6187
566.10 0.6183
566.20 0.6179
566.30 0.6174
566.40 0.617
566.50 0.6166
566.60 0.6162
566.70 0.6157
566.80 0.6153
566.90 0.6149
567.00 0.6145
567.10 0.6141
567.20 0.6136
567.30 0.6132
567.40 0.6128
567.50 0.6124
567.60 0.612
567.70 0.6115
567.80 0.6111
567.90 0.6107
568.00 0.6103
568.10 0.6099
568.20 0.6094
568.30 0.609
568.40 0.6086
568.50 0.6082
568.60 0.6078
568.70 0.6073
568.80 0.6069
568.90 0.6065
569.00 0.6061
569.10 0.6057
569.20 0.6053
569.30 0.6049
569.40 0.6044
569.50 0.604
569.60 0.6036
569.70 0.6032
569.80 0.6028
569.90 0.6024
570.00 0.602
570.10 0.6016
570.20 0.6011
570.30 0.6007
570.40 0.6003
570.50 0.5999
570.60 0.5995
570.70 0.5991
570.80 0.5987
570.90 0.5983
571.00 0.5979
571.10 0.5975
571.20 0.5971
571.30 0.5966
571.40 0.5962
571.50 0.5958
571.60 0.5954
571.70 0.595
571.80 0.5946
571.90 0.5942
572.00 0.5938
572.10 0.5934
572.20 0.593
572.30 0.5926
572.40 0.5922
572.50 0.5918
572.60 0.5914
572.70 0.591
572.80 0.5906
572.90 0.5902
573.00 0.5898
573.10 0.5894
573.20 0.589
573.30 0.5886
573.40 0.5882
573.50 0.5878
573.60 0.5874
573.70 0.587
573.80 0.5866
573.90 0.5862
574.00 0.5858
574.10 0.5854
574.20 0.585
574.30 0.5846
574.40 0.5842
574.50 0.5838
574.60 0.5834
574.70 0.583
574.80 0.5826
574.90 0.5822
575.00 0.5818
575.10 0.5814
575.20 0.581
575.30 0.5806
575.40 0.5802
575.50 0.5798
575.60 0.5794
575.70 0.5791
575.80 0.5787
575.90 0.5783
576.00 0.5779
576.10 0.5775
576.20 0.5771
576.30 0.5767
576.40 0.5763
576.50 0.5759
576.60 0.5755
576.70 0.5751
576.80 0.5748
576.90 0.5744
577.00 0.574
577.10 0.5736
577.20 0.5732
577.30 0.5728
577.40 0.5724
577.50 0.572
577.60 0.5717
577.70 0.5713
577.80 0.5709
577.90 0.5705
578.00 0.5701
578.10 0.5697
578.20 0.5693
578.30 0.569
578.40 0.5686
578.50 0.5682
578.60 0.5678
578.70 0.5674
578.80 0.567
578.90 0.5667
579.00 0.5663
579.10 0.5659
579.20 0.5655
579.30 0.5651
579.40 0.5648
579.50 0.5644
579.60 0.564
579.70 0.5636
579.80 0.5632
579.90 0.5629
580.00 0.5625
580.10 0.5621
580.20 0.5617
580.30 0.5613
580.40 0.561
580.50 0.5606
580.60 0.5602
580.70 0.5598
580.80 0.5595
580.90 0.5591
581.00 0.5587
581.10 0.5583
581.20 0.558
581.30 0.5576
581.40 0.5572
581.50 0.5568
581.60 0.5565
581.70 0.5561
581.80 0.5557
581.90 0.5554
582.00 0.555
582.10 0.5546
582.20 0.5542
582.30 0.5539
582.40 0.5535
582.50 0.5531
582.60 0.5528
582.70 0.5524
582.80 0.552
582.90 0.5516
583.00 0.5513
583.10 0.5509
583.20 0.5505
583.30 0.5502
583.40 0.5498
583.50 0.5494
583.60 0.5491
583.70 0.5487
583.80 0.5483
583.90 0.548
584.00 0.5476
584.10 0.5472
584.20 0.5469
584.30 0.5465
584.40 0.5461
584.50 0.5458
584.60 0.5454
584.70 0.545
584.80 0.5447
584.90 0.5443
585.00 0.544
585.10 0.5436
585.20 0.5432
585.30 0.5429
585.40 0.5425
585.50 0.5421
585.60 0.5418
585.70 0.5414
585.80 0.5411
585.90 0.5407
586.00 0.5403
586.10 0.54
586.20 0.5396
586.30 0.5393
586.40 0.5389
586.50 0.5385
586.60 0.5382
586.70 0.5378
586.80 0.5375
586.90 0.5371
587.00 0.5368
587.10 0.5364
587.20 0.536
587.30 0.5357
587.40 0.5353
587.50 0.535
587.60 0.5346
587.70 0.5343
587.80 0.5339
587.90 0.5336
588.00 0.5332
588.10 0.5328
588.20 0.5325
588.30 0.5321
588.40 0.5318
588.50 0.5314
588.60 0.5311
588.70 0.5307
588.80 0.5304
588.90 0.53
589.00 0.5297
589.10 0.5293
589.20 0.529
589.30 0.5286
589.40 0.5283
589.50 0.5279
589.60 0.5276
589.70 0.5272
589.80 0.5269
589.90 0.5265
590.00 0.5262
590.10 0.5258
590.20 0.5255
590.30 0.5251
590.40 0.5248
590.50 0.5244
590.60 0.5241
590.70 0.5238
590.80 0.5234
590.90 0.5231
591.00 0.5227
591.10 0.5224
591.20 0.522
591.30 0.5217
591.40 0.5213
591.50 0.521
591.60 0.5207
591.70 0.5203
591.80 0.52
591.90 0.5196
592.00 0.5193
592.10 0.5189
592.20 0.5186
592.30 0.5183
592.40 0.5179
592.50 0.5176
592.60 0.5172
592.70 0.5169
592.80 0.5165
592.90 0.5162
593.00 0.5159
593.10 0.5155
593.20 0.5152
593.30 0.5148
593.40 0.5145
593.50 0.5142
593.60 0.5138
593.70 0.5135
593.80 0.5132
593.90 0.5128
594.00 0.5125
594.10 0.5121
594.20 0.5118
594.30 0.5115
594.40 0.5111
594.50 0.5108
594.60 0.5105
594.70 0.5101
594.80 0.5098
594.90 0.5095
595.00 0.5091
595.10 0.5088
595.20 0.5085
595.30 0.5081
595.40 0.5078
595.50 0.5075
595.60 0.5071
595.70 0.5068
595.80 0.5065
595.90 0.5061
596.00 0.5058
596.10 0.5055
596.20 0.5051
596.30 0.5048
596.40 0.5045
596.50 0.5042
596.60 0.5038
596.70 0.5035
596.80 0.5032
596.90 0.5028
597.00 0.5025
597.10 0.5022
597.20 0.5018
597.30 0.5015
597.40 0.5012
597.50 0.5009
597.60 0.5005
597.70 0.5002
597.80 0.4999
597.90 0.4996
598.00 0.4992
598.10 0.4989
598.20 0.4986
598.30 0.4983
598.40 0.4979
598.50 0.4976
598.60 0.4973
598.70 0.497
598.80 0.4966
598.90 0.4963
599.00 0.496
599.10 0.4957
599.20 0.4953
599.30 0.495
599.40 0.4947
599.50 0.4944
599.60 0.4941
599.70 0.4937
599.80 0.4934
599.90 0.4931
600.00 0.4928
600.10 0.4924
600.20 0.4921
600.30 0.4918
600.40 0.4915
600.50 0.4912
600.60 0.4908
600.70 0.4905
600.80 0.4902
600.90 0.4899
601.00 0.4896
601.10 0.4893
601.20 0.4889
601.30 0.4886
601.40 0.4883
601.50 0.488
601.60 0.4877
601.70 0.4874
601.80 0.487
601.90 0.4867
602.00 0.4864
602.10 0.4861
602.20 0.4858
602.30 0.4855
602.40 0.4851
602.50 0.4848
602.60 0.4845
602.70 0.4842
602.80 0.4839
602.90 0.4836
603.00 0.4833
603.10 0.4829
603.20 0.4826
603.30 0.4823
603.40 0.482
603.50 0.4817
603.60 0.4814
603.70 0.4811
603.80 0.4808
603.90 0.4805
604.00 0.4801
604.10 0.4798
604.20 0.4795
604.30 0.4792
604.40 0.4789
604.50 0.4786
604.60 0.4783
604.70 0.478
604.80 0.4777
604.90 0.4774
605.00 0.477
605.10 0.4767
605.20 0.4764
605.30 0.4761
605.40 0.4758
605.50 0.4755
605.60 0.4752
605.70 0.4749
605.80 0.4746
605.90 0.4743
606.00 0.474
606.10 0.4737
606.20 0.4734
606.30 0.4731
606.40 0.4728
606.50 0.4725
606.60 0.4722
606.70 0.4718
606.80 0.4715
606.90 0.4712
607.00 0.4709
607.10 0.4706
607.20 0.4703
607.30 0.47
607.40 0.4697
607.50 0.4694
607.60 0.4691
607.70 0.4688
607.80 0.4685
607.90 0.4682
608.00 0.4679
608.10 0.4676
608.20 0.4673
608.30 0.467
608.40 0.4667
608.50 0.4664
608.60 0.4661
608.70 0.4658
608.80 0.4655
608.90 0.4652
609.00 0.4649
609.10 0.4646
609.20 0.4643
609.30 0.464
609.40 0.4637
609.50 0.4634
609.60 0.4631
609.70 0.4628
609.80 0.4625
609.90 0.4622
610.00 0.462
610.10 0.4617
610.20 0.4614
610.30 0.4611
610.40 0.4608
610.50 0.4605
610.60 0.4602
610.70 0.4599
610.80 0.4596
610.90 0.4593
611.00 0.459
611.10 0.4587
611.20 0.4584
611.30 0.4581
611.40 0.4578
611.50 0.4575
611.60 0.4572
611.70 0.457
611.80 0.4567
611.90 0.4564
612.00 0.4561
612.10 0.4558
612.20 0.4555
612.30 0.4552
612.40 0.4549
612.50 0.4546
612.60 0.4543
612.70 0.454
612.80 0.4538
612.90 0.4535
613.00 0.4532
613.10 0.4529
613.20 0.4526
613.30 0.4523
613.40 0.452
613.50 0.4517
613.60 0.4514
613.70 0.4512
613.80 0.4509
613.90 0.4506
614.00 0.4503
614.10 0.45
614.20 0.4497
614.30 0.4494
614.40 0.4492
614.50 0.4489
614.60 0.4486
614.70 0.4483
614.80 0.448
614.90 0.4477
615.00 0.4474
615.10 0.4472
615.20 0.4469
615.30 0.4466
615.40 0.4463
615.50 0.446
615.60 0.4457
615.70 0.4455
615.80 0.4452
615.90 0.4449
616.00 0.4446
616.10 0.4443
616.20 0.444
616.30 0.4438
616.40 0.4435
616.50 0.4432
616.60 0.4429
616.70 0.4426
616.80 0.4424
616.90 0.4421
617.00 0.4418
617.10 0.4415
617.20 0.4412
617.30 0.441
617.40 0.4407
617.50 0.4404
617.60 0.4401
617.70 0.4398
617.80 0.4396
617.90 0.4393
618.00 0.439
618.10 0.4387
618.20 0.4384
618.30 0.4382
618.40 0.4379
618.50 0.4376
618.60 0.4373
618.70 0.4371
618.80 0.4368
618.90 0.4365
619.00 0.4362
619.10 0.436
619.20 0.4357
619.30 0.4354
619.40 0.4351
619.50 0.4349
619.60 0.4346
619.70 0.4343
619.80 0.434
619.90 0.4338
620.00 0.4335
620.10 0.4332
620.20 0.4329
620.30 0.4327
620.40 0.4324
620.50 0.4321
620.60 0.4318
620.70 0.4316
620.80 0.4313
620.90 0.431
621.00 0.4308
621.10 0.4305
621.20 0.4302
621.30 0.4299
621.40 0.4297
621.50 0.4294
621.60 0.4291
621.70 0.4289
621.80 0.4286
621.90 0.4283
622.00 0.428
622.10 0.4278
622.20 0.4275
622.30 0.4272
622.40 0.427
622.50 0.4267
622.60 0.4264
622.70 0.4262
622.80 0.4259
622.90 0.4256
623.00 0.4254
623.10 0.4251
623.20 0.4248
623.30 0.4246
623.40 0.4243
623.50 0.424
623.60 0.4238
623.70 0.4235
623.80 0.4232
623.90 0.423
624.00 0.4227
624.10 0.4224
624.20 0.4222
624.30 0.4219
624.40 0.4216
624.50 0.4214
624.60 0.4211
624.70 0.4208
624.80 0.4206
624.90 0.4203
625.00 0.4201
625.10 0.4198
625.20 0.4195
625.30 0.4193
625.40 0.419
625.50 0.4187
625.60 0.4185
625.70 0.4182
625.80 0.4179
625.90 0.4177
626.00 0.4174
626.10 0.4172
626.20 0.4169
626.30 0.4166
626.40 0.4164
626.50 0.4161
626.60 0.4159
626.70 0.4156
626.80 0.4153
626.90 0.4151
627.00 0.4148
627.10 0.4146
627.20 0.4143
627.30 0.414
627.40 0.4138
627.50 0.4135
627.60 0.4133
627.70 0.413
627.80 0.4127
627.90 0.4125
628.00 0.4122
628.10 0.412
628.20 0.4117
628.30 0.4115
628.40 0.4112
628.50 0.4109
628.60 0.4107
628.70 0.4104
628.80 0.4102
628.90 0.4099
629.00 0.4097
629.10 0.4094
629.20 0.4091
629.30 0.4089
629.40 0.4086
629.50 0.4084
629.60 0.4081
629.70 0.4079
629.80 0.4076
629.90 0.4074
630.00 0.4071
630.10 0.4068
630.20 0.4066
630.30 0.4063
630.40 0.4061
630.50 0.4058
630.60 0.4056
630.70 0.4053
630.80 0.4051
630.90 0.4048
631.00 0.4046
631.10 0.4043
631.20 0.4041
631.30 0.4038
631.40 0.4036
631.50 0.4033
631.60 0.4031
631.70 0.4028
631.80 0.4026
631.90 0.4023
632.00 0.402
632.10 0.4018
632.20 0.4015
632.30 0.4013
632.40 0.401
632.50 0.4008
632.60 0.4005
632.70 0.4003
632.80 0.4
632.90 0.3998
633.00 0.3995
633.10 0.3993
633.20 0.399
633.30 0.3988
633.40 0.3985
633.50 0.3983
633.60 0.398
633.70 0.3978
633.80 0.3976
633.90 0.3973
634.00 0.3971
634.10 0.3968
634.20 0.3966
634.30 0.3963
634.40 0.3961
634.50 0.3958
634.60 0.3956
634.70 0.3953
634.80 0.3951
634.90 0.3948
635.00 0.3946
635.10 0.3943
635.20 0.3941
635.30 0.3938
635.40 0.3936
635.50 0.3934
635.60 0.3931
635.70 0.3929
635.80 0.3926
635.90 0.3924
636.00 0.3921
636.10 0.3919
636.20 0.3916
636.30 0.3914
636.40 0.3911
636.50 0.3909
636.60 0.3907
636.70 0.3904
636.80 0.3902
636.90 0.3899
637.00 0.3897
637.10 0.3894
637.20 0.3892
637.30 0.3889
637.40 0.3887
637.50 0.3885
637.60 0.3882
637.70 0.388
637.80 0.3877
637.90 0.3875
638.00 0.3872
638.10 0.387
638.20 0.3868
638.30 0.3865
638.40 0.3863
638.50 0.386
638.60 0.3858
638.70 0.3855
638.80 0.3853
638.90 0.3851
639.00 0.3848
639.10 0.3846
639.20 0.3843
639.30 0.3841
639.40 0.3838
639.50 0.3836
639.60 0.3834
639.70 0.3831
639.80 0.3829
639.90 0.3826
640.00 0.3824
640.10 0.3821
640.20 0.3819
640.30 0.3817
640.40 0.3814
640.50 0.3812
640.60 0.3809
640.70 0.3807
640.80 0.3804
640.90 0.3802
641.00 0.38
641.10 0.3797
641.20 0.3795
641.30 0.3792
641.40 0.379
641.50 0.3788
641.60 0.3785
641.70 0.3783
641.80 0.378
641.90 0.3778
642.00 0.3775
642.10 0.3773
642.20 0.3771
642.30 0.3768
642.40 0.3766
642.50 0.3763
642.60 0.3761
642.70 0.3758
642.80 0.3756
642.90 0.3753
643.00 0.3751
643.10 0.3749
643.20 0.3746
643.30 0.3744
643.40 0.3741
643.50 0.3739
643.60 0.3736
643.70 0.3734
643.80 0.3731
643.90 0.3729
644.00 0.3727
644.10 0.3724
644.20 0.3722
644.30 0.3719
644.40 0.3717
644.50 0.3714
644.60 0.3712
644.70 0.3709
644.80 0.3707
644.90 0.3704
645.00 0.3702
645.10 0.3699
645.20 0.3697
645.30 0.3694
645.40 0.3692
645.50 0.3689
645.60 0.3687
645.70 0.3684
645.80 0.3682
645.90 0.3679
646.00 0.3676
646.10 0.3674
646.20 0.3671
646.30 0.3669
646.40 0.3666
646.50 0.3664
646.60 0.3661
646.70 0.3658
646.80 0.3656
646.90 0.3653
647.00 0.3651
647.10 0.3648
647.20 0.3645
647.30 0.3643
647.40 0.364
647.50 0.3637
647.60 0.3635
647.70 0.3632
647.80 0.3629
647.90 0.3626
648.00 0.3624
648.10 0.3621
648.20 0.3618
648.30 0.3615
648.40 0.3613
648.50 0.361
648.60 0.3607
648.70 0.3604
648.80 0.3601
648.90 0.3598
649.00 0.3595
649.10 0.3592
649.20 0.3589
649.30 0.3586
649.40 0.3583
649.50 0.358
649.60 0.3577
649.70 0.3574
649.80 0.3571
649.90 0.3568
650.00 0.3565
650.10 0.3561
650.20 0.3558
650.30 0.3555
650.40 0.3552
650.50 0.3548
650.60 0.3545
650.70 0.3541
650.80 0.3538
650.90 0.3534
651.00 0.3531
651.10 0.3527
651.20 0.3524
651.30 0.352
651.40 0.3516
651.50 0.3512
651.60 0.3508
651.70 0.3505
651.80 0.3501
651.90 0.3497
652.00 0.3493
652.10 0.3489
652.20 0.3485
652.30 0.3481
652.40 0.3476
652.50 0.3472
652.60 0.3467
652.70 0.3462
652.80 0.3458
652.90 0.3453
653.00 0.3449
653.10 0.3444
653.20 0.344
653.30 0.3435
653.40 0.343
653.50 0.3425
653.60 0.3419
653.70 0.3414
653.80 0.3409
653.90 0.3404
654.00 0.3399
654.10 0.3393
654.20 0.3388
654.30 0.3383
654.40 0.3377
654.50 0.3372
654.60 0.3367
654.70 0.3361
654.80 0.3356
654.90 0.3351
655.00 0.3345
655.10 0.334
655.20 0.3335
655.30 0.333
655.40 0.3326
655.50 0.3323
655.60 0.3321
655.70 0.3319
655.80 0.3322
655.90 0.3327
656.00 0.3347
656.10 0.3371
656.20 0.3465
656.30 0.3542
656.40 0.3414
656.50 0.3351
656.60 0.3327
656.70 0.3307
656.80 0.3301
656.90 0.3295
657.00 0.3294
657.10 0.3292
657.20 0.3292
657.30 0.3293
657.40 0.3294
657.50 0.3295
657.60 0.3296
657.70 0.3297
657.80 0.3299
657.90 0.33
658.00 0.3302
658.10 0.3303
658.20 0.3305
658.30 0.3306
658.40 0.3307
658.50 0.3309
658.60 0.331
658.70 0.3311
658.80 0.3312
658.90 0.3313
659.00 0.3314
659.10 0.3316
659.20 0.3317
659.30 0.3318
659.40 0.3318
659.50 0.3319
659.60 0.3319
659.70 0.332
659.80 0.332
659.90 0.3321
660.00 0.3321
660.10 0.3321
660.20 0.3322
660.30 0.3322
660.40 0.3322
660.50 0.3322
660.60 0.3322
660.70 0.3321
660.80 0.3321
660.90 0.3321
661.00 0.3321
661.10 0.3321
661.20 0.332
661.30 0.332
661.40 0.3319
661.50 0.3319
661.60 0.3318
661.70 0.3317
661.80 0.3317
661.90 0.3316
662.00 0.3315
662.10 0.3315
662.20 0.3314
662.30 0.3313
662.40 0.3312
662.50 0.3311
662.60 0.331
662.70 0.3309
662.80 0.3308
662.90 0.3307
663.00 0.3306
663.10 0.3305
663.20 0.3304
663.30 0.3303
663.40 0.3301
663.50 0.33
663.60 0.3299
663.70 0.3297
663.80 0.3296
663.90 0.3295
664.00 0.3293
664.10 0.3292
664.20 0.3291
664.30 0.329
664.40 0.3288
664.50 0.3287
664.60 0.3285
664.70 0.3284
664.80 0.3282
664.90 0.3281
665.00 0.3279
665.10 0.3278
665.20 0.3276
665.30 0.3275
665.40 0.3273
665.50 0.3272
665.60 0.327
665.70 0.3269
665.80 0.3267
665.90 0.3265
666.00 0.3264
666.10 0.3262
666.20 0.3261
666.30 0.3259
666.40 0.3257
666.50 0.3256
666.60 0.3254
666.70 0.3253
666.80 0.3251
666.90 0.3249
667.00 0.3248
667.10 0.3246
667.20 0.3244
667.30 0.3243
667.40 0.3241
667.50 0.3239
667.60 0.3238
667.70 0.3236
667.80 0.3234
667.90 0.3232
668.00 0.3231
668.10 0.3229
668.20 0.3227
668.30 0.3226
668.40 0.3224
668.50 0.3222
668.60 0.322
668.70 0.3219
668.80 0.3217
668.90 0.3215
669.00 0.3214
669.10 0.3212
669.20 0.321
669.30 0.3208
669.40 0.3207
669.50 0.3205
669.60 0.3203
669.70 0.3201
669.80 0.32
669.90 0.3198
670.00 0.3196
670.10 0.3194
670.20 0.3193
670.30 0.3191
670.40 0.3189
670.50 0.3187
670.60 0.3186
670.70 0.3184
670.80 0.3182
670.90 0.318
671.00 0.3179
671.10 0.3177
671.20 0.3175
671.30 0.3173
671.40 0.3172
671.50 0.317
671.60 0.3168
671.70 0.3166
671.80 0.3164
671.90 0.3163
672.00 0.3161
672.10 0.3159
672.20 0.3157
672.30 0.3156
672.40 0.3154
672.50 0.3152
672.60 0.315
672.70 0.3149
672.80 0.3147
672.90 0.3145
673.00 0.3143
673.10 0.3141
673.20 0.314
673.30 0.3138
673.40 0.3136
673.50 0.3134
673.60 0.3133
673.70 0.3131
673.80 0.3129
673.90 0.3127
674.00 0.3126
674.10 0.3124
674.20 0.3122
674.30 0.312
674.40 0.3119
674.50 0.3117
674.60 0.3115
674.70 0.3113
674.80 0.3112
674.90 0.311
675.00 0.3108
675.10 0.3106
675.20 0.3104
675.30 0.3103
675.40 0.3101
675.50 0.3099
675.60 0.3097
675.70 0.3096
675.80 0.3094
675.90 0.3092
676.00 0.309
676.10 0.3089
676.20 0.3087
676.30 0.3085
676.40 0.3083
676.50 0.3082
676.60 0.308
676.70 0.3078
676.80 0.3076
676.90 0.3075
677.00 0.3073
677.10 0.3071
677.20 0.3069
677.30 0.3068
677.40 0.3066
677.50 0.3064
677.60 0.3062
677.70 0.3061
677.80 0.3059
677.90 0.3057
678.00 0.3055
678.10 0.3054
678.20 0.3052
678.30 0.305
678.40 0.3049
678.50 0.3047
678.60 0.3045
678.70 0.3043
678.80 0.3042
678.90 0.304
679.00 0.3038
679.10 0.3036
679.20 0.3035
679.30 0.3033
679.40 0.3031
679.50 0.303
679.60 0.3028
679.70 0.3026
679.80 0.3024
679.90 0.3023
680.00 0.3021
680.10 0.3019
680.20 0.3017
680.30 0.3016
680.40 0.3014
680.50 0.3012
680.60 0.3011
680.70 0.3009
680.80 0.3007
680.90 0.3005
681.00 0.3004
681.10 0.3002
681.20 0.3
681.30 0.2999
681.40 0.2997
681.50 0.2995
681.60 0.2994
681.70 0.2992
681.80 0.299
681.90 0.2988
682.00 0.2987
682.10 0.2985
682.20 0.2983
682.30 0.2982
682.40 0.298
682.50 0.2978
682.60 0.2977
682.70 0.2975
682.80 0.2973
682.90 0.2971
683.00 0.297
683.10 0.2968
683.20 0.2966
683.30 0.2965
683.40 0.2963
683.50 0.2961
683.60 0.296
683.70 0.2958
683.80 0.2956
683.90 0.2955
684.00 0.2953
684.10 0.2951
684.20 0.295
684.30 0.2948
684.40 0.2946
684.50 0.2945
684.60 0.2943
684.70 0.2941
684.80 0.294
684.90 0.2938
685.00 0.2936
685.10 0.2935
685.20 0.2933
685.30 0.2931
685.40 0.293
685.50 0.2928
685.60 0.2926
685.70 0.2925
685.80 0.2923
685.90 0.2921
686.00 0.292
686.10 0.2918
686.20 0.2916
686.30 0.2915
686.40 0.2913
686.50 0.2911
686.60 0.291
686.70 0.2908
686.80 0.2906
686.90 0.2905
687.00 0.2903
687.10 0.2901
687.20 0.29
687.30 0.2898
687.40 0.2897
687.50 0.2895
687.60 0.2893
687.70 0.2892
687.80 0.289
687.90 0.2888
688.00 0.2887
688.10 0.2885
688.20 0.2883
688.30 0.2882
688.40 0.288
688.50 0.2879
688.60 0.2877
688.70 0.2875
688.80 0.2874
688.90 0.2872
689.00 0.287
689.10 0.2869
689.20 0.2867
689.30 0.2866
689.40 0.2864
689.50 0.2862
689.60 0.2861
689.70 0.2859
689.80 0.2858
689.90 0.2856
690.00 0.2854
690.10 0.2853
690.20 0.2851
690.30 0.2849
690.40 0.2848
690.50 0.2846
690.60 0.2845
690.70 0.2843
690.80 0.2841
690.90 0.284
691.00 0.2838
691.10 0.2837
691.20 0.2835
691.30 0.2833
691.40 0.2832
691.50 0.283
691.60 0.2829
691.70 0.2827
691.80 0.2826
691.90 0.2824
692.00 0.2822
692.10 0.2821
692.20 0.2819
692.30 0.2818
692.40 0.2816
692.50 0.2814
692.60 0.2813
692.70 0.2811
692.80 0.281
692.90 0.2808
693.00 0.2806
693.10 0.2805
693.20 0.2803
693.30 0.2802
693.40 0.28
693.50 0.2799
693.60 0.2797
693.70 0.2795
693.80 0.2794
693.90 0.2792
694.00 0.2791
694.10 0.2789
694.20 0.2788
694.30 0.2786
694.40 0.2784
694.50 0.2783
694.60 0.2781
694.70 0.278
694.80 0.2778
694.90 0.2777
695.00 0.2775
695.10 0.2773
695.20 0.2772
695.30 0.277
695.40 0.2769
695.50 0.2767
695.60 0.2766
695.70 0.2764
695.80 0.2763
695.90 0.2761
696.00 0.276
696.10 0.2758
696.20 0.2756
696.30 0.2755
696.40 0.2753
696.50 0.2752
696.60 0.275
696.70 0.2749
696.80 0.2747
696.90 0.2746
697.00 0.2744
697.10 0.2743
697.20 0.2741
697.30 0.274
697.40 0.2738
697.50 0.2736
697.60 0.2735
697.70 0.2733
697.80 0.2732
697.90 0.273
698.00 0.2729
698.10 0.2727
698.20 0.2726
698.30 0.2724
698.40 0.2723
698.50 0.2721
698.60 0.272
698.70 0.2718
698.80 0.2717
698.90 0.2715
699.00 0.2714
699.10 0.2712
699.20 0.2711
699.30 0.2709
699.40 0.2707
699.50 0.2706
699.60 0.2704
699.70 0.2703
699.80 0.2701
699.90 0.27
700.00 0.2698
700.10 0.2697
700.20 0.2695
700.30 0.2694
700.40 0.2692
700.50 0.2691
700.60 0.2689
700.70 0.2688
700.80 0.2686
700.90 0.2685
701.00 0.2683
701.10 0.2682
701.20 0.268
701.30 0.2679
701.40 0.2677
701.50 0.2676
701.60 0.2674
701.70 0.2673
701.80 0.2672
701.90 0.267
702.00 0.2669
702.10 0.2667
702.20 0.2666
702.30 0.2664
702.40 0.2663
702.50 0.2661
702.60 0.266
702.70 0.2658
702.80 0.2657
702.90 0.2655
703.00 0.2654
703.10 0.2652
703.20 0.2651
703.30 0.2649
703.40 0.2648
703.50 0.2646
703.60 0.2645
703.70 0.2643
703.80 0.2642
703.90 0.264
704.00 0.2639
704.10 0.2638
704.20 0.2636
704.30 0.2635
704.40 0.2633
704.50 0.2632
704.60 0.263
704.70 0.2629
704.80 0.2627
704.90 0.2626
705.00 0.2624
705.10 0.2623
705.20 0.2621
705.30 0.262
705.40 0.2619
705.50 0.2617
705.60 0.2616
705.70 0.2614
705.80 0.2613
705.90 0.2611
706.00 0.261
706.10 0.2608
706.20 0.2607
706.30 0.2606
706.40 0.2604
706.50 0.2603
706.60 0.2601
706.70 0.26
706.80 0.2598
706.90 0.2597
707.00 0.2596
707.10 0.2594
707.20 0.2593
707.30 0.2591
707.40 0.259
707.50 0.2588
707.60 0.2587
707.70 0.2586
707.80 0.2584
707.90 0.2583
708.00 0.2581
708.10 0.258
708.20 0.2578
708.30 0.2577
708.40 0.2576
708.50 0.2574
708.60 0.2573
708.70 0.2571
708.80 0.257
708.90 0.2568
709.00 0.2567
709.10 0.2566
709.20 0.2564
709.30 0.2563
709.40 0.2561
709.50 0.256
709.60 0.2559
709.70 0.2557
709.80 0.2556
709.90 0.2554
710.00 0.2553
710.10 0.2551
710.20 0.255
710.30 0.2549
710.40 0.2547
710.50 0.2546
710.60 0.2544
710.70 0.2543
710.80 0.2542
710.90 0.254
711.00 0.2539
711.10 0.2538
711.20 0.2536
711.30 0.2535
711.40 0.2533
711.50 0.2532
711.60 0.2531
711.70 0.2529
711.80 0.2528
711.90 0.2526
712.00 0.2525
712.10 0.2524
712.20 0.2522
712.30 0.2521
712.40 0.2519
712.50 0.2518
712.60 0.2517
712.70 0.2515
712.80 0.2514
712.90 0.2513
713.00 0.2511
713.10 0.251
713.20 0.2508
713.30 0.2507
713.40 0.2506
713.50 0.2504
713.60 0.2503
713.70 0.2502
713.80 0.25
713.90 0.2499
714.00 0.2497
714.10 0.2496
714.20 0.2495
714.30 0.2493
714.40 0.2492
714.50 0.2491
714.60 0.2489
714.70 0.2488
714.80 0.2487
714.90 0.2485
715.00 0.2484
715.10 0.2482
715.20 0.2481
715.30 0.248
715.40 0.2478
715.50 0.2477
715.60 0.2476
715.70 0.2474
715.80 0.2473
715.90 0.2472
716.00 0.247
716.10 0.2469
716.20 0.2468
716.30 0.2466
716.40 0.2465
716.50 0.2464
716.60 0.2462
716.70 0.2461
716.80 0.246
716.90 0.2458
717.00 0.2457
717.10 0.2456
717.20 0.2454
717.30 0.2453
717.40 0.2452
717.50 0.245
717.60 0.2449
717.70 0.2448
717.80 0.2446
717.90 0.2445
718.00 0.2444
718.10 0.2442
718.20 0.2441
718.30 0.244
718.40 0.2438
718.50 0.2437
718.60 0.2436
718.70 0.2434
718.80 0.2433
718.90 0.2432
719.00 0.243
719.10 0.2429
719.20 0.2428
719.30 0.2426
719.40 0.2425
719.50 0.2424
719.60 0.2422
719.70 0.2421
719.80 0.242
719.90 0.2418
720.00 0.2417
720.10 0.2416
720.20 0.2414
720.30 0.2413
720.40 0.2412
720.50 0.241
720.60 0.2409
720.70 0.2408
720.80 0.2407
720.90 0.2405
721.00 0.2404
721.10 0.2403
721.20 0.2401
721.30 0.24
721.40 0.2399
721.50 0.2397
721.60 0.2396
721.70 0.2395
721.80 0.2394
721.90 0.2392
722.00 0.2391
722.10 0.239
722.20 0.2388
722.30 0.2387
722.40 0.2386
722.50 0.2385
722.60 0.2383
722.70 0.2382
722.80 0.2381
722.90 0.2379
723.00 0.2378
723.10 0.2377
723.20 0.2376
723.30 0.2374
723.40 0.2373
723.50 0.2372
723.60 0.237
723.70 0.2369
723.80 0.2368
723.90 0.2367
724.00 0.2365
724.10 0.2364
724.20 0.2363
724.30 0.2361
724.40 0.236
724.50 0.2359
724.60 0.2358
724.70 0.2356
724.80 0.2355
724.90 0.2354
725.00 0.2352
725.10 0.2351
725.20 0.235
725.30 0.2349
725.40 0.2347
725.50 0.2346
725.60 0.2345
725.70 0.2344
725.80 0.2342
725.90 0.2341
726.00 0.234
726.10 0.2339
726.20 0.2337
726.30 0.2336
726.40 0.2335
726.50 0.2334
726.60 0.2332
726.70 0.2331
726.80 0.233
726.90 0.2329
727.00 0.2327
727.10 0.2326
727.20 0.2325
727.30 0.2324
727.40 0.2322
727.50 0.2321
727.60 0.232
727.70 0.2319
727.80 0.2317
727.90 0.2316
728.00 0.2315
728.10 0.2314
728.20 0.2312
728.30 0.2311
728.40 0.231
728.50 0.2309
728.60 0.2307
728.70 0.2306
728.80 0.2305
728.90 0.2304
729.00 0.2302
729.10 0.2301
729.20 0.23
729.30 0.2299
729.40 0.2297
729.50 0.2296
729.60 0.2295
729.70 0.2294
729.80 0.2293
729.90 0.2291
730.00 0.229
730.10 0.2289
730.20 0.2288
730.30 0.2286
730.40 0.2285
730.50 0.2284
730.60 0.2283
730.70 0.2282
730.80 0.228
730.90 0.2279
731.00 0.2278
731.10 0.2277
731.20 0.2276
731.30 0.2274
731.40 0.2273
731.50 0.2272
731.60 0.2271
731.70 0.2269
731.80 0.2268
731.90 0.2267
732.00 0.2266
732.10 0.2265
732.20 0.2263
732.30 0.2262
732.40 0.2261
732.50 0.226
732.60 0.2259
732.70 0.2257
732.80 0.2256
732.90 0.2255
733.00 0.2254
733.10 0.2253
733.20 0.2251
733.30 0.225
733.40 0.2249
733.50 0.2248
733.60 0.2247
733.70 0.2245
733.80 0.2244
733.90 0.2243
734.00 0.2242
734.10 0.2241
734.20 0.224
734.30 0.2238
734.40 0.2237
734.50 0.2236
734.60 0.2235
734.70 0.2234
734.80 0.2232
734.90 0.2231
735.00 0.223
735.10 0.2229
735.20 0.2228
735.30 0.2226
735.40 0.2225
735.50 0.2224
735.60 0.2223
735.70 0.2222
735.80 0.2221
735.90 0.2219
736.00 0.2218
736.10 0.2217
736.20 0.2216
736.30 0.2215
736.40 0.2213
736.50 0.2212
736.60 0.2211
736.70 0.221
736.80 0.2209
736.90 0.2208
737.00 0.2206
737.10 0.2205
737.20 0.2204
737.30 0.2203
737.40 0.2202
737.50 0.22
737.60 0.2199
737.70 0.2198
737.80 0.2197
737.90 0.2196
738.00 0.2195
738.10 0.2193
738.20 0.2192
738.30 0.2191
738.40 0.219
738.50 0.2189
738.60 0.2188
738.70 0.2186
738.80 0.2185
738.90 0.2184
739.00 0.2183
739.10 0.2182
739.20 0.2181
739.30 0.2179
739.40 0.2178
739.50 0.2177
739.60 0.2176
739.70 0.2175
739.80 0.2174
739.90 0.2172
740.00 0.2171
740.10 0.217
740.20 0.2169
740.30 0.2168
740.40 0.2167
740.50 0.2166
740.60 0.2165
740.70 0.2163
740.80 0.2162
740.90 0.2161
741.00 0.216
741.10 0.2159
741.20 0.2158
741.30 0.2157
741.40 0.2155
741.50 0.2154
741.60 0.2153
741.70 0.2152
741.80 0.2151
741.90 0.215
742.00 0.2149
742.10 0.2148
742.20 0.2146
742.30 0.2145
742.40 0.2144
742.50 0.2143
742.60 0.2142
742.70 0.2141
742.80 0.214
742.90 0.2139
743.00 0.2137
743.10 0.2136
743.20 0.2135
743.30 0.2134
743.40 0.2133
743.50 0.2132
743.60 0.2131
743.70 0.213
743.80 0.2128
743.90 0.2127
744.00 0.2126
744.10 0.2125
744.20 0.2124
744.30 0.2123
744.40 0.2122
744.50 0.2121
744.60 0.212
744.70 0.2118
744.80 0.2117
744.90 0.2116
745.00 0.2115
745.10 0.2114
745.20 0.2113
745.30 0.2112
745.40 0.2111
745.50 0.211
745.60 0.2108
745.70 0.2107
745.80 0.2106
745.90 0.2105
746.00 0.2104
746.10 0.2103
746.20 0.2102
746.30 0.2101
746.40 0.21
746.50 0.2099
746.60 0.2097
746.70 0.2096
746.80 0.2095
746.90 0.2094
747.00 0.2093
747.10 0.2092
747.20 0.2091
747.30 0.209
747.40 0.2089
747.50 0.2088
747.60 0.2086
747.70 0.2085
747.80 0.2084
747.90 0.2083
748.00 0.2082
748.10 0.2081
748.20 0.208
748.30 0.2079
748.40 0.2078
748.50 0.2077
748.60 0.2075
748.70 0.2074
748.80 0.2073
748.90 0.2072
749.00 0.2071
749.10 0.207
749.20 0.2069
749.30 0.2068
749.40 0.2067
749.50 0.2066
749.60 0.2065
749.70 0.2063
749.80 0.2062
749.90 0.2061
750.00 0.206
750.10 0.2059
750.20 0.2058
750.30 0.2057
750.40 0.2056
750.50 0.2055
750.60 0.2054
750.70 0.2053
750.80 0.2052
750.90 0.2051
751.00 0.205
751.10 0.2049
751.20 0.2047
751.30 0.2046
751.40 0.2045
751.50 0.2044
751.60 0.2043
751.70 0.2042
751.80 0.2041
751.90 0.204
752.00 0.2039
752.10 0.2038
752.20 0.2037
752.30 0.2036
752.40 0.2035
752.50 0.2034
752.60 0.2033
752.70 0.2032
752.80 0.2031
752.90 0.203
753.00 0.2028
753.10 0.2027
753.20 0.2026
753.30 0.2025
753.40 0.2024
753.50 0.2023
753.60 0.2022
753.70 0.2021
753.80 0.202
753.90 0.2019
754.00 0.2018
754.10 0.2017
754.20 0.2016
754.30 0.2015
754.40 0.2014
754.50 0.2013
754.60 0.2012
754.70 0.2011
754.80 0.201
754.90 0.2009
755.00 0.2008
755.10 0.2007
755.20 0.2005
755.30 0.2004
755.40 0.2003
755.50 0.2002
755.60 0.2001
755.70 0.2
755.80 0.1999
755.90 0.1998
756.00 0.1997
756.10 0.1996
756.20 0.1995
756.30 0.1994
756.40 0.1993
756.50 0.1992
756.60 0.1991
756.70 0.199
756.80 0.1989
756.90 0.1988
757.00 0.1987
757.10 0.1986
757.20 0.1985
757.30 0.1984
757.40 0.1983
757.50 0.1982
757.60 0.1981
757.70 0.198
757.80 0.1979
757.90 0.1978
758.00 0.1977
758.10 0.1976
758.20 0.1975
758.30 0.1973
758.40 0.1972
758.50 0.1971
758.60 0.197
758.70 0.1969
758.80 0.1968
758.90 0.1967
759.00 0.1966
759.10 0.1965
759.20 0.1964
759.30 0.1963
759.40 0.1962
759.50 0.1961
759.60 0.196
759.70 0.1959
759.80 0.1958
759.90 0.1957
760.00 0.1956
760.10 0.1955
760.20 0.1954
760.30 0.1953
760.40 0.1952
760.50 0.1951
760.60 0.195
760.70 0.1949
760.80 0.1948
760.90 0.1947
761.00 0.1946
761.10 0.1945
761.20 0.1944
761.30 0.1943
761.40 0.1942
761.50 0.1941
761.60 0.194
761.70 0.1939
761.80 0.1938
761.90 0.1937
762.00 0.1936
762.10 0.1935
762.20 0.1934
762.30 0.1933
762.40 0.1932
762.50 0.1931
762.60 0.193
762.70 0.1929
762.80 0.1928
762.90 0.1927
763.00 0.1926
763.10 0.1925
763.20 0.1924
763.30 0.1923
763.40 0.1922
763.50 0.1921
763.60 0.192
763.70 0.1919
763.80 0.1919
763.90 0.1918
764.00 0.1917
764.10 0.1916
764.20 0.1915
764.30 0.1914
764.40 0.1913
764.50 0.1912
764.60 0.1911
764.70 0.191
764.80 0.1909
764.90 0.1908
765.00 0.1907
765.10 0.1906
765.20 0.1905
765.30 0.1904
765.40 0.1903
765.50 0.1902
765.60 0.1901
765.70 0.19
765.80 0.1899
765.90 0.1898
766.00 0.1897
766.10 0.1896
766.20 0.1895
766.30 0.1894
766.40 0.1893
766.50 0.1892
766.60 0.1891
766.70 0.189
766.80 0.1889
766.90 0.1888
767.00 0.1887
767.10 0.1886
767.20 0.1885
767.30 0.1884
767.40 0.1883
767.50 0.1883
767.60 0.1882
767.70 0.1881
767.80 0.188
767.90 0.1879
768.00 0.1878
768.10 0.1877
768.20 0.1876
768.30 0.1875
768.40 0.1874
768.50 0.1873
768.60 0.1872
768.70 0.1871
768.80 0.187
768.90 0.1869
769.00 0.1868
769.10 0.1867
769.20 0.1866
769.30 0.1865
769.40 0.1864
769.50 0.1863
769.60 0.1862
769.70 0.1861
769.80 0.186
769.90 0.1859
770.00 0.1859
770.10 0.1858
770.20 0.1857
770.30 0.1856
770.40 0.1855
770.50 0.1854
770.60 0.1853
770.70 0.1852
770.80 0.1851
770.90 0.185
771.00 0.1849
771.10 0.1848
771.20 0.1847
771.30 0.1846
771.40 0.1845
771.50 0.1845
771.60 0.1844
771.70 0.1843
771.80 0.1842
771.90 0.1841
772.00 0.184
772.10 0.1839
772.20 0.1838
772.30 0.1837
772.40 0.1836
772.50 0.1835
772.60 0.1834
772.70 0.1833
772.80 0.1832
772.90 0.1832
773.00 0.1831
773.10 0.183
773.20 0.1829
773.30 0.1828
773.40 0.1827
773.50 0.1826
773.60 0.1825
773.70 0.1824
773.80 0.1823
773.90 0.1822
774.00 0.1821
774.10 0.182
774.20 0.182
774.30 0.1819
774.40 0.1818
774.50 0.1817
774.60 0.1816
774.70 0.1815
774.80 0.1814
774.90 0.1813
775.00 0.1812
775.10 0.1811
775.20 0.181
775.30 0.1809
775.40 0.1809
775.50 0.1808
775.60 0.1807
775.70 0.1806
775.80 0.1805
775.90 0.1804
776.00 0.1803
776.10 0.1802
776.20 0.1801
776.30 0.18
776.40 0.1799
776.50 0.1799
776.60 0.1798
776.70 0.1797
776.80 0.1796
776.90 0.1795
777.00 0.1794
777.10 0.1793
777.20 0.1792
777.30 0.1791
777.40 0.179
777.50 0.1789
777.60 0.1789
777.70 0.1788
777.80 0.1787
777.90 0.1786
778.00 0.1785
778.10 0.1784
778.20 0.1783
778.30 0.1782
778.40 0.1781
778.50 0.178
778.60 0.178
778.70 0.1779
778.80 0.1778
778.90 0.1777
779.00 0.1776
779.10 0.1775
779.20 0.1774
779.30 0.1773
779.40 0.1772
779.50 0.1771
779.60 0.1771
779.70 0.177
779.80 0.1769
779.90 0.1768
780.00 0.1767
780.10 0.1766
780.20 0.1765
780.30 0.1764
780.40 0.1763
780.50 0.1763
780.60 0.1762
780.70 0.1761
780.80 0.176
780.90 0.1759
781.00 0.1758
781.10 0.1757
781.20 0.1756
781.30 0.1756
781.40 0.1755
781.50 0.1754
781.60 0.1753
781.70 0.1752
781.80 0.1751
781.90 0.175
782.00 0.1749
782.10 0.1749
782.20 0.1748
782.30 0.1747
782.40 0.1746
782.50 0.1745
782.60 0.1744
782.70 0.1743
782.80 0.1743
782.90 0.1742
783.00 0.1741
783.10 0.174
783.20 0.1739
783.30 0.1738
783.40 0.1737
783.50 0.1736
783.60 0.1736
783.70 0.1735
783.80 0.1734
783.90 0.1733
784.00 0.1732
784.10 0.1731
784.20 0.173
784.30 0.173
784.40 0.1729
784.50 0.1728
784.60 0.1727
784.70 0.1726
784.80 0.1725
784.90 0.1724
785.00 0.1723
785.10 0.1723
785.20 0.1722
785.30 0.1721
785.40 0.172
785.50 0.1719
785.60 0.1718
785.70 0.1717
785.80 0.1717
785.90 0.1716
786.00 0.1715
786.10 0.1714
786.20 0.1713
786.30 0.1712
786.40 0.1711
786.50 0.1711
786.60 0.171
786.70 0.1709
786.80 0.1708
786.90 0.1707
787.00 0.1706
787.10 0.1706
787.20 0.1705
787.30 0.1704
787.40 0.1703
787.50 0.1702
787.60 0.1701
787.70 0.17
787.80 0.17
787.90 0.1699
788.00 0.1698
788.10 0.1697
788.20 0.1696
788.30 0.1695
788.40 0.1694
788.50 0.1694
788.60 0.1693
788.70 0.1692
788.80 0.1691
788.90 0.169
789.00 0.1689
789.10 0.1689
789.20 0.1688
789.30 0.1687
789.40 0.1686
789.50 0.1685
789.60 0.1684
789.70 0.1684
789.80 0.1683
789.90 0.1682
790.00 0.1681
790.10 0.168
790.20 0.1679
790.30 0.1679
790.40 0.1678
790.50 0.1677
790.60 0.1676
790.70 0.1675
790.80 0.1674
790.90 0.1674
791.00 0.1673
791.10 0.1672
791.20 0.1671
791.30 0.167
791.40 0.1669
791.50 0.1669
791.60 0.1668
791.70 0.1667
791.80 0.1666
791.90 0.1665
792.00 0.1665
792.10 0.1664
792.20 0.1663
792.30 0.1662
792.40 0.1661
792.50 0.166
792.60 0.166
792.70 0.1659
792.80 0.1658
792.90 0.1657
793.00 0.1656
793.10 0.1656
793.20 0.1655
793.30 0.1654
793.40 0.1653
793.50 0.1652
793.60 0.1651
793.70 0.1651
793.80 0.165
793.90 0.1649
794.00 0.1648
794.10 0.1647
794.20 0.1647
794.30 0.1646
794.40 0.1645
794.50 0.1644
794.60 0.1643
794.70 0.1643
794.80 0.1642
794.90 0.1641
795.00 0.164
795.10 0.1639
795.20 0.1639
795.30 0.1638
795.40 0.1637
795.50 0.1636
795.60 0.1635
795.70 0.1634
795.80 0.1634
795.90 0.1633
796.00 0.1632
796.10 0.1631
796.20 0.163
796.30 0.163
796.40 0.1629
796.50 0.1628
796.60 0.1627
796.70 0.1626
796.80 0.1626
796.90 0.1625
797.00 0.1624
797.10 0.1623
797.20 0.1622
797.30 0.1622
797.40 0.1621
797.50 0.162
797.60 0.1619
797.70 0.1618
797.80 0.1618
797.90 0.1617
798.00 0.1616
798.10 0.1615
798.20 0.1614
798.30 0.1614
798.40 0.1613
798.50 0.1612
798.60 0.1611
798.70 0.161
798.80 0.161
798.90 0.1609
799.00 0.1608
799.10 0.1607
799.20 0.1607
799.30 0.1606
799.40 0.1605
799.50 0.1604
799.60 0.1603
799.70 0.1603
799.80 0.1602
799.90 0.1601
800.00 0.16
800.10 0.1599
800.20 0.1599
800.30 0.1598
800.40 0.1597
800.50 0.1596
800.60 0.1596
800.70 0.1595
800.80 0.1594
800.90 0.1593
801.00 0.1592
801.10 0.1592
801.20 0.1591
801.30 0.159
801.40 0.1589
801.50 0.1589
801.60 0.1588
801.70 0.1587
801.80 0.1586
801.90 0.1585
802.00 0.1585
802.10 0.1584
802.20 0.1583
802.30 0.1582
802.40 0.1582
802.50 0.1581
802.60 0.158
802.70 0.1579
802.80 0.1579
802.90 0.1578
803.00 0.1577
803.10 0.1576
803.20 0.1575
803.30 0.1575
803.40 0.1574
803.50 0.1573
803.60 0.1572
803.70 0.1572
803.80 0.1571
803.90 0.157
804.00 0.1569
804.10 0.1569
804.20 0.1568
804.30 0.1567
804.40 0.1566
804.50 0.1566
804.60 0.1565
804.70 0.1564
804.80 0.1563
804.90 0.1563
805.00 0.1562
805.10 0.1561
805.20 0.156
805.30 0.1559
805.40 0.1559
805.50 0.1558
805.60 0.1557
805.70 0.1556
805.80 0.1556
805.90 0.1555
806.00 0.1554
806.10 0.1553
806.20 0.1553
806.30 0.1552
806.40 0.1551
806.50 0.155
806.60 0.155
806.70 0.1549
806.80 0.1548
806.90 0.1547
807.00 0.1547
807.10 0.1546
807.20 0.1545
807.30 0.1544
807.40 0.1544
807.50 0.1543
807.60 0.1542
807.70 0.1541
807.80 0.1541
807.90 0.154
808.00 0.1539
808.10 0.1538
808.20 0.1538
808.30 0.1537
808.40 0.1536
808.50 0.1535
808.60 0.1535
808.70 0.1534
808.80 0.1533
808.90 0.1532
809.00 0.1532
809.10 0.1531
809.20 0.153
809.30 0.1529
809.40 0.1529
809.50 0.1528
809.60 0.1527
809.70 0.1526
809.80 0.1526
809.90 0.1525
810.00 0.1524
810.10 0.1523
810.20 0.1523
810.30 0.1522
810.40 0.1521
810.50 0.1521
810.60 0.152
810.70 0.1519
810.80 0.1518
810.90 0.1518
811.00 0.1517
811.10 0.1516
811.20 0.1515
811.30 0.1515
811.40 0.1514
811.50 0.1513
811.60 0.1513
811.70 0.1512
811.80 0.1511
811.90 0.151
812.00 0.151
812.10 0.1509
812.20 0.1508
812.30 0.1507
812.40 0.1507
812.50 0.1506
812.60 0.1505
812.70 0.1505
812.80 0.1504
812.90 0.1503
813.00 0.1502
813.10 0.1502
813.20 0.1501
813.30 0.15
813.40 0.1499
813.50 0.1499
813.60 0.1498
813.70 0.1497
813.80 0.1497
813.90 0.1496
814.00 0.1495
814.10 0.1494
814.20 0.1494
814.30 0.1493
814.40 0.1492
814.50 0.1492
814.60 0.1491
814.70 0.149
814.80 0.1489
814.90 0.1489
815.00 0.1488
815.10 0.1487
815.20 0.1487
815.30 0.1486
815.40 0.1485
815.50 0.1484
815.60 0.1484
815.70 0.1483
815.80 0.1482
815.90 0.1482
816.00 0.1481
816.10 0.148
816.20 0.1479
816.30 0.1479
816.40 0.1478
816.50 0.1477
816.60 0.1477
816.70 0.1476
816.80 0.1475
816.90 0.1474
817.00 0.1474
817.10 0.1473
817.20 0.1472
817.30 0.1472
817.40 0.1471
817.50 0.147
817.60 0.147
817.70 0.1469
817.80 0.1468
817.90 0.1467
818.00 0.1467
818.10 0.1466
818.20 0.1465
818.30 0.1465
818.40 0.1464
818.50 0.1463
818.60 0.1462
818.70 0.1462
818.80 0.1461
818.90 0.146
819.00 0.146
819.10 0.1459
819.20 0.1458
819.30 0.1458
819.40 0.1457
819.50 0.1456
819.60 0.1455
819.70 0.1455
819.80 0.1454
819.90 0.1453
820.00 0.1453
820.10 0.1452
820.20 0.1451
820.30 0.1451
820.40 0.145
820.50 0.1449
820.60 0.1448
820.70 0.1448
820.80 0.1447
820.90 0.1446
821.00 0.1446
821.10 0.1445
821.20 0.1444
821.30 0.1444
821.40 0.1443
821.50 0.1442
821.60 0.1442
821.70 0.1441
821.80 0.144
821.90 0.144
822.00 0.1439
822.10 0.1438
822.20 0.1437
822.30 0.1437
822.40 0.1436
822.50 0.1435
822.60 0.1435
822.70 0.1434
822.80 0.1433
822.90 0.1433
823.00 0.1432
823.10 0.1431
823.20 0.1431
823.30 0.143
823.40 0.1429
823.50 0.1429
823.60 0.1428
823.70 0.1427
823.80 0.1427
823.90 0.1426
824.00 0.1425
824.10 0.1425
824.20 0.1424
824.30 0.1423
824.40 0.1423
824.50 0.1422
824.60 0.1421
824.70 0.142
824.80 0.142
824.90 0.1419
825.00 0.1418
825.10 0.1418
825.20 0.1417
825.30 0.1416
825.40 0.1416
825.50 0.1415
825.60 0.1414
825.70 0.1414
825.80 0.1413
825.90 0.1412
826.00 0.1412
826.10 0.1411
826.20 0.141
826.30 0.141
826.40 0.1409
826.50 0.1408
826.60 0.1408
826.70 0.1407
826.80 0.1406
826.90 0.1406
827.00 0.1405
827.10 0.1404
827.20 0.1404
827.30 0.1403
827.40 0.1402
827.50 0.1402
827.60 0.1401
827.70 0.14
827.80 0.14
827.90 0.1399
828.00 0.1398
828.10 0.1398
828.20 0.1397
828.30 0.1396
828.40 0.1396
828.50 0.1395
828.60 0.1394
828.70 0.1394
828.80 0.1393
828.90 0.1392
829.00 0.1392
829.10 0.1391
829.20 0.1391
829.30 0.139
829.40 0.1389
829.50 0.1389
829.60 0.1388
829.70 0.1387
829.80 0.1387
829.90 0.1386
830.00 0.1385
830.10 0.1385
830.20 0.1384
830.30 0.1383
830.40 0.1383
830.50 0.1382
830.60 0.1381
830.70 0.1381
830.80 0.138
830.90 0.1379
831.00 0.1379
831.10 0.1378
831.20 0.1377
831.30 0.1377
831.40 0.1376
831.50 0.1375
831.60 0.1375
831.70 0.1374
831.80 0.1374
831.90 0.1373
832.00 0.1372
832.10 0.1372
832.20 0.1371
832.30 0.137
832.40 0.137
832.50 0.1369
832.60 0.1368
832.70 0.1368
832.80 0.1367
832.90 0.1366
833.00 0.1366
833.10 0.1365
833.20 0.1365
833.30 0.1364
833.40 0.1363
833.50 0.1363
833.60 0.1362
833.70 0.1361
833.80 0.1361
833.90 0.136
834.00 0.1359
834.10 0.1359
834.20 0.1358
834.30 0.1358
834.40 0.1357
834.50 0.1356
834.60 0.1356
834.70 0.1355
834.80 0.1354
834.90 0.1354
835.00 0.1353
835.10 0.1352
835.20 0.1352
835.30 0.1351
835.40 0.1351
835.50 0.135
835.60 0.1349
835.70 0.1349
835.80 0.1348
835.90 0.1347
836.00 0.1347
836.10 0.1346
836.20 0.1345
836.30 0.1345
836.40 0.1344
836.50 0.1344
836.60 0.1343
836.70 0.1342
836.80 0.1342
836.90 0.1341
837.00 0.134
837.10 0.134
837.20 0.1339
837.30 0.1339
837.40 0.1338
837.50 0.1337
837.60 0.1337
837.70 0.1336
837.80 0.1335
837.90 0.1335
838.00 0.1334
838.10 0.1334
838.20 0.1333
838.30 0.1332
838.40 0.1332
838.50 0.1331
838.60 0.133
838.70 0.133
838.80 0.1329
838.90 0.1329
839.00 0.1328
839.10 0.1327
839.20 0.1327
839.30 0.1326
839.40 0.1325
839.50 0.1325
839.60 0.1324
839.70 0.1324
839.80 0.1323
839.90 0.1322
840.00 0.1322
840.10 0.1321
840.20 0.1321
840.30 0.132
840.40 0.1319
840.50 0.1319
840.60 0.1318
840.70 0.1317
840.80 0.1317
840.90 0.1316
841.00 0.1316
841.10 0.1315
841.20 0.1314
841.30 0.1314
841.40 0.1313
841.50 0.1313
841.60 0.1312
841.70 0.1311
841.80 0.1311
841.90 0.131
842.00 0.1309
842.10 0.1309
842.20 0.1308
842.30 0.1308
842.40 0.1307
842.50 0.1306
842.60 0.1306
842.70 0.1305
842.80 0.1305
842.90 0.1304
843.00 0.1303
843.10 0.1303
843.20 0.1302
843.30 0.1302
843.40 0.1301
843.50 0.13
843.60 0.13
843.70 0.1299
843.80 0.1299
843.90 0.1298
844.00 0.1297
844.10 0.1297
844.20 0.1296
844.30 0.1296
844.40 0.1295
844.50 0.1294
844.60 0.1294
844.70 0.1293
844.80 0.1293
844.90 0.1292
845.00 0.1291
845.10 0.1291
845.20 0.129
845.30 0.129
845.40 0.1289
845.50 0.1288
845.60 0.1288
845.70 0.1287
845.80 0.1287
845.90 0.1286
846.00 0.1285
846.10 0.1285
846.20 0.1284
846.30 0.1284
846.40 0.1283
846.50 0.1282
846.60 0.1282
846.70 0.1281
846.80 0.1281
846.90 0.128
847.00 0.1279
847.10 0.1279
847.20 0.1278
847.30 0.1278
847.40 0.1277
847.50 0.1276
847.60 0.1276
847.70 0.1275
847.80 0.1275
847.90 0.1274
848.00 0.1273
848.10 0.1273
848.20 0.1272
848.30 0.1272
848.40 0.1271
848.50 0.1271
848.60 0.127
848.70 0.1269
848.80 0.1269
848.90 0.1268
849.00 0.1268
849.10 0.1267
849.20 0.1266
849.30 0.1266
849.40 0.1265
849.50 0.1265
849.60 0.1264
849.70 0.1264
849.80 0.1263
849.90 0.1262
850.00 0.1262
850.10 0.1261
850.20 0.1261
850.30 0.126
850.40 0.1259
850.50 0.1259
850.60 0.1258
850.70 0.1258
850.80 0.1257
850.90 0.1257
851.00 0.1256
851.10 0.1255
851.20 0.1255
851.30 0.1254
851.40 0.1254
851.50 0.1253
851.60 0.1252
851.70 0.1252
851.80 0.1251
851.90 0.1251
852.00 0.125
852.10 0.125
852.20 0.1249
852.30 0.1248
852.40 0.1248
852.50 0.1247
852.60 0.1247
852.70 0.1246
852.80 0.1246
852.90 0.1245
853.00 0.1244
853.10 0.1244
853.20 0.1243
853.30 0.1243
853.40 0.1242
853.50 0.1242
853.60 0.1241
853.70 0.124
853.80 0.124
853.90 0.1239
854.00 0.1239
854.10 0.1238
854.20 0.1238
854.30 0.1237
854.40 0.1236
854.50 0.1236
854.60 0.1235
854.70 0.1235
854.80 0.1234
854.90 0.1234
855.00 0.1233
855.10 0.1232
855.20 0.1232
855.30 0.1231
855.40 0.1231
855.50 0.123
855.60 0.123
855.70 0.1229
855.80 0.1229
855.90 0.1228
856.00 0.1227
856.10 0.1227
856.20 0.1226
856.30 0.1226
856.40 0.1225
856.50 0.1225
856.60 0.1224
856.70 0.1223
856.80 0.1223
856.90 0.1222
857.00 0.1222
857.10 0.1221
857.20 0.1221
857.30 0.122
857.40 0.122
857.50 0.1219
857.60 0.1218
857.70 0.1218
857.80 0.1217
857.90 0.1217
858.00 0.1216
858.10 0.1216
858.20 0.1215
858.30 0.1215
858.40 0.1214
858.50 0.1213
858.60 0.1213
858.70 0.1212
858.80 0.1212
858.90 0.1211
859.00 0.1211
859.10 0.121
859.20 0.121
859.30 0.1209
859.40 0.1209
859.50 0.1208
859.60 0.1207
859.70 0.1207
859.80 0.1206
859.90 0.1206
860.00 0.1205
860.10 0.1205
860.20 0.1204
860.30 0.1204
860.40 0.1203
860.50 0.1202
860.60 0.1202
860.70 0.1201
860.80 0.1201
860.90 0.12
861.00 0.12
861.10 0.1199
861.20 0.1199
861.30 0.1198
861.40 0.1198
861.50 0.1197
861.60 0.1196
861.70 0.1196
861.80 0.1195
861.90 0.1195
862.00 0.1194
862.10 0.1194
862.20 0.1193
862.30 0.1193
862.40 0.1192
862.50 0.1192
862.60 0.1191
862.70 0.119
862.80 0.119
862.90 0.1189
863.00 0.1189
863.10 0.1188
863.20 0.1188
863.30 0.1187
863.40 0.1187
863.50 0.1186
863.60 0.1186
863.70 0.1185
863.80 0.1185
863.90 0.1184
864.00 0.1183
864.10 0.1183
864.20 0.1182
864.30 0.1182
864.40 0.1181
864.50 0.1181
864.60 0.118
864.70 0.118
864.80 0.1179
864.90 0.1179
865.00 0.1178
865.10 0.1178
865.20 0.1177
865.30 0.1177
865.40 0.1176
865.50 0.1175
865.60 0.1175
865.70 0.1174
865.80 0.1174
865.90 0.1173
866.00 0.1173
866.10 0.1172
866.20 0.1172
866.30 0.1171
866.40 0.1171
866.50 0.117
866.60 0.117
866.70 0.1169
866.80 0.1169
866.90 0.1168
867.00 0.1167
867.10 0.1167
867.20 0.1166
867.30 0.1166
867.40 0.1165
867.50 0.1165
867.60 0.1164
867.70 0.1164
867.80 0.1163
867.90 0.1163
868.00 0.1162
868.10 0.1162
868.20 0.1161
868.30 0.1161
868.40 0.116
868.50 0.116
868.60 0.1159
868.70 0.1159
868.80 0.1158
868.90 0.1157
869.00 0.1157
869.10 0.1156
869.20 0.1156
869.30 0.1155
869.40 0.1155
869.50 0.1154
869.60 0.1154
869.70 0.1153
869.80 0.1153
869.90 0.1152
870.00 0.1152
870.10 0.1151
870.20 0.1151
870.30 0.115
870.40 0.115
870.50 0.1149
870.60 0.1149
870.70 0.1148
870.80 0.1148
870.90 0.1147
871.00 0.1147
871.10 0.1146
871.20 0.1146
871.30 0.1145
871.40 0.1145
871.50 0.1144
871.60 0.1143
871.70 0.1143
871.80 0.1142
871.90 0.1142
872.00 0.1141
872.10 0.1141
872.20 0.114
872.30 0.114
872.40 0.1139
872.50 0.1139
872.60 0.1138
872.70 0.1138
872.80 0.1137
872.90 0.1137
873.00 0.1136
873.10 0.1136
873.20 0.1135
873.30 0.1135
873.40 0.1134
873.50 0.1134
873.60 0.1133
873.70 0.1133
873.80 0.1132
873.90 0.1132
874.00 0.1131
874.10 0.1131
874.20 0.113
874.30 0.113
874.40 0.1129
874.50 0.1129
874.60 0.1128
874.70 0.1128
874.80 0.1127
874.90 0.1127
875.00 0.1126
875.10 0.1126
875.20 0.1125
875.30 0.1125
875.40 0.1124
875.50 0.1124
875.60 0.1123
875.70 0.1123
875.80 0.1122
875.90 0.1122
876.00 0.1121
876.10 0.1121
876.20 0.112
876.30 0.112
876.40 0.1119
876.50 0.1119
876.60 0.1118
876.70 0.1118
876.80 0.1117
876.90 0.1117
877.00 0.1116
877.10 0.1116
877.20 0.1115
877.30 0.1115
877.40 0.1114
877.50 0.1114
877.60 0.1113
877.70 0.1113
877.80 0.1112
877.90 0.1112
878.00 0.1111
878.10 0.1111
878.20 0.111
878.30 0.111
878.40 0.1109
878.50 0.1109
878.60 0.1108
878.70 0.1108
878.80 0.1107
878.90 0.1107
879.00 0.1106
879.10 0.1106
879.20 0.1105
879.30 0.1105
879.40 0.1104
879.50 0.1104
879.60 0.1103
879.70 0.1103
879.80 0.1102
879.90 0.1102
880.00 0.1101
880.10 0.1101
880.20 0.11
880.30 0.11
880.40 0.1099
880.50 0.1099
880.60 0.1098
880.70 0.1098
880.80 0.1097
880.90 0.1097
881.00 0.1096
881.10 0.1096
881.20 0.1095
881.30 0.1095
881.40 0.1094
881.50 0.1094
881.60 0.1093
881.70 0.1093
881.80 0.1092
881.90 0.1092
882.00 0.1091
882.10 0.1091
882.20 0.109
882.30 0.109
882.40 0.109
882.50 0.1089
882.60 0.1089
882.70 0.1088
882.80 0.1088
882.90 0.1087
883.00 0.1087
883.10 0.1086
883.20 0.1086
883.30 0.1085
883.40 0.1085
883.50 0.1084
883.60 0.1084
883.70 0.1083
883.80 0.1083
883.90 0.1082
884.00 0.1082
884.10 0.1081
884.20 0.1081
884.30 0.108
884.40 0.108
884.50 0.1079
884.60 0.1079
884.70 0.1078
884.80 0.1078
884.90 0.1078
885.00 0.1077
885.10 0.1077
885.20 0.1076
885.30 0.1076
885.40 0.1075
885.50 0.1075
885.60 0.1074
885.70 0.1074
885.80 0.1073
885.90 0.1073
886.00 0.1072
886.10 0.1072
886.20 0.1071
886.30 0.1071
886.40 0.107
886.50 0.107
886.60 0.1069
886.70 0.1069
886.80 0.1068
886.90 0.1068
887.00 0.1068
887.10 0.1067
887.20 0.1067
887.30 0.1066
887.40 0.1066
887.50 0.1065
887.60 0.1065
887.70 0.1064
887.80 0.1064
887.90 0.1063
888.00 0.1063
888.10 0.1062
888.20 0.1062
888.30 0.1061
888.40 0.1061
888.50 0.106
888.60 0.106
888.70 0.106
888.80 0.1059
888.90 0.1059
889.00 0.1058
889.10 0.1058
889.20 0.1057
889.30 0.1057
889.40 0.1056
889.50 0.1056
889.60 0.1055
889.70 0.1055
889.80 0.1054
889.90 0.1054
890.00 0.1053
890.10 0.1053
890.20 0.1053
890.30 0.1052
890.40 0.1052
890.50 0.1051
890.60 0.1051
890.70 0.105
890.80 0.105
890.90 0.1049
891.00 0.1049
891.10 0.1048
891.20 0.1048
891.30 0.1047
891.40 0.1047
891.50 0.1047
891.60 0.1046
891.70 0.1046
891.80 0.1045
891.90 0.1045
892.00 0.1044
892.10 0.1044
892.20 0.1043
892.30 0.1043
892.40 0.1042
892.50 0.1042
892.60 0.1041
892.70 0.1041
892.80 0.1041
892.90 0.104
893.00 0.104
893.10 0.1039
893.20 0.1039
893.30 0.1038
893.40 0.1038
893.50 0.1037
893.60 0.1037
893.70 0.1036
893.80 0.1036
893.90 0.1036
894.00 0.1035
894.10 0.1035
894.20 0.1034
894.30 0.1034
894.40 0.1033
894.50 0.1033
894.60 0.1032
894.70 0.1032
894.80 0.1031
894.90 0.1031
895.00 0.1031
895.10 0.103
895.20 0.103
895.30 0.1029
895.40 0.1029
895.50 0.1028
895.60 0.1028
895.70 0.1027
895.80 0.1027
895.90 0.1027
896.00 0.1026
896.10 0.1026
896.20 0.1025
896.30 0.1025
896.40 0.1024
896.50 0.1024
896.60 0.1023
896.70 0.1023
896.80 0.1022
896.90 0.1022
897.00 0.1022
897.10 0.1021
897.20 0.1021
897.30 0.102
897.40 0.102
897.50 0.1019
897.60 0.1019
897.70 0.1018
897.80 0.1018
897.90 0.1018
898.00 0.1017
898.10 0.1017
898.20 0.1016
898.30 0.1016
898.40 0.1015
898.50 0.1015
898.60 0.1014
898.70 0.1014
898.80 0.1014
898.90 0.1013
899.00 0.1013
899.10 0.1012
899.20 0.1012
899.30 0.1011
899.40 0.1011
899.50 0.1011
899.60 0.101
899.70 0.101
899.80 0.1009
899.90 0.1009
900.00 0.1008
900.10 0.1008
900.20 0.1007
900.30 0.1007
900.40 0.1007
900.50 0.1006
900.60 0.1006
900.70 0.1005
900.80 0.1005
900.90 0.1004
901.00 0.1004
901.10 0.1003
901.20 0.1003
901.30 0.1003
901.40 0.1002
901.50 0.1002
901.60 0.1001
901.70 0.1001
901.80 0.1
901.90 0.1
902.00 0.09996
902.10 0.09991
902.20 0.09987
902.30 0.09983
902.40 0.09978
902.50 0.09974
902.60 0.0997
902.70 0.09965
902.80 0.09961
902.90 0.09957
903.00 0.09952
903.10 0.09948
903.20 0.09944
903.30 0.09939
903.40 0.09935
903.50 0.09931
903.60 0.09926
903.70 0.09922
903.80 0.09918
903.90 0.09913
904.00 0.09909
904.10 0.09905
904.20 0.09901
904.30 0.09896
904.40 0.09892
904.50 0.09888
904.60 0.09883
904.70 0.09879
904.80 0.09875
904.90 0.09871
905.00 0.09866
905.10 0.09862
905.20 0.09858
905.30 0.09853
905.40 0.09849
905.50 0.09845
905.60 0.09841
905.70 0.09836
905.80 0.09832
905.90 0.09828
906.00 0.09823
906.10 0.09819
906.20 0.09815
906.30 0.09811
906.40 0.09806
906.50 0.09802
906.60 0.09798
906.70 0.09794
906.80 0.09789
906.90 0.09785
907.00 0.09781
907.10 0.09777
907.20 0.09772
907.30 0.09768
907.40 0.09764
907.50 0.0976
907.60 0.09756
907.70 0.09751
907.80 0.09747
907.90 0.09743
908.00 0.09739
908.10 0.09735
908.20 0.0973
908.30 0.09726
908.40 0.09722
908.50 0.09718
908.60 0.09714
908.70 0.09709
908.80 0.09705
908.90 0.09701
909.00 0.09697
909.10 0.09693
909.20 0.09689
909.30 0.09684
909.40 0.0968
909.50 0.09676
909.60 0.09672
909.70 0.09668
909.80 0.09664
909.90 0.09659
910.00 0.09655
910.10 0.09651
910.20 0.09647
910.30 0.09643
910.40 0.09639
910.50 0.09634
910.60 0.0963
910.70 0.09626
910.80 0.09622
910.90 0.09618
911.00 0.09614
911.10 0.09609
911.20 0.09605
911.30 0.09601
911.40 0.09597
911.50 0.09593
911.60 0.09589
911.70 0.09585
911.80 0.09581
911.90 0.09576
912.00 0.09572
912.10 0.09568
912.20 0.09564
912.30 0.0956
912.40 0.09556
912.50 0.09552
912.60 0.09548
912.70 0.09544
912.80 0.0954
912.90 0.09535
913.00 0.09531
913.10 0.09527
913.20 0.09523
913.30 0.09519
913.40 0.09515
913.50 0.09511
913.60 0.09507
913.70 0.09503
913.80 0.09499
913.90 0.09495
914.00 0.09491
914.10 0.09487
914.20 0.09482
914.30 0.09478
914.40 0.09474
914.50 0.0947
914.60 0.09466
914.70 0.09462
914.80 0.09458
914.90 0.09454
915.00 0.0945
915.10 0.09446
915.20 0.09442
915.30 0.09438
915.40 0.09434
915.50 0.0943
915.60 0.09426
915.70 0.09422
915.80 0.09418
915.90 0.09414
916.00 0.0941
916.10 0.09406
916.20 0.09402
916.30 0.09398
916.40 0.09394
916.50 0.09389
916.60 0.09385
916.70 0.09381
916.80 0.09377
916.90 0.09373
917.00 0.09369
917.10 0.09365
917.20 0.09361
917.30 0.09357
917.40 0.09353
917.50 0.09349
917.60 0.09346
917.70 0.09342
917.80 0.09338
917.90 0.09334
918.00 0.0933
918.10 0.09326
918.20 0.09322
918.30 0.09318
918.40 0.09314
918.50 0.0931
918.60 0.09306
918.70 0.09302
918.80 0.09298
918.90 0.09294
919.00 0.0929
919.10 0.09286
919.20 0.09282
919.30 0.09278
919.40 0.09274
919.50 0.0927
919.60 0.09266
919.70 0.09262
919.80 0.09258
919.90 0.09255
920.00 0.09251
920.10 0.09247
920.20 0.09243
920.30 0.09239
920.40 0.09235
920.50 0.09231
920.60 0.09227
920.70 0.09223
920.80 0.09219
920.90 0.09215
921.00 0.09211
921.10 0.09207
921.20 0.09203
921.30 0.092
921.40 0.09196
921.50 0.09192
921.60 0.09188
921.70 0.09184
921.80 0.0918
921.90 0.09176
922.00 0.09172
922.10 0.09168
922.20 0.09164
922.30 0.09161
922.40 0.09157
922.50 0.09153
922.60 0.09149
922.70 0.09145
922.80 0.09141
922.90 0.09137
923.00 0.09133
923.10 0.09129
923.20 0.09126
923.30 0.09122
923.40 0.09118
923.50 0.09114
923.60 0.0911
923.70 0.09106
923.80 0.09102
923.90 0.09099
924.00 0.09095
924.10 0.09091
924.20 0.09087
924.30 0.09083
924.40 0.09079
924.50 0.09075
924.60 0.09071
924.70 0.09068
924.80 0.09064
924.90 0.0906
925.00 0.09056
925.10 0.09052
925.20 0.09048
925.30 0.09045
925.40 0.09041
925.50 0.09037
925.60 0.09033
925.70 0.09029
925.80 0.09025
925.90 0.09022
926.00 0.09018
926.10 0.09014
926.20 0.0901
926.30 0.09006
926.40 0.09002
926.50 0.08999
926.60 0.08995
926.70 0.08991
926.80 0.08987
926.90 0.08983
927.00 0.08979
927.10 0.08976
927.20 0.08972
927.30 0.08968
927.40 0.08964
927.50 0.0896
927.60 0.08957
927.70 0.08953
927.80 0.08949
927.90 0.08945
928.00 0.08942
928.10 0.08938
928.20 0.08934
928.30 0.0893
928.40 0.08927
928.50 0.08923
928.60 0.08919
928.70 0.08915
928.80 0.08911
928.90 0.08908
929.00 0.08904
929.10 0.089
929.20 0.08896
929.30 0.08893
929.40 0.08889
929.50 0.08885
929.60 0.08881
929.70 0.08878
929.80 0.08874
929.90 0.0887
930.00 0.08866
930.10 0.08863
930.20 0.08859
930.30 0.08855
930.40 0.08851
930.50 0.08848
930.60 0.08844
930.70 0.0884
930.80 0.08836
930.90 0.08833
931.00 0.08829
931.10 0.08825
931.20 0.08822
931.30 0.08818
931.40 0.08814
931.50 0.0881
931.60 0.08807
931.70 0.08803
931.80 0.08799
931.90 0.08795
932.00 0.08792
932.10 0.08788
932.20 0.08784
932.30 0.08781
932.40 0.08777
932.50 0.08773
932.60 0.0877
932.70 0.08766
932.80 0.08762
932.90 0.08759
933.00 0.08755
933.10 0.08751
933.20 0.08748
933.30 0.08744
933.40 0.0874
933.50 0.08736
933.60 0.08733
933.70 0.08729
933.80 0.08725
933.90 0.08722
934.00 0.08718
934.10 0.08714
934.20 0.08711
934.30 0.08707
934.40 0.08704
934.50 0.087
934.60 0.08696
934.70 0.08693
934.80 0.08689
934.90 0.08685
935.00 0.08682
935.10 0.08678
935.20 0.08674
935.30 0.08671
935.40 0.08667
935.50 0.08663
935.60 0.0866
935.70 0.08656
935.80 0.08653
935.90 0.08649
936.00 0.08645
936.10 0.08642
936.20 0.08638
936.30 0.08634
936.40 0.08631
936.50 0.08627
936.60 0.08624
936.70 0.0862
936.80 0.08616
936.90 0.08613
937.00 0.08609
937.10 0.08606
937.20 0.08602
937.30 0.08598
937.40 0.08595
937.50 0.08591
937.60 0.08588
937.70 0.08584
937.80 0.0858
937.90 0.08577
938.00 0.08573
938.10 0.0857
938.20 0.08566
938.30 0.08562
938.40 0.08559
938.50 0.08555
938.60 0.08552
938.70 0.08548
938.80 0.08545
938.90 0.08541
939.00 0.08538
939.10 0.08534
939.20 0.0853
939.30 0.08527
939.40 0.08523
939.50 0.0852
939.60 0.08516
939.70 0.08513
939.80 0.08509
939.90 0.08506
940.00 0.08502
940.10 0.08498
940.20 0.08495
940.30 0.08491
940.40 0.08488
940.50 0.08484
940.60 0.08481
940.70 0.08477
940.80 0.08474
940.90 0.0847
941.00 0.08467
941.10 0.08463
941.20 0.0846
941.30 0.08456
941.40 0.08453
941.50 0.08449
941.60 0.08445
941.70 0.08442
941.80 0.08438
941.90 0.08435
942.00 0.08431
942.10 0.08428
942.20 0.08424
942.30 0.08421
942.40 0.08417
942.50 0.08414
942.60 0.0841
942.70 0.08407
942.80 0.08403
942.90 0.084
943.00 0.08396
943.10 0.08393
943.20 0.0839
943.30 0.08386
943.40 0.08383
943.50 0.08379
943.60 0.08376
943.70 0.08372
943.80 0.08369
943.90 0.08365
944.00 0.08362
944.10 0.08358
944.20 0.08355
944.30 0.08351
944.40 0.08348
944.50 0.08344
944.60 0.08341
944.70 0.08337
944.80 0.08334
944.90 0.08331
945.00 0.08327
945.10 0.08324
945.20 0.0832
945.30 0.08317
945.40 0.08313
945.50 0.0831
945.60 0.08306
945.70 0.08303
945.80 0.083
945.90 0.08296
946.00 0.08293
946.10 0.08289
946.20 0.08286
946.30 0.08282
946.40 0.08279
946.50 0.08276
946.60 0.08272
946.70 0.08269
946.80 0.08265
946.90 0.08262
947.00 0.08258
947.10 0.08255
947.20 0.08252
947.30 0.08248
947.40 0.08245
947.50 0.08242
947.60 0.08238
947.70 0.08235
947.80 0.08231
947.90 0.08228
948.00 0.08225
948.10 0.08221
948.20 0.08218
948.30 0.08214
948.40 0.08211
948.50 0.08208
948.60 0.08204
948.70 0.08201
948.80 0.08197
948.90 0.08194
949.00 0.08191
949.10 0.08187
949.20 0.08184
949.30 0.08181
949.40 0.08177
949.50 0.08174
949.60 0.08171
949.70 0.08167
949.80 0.08164
949.90 0.08161
950.00 0.08157
950.10 0.08154
950.20 0.0815
950.30 0.08147
950.40 0.08144
950.50 0.0814
950.60 0.08137
950.70 0.08134
950.80 0.0813
950.90 0.08127
951.00 0.08124
951.10 0.0812
951.20 0.08117
951.30 0.08114
951.40 0.0811
951.50 0.08107
951.60 0.08104
951.70 0.08101
951.80 0.08097
951.90 0.08094
952.00 0.08091
952.10 0.08087
952.20 0.08084
952.30 0.08081
952.40 0.08077
952.50 0.08074
952.60 0.08071
952.70 0.08067
952.80 0.08064
952.90 0.08061
953.00 0.08058
953.10 0.08054
953.20 0.08051
953.30 0.08048
953.40 0.08045
953.50 0.08041
953.60 0.08038
953.70 0.08035
953.80 0.08031
953.90 0.08028
954.00 0.08025
954.10 0.08022
954.20 0.08018
954.30 0.08015
954.40 0.08012
954.50 0.08009
954.60 0.08005
954.70 0.08002
954.80 0.07999
954.90 0.07995
955.00 0.07992
955.10 0.07989
955.20 0.07985
955.30 0.07982
955.40 0.07979
955.50 0.07976
955.60 0.07972
955.70 0.07969
955.80 0.07966
955.90 0.07962
956.00 0.07959
956.10 0.07956
956.20 0.07952
956.30 0.07949
956.40 0.07946
956.50 0.07943
956.60 0.07939
956.70 0.07936
956.80 0.07933
956.90 0.0793
957.00 0.07926
957.10 0.07923
957.20 0.0792
957.30 0.07916
957.40 0.07913
957.50 0.0791
957.60 0.07907
957.70 0.07903
957.80 0.079
957.90 0.07897
958.00 0.07894
958.10 0.0789
958.20 0.07887
958.30 0.07884
958.40 0.07881
958.50 0.07878
958.60 0.07874
958.70 0.07871
958.80 0.07868
958.90 0.07865
959.00 0.07861
959.10 0.07858
959.20 0.07855
959.30 0.07852
959.40 0.07848
959.50 0.07845
959.60 0.07842
959.70 0.07839
959.80 0.07836
959.90 0.07832
960.00 0.07829
960.10 0.07826
960.20 0.07823
960.30 0.0782
960.40 0.07816
960.50 0.07813
960.60 0.0781
960.70 0.07807
960.80 0.07804
960.90 0.078
961.00 0.07797
961.10 0.07794
961.20 0.07791
961.30 0.07788
961.40 0.07784
961.50 0.07781
961.60 0.07778
961.70 0.07775
961.80 0.07772
961.90 0.07769
962.00 0.07765
962.10 0.07762
962.20 0.07759
962.30 0.07756
962.40 0.07753
962.50 0.0775
962.60 0.07746
962.70 0.07743
962.80 0.0774
962.90 0.07737
963.00 0.07734
963.10 0.07731
963.20 0.07727
963.30 0.07724
963.40 0.07721
963.50 0.07718
963.60 0.07715
963.70 0.07712
963.80 0.07709
963.90 0.07705
964.00 0.07702
964.10 0.07699
964.20 0.07696
964.30 0.07693
964.40 0.0769
964.50 0.07687
964.60 0.07684
964.70 0.0768
964.80 0.07677
964.90 0.07674
965.00 0.07671
965.10 0.07668
965.20 0.07665
965.30 0.07662
965.40 0.07659
965.50 0.07655
965.60 0.07652
965.70 0.07649
965.80 0.07646
965.90 0.07643
966.00 0.0764
966.10 0.07637
966.20 0.07634
966.30 0.07631
966.40 0.07628
966.50 0.07624
966.60 0.07621
966.70 0.07618
966.80 0.07615
966.90 0.07612
967.00 0.07609
967.10 0.07606
967.20 0.07603
967.30 0.076
967.40 0.07597
967.50 0.07594
967.60 0.0759
967.70 0.07587
967.80 0.07584
967.90 0.07581
968.00 0.07578
968.10 0.07575
968.20 0.07572
968.30 0.07569
968.40 0.07566
968.50 0.07563
968.60 0.0756
968.70 0.07557
968.80 0.07554
968.90 0.07551
969.00 0.07548
969.10 0.07544
969.20 0.07541
969.30 0.07538
969.40 0.07535
969.50 0.07532
969.60 0.07529
969.70 0.07526
969.80 0.07523
969.90 0.0752
970.00 0.07517
970.10 0.07514
970.20 0.07511
970.30 0.07508
970.40 0.07505
970.50 0.07502
970.60 0.07499
970.70 0.07496
970.80 0.07493
970.90 0.0749
971.00 0.07487
971.10 0.07484
971.20 0.07481
971.30 0.07478
971.40 0.07475
971.50 0.07472
971.60 0.07469
971.70 0.07466
971.80 0.07463
971.90 0.0746
972.00 0.07457
972.10 0.07454
972.20 0.07451
972.30 0.07448
972.40 0.07444
972.50 0.07441
972.60 0.07438
972.70 0.07436
972.80 0.07433
972.90 0.0743
973.00 0.07427
973.10 0.07424
973.20 0.07421
973.30 0.07418
973.40 0.07415
973.50 0.07412
973.60 0.07409
973.70 0.07406
973.80 0.07403
973.90 0.074
974.00 0.07397
974.10 0.07394
974.20 0.07391
974.30 0.07388
974.40 0.07385
974.50 0.07382
974.60 0.07379
974.70 0.07376
974.80 0.07373
974.90 0.0737
975.00 0.07367
975.10 0.07364
975.20 0.07361
975.30 0.07358
975.40 0.07355
975.50 0.07352
975.60 0.07349
975.70 0.07346
975.80 0.07343
975.90 0.0734
976.00 0.07337
976.10 0.07334
976.20 0.07331
976.30 0.07328
976.40 0.07325
976.50 0.07323
976.60 0.0732
976.70 0.07317
976.80 0.07314
976.90 0.07311
977.00 0.07308
977.10 0.07305
977.20 0.07302
977.30 0.07299
977.40 0.07296
977.50 0.07293
977.60 0.0729
977.70 0.07287
977.80 0.07284
977.90 0.07281
978.00 0.07278
978.10 0.07276
978.20 0.07273
978.30 0.0727
978.40 0.07267
978.50 0.07264
978.60 0.07261
978.70 0.07258
978.80 0.07255
978.90 0.07252
979.00 0.07249
979.10 0.07246
979.20 0.07244
979.30 0.07241
979.40 0.07238
979.50 0.07235
979.60 0.07232
979.70 0.07229
979.80 0.07226
979.90 0.07223
980.00 0.0722
980.10 0.07217
980.20 0.07214
980.30 0.07212
980.40 0.07209
980.50 0.07206
980.60 0.07203
980.70 0.072
980.80 0.07197
980.90 0.07194
981.00 0.07191
981.10 0.07188
981.20 0.07186
981.30 0.07183
981.40 0.0718
981.50 0.07177
981.60 0.07174
981.70 0.07171
981.80 0.07168
981.90 0.07165
982.00 0.07162
982.10 0.0716
982.20 0.07157
982.30 0.07154
982.40 0.07151
982.50 0.07148
982.60 0.07145
982.70 0.07142
982.80 0.0714
982.90 0.07137
983.00 0.07134
983.10 0.07131
983.20 0.07128
983.30 0.07125
983.40 0.07122
983.50 0.0712
983.60 0.07117
983.70 0.07114
983.80 0.07111
983.90 0.07108
984.00 0.07105
984.10 0.07102
984.20 0.071
984.30 0.07097
984.40 0.07094
984.50 0.07091
984.60 0.07088
984.70 0.07085
984.80 0.07083
984.90 0.0708
985.00 0.07077
985.10 0.07074
985.20 0.07071
985.30 0.07068
985.40 0.07066
985.50 0.07063
985.60 0.0706
985.70 0.07057
985.80 0.07054
985.90 0.07051
986.00 0.07049
986.10 0.07046
986.20 0.07043
986.30 0.0704
986.40 0.07037
986.50 0.07035
986.60 0.07032
986.70 0.07029
986.80 0.07026
986.90 0.07023
987.00 0.07021
987.10 0.07018
987.20 0.07015
987.30 0.07012
987.40 0.07009
987.50 0.07007
987.60 0.07004
987.70 0.07001
987.80 0.06998
987.90 0.06995
988.00 0.06993
988.10 0.0699
988.20 0.06987
988.30 0.06984
988.40 0.06981
988.50 0.06979
988.60 0.06976
988.70 0.06973
988.80 0.0697
988.90 0.06967
989.00 0.06965
989.10 0.06962
989.20 0.06959
989.30 0.06956
989.40 0.06954
989.50 0.06951
989.60 0.06948
989.70 0.06945
989.80 0.06943
989.90 0.0694
990.00 0.06937
990.10 0.06934
990.20 0.06931
990.30 0.06929
990.40 0.06926
990.50 0.06923
990.60 0.0692
990.70 0.06918
990.80 0.06915
990.90 0.06912
991.00 0.06909
991.10 0.06907
991.20 0.06904
991.30 0.06901
991.40 0.06898
991.50 0.06896
991.60 0.06893
991.70 0.0689
991.80 0.06887
991.90 0.06885
992.00 0.06882
992.10 0.06879
992.20 0.06877
992.30 0.06874
992.40 0.06871
992.50 0.06868
992.60 0.06866
992.70 0.06863
992.80 0.0686
992.90 0.06857
993.00 0.06855
993.10 0.06852
993.20 0.06849
993.30 0.06847
993.40 0.06844
993.50 0.06841
993.60 0.06838
993.70 0.06836
993.80 0.06833
993.90 0.0683
994.00 0.06828
994.10 0.06825
994.20 0.06822
994.30 0.06819
994.40 0.06817
994.50 0.06814
994.60 0.06811
994.70 0.06809
994.80 0.06806
994.90 0.06803
995.00 0.06801
995.10 0.06798
995.20 0.06795
995.30 0.06793
995.40 0.0679
995.50 0.06787
995.60 0.06784
995.70 0.06782
995.80 0.06779
995.90 0.06776
996.00 0.06774
996.10 0.06771
996.20 0.06768
996.30 0.06766
996.40 0.06763
996.50 0.0676
996.60 0.06758
996.70 0.06755
996.80 0.06752
996.90 0.0675
997.00 0.06747
997.10 0.06744
997.20 0.06742
997.30 0.06739
997.40 0.06737
997.50 0.06734
997.60 0.06731
997.70 0.06729
997.80 0.06726
997.90 0.06723
998.00 0.06721
998.10 0.06718
998.20 0.06715
998.30 0.06713
998.40 0.0671
998.50 0.06708
998.60 0.06705
998.70 0.06702
998.80 0.067
998.90 0.06697
999.00 0.06695
999.10 0.06692
999.20 0.06689
999.30 0.06687
999.40 0.06684
999.50 0.06681
999.60 0.06679
999.70 0.06676
999.80 0.06673
999.90 0.0667
1000.00 0.06668
1000.10 0.06665
1000.20 0.06662
1000.30 0.06659
1000.40 0.06656
1000.50 0.06654
1000.60 0.06651
1000.70 0.06648
1000.80 0.06645
1000.90 0.06642
1001.00 0.06639
1001.10 0.06637
1001.20 0.06634
1001.30 0.06631
1001.40 0.06628
1001.50 0.06625
1001.60 0.06623
1001.70 0.0662
1001.80 0.06618
1001.90 0.06615
1002.00 0.06612
1002.10 0.0661
1002.20 0.06607
1002.30 0.06605
1002.40 0.06602
1002.50 0.066
1002.60 0.06597
1002.70 0.06595
1002.80 0.06592
1002.90 0.0659
1003.00 0.06587
1003.10 0.06585
1003.20 0.06582
1003.30 0.0658
1003.40 0.06578
1003.50 0.06575
1003.60 0.06573
1003.70 0.0657
1003.80 0.06568
1003.90 0.06565
1004.00 0.06563
1004.10 0.0656
1004.20 0.06558
1004.30 0.06555
1004.40 0.06553
1004.50 0.0655
1004.60 0.06548
1004.70 0.06545
1004.80 0.06542
1004.90 0.0654
1005.00 0.06537
1005.10 0.06535
1005.20 0.06532
1005.30 0.0653
1005.40 0.06527
1005.50 0.06525
1005.60 0.06522
1005.70 0.06519
1005.80 0.06517
1005.90 0.06514
1006.00 0.06512
1006.10 0.06509
1006.20 0.06506
1006.30 0.06504
1006.40 0.06501
1006.50 0.06499
1006.60 0.06496
1006.70 0.06493
1006.80 0.06491
1006.90 0.06488
1007.00 0.06486
1007.10 0.06483
1007.20 0.0648
1007.30 0.06478
1007.40 0.06475
1007.50 0.06473
1007.60 0.0647
1007.70 0.06467
1007.80 0.06465
1007.90 0.06462
1008.00 0.0646
1008.10 0.06457
1008.20 0.06455
1008.30 0.06452
1008.40 0.0645
1008.50 0.06447
1008.60 0.06444
1008.70 0.06442
1008.80 0.06439
1008.90 0.06437
1009.00 0.06434
1009.10 0.06432
1009.20 0.06429
1009.30 0.06427
1009.40 0.06424
1009.50 0.06422
1009.60 0.06419
1009.70 0.06417
1009.80 0.06414
1009.90 0.06412
1010.00 0.06409
1010.10 0.06407
1010.20 0.06404
1010.30 0.06402
1010.40 0.06399
1010.50 0.06397
1010.60 0.06394
1010.70 0.06392
1010.80 0.06389
1010.90 0.06387
1011.00 0.06384
1011.10 0.06382
1011.20 0.06379
1011.30 0.06377
1011.40 0.06374
1011.50 0.06372
1011.60 0.06369
1011.70 0.06367
1011.80 0.06364
1011.90 0.06362
1012.00 0.06359
1012.10 0.06357
1012.20 0.06354
1012.30 0.06352
1012.40 0.0635
1012.50 0.06347
1012.60 0.06345
1012.70 0.06342
1012.80 0.0634
1012.90 0.06337
1013.00 0.06335
1013.10 0.06332
1013.20 0.0633
1013.30 0.06327
1013.40 0.06325
1013.50 0.06323
1013.60 0.0632
1013.70 0.06318
1013.80 0.06315
1013.90 0.06313
1014.00 0.0631
1014.10 0.06308
1014.20 0.06306
1014.30 0.06303
1014.40 0.06301
1014.50 0.06298
1014.60 0.06296
1014.70 0.06293
1014.80 0.06291
1014.90 0.06289
1015.00 0.06286
1015.10 0.06284
1015.20 0.06281
1015.30 0.06279
1015.40 0.06277
1015.50 0.06274
1015.60 0.06272
1015.70 0.06269
1015.80 0.06267
1015.90 0.06265
1016.00 0.06262
1016.10 0.0626
1016.20 0.06257
1016.30 0.06255
1016.40 0.06253
1016.50 0.0625
1016.60 0.06248
1016.70 0.06245
1016.80 0.06243
1016.90 0.06241
1017.00 0.06238
1017.10 0.06236
1017.20 0.06233
1017.30 0.06231
1017.40 0.06229
1017.50 0.06226
1017.60 0.06224
1017.70 0.06222
1017.80 0.06219
1017.90 0.06217
1018.00 0.06214
1018.10 0.06212
1018.20 0.0621
1018.30 0.06207
1018.40 0.06205
1018.50 0.06203
1018.60 0.062
1018.70 0.06198
1018.80 0.06195
1018.90 0.06193
1019.00 0.06191
1019.10 0.06188
1019.20 0.06186
1019.30 0.06184
1019.40 0.06181
1019.50 0.06179
1019.60 0.06177
1019.70 0.06174
1019.80 0.06172
1019.90 0.06169
1020.00 0.06167
1020.10 0.06165
1020.20 0.06162
1020.30 0.0616
1020.40 0.06158
1020.50 0.06155
1020.60 0.06153
1020.70 0.06151
1020.80 0.06148
1020.90 0.06146
1021.00 0.06144
1021.10 0.06141
1021.20 0.06139
1021.30 0.06137
1021.40 0.06134
1021.50 0.06132
1021.60 0.0613
1021.70 0.06127
1021.80 0.06125
1021.90 0.06123
1022.00 0.0612
1022.10 0.06118
1022.20 0.06116
1022.30 0.06113
1022.40 0.06111
1022.50 0.06109
1022.60 0.06106
1022.70 0.06104
1022.80 0.06102
1022.90 0.06099
1023.00 0.06097
1023.10 0.06095
1023.20 0.06092
1023.30 0.0609
1023.40 0.06088
1023.50 0.06086
1023.60 0.06083
1023.70 0.06081
1023.80 0.06079
1023.90 0.06076
1024.00 0.06074
1024.10 0.06072
1024.20 0.06069
1024.30 0.06067
1024.40 0.06065
1024.50 0.06062
1024.60 0.0606
1024.70 0.06058
1024.80 0.06056
1024.90 0.06053
1025.00 0.06051
1025.10 0.06049
1025.20 0.06046
1025.30 0.06044
1025.40 0.06042
1025.50 0.06039
1025.60 0.06037
1025.70 0.06035
1025.80 0.06033
1025.90 0.0603
1026.00 0.06028
1026.10 0.06026
1026.20 0.06023
1026.30 0.06021
1026.40 0.06019
1026.50 0.06017
1026.60 0.06014
1026.70 0.06012
1026.80 0.0601
1026.90 0.06007
1027.00 0.06005
1027.10 0.06003
1027.20 0.06001
1027.30 0.05998
1027.40 0.05996
1027.50 0.05994
1027.60 0.05991
1027.70 0.05989
1027.80 0.05987
1027.90 0.05985
1028.00 0.05982
1028.10 0.0598
1028.20 0.05978
1028.30 0.05976
1028.40 0.05973
1028.50 0.05971
1028.60 0.05969
1028.70 0.05967
1028.80 0.05964
1028.90 0.05962
1029.00 0.0596
1029.10 0.05958
1029.20 0.05955
1029.30 0.05953
1029.40 0.05951
1029.50 0.05949
1029.60 0.05946
1029.70 0.05944
1029.80 0.05942
1029.90 0.05939
1030.00 0.05937
1030.10 0.05935
1030.20 0.05933
1030.30 0.05931
1030.40 0.05928
1030.50 0.05926
1030.60 0.05924
1030.70 0.05922
1030.80 0.05919
1030.90 0.05917
1031.00 0.05915
1031.10 0.05913
1031.20 0.0591
1031.30 0.05908
1031.40 0.05906
1031.50 0.05904
1031.60 0.05901
1031.70 0.05899
1031.80 0.05897
1031.90 0.05895
1032.00 0.05892
1032.10 0.0589
1032.20 0.05888
1032.30 0.05886
1032.40 0.05883
1032.50 0.05881
1032.60 0.05879
1032.70 0.05877
1032.80 0.05875
1032.90 0.05872
1033.00 0.0587
1033.10 0.05868
1033.20 0.05866
1033.30 0.05864
1033.40 0.05861
1033.50 0.05859
1033.60 0.05857
1033.70 0.05855
1033.80 0.05852
1033.90 0.0585
1034.00 0.05848
1034.10 0.05846
1034.20 0.05844
1034.30 0.05841
1034.40 0.05839
1034.50 0.05837
1034.60 0.05835
1034.70 0.05833
1034.80 0.0583
1034.90 0.05828
1035.00 0.05826
1035.10 0.05824
1035.20 0.05822
1035.30 0.05819
1035.40 0.05817
1035.50 0.05815
1035.60 0.05813
1035.70 0.05811
1035.80 0.05808
1035.90 0.05806
1036.00 0.05804
1036.10 0.05802
1036.20 0.058
1036.30 0.05797
1036.40 0.05795
1036.50 0.05793
1036.60 0.05791
1036.70 0.05789
1036.80 0.05786
1036.90 0.05784
1037.00 0.05782
1037.10 0.0578
1037.20 0.05778
1037.30 0.05776
1037.40 0.05773
1037.50 0.05771
1037.60 0.05769
1037.70 0.05767
1037.80 0.05765
1037.90 0.05763
1038.00 0.0576
1038.10 0.05758
1038.20 0.05756
1038.30 0.05754
1038.40 0.05752
1038.50 0.05749
1038.60 0.05747
1038.70 0.05745
1038.80 0.05743
1038.90 0.05741
1039.00 0.05739
1039.10 0.05737
1039.20 0.05734
1039.30 0.05732
1039.40 0.0573
1039.50 0.05728
1039.60 0.05726
1039.70 0.05724
1039.80 0.05721
1039.90 0.05719
1040.00 0.05717
1040.10 0.05715
1040.20 0.05713
1040.30 0.05711
1040.40 0.05708
1040.50 0.05706
1040.60 0.05704
1040.70 0.05702
1040.80 0.057
1040.90 0.05698
1041.00 0.05696
1041.10 0.05693
1041.20 0.05691
1041.30 0.05689
1041.40 0.05687
1041.50 0.05685
1041.60 0.05683
1041.70 0.05681
1041.80 0.05678
1041.90 0.05676
1042.00 0.05674
1042.10 0.05672
1042.20 0.0567
1042.30 0.05668
1042.40 0.05666
1042.50 0.05663
1042.60 0.05661
1042.70 0.05659
1042.80 0.05657
1042.90 0.05655
1043.00 0.05653
1043.10 0.05651
1043.20 0.05649
1043.30 0.05646
1043.40 0.05644
1043.50 0.05642
1043.60 0.0564
1043.70 0.05638
1043.80 0.05636
1043.90 0.05634
1044.00 0.05632
1044.10 0.0563
1044.20 0.05627
1044.30 0.05625
1044.40 0.05623
1044.50 0.05621
1044.60 0.05619
1044.70 0.05617
1044.80 0.05615
1044.90 0.05613
1045.00 0.05611
1045.10 0.05608
1045.20 0.05606
1045.30 0.05604
1045.40 0.05602
1045.50 0.056
1045.60 0.05598
1045.70 0.05596
1045.80 0.05594
1045.90 0.05592
1046.00 0.05589
1046.10 0.05587
1046.20 0.05585
1046.30 0.05583
1046.40 0.05581
1046.50 0.05579
1046.60 0.05577
1046.70 0.05575
1046.80 0.05573
1046.90 0.05571
1047.00 0.05568
1047.10 0.05566
1047.20 0.05564
1047.30 0.05562
1047.40 0.0556
1047.50 0.05558
1047.60 0.05556
1047.70 0.05554
1047.80 0.05552
1047.90 0.0555
1048.00 0.05548
1048.10 0.05546
1048.20 0.05544
1048.30 0.05541
1048.40 0.05539
1048.50 0.05537
1048.60 0.05535
1048.70 0.05533
1048.80 0.05531
1048.90 0.05529
1049.00 0.05527
1049.10 0.05525
1049.20 0.05523
1049.30 0.05521
1049.40 0.05519
1049.50 0.05517
1049.60 0.05515
1049.70 0.05512
1049.80 0.0551
1049.90 0.05508
1050.00 0.05506
1050.10 0.05504
1050.20 0.05502
1050.30 0.055
1050.40 0.05498
1050.50 0.05496
1050.60 0.05494
1050.70 0.05492
1050.80 0.0549
1050.90 0.05488
1051.00 0.05486
1051.10 0.05484
1051.20 0.05482
1051.30 0.05479
1051.40 0.05477
1051.50 0.05475
1051.60 0.05473
1051.70 0.05471
1051.80 0.05469
1051.90 0.05467
1052.00 0.05465
1052.10 0.05463
1052.20 0.05461
1052.30 0.05459
1052.40 0.05457
1052.50 0.05455
1052.60 0.05453
1052.70 0.05451
1052.80 0.05449
1052.90 0.05447
1053.00 0.05445
1053.10 0.05443
1053.20 0.05441
1053.30 0.05439
1053.40 0.05437
1053.50 0.05435
1053.60 0.05432
1053.70 0.0543
1053.80 0.05428
1053.90 0.05426
1054.00 0.05424
1054.10 0.05422
1054.20 0.0542
1054.30 0.05418
1054.40 0.05416
1054.50 0.05414
1054.60 0.05412
1054.70 0.0541
1054.80 0.05408
1054.90 0.05406
1055.00 0.05404
1055.10 0.05402
1055.20 0.054
1055.30 0.05398
1055.40 0.05396
1055.50 0.05394
1055.60 0.05392
1055.70 0.0539
1055.80 0.05388
1055.90 0.05386
1056.00 0.05384
1056.10 0.05382
1056.20 0.0538
1056.30 0.05378
1056.40 0.05376
1056.50 0.05374
1056.60 0.05372
1056.70 0.0537
1056.80 0.05368
1056.90 0.05366
1057.00 0.05364
1057.10 0.05362
1057.20 0.0536
1057.30 0.05358
1057.40 0.05356
1057.50 0.05354
1057.60 0.05352
1057.70 0.0535
1057.80 0.05348
1057.90 0.05346
1058.00 0.05344
1058.10 0.05342
1058.20 0.0534
1058.30 0.05338
1058.40 0.05336
1058.50 0.05334
1058.60 0.05332
1058.70 0.0533
1058.80 0.05328
1058.90 0.05326
1059.00 0.05324
1059.10 0.05322
1059.20 0.0532
1059.30 0.05318
1059.40 0.05316
1059.50 0.05314
1059.60 0.05312
1059.70 0.0531
1059.80 0.05308
1059.90 0.05306
1060.00 0.05304
1060.10 0.05302
1060.20 0.053
1060.30 0.05298
1060.40 0.05296
1060.50 0.05294
1060.60 0.05292
1060.70 0.0529
1060.80 0.05288
1060.90 0.05286
1061.00 0.05284
1061.10 0.05282
1061.20 0.0528
1061.30 0.05278
1061.40 0.05276
1061.50 0.05274
1061.60 0.05272
1061.70 0.05271
1061.80 0.05269
1061.90 0.05267
1062.00 0.05265
1062.10 0.05263
1062.20 0.05261
1062.30 0.05259
1062.40 0.05257
1062.50 0.05255
1062.60 0.05253
1062.70 0.05251
1062.80 0.05249
1062.90 0.05247
1063.00 0.05245
1063.10 0.05243
1063.20 0.05241
1063.30 0.05239
1063.40 0.05237
1063.50 0.05235
1063.60 0.05233
1063.70 0.05231
1063.80 0.05229
1063.90 0.05227
1064.00 0.05226
1064.10 0.05224
1064.20 0.05222
1064.30 0.0522
1064.40 0.05218
1064.50 0.05216
1064.60 0.05214
1064.70 0.05212
1064.80 0.0521
1064.90 0.05208
1065.00 0.05206
1065.10 0.05204
1065.20 0.05202
1065.30 0.052
1065.40 0.05198
1065.50 0.05196
1065.60 0.05194
1065.70 0.05192
1065.80 0.05191
1065.90 0.05189
1066.00 0.05187
1066.10 0.05185
1066.20 0.05183
1066.30 0.05181
1066.40 0.05179
1066.50 0.05177
1066.60 0.05175
1066.70 0.05173
1066.80 0.05171
1066.90 0.05169
1067.00 0.05167
1067.10 0.05165
1067.20 0.05163
1067.30 0.05162
1067.40 0.0516
1067.50 0.05158
1067.60 0.05156
1067.70 0.05154
1067.80 0.05152
1067.90 0.0515
1068.00 0.05148
1068.10 0.05146
1068.20 0.05144
1068.30 0.05142
1068.40 0.0514
1068.50 0.05139
1068.60 0.05137
1068.70 0.05135
1068.80 0.05133
1068.90 0.05131
1069.00 0.05129
1069.10 0.05127
1069.20 0.05125
1069.30 0.05123
1069.40 0.05121
1069.50 0.05119
1069.60 0.05118
1069.70 0.05116
1069.80 0.05114
1069.90 0.05112
1070.00 0.0511
1070.10 0.05108
1070.20 0.05106
1070.30 0.05104
1070.40 0.05102
1070.50 0.051
1070.60 0.05098
1070.70 0.05097
1070.80 0.05095
1070.90 0.05093
1071.00 0.05091
1071.10 0.05089
1071.20 0.05087
1071.30 0.05085
1071.40 0.05083
1071.50 0.05081
1071.60 0.05079
1071.70 0.05078
1071.80 0.05076
1071.90 0.05074
1072.00 0.05072
1072.10 0.0507
1072.20 0.05068
1072.30 0.05066
1072.40 0.05064
1072.50 0.05062
1072.60 0.05061
1072.70 0.05059
1072.80 0.05057
1072.90 0.05055
1073.00 0.05053
1073.10 0.05051
1073.20 0.05049
1073.30 0.05047
1073.40 0.05045
1073.50 0.05044
1073.60 0.05042
1073.70 0.0504
1073.80 0.05038
1073.90 0.05036
1074.00 0.05034
1074.10 0.05032
1074.20 0.0503
1074.30 0.05029
1074.40 0.05027
1074.50 0.05025
1074.60 0.05023
1074.70 0.05021
1074.80 0.05019
1074.90 0.05017
1075.00 0.05015
1075.10 0.05014
1075.20 0.05012
1075.30 0.0501
1075.40 0.05008
1075.50 0.05006
1075.60 0.05004
1075.70 0.05002
1075.80 0.05001
1075.90 0.04999
1076.00 0.04997
1076.10 0.04995
1076.20 0.04993
1076.30 0.04991
1076.40 0.04989
1076.50 0.04987
1076.60 0.04986
1076.70 0.04984
1076.80 0.04982
1076.90 0.0498
1077.00 0.04978
1077.10 0.04976
1077.20 0.04974
1077.30 0.04973
1077.40 0.04971
1077.50 0.04969
1077.60 0.04967
1077.70 0.04965
1077.80 0.04963
1077.90 0.04962
1078.00 0.0496
1078.10 0.04958
1078.20 0.04956
1078.30 0.04954
1078.40 0.04952
1078.50 0.0495
1078.60 0.04949
1078.70 0.04947
1078.80 0.04945
1078.90 0.04943
1079.00 0.04941
1079.10 0.04939
1079.20 0.04938
1079.30 0.04936
1079.40 0.04934
1079.50 0.04932
1079.60 0.0493
1079.70 0.04928
1079.80 0.04927
1079.90 0.04925
1080.00 0.04923
1080.10 0.04921
1080.20 0.04919
1080.30 0.04917
1080.40 0.04916
1080.50 0.04914
1080.60 0.04912
1080.70 0.0491
1080.80 0.04908
1080.90 0.04906
1081.00 0.04905
1081.10 0.04903
1081.20 0.04901
1081.30 0.04899
1081.40 0.04897
1081.50 0.04895
1081.60 0.04894
1081.70 0.04892
1081.80 0.0489
1081.90 0.04888
1082.00 0.04886
1082.10 0.04885
1082.20 0.04883
1082.30 0.04881
1082.40 0.04879
1082.50 0.04877
1082.60 0.04876
1082.70 0.04874
1082.80 0.04872
1082.90 0.0487
1083.00 0.04868
1083.10 0.04866
1083.20 0.04865
1083.30 0.04863
1083.40 0.04861
1083.50 0.04859
1083.60 0.04857
1083.70 0.04856
1083.80 0.04854
1083.90 0.04852
1084.00 0.0485
1084.10 0.04849
1084.20 0.04847
1084.30 0.04845
1084.40 0.04843
1084.50 0.04841
1084.60 0.0484
1084.70 0.04838
1084.80 0.04836
1084.90 0.04834
1085.00 0.04832
1085.10 0.04831
1085.20 0.04829
1085.30 0.04827
1085.40 0.04825
1085.50 0.04824
1085.60 0.04822
1085.70 0.0482
1085.80 0.04818
1085.90 0.04817
1086.00 0.04815
1086.10 0.04813
1086.20 0.04811
1086.30 0.04809
1086.40 0.04808
1086.50 0.04806
1086.60 0.04804
1086.70 0.04802
1086.80 0.04801
1086.90 0.04799
1087.00 0.04797
1087.10 0.04795
1087.20 0.04794
1087.30 0.04792
1087.40 0.0479
1087.50 0.04789
1087.60 0.04787
1087.70 0.04785
1087.80 0.04783
1087.90 0.04782
1088.00 0.0478
1088.10 0.04778
1088.20 0.04776
1088.30 0.04775
1088.40 0.04773
1088.50 0.04771
1088.60 0.0477
1088.70 0.04768
1088.80 0.04766
1088.90 0.04764
1089.00 0.04763
1089.10 0.04761
1089.20 0.04759
1089.30 0.04758
1089.40 0.04756
1089.50 0.04754
1089.60 0.04753
1089.70 0.04751
1089.80 0.04749
1089.90 0.04748
1090.00 0.04746
1090.10 0.04744
1090.20 0.04742
1090.30 0.04741
1090.40 0.04739
1090.50 0.04737
1090.60 0.04736
1090.70 0.04734
1090.80 0.04732
1090.90 0.04731
1091.00 0.04729
1091.10 0.04728
1091.20 0.04726
1091.30 0.04724
1091.40 0.04723
1091.50 0.04721
1091.60 0.04719
1091.70 0.04718
1091.80 0.04716
1091.90 0.04714
1092.00 0.04713
1092.10 0.04711
1092.20 0.0471
1092.30 0.04708
1092.40 0.04706
1092.50 0.04705
1092.60 0.04703
1092.70 0.04702
1092.80 0.047
1092.90 0.04699
1093.00 0.04697
1093.10 0.04696
1093.20 0.04695
1093.30 0.04693
1093.40 0.04692
1093.50 0.04691
1093.60 0.0469
1093.70 0.04689
1093.80 0.04687
1093.90 0.04686
1094.00 0.04683
1094.10 0.04681
1094.20 0.04679
1094.30 0.04677
1094.40 0.04675
1094.50 0.04673
1094.60 0.04671
1094.70 0.04669
1094.80 0.04667
1094.90 0.04665
1095.00 0.04663
1095.10 0.04662
1095.20 0.0466
1095.30 0.04658
1095.40 0.04656
1095.50 0.04655
1095.60 0.04653
1095.70 0.04651
1095.80 0.0465
1095.90 0.04648
1096.00 0.04646
1096.10 0.04644
1096.20 0.04643
1096.30 0.04641
1096.40 0.04639
1096.50 0.04637
1096.60 0.04636
1096.70 0.04634
1096.80 0.04632
1096.90 0.04631
1097.00 0.04629
1097.10 0.04627
1097.20 0.04626
1097.30 0.04624
1097.40 0.04622
1097.50 0.04621
1097.60 0.04619
1097.70 0.04617
1097.80 0.04616
1097.90 0.04614
1098.00 0.04612
1098.10 0.04611
1098.20 0.04609
1098.30 0.04607
1098.40 0.04606
1098.50 0.04604
1098.60 0.04602
1098.70 0.04601
1098.80 0.04599
1098.90 0.04597
1099.00 0.04596
1099.10 0.04594
1099.20 0.04592
1099.30 0.04591
1099.40 0.04589
1099.50 0.04588
1099.60 0.04586
1099.70 0.04584
1099.80 0.04583
1099.90 0.04581
1100.00 0.04579
1100.10 0.04578
1100.20 0.04576
1100.30 0.04574
1100.40 0.04573
1100.50 0.04571
1100.60 0.0457
1100.70 0.04568
1100.80 0.04566
1100.90 0.04565
1101.00 0.04563
1101.10 0.04562
1101.20 0.0456
1101.30 0.04558
1101.40 0.04557
1101.50 0.04555
1101.60 0.04554
1101.70 0.04552
1101.80 0.0455
1101.90 0.04549
1102.00 0.04547
1102.10 0.04546
1102.20 0.04544
1102.30 0.04542
1102.40 0.04541
1102.50 0.04539
1102.60 0.04538
1102.70 0.04536
1102.80 0.04535
1102.90 0.04533
1103.00 0.04531
1103.10 0.0453
1103.20 0.04528
1103.30 0.04527
1103.40 0.04525
1103.50 0.04523
1103.60 0.04522
1103.70 0.0452
1103.80 0.04519
1103.90 0.04517
1104.00 0.04516
1104.10 0.04514
1104.20 0.04513
1104.30 0.04511
1104.40 0.04509
1104.50 0.04508
1104.60 0.04506
1104.70 0.04505
1104.80 0.04503
1104.90 0.04502
1105.00 0.045
1105.10 0.04498
1105.20 0.04497
1105.30 0.04495
1105.40 0.04494
1105.50 0.04492
1105.60 0.04491
1105.70 0.04489
1105.80 0.04488
1105.90 0.04486
1106.00 0.04484
1106.10 0.04483
1106.20 0.04481
1106.30 0.0448
1106.40 0.04478
1106.50 0.04477
1106.60 0.04475
1106.70 0.04474
1106.80 0.04472
1106.90 0.04471
1107.00 0.04469
1107.10 0.04467
1107.20 0.04466
1107.30 0.04464
1107.40 0.04463
1107.50 0.04461
1107.60 0.0446
1107.70 0.04458
1107.80 0.04457
1107.90 0.04455
1108.00 0.04454
1108.10 0.04452
1108.20 0.04451
1108.30 0.04449
1108.40 0.04447
1108.50 0.04446
1108.60 0.04444
1108.70 0.04443
1108.80 0.04441
1108.90 0.0444
1109.00 0.04438
1109.10 0.04437
1109.20 0.04435
1109.30 0.04434
1109.40 0.04432
1109.50 0.04431
1109.60 0.04429
1109.70 0.04428
1109.80 0.04426
1109.90 0.04425
1110.00 0.04423
1110.10 0.04421
1110.20 0.0442
1110.30 0.04418
1110.40 0.04417
1110.50 0.04415
1110.60 0.04414
1110.70 0.04412
1110.80 0.04411
1110.90 0.04409
1111.00 0.04408
1111.10 0.04406
1111.20 0.04405
1111.30 0.04403
1111.40 0.04402
1111.50 0.044
1111.60 0.04399
1111.70 0.04397
1111.80 0.04396
1111.90 0.04394
1112.00 0.04393
1112.10 0.04391
1112.20 0.0439
1112.30 0.04388
1112.40 0.04387
1112.50 0.04385
1112.60 0.04383
1112.70 0.04382
1112.80 0.0438
1112.90 0.04379
1113.00 0.04377
1113.10 0.04376
1113.20 0.04374
1113.30 0.04373
1113.40 0.04371
1113.50 0.0437
1113.60 0.04368
1113.70 0.04367
1113.80 0.04365
1113.90 0.04364
1114.00 0.04362
1114.10 0.04361
1114.20 0.04359
1114.30 0.04358
1114.40 0.04356
1114.50 0.04355
1114.60 0.04353
1114.70 0.04352
1114.80 0.0435
1114.90 0.04349
1115.00 0.04347
1115.10 0.04346
1115.20 0.04344
1115.30 0.04343
1115.40 0.04341
1115.50 0.0434
1115.60 0.04338
1115.70 0.04337
1115.80 0.04335
1115.90 0.04334
1116.00 0.04332
1116.10 0.04331
1116.20 0.04329
1116.30 0.04328
1116.40 0.04326
1116.50 0.04325
1116.60 0.04323
1116.70 0.04322
1116.80 0.0432
1116.90 0.04319
1117.00 0.04317
1117.10 0.04316
1117.20 0.04314
1117.30 0.04313
1117.40 0.04311
1117.50 0.0431
1117.60 0.04308
1117.70 0.04307
1117.80 0.04306
1117.90 0.04304
1118.00 0.04303
1118.10 0.04301
1118.20 0.043
1118.30 0.04298
1118.40 0.04297
1118.50 0.04295
1118.60 0.04294
1118.70 0.04292
1118.80 0.04291
1118.90 0.04289
1119.00 0.04288
1119.10 0.04286
1119.20 0.04285
1119.30 0.04283
1119.40 0.04282
1119.50 0.0428
1119.60 0.04279
1119.70 0.04277
1119.80 0.04276
1119.90 0.04274
1120.00 0.04273
1120.10 0.04271
1120.20 0.0427
1120.30 0.04269
1120.40 0.04267
1120.50 0.04266
1120.60 0.04264
1120.70 0.04263
1120.80 0.04261
1120.90 0.0426
1121.00 0.04258
1121.10 0.04257
1121.20 0.04255
1121.30 0.04254
1121.40 0.04252
1121.50 0.04251
1121.60 0.04249
1121.70 0.04248
1121.80 0.04246
1121.90 0.04245
1122.00 0.04244
1122.10 0.04242
1122.20 0.04241
1122.30 0.04239
1122.40 0.04238
1122.50 0.04236
1122.60 0.04235
1122.70 0.04233
1122.80 0.04232
1122.90 0.0423
1123.00 0.04229
1123.10 0.04227
1123.20 0.04226
1123.30 0.04224
1123.40 0.04223
1123.50 0.04222
1123.60 0.0422
1123.70 0.04219
1123.80 0.04217
1123.90 0.04216
1124.00 0.04214
1124.10 0.04213
1124.20 0.04211
1124.30 0.0421
1124.40 0.04208
1124.50 0.04207
1124.60 0.04206
1124.70 0.04204
1124.80 0.04203
1124.90 0.04201
1125.00 0.042
1125.10 0.04198
1125.20 0.04197
1125.30 0.04195
1125.40 0.04194
1125.50 0.04193
1125.60 0.04191
1125.70 0.0419
1125.80 0.04188
1125.90 0.04187
1126.00 0.04185
1126.10 0.04184
1126.20 0.04182
1126.30 0.04181
1126.40 0.04179
1126.50 0.04178
1126.60 0.04177
1126.70 0.04175
1126.80 0.04174
1126.90 0.04172
1127.00 0.04171
1127.10 0.04169
1127.20 0.04168
1127.30 0.04167
1127.40 0.04165
1127.50 0.04164
1127.60 0.04162
1127.70 0.04161
1127.80 0.04159
1127.90 0.04158
1128.00 0.04156
1128.10 0.04155
1128.20 0.04154
1128.30 0.04152
1128.40 0.04151
1128.50 0.04149
1128.60 0.04148
1128.70 0.04146
1128.80 0.04145
1128.90 0.04144
1129.00 0.04142
1129.10 0.04141
1129.20 0.04139
1129.30 0.04138
1129.40 0.04136
1129.50 0.04135
1129.60 0.04134
1129.70 0.04132
1129.80 0.04131
1129.90 0.04129
1130.00 0.04128
1130.10 0.04126
1130.20 0.04125
1130.30 0.04124
1130.40 0.04122
1130.50 0.04121
1130.60 0.04119
1130.70 0.04118
1130.80 0.04116
1130.90 0.04115
1131.00 0.04114
1131.10 0.04112
1131.20 0.04111
1131.30 0.04109
1131.40 0.04108
1131.50 0.04107
1131.60 0.04105
1131.70 0.04104
1131.80 0.04102
1131.90 0.04101
1132.00 0.04099
1132.10 0.04098
1132.20 0.04097
1132.30 0.04095
1132.40 0.04094
1132.50 0.04092
1132.60 0.04091
1132.70 0.0409
1132.80 0.04088
1132.90 0.04087
1133.00 0.04085
1133.10 0.04084
1133.20 0.04083
1133.30 0.04081
1133.40 0.0408
1133.50 0.04078
1133.60 0.04077
1133.70 0.04076
1133.80 0.04074
1133.90 0.04073
1134.00 0.04071
1134.10 0.0407
1134.20 0.04069
1134.30 0.04067
1134.40 0.04066
1134.50 0.04064
1134.60 0.04063
1134.70 0.04062
1134.80 0.0406
1134.90 0.04059
1135.00 0.04057
1135.10 0.04056
1135.20 0.04055
1135.30 0.04053
1135.40 0.04052
1135.50 0.0405
1135.60 0.04049
1135.70 0.04048
1135.80 0.04046
1135.90 0.04045
1136.00 0.04043
1136.10 0.04042
1136.20 0.04041
1136.30 0.04039
1136.40 0.04038
1136.50 0.04036
1136.60 0.04035
1136.70 0.04034
1136.80 0.04032
1136.90 0.04031
1137.00 0.04029
1137.10 0.04028
1137.20 0.04027
1137.30 0.04025
1137.40 0.04024
1137.50 0.04023
1137.60 0.04021
1137.70 0.0402
1137.80 0.04018
1137.90 0.04017
1138.00 0.04016
1138.10 0.04014
1138.20 0.04013
1138.30 0.04012
1138.40 0.0401
1138.50 0.04009
1138.60 0.04007
1138.70 0.04006
1138.80 0.04005
1138.90 0.04003
1139.00 0.04002
1139.10 0.04001
1139.20 0.03999
1139.30 0.03998
1139.40 0.03996
1139.50 0.03995
1139.60 0.03994
1139.70 0.03992
1139.80 0.03991
1139.90 0.0399
1140.00 0.03988
1140.10 0.03987
1140.20 0.03985
1140.30 0.03984
1140.40 0.03983
1140.50 0.03981
1140.60 0.0398
1140.70 0.03979
1140.80 0.03977
1140.90 0.03976
1141.00 0.03975
1141.10 0.03973
1141.20 0.03972
1141.30 0.0397
1141.40 0.03969
1141.50 0.03968
1141.60 0.03966
1141.70 0.03965
1141.80 0.03964
1141.90 0.03962
1142.00 0.03961
1142.10 0.0396
1142.20 0.03958
1142.30 0.03957
1142.40 0.03955
1142.50 0.03954
1142.60 0.03953
1142.70 0.03951
1142.80 0.0395
1142.90 0.03949
1143.00 0.03947
1143.10 0.03946
1143.20 0.03945
1143.30 0.03943
1143.40 0.03942
1143.50 0.03941
1143.60 0.03939
1143.70 0.03938
1143.80 0.03937
1143.90 0.03935
1144.00 0.03934
1144.10 0.03933
1144.20 0.03931
1144.30 0.0393
1144.40 0.03928
1144.50 0.03927
1144.60 0.03926
1144.70 0.03924
1144.80 0.03923
1144.90 0.03922
1145.00 0.0392
1145.10 0.03919
1145.20 0.03918
1145.30 0.03916
1145.40 0.03915
1145.50 0.03914
1145.60 0.03912
1145.70 0.03911
1145.80 0.0391
1145.90 0.03908
1146.00 0.03907
1146.10 0.03906
1146.20 0.03904
1146.30 0.03903
1146.40 0.03902
1146.50 0.039
1146.60 0.03899
1146.70 0.03898
1146.80 0.03896
1146.90 0.03895
1147.00 0.03894
1147.10 0.03892
1147.20 0.03891
1147.30 0.0389
1147.40 0.03888
1147.50 0.03887
1147.60 0.03886
1147.70 0.03884
1147.80 0.03883
1147.90 0.03882
1148.00 0.0388
1148.10 0.03879
1148.20 0.03878
1148.30 0.03876
1148.40 0.03875
1148.50 0.03874
1148.60 0.03872
1148.70 0.03871
1148.80 0.0387
1148.90 0.03868
1149.00 0.03867
1149.10 0.03866
1149.20 0.03865
1149.30 0.03863
1149.40 0.03862
1149.50 0.03861
1149.60 0.03859
1149.70 0.03858
1149.80 0.03857
1149.90 0.03855
1150.00 0.03854
1150.10 0.03853
1150.20 0.03851
1150.30 0.0385
1150.40 0.03849
1150.50 0.03847
1150.60 0.03846
1150.70 0.03845
1150.80 0.03843
1150.90 0.03842
1151.00 0.03841
1151.10 0.0384
1151.20 0.03838
1151.30 0.03837
1151.40 0.03836
1151.50 0.03834
1151.60 0.03833
1151.70 0.03832
1151.80 0.0383
1151.90 0.03829
1152.00 0.03828
1152.10 0.03826
1152.20 0.03825
1152.30 0.03824
1152.40 0.03823
1152.50 0.03821
1152.60 0.0382
1152.70 0.03819
1152.80 0.03817
1152.90 0.03816
1153.00 0.03815
1153.10 0.03813
1153.20 0.03812
1153.30 0.03811
1153.40 0.0381
1153.50 0.03808
1153.60 0.03807
1153.70 0.03806
1153.80 0.03804
1153.90 0.03803
1154.00 0.03802
1154.10 0.03801
1154.20 0.03799
1154.30 0.03798
1154.40 0.03797
1154.50 0.03795
1154.60 0.03794
1154.70 0.03793
1154.80 0.03792
1154.90 0.0379
1155.00 0.03789
1155.10 0.03788
1155.20 0.03786
1155.30 0.03785
1155.40 0.03784
1155.50 0.03783
1155.60 0.03781
1155.70 0.0378
1155.80 0.03779
1155.90 0.03777
1156.00 0.03776
1156.10 0.03775
1156.20 0.03774
1156.30 0.03772
1156.40 0.03771
1156.50 0.0377
1156.60 0.03768
1156.70 0.03767
1156.80 0.03766
1156.90 0.03765
1157.00 0.03763
1157.10 0.03762
1157.20 0.03761
1157.30 0.03759
1157.40 0.03758
1157.50 0.03757
1157.60 0.03756
1157.70 0.03754
1157.80 0.03753
1157.90 0.03752
1158.00 0.03751
1158.10 0.03749
1158.20 0.03748
1158.30 0.03747
1158.40 0.03745
1158.50 0.03744
1158.60 0.03743
1158.70 0.03742
1158.80 0.0374
1158.90 0.03739
1159.00 0.03738
1159.10 0.03737
1159.20 0.03735
1159.30 0.03734
1159.40 0.03733
1159.50 0.03732
1159.60 0.0373
1159.70 0.03729
1159.80 0.03728
1159.90 0.03726
1160.00 0.03725
1160.10 0.03724
1160.20 0.03723
1160.30 0.03721
1160.40 0.0372
1160.50 0.03719
1160.60 0.03718
1160.70 0.03716
1160.80 0.03715
1160.90 0.03714
1161.00 0.03713
1161.10 0.03711
1161.20 0.0371
1161.30 0.03709
1161.40 0.03708
1161.50 0.03706
1161.60 0.03705
1161.70 0.03704
1161.80 0.03703
1161.90 0.03701
1162.00 0.037
1162.10 0.03699
1162.20 0.03698
1162.30 0.03696
1162.40 0.03695
1162.50 0.03694
1162.60 0.03693
1162.70 0.03691
1162.80 0.0369
1162.90 0.03689
1163.00 0.03688
1163.10 0.03686
1163.20 0.03685
1163.30 0.03684
1163.40 0.03683
1163.50 0.03681
1163.60 0.0368
1163.70 0.03679
1163.80 0.03678
1163.90 0.03676
1164.00 0.03675
1164.10 0.03674
1164.20 0.03673
1164.30 0.03671
1164.40 0.0367
1164.50 0.03669
1164.60 0.03668
1164.70 0.03667
1164.80 0.03665
1164.90 0.03664
1165.00 0.03663
1165.10 0.03662
1165.20 0.0366
1165.30 0.03659
1165.40 0.03658
1165.50 0.03657
1165.60 0.03655
1165.70 0.03654
1165.80 0.03653
1165.90 0.03652
1166.00 0.0365
1166.10 0.03649
1166.20 0.03648
1166.30 0.03647
1166.40 0.03646
1166.50 0.03644
1166.60 0.03643
1166.70 0.03642
1166.80 0.03641
1166.90 0.03639
1167.00 0.03638
1167.10 0.03637
1167.20 0.03636
1167.30 0.03635
1167.40 0.03633
1167.50 0.03632
1167.60 0.03631
1167.70 0.0363
1167.80 0.03628
1167.90 0.03627
1168.00 0.03626
1168.10 0.03625
1168.20 0.03624
1168.30 0.03622
1168.40 0.03621
1168.50 0.0362
1168.60 0.03619
1168.70 0.03617
1168.80 0.03616
1168.90 0.03615
1169.00 0.03614
1169.10 0.03613
1169.20 0.03611
1169.30 0.0361
1169.40 0.03609
1169.50 0.03608
1169.60 0.03607
1169.70 0.03605
1169.80 0.03604
1169.90 0.03603
1170.00 0.03602
1170.10 0.036
1170.20 0.03599
1170.30 0.03598
1170.40 0.03597
1170.50 0.03596
1170.60 0.03594
1170.70 0.03593
1170.80 0.03592
1170.90 0.03591
1171.00 0.0359
1171.10 0.03588
1171.20 0.03587
1171.30 0.03586
1171.40 0.03585
1171.50 0.03584
1171.60 0.03582
1171.70 0.03581
1171.80 0.0358
1171.90 0.03579
1172.00 0.03578
1172.10 0.03576
1172.20 0.03575
1172.30 0.03574
1172.40 0.03573
1172.50 0.03572
1172.60 0.0357
1172.70 0.03569
1172.80 0.03568
1172.90 0.03567
1173.00 0.03566
1173.10 0.03564
1173.20 0.03563
1173.30 0.03562
1173.40 0.03561
1173.50 0.0356
1173.60 0.03558
1173.70 0.03557
1173.80 0.03556
1173.90 0.03555
1174.00 0.03554
1174.10 0.03553
1174.20 0.03551
1174.30 0.0355
1174.40 0.03549
1174.50 0.03548
1174.60 0.03547
1174.70 0.03545
1174.80 0.03544
1174.90 0.03543
1175.00 0.03542
1175.10 0.03541
1175.20 0.03539
1175.30 0.03538
1175.40 0.03537
1175.50 0.03536
1175.60 0.03535
1175.70 0.03534
1175.80 0.03532
1175.90 0.03531
1176.00 0.0353
1176.10 0.03529
1176.20 0.03528
1176.30 0.03526
1176.40 0.03525
1176.50 0.03524
1176.60 0.03523
1176.70 0.03522
1176.80 0.03521
1176.90 0.03519
1177.00 0.03518
1177.10 0.03517
1177.20 0.03516
1177.30 0.03515
1177.40 0.03514
1177.50 0.03512
1177.60 0.03511
1177.70 0.0351
1177.80 0.03509
1177.90 0.03508
1178.00 0.03507
1178.10 0.03505
1178.20 0.03504
1178.30 0.03503
1178.40 0.03502
1178.50 0.03501
1178.60 0.035
1178.70 0.03498
1178.80 0.03497
1178.90 0.03496
1179.00 0.03495
1179.10 0.03494
1179.20 0.03493
1179.30 0.03491
1179.40 0.0349
1179.50 0.03489
1179.60 0.03488
1179.70 0.03487
1179.80 0.03486
1179.90 0.03484
1180.00 0.03483
1180.10 0.03482
1180.20 0.03481
1180.30 0.0348
1180.40 0.03479
1180.50 0.03477
1180.60 0.03476
1180.70 0.03475
1180.80 0.03474
1180.90 0.03473
1181.00 0.03472
1181.10 0.0347
1181.20 0.03469
1181.30 0.03468
1181.40 0.03467
1181.50 0.03466
1181.60 0.03465
1181.70 0.03464
1181.80 0.03462
1181.90 0.03461
1182.00 0.0346
1182.10 0.03459
1182.20 0.03458
1182.30 0.03457
1182.40 0.03455
1182.50 0.03454
1182.60 0.03453
1182.70 0.03452
1182.80 0.03451
1182.90 0.0345
1183.00 0.03449
1183.10 0.03447
1183.20 0.03446
1183.30 0.03445
1183.40 0.03444
1183.50 0.03443
1183.60 0.03442
1183.70 0.03441
1183.80 0.03439
1183.90 0.03438
1184.00 0.03437
1184.10 0.03436
1184.20 0.03435
1184.30 0.03434
1184.40 0.03433
1184.50 0.03431
1184.60 0.0343
1184.70 0.03429
1184.80 0.03428
1184.90 0.03427
1185.00 0.03426
1185.10 0.03425
1185.20 0.03424
1185.30 0.03422
1185.40 0.03421
1185.50 0.0342
1185.60 0.03419
1185.70 0.03418
1185.80 0.03417
1185.90 0.03416
1186.00 0.03414
1186.10 0.03413
1186.20 0.03412
1186.30 0.03411
1186.40 0.0341
1186.50 0.03409
1186.60 0.03408
1186.70 0.03406
1186.80 0.03405
1186.90 0.03404
1187.00 0.03403
1187.10 0.03402
1187.20 0.03401
1187.30 0.034
1187.40 0.03399
1187.50 0.03397
1187.60 0.03396
1187.70 0.03395
1187.80 0.03394
1187.90 0.03393
1188.00 0.03392
1188.10 0.03391
1188.20 0.0339
1188.30 0.03389
1188.40 0.03387
1188.50 0.03386
1188.60 0.03385
1188.70 0.03384
1188.80 0.03383
1188.90 0.03382
1189.00 0.03381
1189.10 0.0338
1189.20 0.03378
1189.30 0.03377
1189.40 0.03376
1189.50 0.03375
1189.60 0.03374
1189.70 0.03373
1189.80 0.03372
1189.90 0.03371
1190.00 0.0337
1190.10 0.03368
1190.20 0.03367
1190.30 0.03366
1190.40 0.03365
1190.50 0.03364
1190.60 0.03363
1190.70 0.03362
1190.80 0.03361
1190.90 0.0336
1191.00 0.03358
1191.10 0.03357
1191.20 0.03356
1191.30 0.03355
1191.40 0.03354
1191.50 0.03353
1191.60 0.03352
1191.70 0.03351
1191.80 0.0335
1191.90 0.03348
1192.00 0.03347
1192.10 0.03346
1192.20 0.03345
1192.30 0.03344
1192.40 0.03343
1192.50 0.03342
1192.60 0.03341
1192.70 0.0334
1192.80 0.03338
1192.90 0.03337
1193.00 0.03336
1193.10 0.03335
1193.20 0.03334
1193.30 0.03333
1193.40 0.03332
1193.50 0.03331
1193.60 0.0333
1193.70 0.03329
1193.80 0.03328
1193.90 0.03326
1194.00 0.03325
1194.10 0.03324
1194.20 0.03323
1194.30 0.03322
1194.40 0.03321
1194.50 0.0332
1194.60 0.03319
1194.70 0.03318
1194.80 0.03317
1194.90 0.03315
1195.00 0.03314
1195.10 0.03313
1195.20 0.03312
1195.30 0.03311
1195.40 0.0331
1195.50 0.03309
1195.60 0.03308
1195.70 0.03307
1195.80 0.03306
1195.90 0.03305
1196.00 0.03303
1196.10 0.03302
1196.20 0.03301
1196.30 0.033
1196.40 0.03299
1196.50 0.03298
1196.60 0.03297
1196.70 0.03296
1196.80 0.03295
1196.90 0.03294
1197.00 0.03293
1197.10 0.03292
1197.20 0.0329
1197.30 0.03289
1197.40 0.03288
1197.50 0.03287
1197.60 0.03286
1197.70 0.03285
1197.80 0.03284
1197.90 0.03283
1198.00 0.03282
1198.10 0.03281
1198.20 0.0328
1198.30 0.03279
1198.40 0.03278
1198.50 0.03276
1198.60 0.03275
1198.70 0.03274
1198.80 0.03273
1198.90 0.03272
1199.00 0.03271
1199.10 0.0327
1199.20 0.03269
1199.30 0.03268
1199.40 0.03267
1199.50 0.03266
1199.60 0.03265
1199.70 0.03264
1199.80 0.03263
1199.90 0.03261
1200.00 0
