# Version 2.1 - nm, norm@500 to 1, cut digits, bergeron_11000_65.dat_11000
# Wavelength(nm)  Flambda(ergs/cm^s/s/nm)
300.00 1.297
300.10 1.297
300.20 1.296
300.30 1.295
300.40 1.295
300.50 1.294
300.60 1.293
300.70 1.293
300.80 1.292
300.90 1.291
301.00 1.291
301.10 1.29
301.20 1.289
301.30 1.289
301.40 1.288
301.50 1.287
301.60 1.287
301.70 1.286
301.80 1.285
301.90 1.285
302.00 1.284
302.10 1.283
302.20 1.283
302.30 1.282
302.40 1.281
302.50 1.281
302.60 1.28
302.70 1.279
302.80 1.279
302.90 1.278
303.00 1.277
303.10 1.277
303.20 1.276
303.30 1.275
303.40 1.275
303.50 1.274
303.60 1.273
303.70 1.273
303.80 1.272
303.90 1.271
304.00 1.271
304.10 1.27
304.20 1.269
304.30 1.269
304.40 1.268
304.50 1.267
304.60 1.267
304.70 1.266
304.80 1.266
304.90 1.265
305.00 1.264
305.10 1.264
305.20 1.263
305.30 1.262
305.40 1.262
305.50 1.261
305.60 1.26
305.70 1.26
305.80 1.259
305.90 1.258
306.00 1.258
306.10 1.257
306.20 1.256
306.30 1.256
306.40 1.255
306.50 1.254
306.60 1.254
306.70 1.253
306.80 1.253
306.90 1.252
307.00 1.251
307.10 1.251
307.20 1.25
307.30 1.249
307.40 1.249
307.50 1.248
307.60 1.247
307.70 1.247
307.80 1.246
307.90 1.246
308.00 1.245
308.10 1.244
308.20 1.244
308.30 1.243
308.40 1.242
308.50 1.242
308.60 1.241
308.70 1.24
308.80 1.24
308.90 1.239
309.00 1.239
309.10 1.238
309.20 1.237
309.30 1.237
309.40 1.236
309.50 1.235
309.60 1.235
309.70 1.234
309.80 1.233
309.90 1.233
310.00 1.232
310.10 1.232
310.20 1.231
310.30 1.23
310.40 1.23
310.50 1.229
310.60 1.228
310.70 1.228
310.80 1.227
310.90 1.227
311.00 1.226
311.10 1.225
311.20 1.225
311.30 1.224
311.40 1.224
311.50 1.223
311.60 1.222
311.70 1.222
311.80 1.221
311.90 1.22
312.00 1.22
312.10 1.219
312.20 1.219
312.30 1.218
312.40 1.217
312.50 1.217
312.60 1.216
312.70 1.215
312.80 1.215
312.90 1.214
313.00 1.214
313.10 1.213
313.20 1.212
313.30 1.212
313.40 1.211
313.50 1.211
313.60 1.21
313.70 1.209
313.80 1.209
313.90 1.208
314.00 1.208
314.10 1.207
314.20 1.206
314.30 1.206
314.40 1.205
314.50 1.204
314.60 1.204
314.70 1.203
314.80 1.203
314.90 1.202
315.00 1.201
315.10 1.201
315.20 1.2
315.30 1.2
315.40 1.199
315.50 1.198
315.60 1.198
315.70 1.197
315.80 1.197
315.90 1.196
316.00 1.195
316.10 1.195
316.20 1.194
316.30 1.194
316.40 1.193
316.50 1.192
316.60 1.192
316.70 1.191
316.80 1.191
316.90 1.19
317.00 1.189
317.10 1.189
317.20 1.188
317.30 1.188
317.40 1.187
317.50 1.186
317.60 1.186
317.70 1.185
317.80 1.185
317.90 1.184
318.00 1.183
318.10 1.183
318.20 1.182
318.30 1.182
318.40 1.181
318.50 1.18
318.60 1.18
318.70 1.179
318.80 1.179
318.90 1.178
319.00 1.178
319.10 1.177
319.20 1.176
319.30 1.176
319.40 1.175
319.50 1.175
319.60 1.174
319.70 1.173
319.80 1.173
319.90 1.172
320.00 1.172
320.10 1.171
320.20 1.17
320.30 1.17
320.40 1.169
320.50 1.169
320.60 1.168
320.70 1.168
320.80 1.167
320.90 1.166
321.00 1.166
321.10 1.165
321.20 1.165
321.30 1.164
321.40 1.164
321.50 1.163
321.60 1.162
321.70 1.162
321.80 1.161
321.90 1.161
322.00 1.16
322.10 1.159
322.20 1.159
322.30 1.158
322.40 1.158
322.50 1.157
322.60 1.157
322.70 1.156
322.80 1.155
322.90 1.155
323.00 1.154
323.10 1.154
323.20 1.153
323.30 1.153
323.40 1.152
323.50 1.151
323.60 1.151
323.70 1.15
323.80 1.15
323.90 1.149
324.00 1.149
324.10 1.148
324.20 1.147
324.30 1.147
324.40 1.146
324.50 1.146
324.60 1.145
324.70 1.145
324.80 1.144
324.90 1.143
325.00 1.143
325.10 1.142
325.20 1.142
325.30 1.141
325.40 1.141
325.50 1.14
325.60 1.14
325.70 1.139
325.80 1.138
325.90 1.138
326.00 1.137
326.10 1.137
326.20 1.136
326.30 1.136
326.40 1.135
326.50 1.135
326.60 1.134
326.70 1.133
326.80 1.133
326.90 1.132
327.00 1.132
327.10 1.131
327.20 1.131
327.30 1.13
327.40 1.129
327.50 1.129
327.60 1.128
327.70 1.128
327.80 1.127
327.90 1.127
328.00 1.126
328.10 1.126
328.20 1.125
328.30 1.125
328.40 1.124
328.50 1.123
328.60 1.123
328.70 1.122
328.80 1.122
328.90 1.121
329.00 1.121
329.10 1.12
329.20 1.12
329.30 1.119
329.40 1.118
329.50 1.118
329.60 1.117
329.70 1.117
329.80 1.116
329.90 1.116
330.00 1.115
330.10 1.115
330.20 1.114
330.30 1.114
330.40 1.113
330.50 1.112
330.60 1.112
330.70 1.111
330.80 1.111
330.90 1.11
331.00 1.11
331.10 1.109
331.20 1.109
331.30 1.108
331.40 1.108
331.50 1.107
331.60 1.106
331.70 1.106
331.80 1.105
331.90 1.105
332.00 1.104
332.10 1.104
332.20 1.103
332.30 1.103
332.40 1.102
332.50 1.102
332.60 1.101
332.70 1.101
332.80 1.1
332.90 1.099
333.00 1.099
333.10 1.098
333.20 1.098
333.30 1.097
333.40 1.097
333.50 1.096
333.60 1.096
333.70 1.095
333.80 1.095
333.90 1.094
334.00 1.094
334.10 1.093
334.20 1.093
334.30 1.092
334.40 1.091
334.50 1.091
334.60 1.09
334.70 1.09
334.80 1.089
334.90 1.089
335.00 1.088
335.10 1.088
335.20 1.087
335.30 1.087
335.40 1.086
335.50 1.086
335.60 1.085
335.70 1.085
335.80 1.084
335.90 1.084
336.00 1.083
336.10 1.082
336.20 1.082
336.30 1.081
336.40 1.081
336.50 1.08
336.60 1.08
336.70 1.079
336.80 1.079
336.90 1.078
337.00 1.078
337.10 1.077
337.20 1.077
337.30 1.076
337.40 1.076
337.50 1.075
337.60 1.075
337.70 1.074
337.80 1.074
337.90 1.073
338.00 1.073
338.10 1.072
338.20 1.072
338.30 1.071
338.40 1.071
338.50 1.07
338.60 1.07
338.70 1.069
338.80 1.068
338.90 1.068
339.00 1.067
339.10 1.067
339.20 1.066
339.30 1.066
339.40 1.065
339.50 1.065
339.60 1.064
339.70 1.064
339.80 1.063
339.90 1.063
340.00 1.062
340.10 1.062
340.20 1.061
340.30 1.061
340.40 1.06
340.50 1.06
340.60 1.059
340.70 1.059
340.80 1.058
340.90 1.058
341.00 1.057
341.10 1.057
341.20 1.056
341.30 1.056
341.40 1.055
341.50 1.055
341.60 1.054
341.70 1.054
341.80 1.053
341.90 1.053
342.00 1.052
342.10 1.052
342.20 1.051
342.30 1.051
342.40 1.05
342.50 1.05
342.60 1.049
342.70 1.049
342.80 1.048
342.90 1.048
343.00 1.047
343.10 1.047
343.20 1.046
343.30 1.046
343.40 1.045
343.50 1.045
343.60 1.044
343.70 1.044
343.80 1.043
343.90 1.043
344.00 1.042
344.10 1.042
344.20 1.041
344.30 1.041
344.40 1.04
344.50 1.04
344.60 1.039
344.70 1.039
344.80 1.038
344.90 1.038
345.00 1.037
345.10 1.037
345.20 1.036
345.30 1.036
345.40 1.035
345.50 1.035
345.60 1.034
345.70 1.034
345.80 1.033
345.90 1.033
346.00 1.032
346.10 1.032
346.20 1.031
346.30 1.031
346.40 1.03
346.50 1.03
346.60 1.029
346.70 1.029
346.80 1.028
346.90 1.028
347.00 1.027
347.10 1.027
347.20 1.026
347.30 1.026
347.40 1.025
347.50 1.025
347.60 1.024
347.70 1.024
347.80 1.023
347.90 1.023
348.00 1.022
348.10 1.022
348.20 1.021
348.30 1.021
348.40 1.02
348.50 1.02
348.60 1.02
348.70 1.019
348.80 1.019
348.90 1.018
349.00 1.018
349.10 1.017
349.20 1.017
349.30 1.016
349.40 1.016
349.50 1.015
349.60 1.015
349.70 1.014
349.80 1.014
349.90 1.013
350.00 1.013
350.10 1.012
350.20 1.012
350.30 1.011
350.40 1.011
350.50 1.01
350.60 1.01
350.70 1.009
350.80 1.009
350.90 1.008
351.00 1.008
351.10 1.007
351.20 1.007
351.30 1.007
351.40 1.006
351.50 1.006
351.60 1.005
351.70 1.005
351.80 1.004
351.90 1.004
352.00 1.003
352.10 1.003
352.20 1.002
352.30 1.002
352.40 1.001
352.50 1.001
352.60 1
352.70 0.9999
352.80 0.9994
352.90 0.999
353.00 0.9985
353.10 0.998
353.20 0.9975
353.30 0.9971
353.40 0.9966
353.50 0.9961
353.60 0.9957
353.70 0.9952
353.80 0.9947
353.90 0.9943
354.00 0.9938
354.10 0.9933
354.20 0.9929
354.30 0.9924
354.40 0.9919
354.50 0.9914
354.60 0.991
354.70 0.9905
354.80 0.99
354.90 0.9896
355.00 0.9891
355.10 0.9887
355.20 0.9882
355.30 0.9877
355.40 0.9873
355.50 0.9868
355.60 0.9863
355.70 0.9859
355.80 0.9854
355.90 0.9849
356.00 0.9845
356.10 0.984
356.20 0.9836
356.30 0.9831
356.40 0.9826
356.50 0.9822
356.60 0.9817
356.70 0.9812
356.80 0.9808
356.90 0.9803
357.00 0.9799
357.10 0.9794
357.20 0.9789
357.30 0.9785
357.40 0.978
357.50 0.9776
357.60 0.9771
357.70 0.9766
357.80 0.9762
357.90 0.9757
358.00 0.9753
358.10 0.9748
358.20 0.9743
358.30 0.9739
358.40 0.9734
358.50 0.973
358.60 0.9725
358.70 0.9721
358.80 0.9716
358.90 0.9712
359.00 0.9707
359.10 0.9702
359.20 0.9698
359.30 0.9693
359.40 0.9689
359.50 0.9684
359.60 0.968
359.70 0.9675
359.80 0.9671
359.90 0.9666
360.00 0.9662
360.10 0.9657
360.20 0.9653
360.30 0.9648
360.40 0.9644
360.50 0.9639
360.60 0.9635
360.70 0.963
360.80 0.9626
360.90 0.9621
361.00 0.9617
361.10 0.9612
361.20 0.9608
361.30 0.9603
361.40 0.9599
361.50 0.9594
361.60 0.959
361.70 0.9585
361.80 0.9581
361.90 0.9576
362.00 0.9572
362.10 0.9567
362.20 0.9563
362.30 0.9558
362.40 0.9554
362.50 0.955
362.60 0.9545
362.70 0.9541
362.80 0.9536
362.90 0.9532
363.00 0.9527
363.10 0.9523
363.20 0.9518
363.30 0.9514
363.40 0.9509
363.50 0.9504
363.60 0.95
363.70 0.9495
363.80 0.9491
363.90 0.9486
364.00 0.9482
364.10 0.9477
364.20 0.9472
364.30 0.9468
364.40 0.9463
364.50 0.9459
364.60 0.9455
364.70 0.9452
364.80 0.9448
364.90 0.9445
365.00 0.9441
365.10 0.9438
365.20 0.9434
365.30 0.9431
365.40 0.9428
365.50 0.9424
365.60 0.9421
365.70 0.9417
365.80 0.9414
365.90 0.941
366.00 0.9407
366.10 0.9404
366.20 0.9401
366.30 0.9399
366.40 0.9396
366.50 0.9393
366.60 0.9391
366.70 0.9388
366.80 0.9385
366.90 0.9382
367.00 0.938
367.10 0.9377
367.20 0.9374
367.30 0.9371
367.40 0.9369
367.50 0.9366
367.60 0.9363
367.70 0.9361
367.80 0.9358
367.90 0.9355
368.00 0.9353
368.10 0.9367
368.20 0.9381
368.30 0.9395
368.40 0.9409
368.50 0.9423
368.60 0.9437
368.70 0.9451
368.80 0.9465
368.90 0.9479
369.00 0.9493
369.10 0.9507
369.20 0.952
369.30 0.9534
369.40 0.9548
369.50 0.9562
369.60 0.9576
369.70 0.959
369.80 0.9604
369.90 0.9617
370.00 0.9631
370.10 0.9669
370.20 0.9706
370.30 0.9743
370.40 0.9781
370.50 0.9818
370.60 0.9856
370.70 0.9893
370.80 0.993
370.90 0.9967
371.00 1
371.10 1.004
371.20 1.008
371.30 1.012
371.40 1.015
371.50 1.019
371.60 1.023
371.70 1.026
371.80 1.03
371.90 1.034
372.00 1.037
372.10 1.042
372.20 1.048
372.30 1.053
372.40 1.058
372.50 1.063
372.60 1.068
372.70 1.073
372.80 1.078
372.90 1.083
373.00 1.088
373.10 1.093
373.20 1.099
373.30 1.104
373.40 1.109
373.50 1.114
373.60 1.119
373.70 1.124
373.80 1.129
373.90 1.134
374.00 1.139
374.10 1.144
374.20 1.149
374.30 1.153
374.40 1.158
374.50 1.163
374.60 1.168
374.70 1.173
374.80 1.178
374.90 1.182
375.00 1.187
375.10 1.192
375.20 1.197
375.30 1.202
375.40 1.206
375.50 1.211
375.60 1.216
375.70 1.221
375.80 1.225
375.90 1.23
376.00 1.235
376.10 1.237
376.20 1.239
376.30 1.242
376.40 1.244
376.50 1.246
376.60 1.248
376.70 1.25
376.80 1.253
376.90 1.255
377.00 1.257
377.10 1.253
377.20 1.249
377.30 1.244
377.40 1.24
377.50 1.236
377.60 1.231
377.70 1.227
377.80 1.223
377.90 1.218
378.00 1.214
378.10 1.19
378.20 1.167
378.30 1.143
378.40 1.119
378.50 1.096
378.60 1.072
378.70 1.048
378.80 1.025
378.90 1.001
379.00 0.9775
379.10 0.9544
379.20 0.9313
379.30 0.9082
379.40 0.8851
379.50 0.862
379.60 0.839
379.70 0.816
379.80 0.793
379.90 0.7701
380.00 0.7472
380.10 0.7823
380.20 0.8174
380.30 0.8524
380.40 0.8875
380.50 0.9224
380.60 0.9574
380.70 0.9923
380.80 1.027
380.90 1.062
381.00 1.097
381.10 1.11
381.20 1.124
381.30 1.137
381.40 1.15
381.50 1.164
381.60 1.166
381.70 1.165
381.80 1.159
381.90 1.151
382.00 1.138
382.10 1.122
382.20 1.101
382.30 1.064
382.40 1.026
382.50 0.9891
382.60 0.9519
382.70 0.9148
382.80 0.8776
382.90 0.8406
383.00 0.8035
383.10 0.7665
383.20 0.7295
383.30 0.6836
383.40 0.6349
383.50 0.5789
383.60 0.5927
383.70 0.6454
383.80 0.6935
383.90 0.7388
384.00 0.7828
384.10 0.8263
384.20 0.869
384.30 0.9108
384.40 0.9525
384.50 0.9935
384.60 1.033
384.70 1.069
384.80 1.102
384.90 1.133
385.00 1.16
385.10 1.183
385.20 1.205
385.30 1.224
385.40 1.239
385.50 1.253
385.60 1.265
385.70 1.274
385.80 1.281
385.90 1.287
386.00 1.29
386.10 1.291
386.20 1.291
386.30 1.289
386.40 1.285
386.50 1.279
386.60 1.271
386.70 1.261
386.80 1.25
386.90 1.236
387.00 1.221
387.10 1.203
387.20 1.183
387.30 1.161
387.40 1.136
387.50 1.108
387.60 1.078
387.70 1.045
387.80 1.008
387.90 0.9695
388.00 0.9288
388.10 0.886
388.20 0.8431
388.30 0.7998
388.40 0.7562
388.50 0.7122
388.60 0.6676
388.70 0.6196
388.80 0.5626
388.90 0.4967
389.00 0.559
389.10 0.6141
389.20 0.6623
389.30 0.7066
389.40 0.7504
389.50 0.7936
389.60 0.8366
389.70 0.8795
389.80 0.9223
389.90 0.9636
390.00 1.003
390.10 1.041
390.20 1.076
390.30 1.108
390.40 1.139
390.50 1.167
390.60 1.193
390.70 1.217
390.80 1.239
390.90 1.26
391.00 1.28
391.10 1.298
391.20 1.315
391.30 1.331
391.40 1.346
391.50 1.36
391.60 1.373
391.70 1.384
391.80 1.395
391.90 1.404
392.00 1.413
392.10 1.421
392.20 1.428
392.30 1.433
392.40 1.438
392.50 1.442
392.60 1.445
392.70 1.447
392.80 1.448
392.90 1.448
393.00 1.447
393.10 1.445
393.20 1.442
393.30 1.438
393.40 1.433
393.50 1.427
393.60 1.42
393.70 1.412
393.80 1.403
393.90 1.393
394.00 1.383
394.10 1.37
394.20 1.357
394.30 1.344
394.40 1.328
394.50 1.312
394.60 1.295
394.70 1.277
394.80 1.258
394.90 1.238
395.00 1.216
395.10 1.193
395.20 1.17
395.30 1.144
395.40 1.118
395.50 1.09
395.60 1.06
395.70 1.028
395.80 0.9953
395.90 0.9597
396.00 0.9229
396.10 0.8849
396.20 0.845
396.30 0.8045
396.40 0.7634
396.50 0.722
396.60 0.6802
396.70 0.6382
396.80 0.5914
396.90 0.5265
397.00 0.4434
397.10 0.5214
397.20 0.584
397.30 0.6314
397.40 0.6732
397.50 0.7146
397.60 0.7555
397.70 0.796
397.80 0.836
397.90 0.8753
398.00 0.9128
398.10 0.9492
398.20 0.9843
398.30 1.017
398.40 1.048
398.50 1.078
398.60 1.106
398.70 1.132
398.80 1.158
398.90 1.181
399.00 1.204
399.10 1.226
399.20 1.247
399.30 1.267
399.40 1.286
399.50 1.304
399.60 1.322
399.70 1.339
399.80 1.355
399.90 1.371
400.00 1.386
400.10 1.4
400.20 1.413
400.30 1.426
400.40 1.438
400.50 1.45
400.60 1.461
400.70 1.472
400.80 1.482
400.90 1.491
401.00 1.5
401.10 1.509
401.20 1.517
401.30 1.524
401.40 1.531
401.50 1.538
401.60 1.544
401.70 1.55
401.80 1.555
401.90 1.56
402.00 1.565
402.10 1.569
402.20 1.573
402.30 1.576
402.40 1.579
402.50 1.582
402.60 1.584
402.70 1.586
402.80 1.588
402.90 1.589
403.00 1.59
403.10 1.591
403.20 1.591
403.30 1.591
403.40 1.591
403.50 1.59
403.60 1.59
403.70 1.588
403.80 1.587
403.90 1.585
404.00 1.583
404.10 1.58
404.20 1.578
404.30 1.575
404.40 1.571
404.50 1.567
404.60 1.563
404.70 1.559
404.80 1.554
404.90 1.549
405.00 1.544
405.10 1.538
405.20 1.531
405.30 1.525
405.40 1.518
405.50 1.51
405.60 1.503
405.70 1.495
405.80 1.486
405.90 1.477
406.00 1.467
406.10 1.457
406.20 1.447
406.30 1.436
406.40 1.425
406.50 1.413
406.60 1.401
406.70 1.388
406.80 1.374
406.90 1.36
407.00 1.346
407.10 1.33
407.20 1.315
407.30 1.298
407.40 1.281
407.50 1.263
407.60 1.244
407.70 1.225
407.80 1.205
407.90 1.184
408.00 1.163
408.10 1.141
408.20 1.118
408.30 1.095
408.40 1.071
408.50 1.046
408.60 1.021
408.70 0.9944
408.80 0.9669
408.90 0.9385
409.00 0.9093
409.10 0.8783
409.20 0.8464
409.30 0.8136
409.40 0.779
409.50 0.7435
409.60 0.7073
409.70 0.6703
409.80 0.6328
409.90 0.5948
410.00 0.5483
410.10 0.491
410.20 0.4229
410.30 0.5092
410.40 0.5732
410.50 0.615
410.60 0.6519
410.70 0.6885
410.80 0.7247
410.90 0.7597
411.00 0.7939
411.10 0.8271
411.20 0.8584
411.30 0.8887
411.40 0.9181
411.50 0.9456
411.60 0.9724
411.70 0.9983
411.80 1.023
411.90 1.047
412.00 1.07
412.10 1.092
412.20 1.114
412.30 1.135
412.40 1.156
412.50 1.175
412.60 1.194
412.70 1.212
412.80 1.23
412.90 1.247
413.00 1.263
413.10 1.279
413.20 1.294
413.30 1.308
413.40 1.322
413.50 1.335
413.60 1.348
413.70 1.36
413.80 1.371
413.90 1.382
414.00 1.393
414.10 1.403
414.20 1.413
414.30 1.422
414.40 1.431
414.50 1.44
414.60 1.448
414.70 1.456
414.80 1.464
414.90 1.471
415.00 1.478
415.10 1.485
415.20 1.491
415.30 1.497
415.40 1.503
415.50 1.508
415.60 1.514
415.70 1.518
415.80 1.523
415.90 1.528
416.00 1.532
416.10 1.536
416.20 1.54
416.30 1.544
416.40 1.547
416.50 1.551
416.60 1.554
416.70 1.557
416.80 1.56
416.90 1.563
417.00 1.565
417.10 1.568
417.20 1.57
417.30 1.572
417.40 1.574
417.50 1.576
417.60 1.578
417.70 1.58
417.80 1.581
417.90 1.583
418.00 1.584
418.10 1.585
418.20 1.586
418.30 1.588
418.40 1.589
418.50 1.589
418.60 1.59
418.70 1.591
418.80 1.592
418.90 1.592
419.00 1.593
419.10 1.593
419.20 1.594
419.30 1.594
419.40 1.594
419.50 1.595
419.60 1.595
419.70 1.595
419.80 1.595
419.90 1.595
420.00 1.595
420.10 1.595
420.20 1.594
420.30 1.594
420.40 1.594
420.50 1.594
420.60 1.593
420.70 1.593
420.80 1.592
420.90 1.592
421.00 1.591
421.10 1.591
421.20 1.59
421.30 1.589
421.40 1.589
421.50 1.588
421.60 1.587
421.70 1.586
421.80 1.585
421.90 1.584
422.00 1.584
422.10 1.583
422.20 1.581
422.30 1.58
422.40 1.579
422.50 1.578
422.60 1.577
422.70 1.576
422.80 1.574
422.90 1.573
423.00 1.572
423.10 1.57
423.20 1.569
423.30 1.567
423.40 1.566
423.50 1.564
423.60 1.563
423.70 1.561
423.80 1.559
423.90 1.557
424.00 1.556
424.10 1.554
424.20 1.552
424.30 1.55
424.40 1.548
424.50 1.546
424.60 1.544
424.70 1.542
424.80 1.539
424.90 1.537
425.00 1.535
425.10 1.532
425.20 1.53
425.30 1.527
425.40 1.525
425.50 1.522
425.60 1.519
425.70 1.516
425.80 1.513
425.90 1.51
426.00 1.507
426.10 1.504
426.20 1.5
426.30 1.496
426.40 1.493
426.50 1.489
426.60 1.486
426.70 1.482
426.80 1.478
426.90 1.474
427.00 1.47
427.10 1.466
427.20 1.462
427.30 1.457
427.40 1.453
427.50 1.448
427.60 1.443
427.70 1.438
427.80 1.433
427.90 1.428
428.00 1.422
428.10 1.417
428.20 1.411
428.30 1.405
428.40 1.399
428.50 1.393
428.60 1.387
428.70 1.38
428.80 1.373
428.90 1.366
429.00 1.359
429.10 1.351
429.20 1.344
429.30 1.336
429.40 1.328
429.50 1.319
429.60 1.31
429.70 1.302
429.80 1.292
429.90 1.283
430.00 1.273
430.10 1.263
430.20 1.253
430.30 1.242
430.40 1.231
430.50 1.22
430.60 1.209
430.70 1.197
430.80 1.185
430.90 1.172
431.00 1.16
431.10 1.147
431.20 1.134
431.30 1.12
431.40 1.106
431.50 1.092
431.60 1.077
431.70 1.061
431.80 1.045
431.90 1.028
432.00 1.01
432.10 0.9908
432.20 0.9704
432.30 0.9491
432.40 0.9269
432.50 0.9028
432.60 0.8779
432.70 0.8522
432.80 0.8261
432.90 0.8002
433.00 0.7746
433.10 0.7496
433.20 0.7239
433.30 0.6975
433.40 0.6686
433.50 0.6389
433.60 0.6082
433.70 0.5769
433.80 0.542
433.90 0.5037
434.00 0.3984
434.10 0.3995
434.20 0.507
434.30 0.5443
434.40 0.5784
434.50 0.6092
434.60 0.6393
434.70 0.6684
434.80 0.6966
434.90 0.7221
435.00 0.747
435.10 0.7712
435.20 0.796
435.30 0.821
435.40 0.8462
435.50 0.8707
435.60 0.8944
435.70 0.9172
435.80 0.9381
435.90 0.958
436.00 0.977
436.10 0.9943
436.20 1.011
436.30 1.027
436.40 1.042
436.50 1.056
436.60 1.069
436.70 1.082
436.80 1.094
436.90 1.106
437.00 1.118
437.10 1.129
437.20 1.14
437.30 1.151
437.40 1.161
437.50 1.171
437.60 1.181
437.70 1.19
437.80 1.199
437.90 1.208
438.00 1.216
438.10 1.225
438.20 1.232
438.30 1.24
438.40 1.247
438.50 1.254
438.60 1.261
438.70 1.267
438.80 1.274
438.90 1.279
439.00 1.285
439.10 1.291
439.20 1.296
439.30 1.301
439.40 1.306
439.50 1.31
439.60 1.315
439.70 1.319
439.80 1.323
439.90 1.327
440.00 1.331
440.10 1.334
440.20 1.338
440.30 1.341
440.40 1.344
440.50 1.347
440.60 1.35
440.70 1.353
440.80 1.355
440.90 1.358
441.00 1.36
441.10 1.362
441.20 1.364
441.30 1.366
441.40 1.368
441.50 1.37
441.60 1.372
441.70 1.373
441.80 1.375
441.90 1.376
442.00 1.378
442.10 1.379
442.20 1.38
442.30 1.381
442.40 1.382
442.50 1.383
442.60 1.384
442.70 1.385
442.80 1.386
442.90 1.386
443.00 1.387
443.10 1.388
443.20 1.388
443.30 1.389
443.40 1.389
443.50 1.39
443.60 1.39
443.70 1.391
443.80 1.391
443.90 1.391
444.00 1.391
444.10 1.392
444.20 1.392
444.30 1.392
444.40 1.392
444.50 1.392
444.60 1.392
444.70 1.392
444.80 1.392
444.90 1.392
445.00 1.392
445.10 1.392
445.20 1.392
445.30 1.392
445.40 1.391
445.50 1.391
445.60 1.391
445.70 1.391
445.80 1.39
445.90 1.39
446.00 1.39
446.10 1.39
446.20 1.389
446.30 1.389
446.40 1.389
446.50 1.388
446.60 1.388
446.70 1.387
446.80 1.387
446.90 1.387
447.00 1.386
447.10 1.386
447.20 1.385
447.30 1.385
447.40 1.384
447.50 1.384
447.60 1.383
447.70 1.383
447.80 1.382
447.90 1.382
448.00 1.381
448.10 1.38
448.20 1.38
448.30 1.379
448.40 1.379
448.50 1.378
448.60 1.378
448.70 1.377
448.80 1.376
448.90 1.376
449.00 1.375
449.10 1.375
449.20 1.374
449.30 1.373
449.40 1.373
449.50 1.372
449.60 1.371
449.70 1.371
449.80 1.37
449.90 1.37
450.00 1.369
450.10 1.368
450.20 1.367
450.30 1.367
450.40 1.366
450.50 1.365
450.60 1.365
450.70 1.364
450.80 1.363
450.90 1.363
451.00 1.362
451.10 1.361
451.20 1.36
451.30 1.36
451.40 1.359
451.50 1.358
451.60 1.358
451.70 1.357
451.80 1.356
451.90 1.355
452.00 1.355
452.10 1.354
452.20 1.353
452.30 1.352
452.40 1.352
452.50 1.351
452.60 1.35
452.70 1.349
452.80 1.349
452.90 1.348
453.00 1.347
453.10 1.346
453.20 1.346
453.30 1.345
453.40 1.344
453.50 1.343
453.60 1.342
453.70 1.342
453.80 1.341
453.90 1.34
454.00 1.339
454.10 1.339
454.20 1.338
454.30 1.337
454.40 1.336
454.50 1.335
454.60 1.335
454.70 1.334
454.80 1.333
454.90 1.332
455.00 1.331
455.10 1.331
455.20 1.33
455.30 1.329
455.40 1.328
455.50 1.327
455.60 1.327
455.70 1.326
455.80 1.325
455.90 1.324
456.00 1.323
456.10 1.323
456.20 1.322
456.30 1.321
456.40 1.32
456.50 1.319
456.60 1.319
456.70 1.318
456.80 1.317
456.90 1.316
457.00 1.315
457.10 1.315
457.20 1.314
457.30 1.313
457.40 1.312
457.50 1.312
457.60 1.311
457.70 1.31
457.80 1.309
457.90 1.308
458.00 1.307
458.10 1.307
458.20 1.306
458.30 1.305
458.40 1.304
458.50 1.303
458.60 1.302
458.70 1.302
458.80 1.301
458.90 1.3
459.00 1.299
459.10 1.298
459.20 1.297
459.30 1.297
459.40 1.296
459.50 1.295
459.60 1.294
459.70 1.293
459.80 1.292
459.90 1.292
460.00 1.291
460.10 1.29
460.20 1.289
460.30 1.288
460.40 1.287
460.50 1.287
460.60 1.286
460.70 1.285
460.80 1.284
460.90 1.283
461.00 1.282
461.10 1.282
461.20 1.281
461.30 1.28
461.40 1.279
461.50 1.278
461.60 1.277
461.70 1.277
461.80 1.276
461.90 1.275
462.00 1.274
462.10 1.273
462.20 1.272
462.30 1.271
462.40 1.271
462.50 1.27
462.60 1.269
462.70 1.268
462.80 1.267
462.90 1.266
463.00 1.265
463.10 1.265
463.20 1.264
463.30 1.263
463.40 1.262
463.50 1.261
463.60 1.26
463.70 1.259
463.80 1.259
463.90 1.258
464.00 1.257
464.10 1.256
464.20 1.255
464.30 1.254
464.40 1.253
464.50 1.252
464.60 1.252
464.70 1.251
464.80 1.25
464.90 1.249
465.00 1.248
465.10 1.247
465.20 1.246
465.30 1.245
465.40 1.245
465.50 1.244
465.60 1.243
465.70 1.242
465.80 1.241
465.90 1.24
466.00 1.239
466.10 1.238
466.20 1.237
466.30 1.237
466.40 1.236
466.50 1.235
466.60 1.234
466.70 1.233
466.80 1.232
466.90 1.231
467.00 1.23
467.10 1.229
467.20 1.228
467.30 1.227
467.40 1.227
467.50 1.226
467.60 1.225
467.70 1.224
467.80 1.223
467.90 1.222
468.00 1.221
468.10 1.22
468.20 1.219
468.30 1.218
468.40 1.217
468.50 1.216
468.60 1.215
468.70 1.214
468.80 1.213
468.90 1.212
469.00 1.211
469.10 1.21
469.20 1.21
469.30 1.209
469.40 1.208
469.50 1.207
469.60 1.206
469.70 1.205
469.80 1.204
469.90 1.203
470.00 1.202
470.10 1.201
470.20 1.2
470.30 1.199
470.40 1.198
470.50 1.197
470.60 1.196
470.70 1.195
470.80 1.194
470.90 1.193
471.00 1.191
471.10 1.19
471.20 1.189
471.30 1.188
471.40 1.187
471.50 1.186
471.60 1.185
471.70 1.184
471.80 1.183
471.90 1.182
472.00 1.181
472.10 1.18
472.20 1.178
472.30 1.177
472.40 1.176
472.50 1.175
472.60 1.174
472.70 1.173
472.80 1.171
472.90 1.17
473.00 1.169
473.10 1.168
473.20 1.167
473.30 1.165
473.40 1.164
473.50 1.163
473.60 1.161
473.70 1.16
473.80 1.159
473.90 1.158
474.00 1.156
474.10 1.155
474.20 1.154
474.30 1.152
474.40 1.151
474.50 1.149
474.60 1.148
474.70 1.147
474.80 1.145
474.90 1.144
475.00 1.142
475.10 1.141
475.20 1.139
475.30 1.138
475.40 1.136
475.50 1.134
475.60 1.133
475.70 1.131
475.80 1.13
475.90 1.128
476.00 1.126
476.10 1.125
476.20 1.123
476.30 1.121
476.40 1.119
476.50 1.117
476.60 1.115
476.70 1.113
476.80 1.112
476.90 1.11
477.00 1.108
477.10 1.106
477.20 1.104
477.30 1.102
477.40 1.099
477.50 1.097
477.60 1.095
477.70 1.092
477.80 1.09
477.90 1.088
478.00 1.086
478.10 1.083
478.20 1.081
478.30 1.078
478.40 1.075
478.50 1.072
478.60 1.07
478.70 1.067
478.80 1.064
478.90 1.061
479.00 1.059
479.10 1.056
479.20 1.053
479.30 1.049
479.40 1.046
479.50 1.042
479.60 1.038
479.70 1.035
479.80 1.031
479.90 1.028
480.00 1.024
480.10 1.021
480.20 1.017
480.30 1.012
480.40 1.008
480.50 1.003
480.60 0.9987
480.70 0.9942
480.80 0.9897
480.90 0.9852
481.00 0.9807
481.10 0.9762
481.20 0.9707
481.30 0.9648
481.40 0.9588
481.50 0.9529
481.60 0.9469
481.70 0.941
481.80 0.935
481.90 0.9291
482.00 0.9232
482.10 0.9172
482.20 0.91
482.30 0.9021
482.40 0.8942
482.50 0.8863
482.60 0.8784
482.70 0.8705
482.80 0.8627
482.90 0.8548
483.00 0.847
483.10 0.8391
483.20 0.8294
483.30 0.8189
483.40 0.8084
483.50 0.7979
483.60 0.7873
483.70 0.7769
483.80 0.7664
483.90 0.7559
484.00 0.7454
484.10 0.7349
484.20 0.723
484.30 0.7103
484.40 0.6976
484.50 0.685
484.60 0.6723
484.70 0.6585
484.80 0.644
484.90 0.6296
485.00 0.6152
485.10 0.6008
485.20 0.5853
485.30 0.5694
485.40 0.5525
485.50 0.5352
485.60 0.5166
485.70 0.4974
485.80 0.4758
485.90 0.4531
486.00 0.4241
486.10 0.3167
486.20 0.3808
486.30 0.4354
486.40 0.4599
486.50 0.4825
486.60 0.5024
486.70 0.5212
486.80 0.5387
486.90 0.5556
487.00 0.5715
487.10 0.5869
487.20 0.6012
487.30 0.6149
487.40 0.6287
487.50 0.6425
487.60 0.6562
487.70 0.6687
487.80 0.6806
487.90 0.6924
488.00 0.7043
488.10 0.7161
488.20 0.7264
488.30 0.7359
488.40 0.7454
488.50 0.7549
488.60 0.7644
488.70 0.7739
488.80 0.7833
488.90 0.7928
489.00 0.8023
489.10 0.8117
489.20 0.8193
489.30 0.826
489.40 0.8326
489.50 0.8393
489.60 0.8459
489.70 0.8526
489.80 0.8592
489.90 0.8659
490.00 0.8725
490.10 0.8792
490.20 0.8844
490.30 0.889
490.40 0.8936
490.50 0.8982
490.60 0.9028
490.70 0.9074
490.80 0.912
490.90 0.9165
491.00 0.9211
491.10 0.9257
491.20 0.9292
491.30 0.9323
491.40 0.9354
491.50 0.9385
491.60 0.9416
491.70 0.9446
491.80 0.9477
491.90 0.9508
492.00 0.9538
492.10 0.9569
492.20 0.9592
492.30 0.9613
492.40 0.9633
492.50 0.9653
492.60 0.9674
492.70 0.9694
492.80 0.9714
492.90 0.9734
493.00 0.9754
493.10 0.9775
493.20 0.979
493.30 0.9803
493.40 0.9816
493.50 0.9829
493.60 0.9842
493.70 0.9855
493.80 0.9868
493.90 0.9881
494.00 0.9894
494.10 0.9907
494.20 0.9917
494.30 0.9924
494.40 0.9932
494.50 0.994
494.60 0.9947
494.70 0.9955
494.80 0.9962
494.90 0.997
495.00 0.9978
495.10 0.9985
495.20 0.999
495.30 0.9994
495.40 0.9998
495.50 1
495.60 1.001
495.70 1.001
495.80 1.001
495.90 1.002
496.00 1.002
496.10 1.003
496.20 1.003
496.30 1.003
496.40 1.003
496.50 1.003
496.60 1.003
496.70 1.004
496.80 1.004
496.90 1.004
497.00 1.004
497.10 1.004
497.20 1.004
497.30 1.004
497.40 1.004
497.50 1.004
497.60 1.004
497.70 1.004
497.80 1.004
497.90 1.004
498.00 1.004
498.10 1.004
498.20 1.004
498.30 1.004
498.40 1.003
498.50 1.003
498.60 1.003
498.70 1.003
498.80 1.003
498.90 1.003
499.00 1.002
499.10 1.002
499.20 1.002
499.30 1.002
499.40 1.002
499.50 1.001
499.60 1.001
499.70 1.001
499.80 1.001
499.90 1
500.00 1
500.10 0.9997
500.20 0.9994
500.30 0.9991
500.40 0.9988
500.50 0.9984
500.60 0.9981
500.70 0.9978
500.80 0.9974
500.90 0.9971
501.00 0.9968
501.10 0.9965
501.20 0.9961
501.30 0.9957
501.40 0.9953
501.50 0.9949
501.60 0.9946
501.70 0.9942
501.80 0.9938
501.90 0.9934
502.00 0.993
502.10 0.9927
502.20 0.9923
502.30 0.9918
502.40 0.9914
502.50 0.991
502.60 0.9906
502.70 0.9902
502.80 0.9897
502.90 0.9893
503.00 0.9889
503.10 0.9885
503.20 0.988
503.30 0.9876
503.40 0.9872
503.50 0.9867
503.60 0.9863
503.70 0.9858
503.80 0.9854
503.90 0.9849
504.00 0.9845
504.10 0.984
504.20 0.9836
504.30 0.9831
504.40 0.9826
504.50 0.9822
504.60 0.9817
504.70 0.9812
504.80 0.9808
504.90 0.9803
505.00 0.9798
505.10 0.9794
505.20 0.9789
505.30 0.9784
505.40 0.9779
505.50 0.9774
505.60 0.9769
505.70 0.9765
505.80 0.976
505.90 0.9755
506.00 0.975
506.10 0.9745
506.20 0.974
506.30 0.9735
506.40 0.973
506.50 0.9725
506.60 0.972
506.70 0.9715
506.80 0.971
506.90 0.9705
507.00 0.97
507.10 0.9695
507.20 0.969
507.30 0.9685
507.40 0.968
507.50 0.9675
507.60 0.967
507.70 0.9665
507.80 0.966
507.90 0.9655
508.00 0.965
508.10 0.9645
508.20 0.964
508.30 0.9635
508.40 0.963
508.50 0.9624
508.60 0.9619
508.70 0.9614
508.80 0.9609
508.90 0.9604
509.00 0.9599
509.10 0.9594
509.20 0.9589
509.30 0.9583
509.40 0.9578
509.50 0.9573
509.60 0.9568
509.70 0.9563
509.80 0.9558
509.90 0.9552
510.00 0.9547
510.10 0.9542
510.20 0.9537
510.30 0.9532
510.40 0.9527
510.50 0.9521
510.60 0.9516
510.70 0.9511
510.80 0.9506
510.90 0.9501
511.00 0.9495
511.10 0.949
511.20 0.9485
511.30 0.948
511.40 0.9475
511.50 0.9469
511.60 0.9464
511.70 0.9459
511.80 0.9454
511.90 0.9449
512.00 0.9443
512.10 0.9438
512.20 0.9433
512.30 0.9428
512.40 0.9422
512.50 0.9417
512.60 0.9412
512.70 0.9407
512.80 0.9402
512.90 0.9396
513.00 0.9391
513.10 0.9386
513.20 0.9381
513.30 0.9375
513.40 0.937
513.50 0.9365
513.60 0.936
513.70 0.9355
513.80 0.9349
513.90 0.9344
514.00 0.9339
514.10 0.9334
514.20 0.9328
514.30 0.9323
514.40 0.9318
514.50 0.9313
514.60 0.9308
514.70 0.9302
514.80 0.9297
514.90 0.9292
515.00 0.9287
515.10 0.9282
515.20 0.9276
515.30 0.9271
515.40 0.9266
515.50 0.9261
515.60 0.9256
515.70 0.925
515.80 0.9245
515.90 0.924
516.00 0.9235
516.10 0.923
516.20 0.9224
516.30 0.9219
516.40 0.9214
516.50 0.9209
516.60 0.9204
516.70 0.9198
516.80 0.9193
516.90 0.9188
517.00 0.9183
517.10 0.9178
517.20 0.9172
517.30 0.9167
517.40 0.9162
517.50 0.9157
517.60 0.9152
517.70 0.9147
517.80 0.9141
517.90 0.9136
518.00 0.9131
518.10 0.9126
518.20 0.9121
518.30 0.9116
518.40 0.9111
518.50 0.9105
518.60 0.91
518.70 0.9095
518.80 0.909
518.90 0.9085
519.00 0.908
519.10 0.9075
519.20 0.9069
519.30 0.9064
519.40 0.9059
519.50 0.9054
519.60 0.9049
519.70 0.9044
519.80 0.9039
519.90 0.9034
520.00 0.9028
520.10 0.9023
520.20 0.9018
520.30 0.9013
520.40 0.9008
520.50 0.9003
520.60 0.8998
520.70 0.8993
520.80 0.8988
520.90 0.8983
521.00 0.8977
521.10 0.8972
521.20 0.8967
521.30 0.8962
521.40 0.8957
521.50 0.8952
521.60 0.8947
521.70 0.8942
521.80 0.8937
521.90 0.8932
522.00 0.8927
522.10 0.8922
522.20 0.8917
522.30 0.8911
522.40 0.8906
522.50 0.8901
522.60 0.8896
522.70 0.8891
522.80 0.8886
522.90 0.8881
523.00 0.8876
523.10 0.8871
523.20 0.8866
523.30 0.8861
523.40 0.8856
523.50 0.8851
523.60 0.8846
523.70 0.8841
523.80 0.8836
523.90 0.8831
524.00 0.8826
524.10 0.8821
524.20 0.8816
524.30 0.8811
524.40 0.8806
524.50 0.8801
524.60 0.8796
524.70 0.8791
524.80 0.8786
524.90 0.8781
525.00 0.8776
525.10 0.8771
525.20 0.8766
525.30 0.8761
525.40 0.8756
525.50 0.8751
525.60 0.8746
525.70 0.8741
525.80 0.8736
525.90 0.8731
526.00 0.8726
526.10 0.8721
526.20 0.8716
526.30 0.8711
526.40 0.8707
526.50 0.8702
526.60 0.8697
526.70 0.8692
526.80 0.8687
526.90 0.8682
527.00 0.8677
527.10 0.8672
527.20 0.8667
527.30 0.8662
527.40 0.8657
527.50 0.8652
527.60 0.8647
527.70 0.8643
527.80 0.8638
527.90 0.8633
528.00 0.8628
528.10 0.8623
528.20 0.8618
528.30 0.8613
528.40 0.8608
528.50 0.8603
528.60 0.8599
528.70 0.8594
528.80 0.8589
528.90 0.8584
529.00 0.8579
529.10 0.8574
529.20 0.8569
529.30 0.8565
529.40 0.856
529.50 0.8555
529.60 0.855
529.70 0.8545
529.80 0.854
529.90 0.8536
530.00 0.8531
530.10 0.8526
530.20 0.8521
530.30 0.8516
530.40 0.8511
530.50 0.8507
530.60 0.8502
530.70 0.8497
530.80 0.8492
530.90 0.8487
531.00 0.8482
531.10 0.8478
531.20 0.8473
531.30 0.8468
531.40 0.8463
531.50 0.8458
531.60 0.8454
531.70 0.8449
531.80 0.8444
531.90 0.8439
532.00 0.8435
532.10 0.843
532.20 0.8425
532.30 0.842
532.40 0.8416
532.50 0.8411
532.60 0.8406
532.70 0.8401
532.80 0.8397
532.90 0.8392
533.00 0.8387
533.10 0.8382
533.20 0.8378
533.30 0.8373
533.40 0.8368
533.50 0.8363
533.60 0.8359
533.70 0.8354
533.80 0.8349
533.90 0.8345
534.00 0.834
534.10 0.8335
534.20 0.833
534.30 0.8326
534.40 0.8321
534.50 0.8316
534.60 0.8312
534.70 0.8307
534.80 0.8302
534.90 0.8298
535.00 0.8293
535.10 0.8288
535.20 0.8284
535.30 0.8279
535.40 0.8274
535.50 0.827
535.60 0.8265
535.70 0.826
535.80 0.8256
535.90 0.8251
536.00 0.8246
536.10 0.8242
536.20 0.8237
536.30 0.8233
536.40 0.8228
536.50 0.8223
536.60 0.8219
536.70 0.8214
536.80 0.8209
536.90 0.8205
537.00 0.82
537.10 0.8196
537.20 0.8191
537.30 0.8186
537.40 0.8182
537.50 0.8177
537.60 0.8173
537.70 0.8168
537.80 0.8163
537.90 0.8159
538.00 0.8154
538.10 0.815
538.20 0.8145
538.30 0.814
538.40 0.8136
538.50 0.8131
538.60 0.8127
538.70 0.8122
538.80 0.8118
538.90 0.8113
539.00 0.8109
539.10 0.8104
539.20 0.8099
539.30 0.8095
539.40 0.809
539.50 0.8086
539.60 0.8081
539.70 0.8077
539.80 0.8072
539.90 0.8068
540.00 0.8063
540.10 0.8059
540.20 0.8054
540.30 0.805
540.40 0.8045
540.50 0.8041
540.60 0.8036
540.70 0.8032
540.80 0.8027
540.90 0.8023
541.00 0.8018
541.10 0.8014
541.20 0.8009
541.30 0.8005
541.40 0.8
541.50 0.7996
541.60 0.7991
541.70 0.7987
541.80 0.7982
541.90 0.7978
542.00 0.7973
542.10 0.7969
542.20 0.7965
542.30 0.796
542.40 0.7956
542.50 0.7951
542.60 0.7947
542.70 0.7942
542.80 0.7938
542.90 0.7933
543.00 0.7929
543.10 0.7925
543.20 0.792
543.30 0.7916
543.40 0.7911
543.50 0.7907
543.60 0.7902
543.70 0.7898
543.80 0.7894
543.90 0.7889
544.00 0.7885
544.10 0.788
544.20 0.7876
544.30 0.7872
544.40 0.7867
544.50 0.7863
544.60 0.7859
544.70 0.7854
544.80 0.785
544.90 0.7845
545.00 0.7841
545.10 0.7837
545.20 0.7832
545.30 0.7828
545.40 0.7824
545.50 0.7819
545.60 0.7815
545.70 0.7811
545.80 0.7806
545.90 0.7802
546.00 0.7798
546.10 0.7793
546.20 0.7789
546.30 0.7785
546.40 0.7781
546.50 0.7777
546.60 0.7773
546.70 0.7769
546.80 0.7764
546.90 0.776
547.00 0.7756
547.10 0.7752
547.20 0.7748
547.30 0.7744
547.40 0.7739
547.50 0.7735
547.60 0.7731
547.70 0.7726
547.80 0.7722
547.90 0.7718
548.00 0.7713
548.10 0.7709
548.20 0.7705
548.30 0.7701
548.40 0.7696
548.50 0.7692
548.60 0.7688
548.70 0.7684
548.80 0.7679
548.90 0.7675
549.00 0.7671
549.10 0.7666
549.20 0.7662
549.30 0.7658
549.40 0.7654
549.50 0.7649
549.60 0.7645
549.70 0.7641
549.80 0.7637
549.90 0.7632
550.00 0.7628
550.10 0.7624
550.20 0.762
550.30 0.7616
550.40 0.7611
550.50 0.7607
550.60 0.7603
550.70 0.7599
550.80 0.7595
550.90 0.759
551.00 0.7586
551.10 0.7582
551.20 0.7578
551.30 0.7574
551.40 0.7569
551.50 0.7565
551.60 0.7561
551.70 0.7557
551.80 0.7553
551.90 0.7548
552.00 0.7544
552.10 0.754
552.20 0.7536
552.30 0.7532
552.40 0.7528
552.50 0.7523
552.60 0.7519
552.70 0.7515
552.80 0.7511
552.90 0.7507
553.00 0.7503
553.10 0.7499
553.20 0.7494
553.30 0.749
553.40 0.7486
553.50 0.7482
553.60 0.7478
553.70 0.7474
553.80 0.747
553.90 0.7466
554.00 0.7461
554.10 0.7457
554.20 0.7453
554.30 0.7449
554.40 0.7445
554.50 0.7441
554.60 0.7437
554.70 0.7433
554.80 0.7429
554.90 0.7424
555.00 0.742
555.10 0.7416
555.20 0.7412
555.30 0.7408
555.40 0.7404
555.50 0.74
555.60 0.7396
555.70 0.7392
555.80 0.7388
555.90 0.7384
556.00 0.738
556.10 0.7376
556.20 0.7372
556.30 0.7368
556.40 0.7364
556.50 0.736
556.60 0.7355
556.70 0.7351
556.80 0.7347
556.90 0.7343
557.00 0.7339
557.10 0.7335
557.20 0.7331
557.30 0.7327
557.40 0.7323
557.50 0.7319
557.60 0.7315
557.70 0.7311
557.80 0.7307
557.90 0.7303
558.00 0.7299
558.10 0.7295
558.20 0.7291
558.30 0.7287
558.40 0.7283
558.50 0.7279
558.60 0.7275
558.70 0.7271
558.80 0.7267
558.90 0.7263
559.00 0.7259
559.10 0.7255
559.20 0.7251
559.30 0.7247
559.40 0.7243
559.50 0.7239
559.60 0.7235
559.70 0.7232
559.80 0.7228
559.90 0.7224
560.00 0.722
560.10 0.7216
560.20 0.7212
560.30 0.7208
560.40 0.7204
560.50 0.72
560.60 0.7196
560.70 0.7192
560.80 0.7188
560.90 0.7184
561.00 0.718
561.10 0.7176
561.20 0.7173
561.30 0.7169
561.40 0.7165
561.50 0.7161
561.60 0.7157
561.70 0.7153
561.80 0.7149
561.90 0.7145
562.00 0.7141
562.10 0.7137
562.20 0.7134
562.30 0.713
562.40 0.7126
562.50 0.7122
562.60 0.7118
562.70 0.7114
562.80 0.711
562.90 0.7106
563.00 0.7103
563.10 0.7099
563.20 0.7095
563.30 0.7091
563.40 0.7087
563.50 0.7083
563.60 0.7079
563.70 0.7076
563.80 0.7072
563.90 0.7068
564.00 0.7064
564.10 0.706
564.20 0.7056
564.30 0.7053
564.40 0.7049
564.50 0.7045
564.60 0.7041
564.70 0.7037
564.80 0.7033
564.90 0.703
565.00 0.7026
565.10 0.7022
565.20 0.7018
565.30 0.7014
565.40 0.7011
565.50 0.7007
565.60 0.7003
565.70 0.6999
565.80 0.6995
565.90 0.6992
566.00 0.6988
566.10 0.6984
566.20 0.698
566.30 0.6976
566.40 0.6973
566.50 0.6969
566.60 0.6965
566.70 0.6961
566.80 0.6958
566.90 0.6954
567.00 0.695
567.10 0.6946
567.20 0.6943
567.30 0.6939
567.40 0.6935
567.50 0.6931
567.60 0.6928
567.70 0.6924
567.80 0.692
567.90 0.6916
568.00 0.6913
568.10 0.6909
568.20 0.6905
568.30 0.6901
568.40 0.6898
568.50 0.6894
568.60 0.689
568.70 0.6886
568.80 0.6883
568.90 0.6879
569.00 0.6875
569.10 0.6872
569.20 0.6868
569.30 0.6864
569.40 0.6861
569.50 0.6857
569.60 0.6853
569.70 0.6849
569.80 0.6846
569.90 0.6842
570.00 0.6838
570.10 0.6835
570.20 0.6831
570.30 0.6827
570.40 0.6824
570.50 0.682
570.60 0.6816
570.70 0.6813
570.80 0.6809
570.90 0.6805
571.00 0.6802
571.10 0.6798
571.20 0.6794
571.30 0.6791
571.40 0.6787
571.50 0.6783
571.60 0.678
571.70 0.6776
571.80 0.6773
571.90 0.6769
572.00 0.6765
572.10 0.6762
572.20 0.6758
572.30 0.6754
572.40 0.6751
572.50 0.6747
572.60 0.6743
572.70 0.674
572.80 0.6736
572.90 0.6733
573.00 0.6729
573.10 0.6725
573.20 0.6722
573.30 0.6718
573.40 0.6715
573.50 0.6711
573.60 0.6707
573.70 0.6704
573.80 0.67
573.90 0.6697
574.00 0.6693
574.10 0.6689
574.20 0.6686
574.30 0.6682
574.40 0.6679
574.50 0.6675
574.60 0.6672
574.70 0.6668
574.80 0.6664
574.90 0.6661
575.00 0.6657
575.10 0.6654
575.20 0.665
575.30 0.6647
575.40 0.6643
575.50 0.6639
575.60 0.6636
575.70 0.6632
575.80 0.6629
575.90 0.6625
576.00 0.6622
576.10 0.6618
576.20 0.6615
576.30 0.6611
576.40 0.6608
576.50 0.6604
576.60 0.6601
576.70 0.6597
576.80 0.6594
576.90 0.659
577.00 0.6587
577.10 0.6583
577.20 0.6579
577.30 0.6576
577.40 0.6572
577.50 0.6569
577.60 0.6565
577.70 0.6562
577.80 0.6558
577.90 0.6555
578.00 0.6551
578.10 0.6548
578.20 0.6545
578.30 0.6541
578.40 0.6538
578.50 0.6534
578.60 0.6531
578.70 0.6527
578.80 0.6524
578.90 0.652
579.00 0.6517
579.10 0.6513
579.20 0.651
579.30 0.6506
579.40 0.6503
579.50 0.6499
579.60 0.6496
579.70 0.6492
579.80 0.6489
579.90 0.6486
580.00 0.6482
580.10 0.6479
580.20 0.6475
580.30 0.6472
580.40 0.6468
580.50 0.6465
580.60 0.6462
580.70 0.6458
580.80 0.6455
580.90 0.6451
581.00 0.6448
581.10 0.6444
581.20 0.6441
581.30 0.6438
581.40 0.6434
581.50 0.6431
581.60 0.6427
581.70 0.6424
581.80 0.6421
581.90 0.6417
582.00 0.6414
582.10 0.641
582.20 0.6407
582.30 0.6404
582.40 0.64
582.50 0.6397
582.60 0.6393
582.70 0.639
582.80 0.6387
582.90 0.6383
583.00 0.638
583.10 0.6376
583.20 0.6373
583.30 0.637
583.40 0.6366
583.50 0.6363
583.60 0.636
583.70 0.6356
583.80 0.6353
583.90 0.635
584.00 0.6346
584.10 0.6343
584.20 0.634
584.30 0.6336
584.40 0.6333
584.50 0.633
584.60 0.6326
584.70 0.6323
584.80 0.632
584.90 0.6316
585.00 0.6313
585.10 0.631
585.20 0.6306
585.30 0.6303
585.40 0.63
585.50 0.6296
585.60 0.6293
585.70 0.629
585.80 0.6286
585.90 0.6283
586.00 0.628
586.10 0.6276
586.20 0.6273
586.30 0.627
586.40 0.6266
586.50 0.6263
586.60 0.626
586.70 0.6257
586.80 0.6253
586.90 0.625
587.00 0.6247
587.10 0.6243
587.20 0.624
587.30 0.6237
587.40 0.6233
587.50 0.623
587.60 0.6227
587.70 0.6224
587.80 0.622
587.90 0.6217
588.00 0.6214
588.10 0.6211
588.20 0.6207
588.30 0.6204
588.40 0.6201
588.50 0.6198
588.60 0.6194
588.70 0.6191
588.80 0.6188
588.90 0.6185
589.00 0.6181
589.10 0.6178
589.20 0.6175
589.30 0.6172
589.40 0.6168
589.50 0.6165
589.60 0.6162
589.70 0.6159
589.80 0.6156
589.90 0.6152
590.00 0.6149
590.10 0.6146
590.20 0.6143
590.30 0.6139
590.40 0.6136
590.50 0.6133
590.60 0.613
590.70 0.6127
590.80 0.6123
590.90 0.612
591.00 0.6117
591.10 0.6114
591.20 0.6111
591.30 0.6107
591.40 0.6104
591.50 0.6101
591.60 0.6098
591.70 0.6095
591.80 0.6091
591.90 0.6088
592.00 0.6085
592.10 0.6082
592.20 0.6079
592.30 0.6075
592.40 0.6072
592.50 0.6069
592.60 0.6066
592.70 0.6063
592.80 0.606
592.90 0.6057
593.00 0.6053
593.10 0.605
593.20 0.6047
593.30 0.6044
593.40 0.6041
593.50 0.6038
593.60 0.6034
593.70 0.6031
593.80 0.6028
593.90 0.6025
594.00 0.6022
594.10 0.6019
594.20 0.6016
594.30 0.6012
594.40 0.6009
594.50 0.6006
594.60 0.6003
594.70 0.6
594.80 0.5997
594.90 0.5994
595.00 0.5991
595.10 0.5987
595.20 0.5984
595.30 0.5981
595.40 0.5978
595.50 0.5975
595.60 0.5972
595.70 0.5969
595.80 0.5966
595.90 0.5963
596.00 0.596
596.10 0.5956
596.20 0.5953
596.30 0.595
596.40 0.5946
596.50 0.5943
596.60 0.5939
596.70 0.5935
596.80 0.5932
596.90 0.5928
597.00 0.5925
597.10 0.5921
597.20 0.5918
597.30 0.5915
597.40 0.5912
597.50 0.5909
597.60 0.5906
597.70 0.5903
597.80 0.59
597.90 0.5897
598.00 0.5894
598.10 0.5891
598.20 0.5887
598.30 0.5884
598.40 0.5881
598.50 0.5878
598.60 0.5875
598.70 0.5872
598.80 0.5869
598.90 0.5866
599.00 0.5863
599.10 0.586
599.20 0.5857
599.30 0.5854
599.40 0.5851
599.50 0.5848
599.60 0.5845
599.70 0.5842
599.80 0.5839
599.90 0.5836
600.00 0.5833
600.10 0.583
600.20 0.5827
600.30 0.5824
600.40 0.5821
600.50 0.5818
600.60 0.5815
600.70 0.5811
600.80 0.5808
600.90 0.5805
601.00 0.5802
601.10 0.5799
601.20 0.5796
601.30 0.5793
601.40 0.579
601.50 0.5787
601.60 0.5784
601.70 0.5781
601.80 0.5778
601.90 0.5775
602.00 0.5772
602.10 0.5769
602.20 0.5766
602.30 0.5763
602.40 0.576
602.50 0.5757
602.60 0.5754
602.70 0.5752
602.80 0.5749
602.90 0.5746
603.00 0.5743
603.10 0.574
603.20 0.5737
603.30 0.5734
603.40 0.5731
603.50 0.5728
603.60 0.5725
603.70 0.5722
603.80 0.5719
603.90 0.5716
604.00 0.5713
604.10 0.571
604.20 0.5707
604.30 0.5704
604.40 0.5701
604.50 0.5698
604.60 0.5695
604.70 0.5692
604.80 0.5689
604.90 0.5686
605.00 0.5683
605.10 0.568
605.20 0.5678
605.30 0.5675
605.40 0.5672
605.50 0.5669
605.60 0.5666
605.70 0.5663
605.80 0.566
605.90 0.5657
606.00 0.5654
606.10 0.5651
606.20 0.5648
606.30 0.5645
606.40 0.5642
606.50 0.564
606.60 0.5637
606.70 0.5634
606.80 0.5631
606.90 0.5628
607.00 0.5625
607.10 0.5622
607.20 0.5619
607.30 0.5616
607.40 0.5613
607.50 0.561
607.60 0.5608
607.70 0.5605
607.80 0.5602
607.90 0.5599
608.00 0.5596
608.10 0.5593
608.20 0.559
608.30 0.5587
608.40 0.5584
608.50 0.5582
608.60 0.5579
608.70 0.5576
608.80 0.5573
608.90 0.557
609.00 0.5567
609.10 0.5564
609.20 0.5562
609.30 0.5559
609.40 0.5556
609.50 0.5553
609.60 0.555
609.70 0.5547
609.80 0.5544
609.90 0.5541
610.00 0.5539
610.10 0.5536
610.20 0.5533
610.30 0.553
610.40 0.5527
610.50 0.5524
610.60 0.5522
610.70 0.5519
610.80 0.5516
610.90 0.5513
611.00 0.551
611.10 0.5507
611.20 0.5505
611.30 0.5502
611.40 0.5499
611.50 0.5496
611.60 0.5493
611.70 0.549
611.80 0.5488
611.90 0.5485
612.00 0.5482
612.10 0.5479
612.20 0.5476
612.30 0.5473
612.40 0.5471
612.50 0.5468
612.60 0.5465
612.70 0.5462
612.80 0.5459
612.90 0.5457
613.00 0.5454
613.10 0.5451
613.20 0.5448
613.30 0.5445
613.40 0.5443
613.50 0.544
613.60 0.5437
613.70 0.5434
613.80 0.5431
613.90 0.5428
614.00 0.5426
614.10 0.5423
614.20 0.542
614.30 0.5417
614.40 0.5415
614.50 0.5412
614.60 0.5409
614.70 0.5406
614.80 0.5403
614.90 0.5401
615.00 0.5398
615.10 0.5395
615.20 0.5392
615.30 0.539
615.40 0.5387
615.50 0.5384
615.60 0.5381
615.70 0.5378
615.80 0.5376
615.90 0.5373
616.00 0.537
616.10 0.5367
616.20 0.5365
616.30 0.5362
616.40 0.5359
616.50 0.5356
616.60 0.5354
616.70 0.5351
616.80 0.5348
616.90 0.5345
617.00 0.5343
617.10 0.534
617.20 0.5337
617.30 0.5334
617.40 0.5332
617.50 0.5329
617.60 0.5326
617.70 0.5323
617.80 0.5321
617.90 0.5318
618.00 0.5315
618.10 0.5312
618.20 0.531
618.30 0.5307
618.40 0.5304
618.50 0.5301
618.60 0.5299
618.70 0.5296
618.80 0.5293
618.90 0.5291
619.00 0.5288
619.10 0.5285
619.20 0.5282
619.30 0.528
619.40 0.5277
619.50 0.5274
619.60 0.5272
619.70 0.5269
619.80 0.5266
619.90 0.5263
620.00 0.5261
620.10 0.5258
620.20 0.5255
620.30 0.5253
620.40 0.525
620.50 0.5247
620.60 0.5244
620.70 0.5242
620.80 0.5239
620.90 0.5236
621.00 0.5234
621.10 0.5231
621.20 0.5228
621.30 0.5226
621.40 0.5223
621.50 0.522
621.60 0.5217
621.70 0.5215
621.80 0.5212
621.90 0.5209
622.00 0.5207
622.10 0.5204
622.20 0.5201
622.30 0.5199
622.40 0.5196
622.50 0.5193
622.60 0.519
622.70 0.5188
622.80 0.5185
622.90 0.5182
623.00 0.518
623.10 0.5177
623.20 0.5174
623.30 0.5172
623.40 0.5169
623.50 0.5166
623.60 0.5164
623.70 0.5161
623.80 0.5158
623.90 0.5156
624.00 0.5153
624.10 0.515
624.20 0.5148
624.30 0.5145
624.40 0.5142
624.50 0.514
624.60 0.5137
624.70 0.5134
624.80 0.5132
624.90 0.5129
625.00 0.5126
625.10 0.5124
625.20 0.5121
625.30 0.5118
625.40 0.5116
625.50 0.5113
625.60 0.511
625.70 0.5108
625.80 0.5105
625.90 0.5102
626.00 0.51
626.10 0.5097
626.20 0.5094
626.30 0.5092
626.40 0.5089
626.50 0.5086
626.60 0.5084
626.70 0.5081
626.80 0.5078
626.90 0.5076
627.00 0.5073
627.10 0.507
627.20 0.5068
627.30 0.5065
627.40 0.5062
627.50 0.506
627.60 0.5057
627.70 0.5054
627.80 0.5052
627.90 0.5049
628.00 0.5047
628.10 0.5044
628.20 0.5041
628.30 0.5039
628.40 0.5036
628.50 0.5033
628.60 0.5031
628.70 0.5028
628.80 0.5025
628.90 0.5023
629.00 0.502
629.10 0.5017
629.20 0.5015
629.30 0.5012
629.40 0.5009
629.50 0.5007
629.60 0.5004
629.70 0.5001
629.80 0.4999
629.90 0.4996
630.00 0.4993
630.10 0.4991
630.20 0.4988
630.30 0.4986
630.40 0.4983
630.50 0.498
630.60 0.4978
630.70 0.4975
630.80 0.4972
630.90 0.497
631.00 0.4967
631.10 0.4964
631.20 0.4962
631.30 0.4959
631.40 0.4956
631.50 0.4954
631.60 0.4951
631.70 0.4948
631.80 0.4946
631.90 0.4943
632.00 0.494
632.10 0.4938
632.20 0.4935
632.30 0.4932
632.40 0.493
632.50 0.4927
632.60 0.4924
632.70 0.4922
632.80 0.4919
632.90 0.4916
633.00 0.4914
633.10 0.4911
633.20 0.4908
633.30 0.4906
633.40 0.4903
633.50 0.49
633.60 0.4897
633.70 0.4895
633.80 0.4892
633.90 0.4889
634.00 0.4887
634.10 0.4884
634.20 0.4881
634.30 0.4879
634.40 0.4876
634.50 0.4873
634.60 0.487
634.70 0.4868
634.80 0.4865
634.90 0.4862
635.00 0.4859
635.10 0.4857
635.20 0.4854
635.30 0.4851
635.40 0.4848
635.50 0.4846
635.60 0.4843
635.70 0.484
635.80 0.4837
635.90 0.4835
636.00 0.4832
636.10 0.4829
636.20 0.4826
636.30 0.4824
636.40 0.4821
636.50 0.4818
636.60 0.4815
636.70 0.4812
636.80 0.481
636.90 0.4807
637.00 0.4804
637.10 0.4801
637.20 0.4798
637.30 0.4795
637.40 0.4793
637.50 0.479
637.60 0.4787
637.70 0.4784
637.80 0.4781
637.90 0.4778
638.00 0.4775
638.10 0.4772
638.20 0.477
638.30 0.4767
638.40 0.4764
638.50 0.4761
638.60 0.4758
638.70 0.4755
638.80 0.4752
638.90 0.4749
639.00 0.4746
639.10 0.4743
639.20 0.474
639.30 0.4737
639.40 0.4734
639.50 0.4731
639.60 0.4728
639.70 0.4725
639.80 0.4722
639.90 0.4719
640.00 0.4716
640.10 0.4713
640.20 0.471
640.30 0.4707
640.40 0.4703
640.50 0.47
640.60 0.4697
640.70 0.4694
640.80 0.4691
640.90 0.4687
641.00 0.4684
641.10 0.4681
641.20 0.4678
641.30 0.4675
641.40 0.4671
641.50 0.4668
641.60 0.4665
641.70 0.4661
641.80 0.4658
641.90 0.4654
642.00 0.4651
642.10 0.4648
642.20 0.4644
642.30 0.4641
642.40 0.4637
642.50 0.4634
642.60 0.463
642.70 0.4627
642.80 0.4623
642.90 0.462
643.00 0.4616
643.10 0.4612
643.20 0.4609
643.30 0.4605
643.40 0.4601
643.50 0.4597
643.60 0.4594
643.70 0.459
643.80 0.4586
643.90 0.4582
644.00 0.4578
644.10 0.4574
644.20 0.457
644.30 0.4566
644.40 0.4562
644.50 0.4558
644.60 0.4553
644.70 0.4549
644.80 0.4545
644.90 0.454
645.00 0.4536
645.10 0.4532
645.20 0.4527
645.30 0.4523
645.40 0.4518
645.50 0.4513
645.60 0.4509
645.70 0.4504
645.80 0.4499
645.90 0.4494
646.00 0.4489
646.10 0.4484
646.20 0.448
646.30 0.4475
646.40 0.4469
646.50 0.4463
646.60 0.4458
646.70 0.4452
646.80 0.4447
646.90 0.4441
647.00 0.4436
647.10 0.443
647.20 0.4424
647.30 0.4419
647.40 0.4412
647.50 0.4406
647.60 0.4399
647.70 0.4392
647.80 0.4386
647.90 0.4379
648.00 0.4373
648.10 0.4366
648.20 0.4359
648.30 0.4353
648.40 0.4345
648.50 0.4336
648.60 0.4328
648.70 0.432
648.80 0.4312
648.90 0.4304
649.00 0.4296
649.10 0.4288
649.20 0.428
649.30 0.4272
649.40 0.4262
649.50 0.4252
649.60 0.4242
649.70 0.4232
649.80 0.4222
649.90 0.4212
650.00 0.4202
650.10 0.4192
650.20 0.4182
650.30 0.4172
650.40 0.4159
650.50 0.4146
650.60 0.4134
650.70 0.4121
650.80 0.4108
650.90 0.4096
651.00 0.4083
651.10 0.407
651.20 0.4057
651.30 0.4044
651.40 0.4027
651.50 0.4011
651.60 0.3994
651.70 0.3977
651.80 0.3961
651.90 0.3944
652.00 0.3927
652.10 0.3911
652.20 0.3894
652.30 0.3876
652.40 0.3855
652.50 0.3833
652.60 0.3811
652.70 0.3789
652.80 0.3767
652.90 0.3745
653.00 0.3723
653.10 0.3701
653.20 0.3679
653.30 0.3656
653.40 0.3627
653.50 0.3598
653.60 0.3569
653.70 0.354
653.80 0.3511
653.90 0.3482
654.00 0.3453
654.10 0.3424
654.20 0.3395
654.30 0.3365
654.40 0.3329
654.50 0.3293
654.60 0.3257
654.70 0.3221
654.80 0.3184
654.90 0.314
655.00 0.3096
655.10 0.3053
655.20 0.3009
655.30 0.2965
655.40 0.2917
655.50 0.2867
655.60 0.2813
655.70 0.2757
655.80 0.2695
655.90 0.2628
656.00 0.2543
656.10 0.2451
656.20 0.213
656.30 0.1783
656.40 0.2342
656.50 0.2486
656.60 0.257
656.70 0.2648
656.80 0.2709
656.90 0.2767
657.00 0.2819
657.10 0.287
657.20 0.2916
657.30 0.2961
657.40 0.3002
657.50 0.3043
657.60 0.3084
657.70 0.3124
657.80 0.3163
657.90 0.3196
658.00 0.3229
658.10 0.3262
658.20 0.3295
658.30 0.3327
658.40 0.3352
658.50 0.3378
658.60 0.3403
658.70 0.3429
658.80 0.3454
658.90 0.3479
659.00 0.3505
659.10 0.353
659.20 0.3556
659.30 0.358
659.40 0.3598
659.50 0.3616
659.60 0.3634
659.70 0.3652
659.80 0.367
659.90 0.3687
660.00 0.3705
660.10 0.3723
660.20 0.3741
660.30 0.3758
660.40 0.3771
660.50 0.3783
660.60 0.3795
660.70 0.3808
660.80 0.382
660.90 0.3833
661.00 0.3845
661.10 0.3857
661.20 0.387
661.30 0.3881
661.40 0.389
661.50 0.3898
661.60 0.3906
661.70 0.3914
661.80 0.3923
661.90 0.3931
662.00 0.3939
662.10 0.3948
662.20 0.3956
662.30 0.3964
662.40 0.3969
662.50 0.3975
662.60 0.398
662.70 0.3985
662.80 0.3991
662.90 0.3996
663.00 0.4002
663.10 0.4007
663.20 0.4013
663.30 0.4018
663.40 0.4021
663.50 0.4025
663.60 0.4028
663.70 0.4032
663.80 0.4035
663.90 0.4039
664.00 0.4042
664.10 0.4046
664.20 0.4049
664.30 0.4052
664.40 0.4054
664.50 0.4057
664.60 0.4059
664.70 0.4061
664.80 0.4063
664.90 0.4065
665.00 0.4067
665.10 0.4069
665.20 0.4071
665.30 0.4073
665.40 0.4074
665.50 0.4075
665.60 0.4076
665.70 0.4077
665.80 0.4078
665.90 0.4079
666.00 0.408
666.10 0.4081
666.20 0.4082
666.30 0.4083
666.40 0.4083
666.50 0.4083
666.60 0.4084
666.70 0.4084
666.80 0.4084
666.90 0.4085
667.00 0.4085
667.10 0.4085
667.20 0.4086
667.30 0.4086
667.40 0.4086
667.50 0.4086
667.60 0.4085
667.70 0.4085
667.80 0.4085
667.90 0.4085
668.00 0.4085
668.10 0.4084
668.20 0.4084
668.30 0.4084
668.40 0.4083
668.50 0.4083
668.60 0.4082
668.70 0.4082
668.80 0.4081
668.90 0.4081
669.00 0.408
669.10 0.4079
669.20 0.4079
669.30 0.4078
669.40 0.4077
669.50 0.4076
669.60 0.4076
669.70 0.4075
669.80 0.4074
669.90 0.4073
670.00 0.4072
670.10 0.4071
670.20 0.407
670.30 0.4069
670.40 0.4068
670.50 0.4067
670.60 0.4066
670.70 0.4065
670.80 0.4064
670.90 0.4063
671.00 0.4062
671.10 0.4061
671.20 0.406
671.30 0.4059
671.40 0.4057
671.50 0.4056
671.60 0.4055
671.70 0.4054
671.80 0.4053
671.90 0.4051
672.00 0.405
672.10 0.4049
672.20 0.4048
672.30 0.4046
672.40 0.4045
672.50 0.4044
672.60 0.4042
672.70 0.4041
672.80 0.404
672.90 0.4038
673.00 0.4037
673.10 0.4036
673.20 0.4034
673.30 0.4033
673.40 0.4032
673.50 0.403
673.60 0.4029
673.70 0.4027
673.80 0.4026
673.90 0.4024
674.00 0.4023
674.10 0.4021
674.20 0.402
674.30 0.4019
674.40 0.4017
674.50 0.4016
674.60 0.4014
674.70 0.4013
674.80 0.4011
674.90 0.401
675.00 0.4008
675.10 0.4007
675.20 0.4005
675.30 0.4004
675.40 0.4002
675.50 0.4
675.60 0.3999
675.70 0.3997
675.80 0.3996
675.90 0.3994
676.00 0.3993
676.10 0.3991
676.20 0.3989
676.30 0.3988
676.40 0.3986
676.50 0.3985
676.60 0.3983
676.70 0.3981
676.80 0.398
676.90 0.3978
677.00 0.3977
677.10 0.3975
677.20 0.3973
677.30 0.3972
677.40 0.397
677.50 0.3969
677.60 0.3967
677.70 0.3965
677.80 0.3964
677.90 0.3962
678.00 0.396
678.10 0.3959
678.20 0.3957
678.30 0.3955
678.40 0.3954
678.50 0.3952
678.60 0.3951
678.70 0.3949
678.80 0.3947
678.90 0.3946
679.00 0.3944
679.10 0.3942
679.20 0.3941
679.30 0.3939
679.40 0.3937
679.50 0.3936
679.60 0.3934
679.70 0.3932
679.80 0.3931
679.90 0.3929
680.00 0.3927
680.10 0.3926
680.20 0.3924
680.30 0.3922
680.40 0.392
680.50 0.3919
680.60 0.3917
680.70 0.3915
680.80 0.3914
680.90 0.3912
681.00 0.391
681.10 0.3909
681.20 0.3907
681.30 0.3905
681.40 0.3904
681.50 0.3902
681.60 0.39
681.70 0.3899
681.80 0.3897
681.90 0.3895
682.00 0.3893
682.10 0.3892
682.20 0.389
682.30 0.3888
682.40 0.3887
682.50 0.3885
682.60 0.3883
682.70 0.3882
682.80 0.388
682.90 0.3878
683.00 0.3876
683.10 0.3875
683.20 0.3873
683.30 0.3871
683.40 0.387
683.50 0.3868
683.60 0.3866
683.70 0.3865
683.80 0.3863
683.90 0.3861
684.00 0.3859
684.10 0.3858
684.20 0.3856
684.30 0.3854
684.40 0.3853
684.50 0.3851
684.60 0.3849
684.70 0.3847
684.80 0.3846
684.90 0.3844
685.00 0.3842
685.10 0.3841
685.20 0.3839
685.30 0.3837
685.40 0.3836
685.50 0.3834
685.60 0.3832
685.70 0.383
685.80 0.3829
685.90 0.3827
686.00 0.3825
686.10 0.3824
686.20 0.3822
686.30 0.382
686.40 0.3818
686.50 0.3817
686.60 0.3815
686.70 0.3813
686.80 0.3812
686.90 0.381
687.00 0.3808
687.10 0.3807
687.20 0.3805
687.30 0.3803
687.40 0.3802
687.50 0.38
687.60 0.3798
687.70 0.3796
687.80 0.3795
687.90 0.3793
688.00 0.3791
688.10 0.379
688.20 0.3788
688.30 0.3786
688.40 0.3785
688.50 0.3783
688.60 0.3781
688.70 0.3779
688.80 0.3778
688.90 0.3776
689.00 0.3774
689.10 0.3773
689.20 0.3771
689.30 0.3769
689.40 0.3768
689.50 0.3766
689.60 0.3764
689.70 0.3763
689.80 0.3761
689.90 0.3759
690.00 0.3757
690.10 0.3756
690.20 0.3754
690.30 0.3752
690.40 0.3751
690.50 0.3749
690.60 0.3747
690.70 0.3746
690.80 0.3744
690.90 0.3742
691.00 0.374
691.10 0.3739
691.20 0.3737
691.30 0.3735
691.40 0.3734
691.50 0.3732
691.60 0.373
691.70 0.3729
691.80 0.3727
691.90 0.3725
692.00 0.3724
692.10 0.3722
692.20 0.372
692.30 0.3719
692.40 0.3717
692.50 0.3715
692.60 0.3714
692.70 0.3712
692.80 0.371
692.90 0.3709
693.00 0.3707
693.10 0.3705
693.20 0.3704
693.30 0.3702
693.40 0.37
693.50 0.3698
693.60 0.3697
693.70 0.3695
693.80 0.3693
693.90 0.3692
694.00 0.369
694.10 0.3688
694.20 0.3687
694.30 0.3685
694.40 0.3684
694.50 0.3682
694.60 0.368
694.70 0.3679
694.80 0.3677
694.90 0.3675
695.00 0.3674
695.10 0.3672
695.20 0.367
695.30 0.3669
695.40 0.3667
695.50 0.3665
695.60 0.3664
695.70 0.3662
695.80 0.366
695.90 0.3659
696.00 0.3657
696.10 0.3655
696.20 0.3654
696.30 0.3652
696.40 0.365
696.50 0.3649
696.60 0.3647
696.70 0.3645
696.80 0.3644
696.90 0.3642
697.00 0.3641
697.10 0.3639
697.20 0.3637
697.30 0.3636
697.40 0.3634
697.50 0.3632
697.60 0.3631
697.70 0.3629
697.80 0.3627
697.90 0.3626
698.00 0.3624
698.10 0.3623
698.20 0.3621
698.30 0.3619
698.40 0.3618
698.50 0.3616
698.60 0.3614
698.70 0.3613
698.80 0.3611
698.90 0.361
699.00 0.3608
699.10 0.3606
699.20 0.3605
699.30 0.3603
699.40 0.3601
699.50 0.36
699.60 0.3598
699.70 0.3597
699.80 0.3595
699.90 0.3593
700.00 0.3592
700.10 0.359
700.20 0.3589
700.30 0.3588
700.40 0.3586
700.50 0.3585
700.60 0.3583
700.70 0.3582
700.80 0.3581
700.90 0.3579
701.00 0.3578
701.10 0.3576
701.20 0.3575
701.30 0.3574
701.40 0.3572
701.50 0.3571
701.60 0.357
701.70 0.3568
701.80 0.3567
701.90 0.3565
702.00 0.3564
702.10 0.3563
702.20 0.3561
702.30 0.356
702.40 0.3559
702.50 0.3557
702.60 0.3556
702.70 0.3554
702.80 0.3553
702.90 0.3552
703.00 0.355
703.10 0.3549
703.20 0.3548
703.30 0.3546
703.40 0.3545
703.50 0.3543
703.60 0.3542
703.70 0.3541
703.80 0.3539
703.90 0.3538
704.00 0.3537
704.10 0.3535
704.20 0.3534
704.30 0.3533
704.40 0.3531
704.50 0.353
704.60 0.3529
704.70 0.3527
704.80 0.3526
704.90 0.3524
705.00 0.3523
705.10 0.3521
705.20 0.352
705.30 0.3518
705.40 0.3517
705.50 0.3515
705.60 0.3514
705.70 0.3512
705.80 0.351
705.90 0.3509
706.00 0.3507
706.10 0.3506
706.20 0.3504
706.30 0.3502
706.40 0.3501
706.50 0.3499
706.60 0.3498
706.70 0.3496
706.80 0.3495
706.90 0.3493
707.00 0.3491
707.10 0.349
707.20 0.3488
707.30 0.3487
707.40 0.3485
707.50 0.3484
707.60 0.3482
707.70 0.348
707.80 0.3479
707.90 0.3477
708.00 0.3476
708.10 0.3474
708.20 0.3473
708.30 0.3471
708.40 0.347
708.50 0.3468
708.60 0.3466
708.70 0.3465
708.80 0.3463
708.90 0.3462
709.00 0.346
709.10 0.3459
709.20 0.3457
709.30 0.3455
709.40 0.3454
709.50 0.3452
709.60 0.3451
709.70 0.3449
709.80 0.3448
709.90 0.3446
710.00 0.3445
710.10 0.3443
710.20 0.3442
710.30 0.344
710.40 0.3438
710.50 0.3437
710.60 0.3435
710.70 0.3434
710.80 0.3432
710.90 0.3431
711.00 0.3429
711.10 0.3428
711.20 0.3426
711.30 0.3425
711.40 0.3423
711.50 0.3422
711.60 0.342
711.70 0.3418
711.80 0.3417
711.90 0.3415
712.00 0.3414
712.10 0.3412
712.20 0.3411
712.30 0.3409
712.40 0.3408
712.50 0.3406
712.60 0.3405
712.70 0.3403
712.80 0.3402
712.90 0.34
713.00 0.3399
713.10 0.3397
713.20 0.3396
713.30 0.3394
713.40 0.3392
713.50 0.3391
713.60 0.3389
713.70 0.3388
713.80 0.3386
713.90 0.3385
714.00 0.3383
714.10 0.3382
714.20 0.338
714.30 0.3379
714.40 0.3377
714.50 0.3376
714.60 0.3374
714.70 0.3373
714.80 0.3371
714.90 0.337
715.00 0.3368
715.10 0.3367
715.20 0.3365
715.30 0.3364
715.40 0.3362
715.50 0.3361
715.60 0.3359
715.70 0.3358
715.80 0.3356
715.90 0.3355
716.00 0.3353
716.10 0.3352
716.20 0.335
716.30 0.3349
716.40 0.3347
716.50 0.3346
716.60 0.3345
716.70 0.3343
716.80 0.3342
716.90 0.334
717.00 0.3339
717.10 0.3337
717.20 0.3336
717.30 0.3334
717.40 0.3333
717.50 0.3331
717.60 0.333
717.70 0.3328
717.80 0.3327
717.90 0.3325
718.00 0.3324
718.10 0.3322
718.20 0.3321
718.30 0.3319
718.40 0.3318
718.50 0.3317
718.60 0.3315
718.70 0.3314
718.80 0.3312
718.90 0.3311
719.00 0.3309
719.10 0.3308
719.20 0.3306
719.30 0.3305
719.40 0.3303
719.50 0.3302
719.60 0.33
719.70 0.3299
719.80 0.3298
719.90 0.3296
720.00 0.3295
720.10 0.3293
720.20 0.3292
720.30 0.329
720.40 0.3289
720.50 0.3287
720.60 0.3286
720.70 0.3284
720.80 0.3283
720.90 0.3281
721.00 0.328
721.10 0.3279
721.20 0.3277
721.30 0.3276
721.40 0.3274
721.50 0.3273
721.60 0.3271
721.70 0.327
721.80 0.3268
721.90 0.3267
722.00 0.3265
722.10 0.3264
722.20 0.3263
722.30 0.3261
722.40 0.326
722.50 0.3258
722.60 0.3257
722.70 0.3255
722.80 0.3254
722.90 0.3252
723.00 0.3251
723.10 0.325
723.20 0.3248
723.30 0.3247
723.40 0.3245
723.50 0.3244
723.60 0.3242
723.70 0.3241
723.80 0.3239
723.90 0.3238
724.00 0.3237
724.10 0.3235
724.20 0.3234
724.30 0.3232
724.40 0.3231
724.50 0.3229
724.60 0.3228
724.70 0.3226
724.80 0.3225
724.90 0.3224
725.00 0.3222
725.10 0.3221
725.20 0.3219
725.30 0.3218
725.40 0.3216
725.50 0.3215
725.60 0.3214
725.70 0.3212
725.80 0.3211
725.90 0.3209
726.00 0.3208
726.10 0.3207
726.20 0.3205
726.30 0.3204
726.40 0.3202
726.50 0.3201
726.60 0.3199
726.70 0.3198
726.80 0.3197
726.90 0.3195
727.00 0.3194
727.10 0.3192
727.20 0.3191
727.30 0.319
727.40 0.3188
727.50 0.3187
727.60 0.3185
727.70 0.3184
727.80 0.3182
727.90 0.3181
728.00 0.318
728.10 0.3178
728.20 0.3177
728.30 0.3175
728.40 0.3174
728.50 0.3173
728.60 0.3171
728.70 0.317
728.80 0.3168
728.90 0.3167
729.00 0.3166
729.10 0.3164
729.20 0.3163
729.30 0.3161
729.40 0.316
729.50 0.3159
729.60 0.3157
729.70 0.3156
729.80 0.3154
729.90 0.3153
730.00 0.3152
730.10 0.315
730.20 0.3149
730.30 0.3148
730.40 0.3146
730.50 0.3145
730.60 0.3143
730.70 0.3142
730.80 0.3141
730.90 0.3139
731.00 0.3138
731.10 0.3136
731.20 0.3135
731.30 0.3134
731.40 0.3132
731.50 0.3131
731.60 0.313
731.70 0.3128
731.80 0.3127
731.90 0.3125
732.00 0.3124
732.10 0.3123
732.20 0.3121
732.30 0.312
732.40 0.3119
732.50 0.3117
732.60 0.3116
732.70 0.3115
732.80 0.3113
732.90 0.3112
733.00 0.311
733.10 0.3109
733.20 0.3108
733.30 0.3106
733.40 0.3105
733.50 0.3104
733.60 0.3102
733.70 0.3101
733.80 0.31
733.90 0.3098
734.00 0.3097
734.10 0.3095
734.20 0.3094
734.30 0.3093
734.40 0.3091
734.50 0.309
734.60 0.3089
734.70 0.3087
734.80 0.3086
734.90 0.3085
735.00 0.3083
735.10 0.3082
735.20 0.3081
735.30 0.3079
735.40 0.3078
735.50 0.3076
735.60 0.3075
735.70 0.3074
735.80 0.3072
735.90 0.3071
736.00 0.307
736.10 0.3068
736.20 0.3067
736.30 0.3066
736.40 0.3064
736.50 0.3063
736.60 0.3062
736.70 0.306
736.80 0.3059
736.90 0.3058
737.00 0.3056
737.10 0.3055
737.20 0.3054
737.30 0.3052
737.40 0.3051
737.50 0.305
737.60 0.3048
737.70 0.3047
737.80 0.3046
737.90 0.3044
738.00 0.3043
738.10 0.3042
738.20 0.304
738.30 0.3039
738.40 0.3038
738.50 0.3036
738.60 0.3035
738.70 0.3034
738.80 0.3032
738.90 0.3031
739.00 0.303
739.10 0.3028
739.20 0.3027
739.30 0.3026
739.40 0.3024
739.50 0.3023
739.60 0.3022
739.70 0.302
739.80 0.3019
739.90 0.3018
740.00 0.3016
740.10 0.3015
740.20 0.3014
740.30 0.3012
740.40 0.3011
740.50 0.301
740.60 0.3008
740.70 0.3007
740.80 0.3006
740.90 0.3005
741.00 0.3003
741.10 0.3002
741.20 0.3001
741.30 0.2999
741.40 0.2998
741.50 0.2997
741.60 0.2995
741.70 0.2994
741.80 0.2993
741.90 0.2992
742.00 0.299
742.10 0.2989
742.20 0.2988
742.30 0.2986
742.40 0.2985
742.50 0.2984
742.60 0.2982
742.70 0.2981
742.80 0.298
742.90 0.2979
743.00 0.2977
743.10 0.2976
743.20 0.2975
743.30 0.2973
743.40 0.2972
743.50 0.2971
743.60 0.297
743.70 0.2968
743.80 0.2967
743.90 0.2966
744.00 0.2964
744.10 0.2963
744.20 0.2962
744.30 0.2961
744.40 0.2959
744.50 0.2958
744.60 0.2957
744.70 0.2955
744.80 0.2954
744.90 0.2953
745.00 0.2952
745.10 0.295
745.20 0.2949
745.30 0.2948
745.40 0.2946
745.50 0.2945
745.60 0.2944
745.70 0.2943
745.80 0.2941
745.90 0.294
746.00 0.2939
746.10 0.2938
746.20 0.2936
746.30 0.2935
746.40 0.2934
746.50 0.2932
746.60 0.2931
746.70 0.293
746.80 0.2929
746.90 0.2927
747.00 0.2926
747.10 0.2925
747.20 0.2924
747.30 0.2922
747.40 0.2921
747.50 0.292
747.60 0.2918
747.70 0.2917
747.80 0.2916
747.90 0.2915
748.00 0.2913
748.10 0.2912
748.20 0.2911
748.30 0.291
748.40 0.2908
748.50 0.2907
748.60 0.2906
748.70 0.2905
748.80 0.2903
748.90 0.2902
749.00 0.2901
749.10 0.29
749.20 0.2898
749.30 0.2897
749.40 0.2896
749.50 0.2895
749.60 0.2893
749.70 0.2892
749.80 0.2891
749.90 0.289
750.00 0.2888
750.10 0.2887
750.20 0.2886
750.30 0.2885
750.40 0.2883
750.50 0.2882
750.60 0.2881
750.70 0.288
750.80 0.2878
750.90 0.2877
751.00 0.2876
751.10 0.2875
751.20 0.2873
751.30 0.2872
751.40 0.2871
751.50 0.287
751.60 0.2868
751.70 0.2867
751.80 0.2866
751.90 0.2865
752.00 0.2864
752.10 0.2862
752.20 0.2861
752.30 0.286
752.40 0.2859
752.50 0.2857
752.60 0.2856
752.70 0.2855
752.80 0.2854
752.90 0.2853
753.00 0.2851
753.10 0.285
753.20 0.2849
753.30 0.2848
753.40 0.2846
753.50 0.2845
753.60 0.2844
753.70 0.2843
753.80 0.2841
753.90 0.284
754.00 0.2839
754.10 0.2838
754.20 0.2837
754.30 0.2835
754.40 0.2834
754.50 0.2833
754.60 0.2832
754.70 0.2831
754.80 0.2829
754.90 0.2828
755.00 0.2827
755.10 0.2826
755.20 0.2824
755.30 0.2823
755.40 0.2822
755.50 0.2821
755.60 0.282
755.70 0.2818
755.80 0.2817
755.90 0.2816
756.00 0.2815
756.10 0.2814
756.20 0.2812
756.30 0.2811
756.40 0.281
756.50 0.2809
756.60 0.2808
756.70 0.2806
756.80 0.2805
756.90 0.2804
757.00 0.2803
757.10 0.2802
757.20 0.28
757.30 0.2799
757.40 0.2798
757.50 0.2797
757.60 0.2796
757.70 0.2794
757.80 0.2793
757.90 0.2792
758.00 0.2791
758.10 0.279
758.20 0.2788
758.30 0.2787
758.40 0.2786
758.50 0.2785
758.60 0.2784
758.70 0.2782
758.80 0.2781
758.90 0.278
759.00 0.2779
759.10 0.2778
759.20 0.2776
759.30 0.2775
759.40 0.2774
759.50 0.2773
759.60 0.2772
759.70 0.277
759.80 0.2769
759.90 0.2768
760.00 0.2767
760.10 0.2766
760.20 0.2765
760.30 0.2763
760.40 0.2762
760.50 0.2761
760.60 0.276
760.70 0.2759
760.80 0.2757
760.90 0.2756
761.00 0.2755
761.10 0.2754
761.20 0.2753
761.30 0.2752
761.40 0.275
761.50 0.2749
761.60 0.2748
761.70 0.2747
761.80 0.2746
761.90 0.2745
762.00 0.2743
762.10 0.2742
762.20 0.2741
762.30 0.274
762.40 0.2739
762.50 0.2738
762.60 0.2736
762.70 0.2735
762.80 0.2734
762.90 0.2733
763.00 0.2732
763.10 0.2731
763.20 0.273
763.30 0.2728
763.40 0.2727
763.50 0.2726
763.60 0.2725
763.70 0.2724
763.80 0.2723
763.90 0.2721
764.00 0.272
764.10 0.2719
764.20 0.2718
764.30 0.2717
764.40 0.2716
764.50 0.2714
764.60 0.2713
764.70 0.2712
764.80 0.2711
764.90 0.271
765.00 0.2709
765.10 0.2708
765.20 0.2706
765.30 0.2705
765.40 0.2704
765.50 0.2703
765.60 0.2702
765.70 0.2701
765.80 0.27
765.90 0.2698
766.00 0.2697
766.10 0.2696
766.20 0.2695
766.30 0.2694
766.40 0.2693
766.50 0.2692
766.60 0.269
766.70 0.2689
766.80 0.2688
766.90 0.2687
767.00 0.2686
767.10 0.2685
767.20 0.2684
767.30 0.2682
767.40 0.2681
767.50 0.268
767.60 0.2679
767.70 0.2678
767.80 0.2677
767.90 0.2676
768.00 0.2674
768.10 0.2673
768.20 0.2672
768.30 0.2671
768.40 0.267
768.50 0.2669
768.60 0.2668
768.70 0.2667
768.80 0.2665
768.90 0.2664
769.00 0.2663
769.10 0.2662
769.20 0.2661
769.30 0.266
769.40 0.2659
769.50 0.2658
769.60 0.2656
769.70 0.2655
769.80 0.2654
769.90 0.2653
770.00 0.2652
770.10 0.2651
770.20 0.265
770.30 0.2649
770.40 0.2647
770.50 0.2646
770.60 0.2645
770.70 0.2644
770.80 0.2643
770.90 0.2642
771.00 0.2641
771.10 0.264
771.20 0.2639
771.30 0.2637
771.40 0.2636
771.50 0.2635
771.60 0.2634
771.70 0.2633
771.80 0.2632
771.90 0.2631
772.00 0.263
772.10 0.2629
772.20 0.2627
772.30 0.2626
772.40 0.2625
772.50 0.2624
772.60 0.2623
772.70 0.2622
772.80 0.2621
772.90 0.262
773.00 0.2619
773.10 0.2618
773.20 0.2616
773.30 0.2615
773.40 0.2614
773.50 0.2613
773.60 0.2612
773.70 0.2611
773.80 0.261
773.90 0.2609
774.00 0.2608
774.10 0.2607
774.20 0.2605
774.30 0.2604
774.40 0.2603
774.50 0.2602
774.60 0.2601
774.70 0.26
774.80 0.2599
774.90 0.2598
775.00 0.2597
775.10 0.2596
775.20 0.2595
775.30 0.2593
775.40 0.2592
775.50 0.2591
775.60 0.259
775.70 0.2589
775.80 0.2588
775.90 0.2587
776.00 0.2586
776.10 0.2585
776.20 0.2584
776.30 0.2583
776.40 0.2582
776.50 0.258
776.60 0.2579
776.70 0.2578
776.80 0.2577
776.90 0.2576
777.00 0.2575
777.10 0.2574
777.20 0.2573
777.30 0.2572
777.40 0.2571
777.50 0.257
777.60 0.2569
777.70 0.2567
777.80 0.2566
777.90 0.2565
778.00 0.2564
778.10 0.2563
778.20 0.2562
778.30 0.2561
778.40 0.256
778.50 0.2559
778.60 0.2558
778.70 0.2557
778.80 0.2556
778.90 0.2555
779.00 0.2553
779.10 0.2552
779.20 0.2551
779.30 0.255
779.40 0.2549
779.50 0.2548
779.60 0.2547
779.70 0.2546
779.80 0.2545
779.90 0.2544
780.00 0.2543
780.10 0.2542
780.20 0.2541
780.30 0.254
780.40 0.2539
780.50 0.2537
780.60 0.2536
780.70 0.2535
780.80 0.2534
780.90 0.2533
781.00 0.2532
781.10 0.2531
781.20 0.253
781.30 0.2529
781.40 0.2528
781.50 0.2527
781.60 0.2526
781.70 0.2525
781.80 0.2524
781.90 0.2523
782.00 0.2522
782.10 0.2521
782.20 0.252
782.30 0.2519
782.40 0.2518
782.50 0.2516
782.60 0.2515
782.70 0.2514
782.80 0.2513
782.90 0.2512
783.00 0.2511
783.10 0.251
783.20 0.2509
783.30 0.2508
783.40 0.2507
783.50 0.2506
783.60 0.2505
783.70 0.2504
783.80 0.2503
783.90 0.2502
784.00 0.2501
784.10 0.25
784.20 0.2499
784.30 0.2498
784.40 0.2497
784.50 0.2496
784.60 0.2495
784.70 0.2494
784.80 0.2493
784.90 0.2492
785.00 0.249
785.10 0.2489
785.20 0.2488
785.30 0.2487
785.40 0.2486
785.50 0.2485
785.60 0.2484
785.70 0.2483
785.80 0.2482
785.90 0.2481
786.00 0.248
786.10 0.2479
786.20 0.2478
786.30 0.2477
786.40 0.2476
786.50 0.2475
786.60 0.2474
786.70 0.2473
786.80 0.2472
786.90 0.2471
787.00 0.247
787.10 0.2469
787.20 0.2468
787.30 0.2467
787.40 0.2466
787.50 0.2465
787.60 0.2464
787.70 0.2463
787.80 0.2462
787.90 0.2461
788.00 0.246
788.10 0.2459
788.20 0.2458
788.30 0.2457
788.40 0.2456
788.50 0.2455
788.60 0.2454
788.70 0.2453
788.80 0.2451
788.90 0.245
789.00 0.2449
789.10 0.2448
789.20 0.2447
789.30 0.2446
789.40 0.2445
789.50 0.2444
789.60 0.2443
789.70 0.2442
789.80 0.2441
789.90 0.244
790.00 0.2439
790.10 0.2438
790.20 0.2437
790.30 0.2436
790.40 0.2435
790.50 0.2434
790.60 0.2433
790.70 0.2432
790.80 0.2431
790.90 0.243
791.00 0.2429
791.10 0.2428
791.20 0.2427
791.30 0.2426
791.40 0.2425
791.50 0.2424
791.60 0.2423
791.70 0.2422
791.80 0.2421
791.90 0.242
792.00 0.2419
792.10 0.2418
792.20 0.2417
792.30 0.2416
792.40 0.2415
792.50 0.2414
792.60 0.2413
792.70 0.2412
792.80 0.2411
792.90 0.241
793.00 0.2409
793.10 0.2408
793.20 0.2407
793.30 0.2406
793.40 0.2405
793.50 0.2404
793.60 0.2403
793.70 0.2402
793.80 0.2401
793.90 0.24
794.00 0.2399
794.10 0.2398
794.20 0.2398
794.30 0.2397
794.40 0.2396
794.50 0.2395
794.60 0.2394
794.70 0.2393
794.80 0.2392
794.90 0.2391
795.00 0.239
795.10 0.2389
795.20 0.2388
795.30 0.2387
795.40 0.2386
795.50 0.2385
795.60 0.2384
795.70 0.2383
795.80 0.2382
795.90 0.2381
796.00 0.238
796.10 0.2379
796.20 0.2378
796.30 0.2377
796.40 0.2376
796.50 0.2375
796.60 0.2374
796.70 0.2373
796.80 0.2372
796.90 0.2371
797.00 0.237
797.10 0.2369
797.20 0.2368
797.30 0.2367
797.40 0.2366
797.50 0.2365
797.60 0.2364
797.70 0.2363
797.80 0.2362
797.90 0.2361
798.00 0.236
798.10 0.2359
798.20 0.2358
798.30 0.2357
798.40 0.2356
798.50 0.2355
798.60 0.2355
798.70 0.2354
798.80 0.2353
798.90 0.2352
799.00 0.2351
799.10 0.235
799.20 0.2349
799.30 0.2348
799.40 0.2347
799.50 0.2346
799.60 0.2345
799.70 0.2344
799.80 0.2343
799.90 0.2342
800.00 0.2341
800.10 0.234
800.20 0.2339
800.30 0.2338
800.40 0.2337
800.50 0.2336
800.60 0.2335
800.70 0.2334
800.80 0.2333
800.90 0.2332
801.00 0.2332
801.10 0.2331
801.20 0.233
801.30 0.2329
801.40 0.2328
801.50 0.2327
801.60 0.2326
801.70 0.2325
801.80 0.2324
801.90 0.2323
802.00 0.2322
802.10 0.2321
802.20 0.232
802.30 0.2319
802.40 0.2318
802.50 0.2317
802.60 0.2316
802.70 0.2315
802.80 0.2314
802.90 0.2314
803.00 0.2313
803.10 0.2312
803.20 0.2311
803.30 0.231
803.40 0.2309
803.50 0.2308
803.60 0.2307
803.70 0.2306
803.80 0.2305
803.90 0.2304
804.00 0.2303
804.10 0.2302
804.20 0.2301
804.30 0.23
804.40 0.2299
804.50 0.2299
804.60 0.2298
804.70 0.2297
804.80 0.2296
804.90 0.2295
805.00 0.2294
805.10 0.2293
805.20 0.2292
805.30 0.2291
805.40 0.229
805.50 0.2289
805.60 0.2288
805.70 0.2287
805.80 0.2286
805.90 0.2285
806.00 0.2285
806.10 0.2284
806.20 0.2283
806.30 0.2282
806.40 0.2281
806.50 0.228
806.60 0.2279
806.70 0.2278
806.80 0.2277
806.90 0.2276
807.00 0.2275
807.10 0.2274
807.20 0.2273
807.30 0.2273
807.40 0.2272
807.50 0.2271
807.60 0.227
807.70 0.2269
807.80 0.2268
807.90 0.2267
808.00 0.2266
808.10 0.2265
808.20 0.2264
808.30 0.2263
808.40 0.2262
808.50 0.2261
808.60 0.2261
808.70 0.226
808.80 0.2259
808.90 0.2258
809.00 0.2257
809.10 0.2256
809.20 0.2255
809.30 0.2254
809.40 0.2253
809.50 0.2252
809.60 0.2251
809.70 0.225
809.80 0.225
809.90 0.2249
810.00 0.2248
810.10 0.2247
810.20 0.2246
810.30 0.2245
810.40 0.2244
810.50 0.2243
810.60 0.2242
810.70 0.2241
810.80 0.224
810.90 0.224
811.00 0.2239
811.10 0.2238
811.20 0.2237
811.30 0.2236
811.40 0.2235
811.50 0.2234
811.60 0.2233
811.70 0.2232
811.80 0.2231
811.90 0.2231
812.00 0.223
812.10 0.2229
812.20 0.2228
812.30 0.2227
812.40 0.2226
812.50 0.2225
812.60 0.2224
812.70 0.2223
812.80 0.2222
812.90 0.2222
813.00 0.2221
813.10 0.222
813.20 0.2219
813.30 0.2218
813.40 0.2217
813.50 0.2216
813.60 0.2215
813.70 0.2214
813.80 0.2214
813.90 0.2213
814.00 0.2212
814.10 0.2211
814.20 0.221
814.30 0.2209
814.40 0.2208
814.50 0.2207
814.60 0.2206
814.70 0.2206
814.80 0.2205
814.90 0.2204
815.00 0.2203
815.10 0.2202
815.20 0.2201
815.30 0.22
815.40 0.2199
815.50 0.2198
815.60 0.2198
815.70 0.2197
815.80 0.2196
815.90 0.2195
816.00 0.2194
816.10 0.2193
816.20 0.2192
816.30 0.2191
816.40 0.219
816.50 0.219
816.60 0.2189
816.70 0.2188
816.80 0.2187
816.90 0.2186
817.00 0.2185
817.10 0.2184
817.20 0.2183
817.30 0.2183
817.40 0.2182
817.50 0.2181
817.60 0.218
817.70 0.2179
817.80 0.2178
817.90 0.2177
818.00 0.2176
818.10 0.2176
818.20 0.2175
818.30 0.2174
818.40 0.2173
818.50 0.2172
818.60 0.2171
818.70 0.217
818.80 0.2169
818.90 0.2169
819.00 0.2168
819.10 0.2167
819.20 0.2166
819.30 0.2165
819.40 0.2164
819.50 0.2163
819.60 0.2162
819.70 0.2162
819.80 0.2161
819.90 0.216
820.00 0.2159
820.10 0.2158
820.20 0.2157
820.30 0.2156
820.40 0.2156
820.50 0.2155
820.60 0.2154
820.70 0.2153
820.80 0.2152
820.90 0.2151
821.00 0.215
821.10 0.215
821.20 0.2149
821.30 0.2148
821.40 0.2147
821.50 0.2146
821.60 0.2145
821.70 0.2144
821.80 0.2143
821.90 0.2143
822.00 0.2142
822.10 0.2141
822.20 0.214
822.30 0.2139
822.40 0.2138
822.50 0.2138
822.60 0.2137
822.70 0.2136
822.80 0.2135
822.90 0.2134
823.00 0.2133
823.10 0.2132
823.20 0.2132
823.30 0.2131
823.40 0.213
823.50 0.2129
823.60 0.2128
823.70 0.2127
823.80 0.2126
823.90 0.2126
824.00 0.2125
824.10 0.2124
824.20 0.2123
824.30 0.2122
824.40 0.2121
824.50 0.2121
824.60 0.212
824.70 0.2119
824.80 0.2118
824.90 0.2117
825.00 0.2116
825.10 0.2115
825.20 0.2115
825.30 0.2114
825.40 0.2113
825.50 0.2112
825.60 0.2111
825.70 0.211
825.80 0.211
825.90 0.2109
826.00 0.2108
826.10 0.2107
826.20 0.2106
826.30 0.2105
826.40 0.2105
826.50 0.2104
826.60 0.2103
826.70 0.2102
826.80 0.2101
826.90 0.21
827.00 0.2099
827.10 0.2099
827.20 0.2098
827.30 0.2097
827.40 0.2096
827.50 0.2095
827.60 0.2094
827.70 0.2094
827.80 0.2093
827.90 0.2092
828.00 0.2091
828.10 0.209
828.20 0.209
828.30 0.2089
828.40 0.2088
828.50 0.2087
828.60 0.2086
828.70 0.2085
828.80 0.2085
828.90 0.2084
829.00 0.2083
829.10 0.2082
829.20 0.2081
829.30 0.208
829.40 0.208
829.50 0.2079
829.60 0.2078
829.70 0.2077
829.80 0.2076
829.90 0.2075
830.00 0.2075
830.10 0.2074
830.20 0.2073
830.30 0.2072
830.40 0.2071
830.50 0.2071
830.60 0.207
830.70 0.2069
830.80 0.2068
830.90 0.2067
831.00 0.2066
831.10 0.2066
831.20 0.2065
831.30 0.2064
831.40 0.2063
831.50 0.2062
831.60 0.2061
831.70 0.2061
831.80 0.206
831.90 0.2059
832.00 0.2058
832.10 0.2057
832.20 0.2057
832.30 0.2056
832.40 0.2055
832.50 0.2054
832.60 0.2053
832.70 0.2053
832.80 0.2052
832.90 0.2051
833.00 0.205
833.10 0.2049
833.20 0.2048
833.30 0.2048
833.40 0.2047
833.50 0.2046
833.60 0.2045
833.70 0.2044
833.80 0.2044
833.90 0.2043
834.00 0.2042
834.10 0.2041
834.20 0.204
834.30 0.204
834.40 0.2039
834.50 0.2038
834.60 0.2037
834.70 0.2036
834.80 0.2036
834.90 0.2035
835.00 0.2034
835.10 0.2033
835.20 0.2032
835.30 0.2032
835.40 0.2031
835.50 0.203
835.60 0.2029
835.70 0.2028
835.80 0.2028
835.90 0.2027
836.00 0.2026
836.10 0.2025
836.20 0.2024
836.30 0.2024
836.40 0.2023
836.50 0.2022
836.60 0.2021
836.70 0.202
836.80 0.202
836.90 0.2019
837.00 0.2018
837.10 0.2017
837.20 0.2016
837.30 0.2016
837.40 0.2015
837.50 0.2014
837.60 0.2013
837.70 0.2012
837.80 0.2012
837.90 0.2011
838.00 0.201
838.10 0.2009
838.20 0.2008
838.30 0.2008
838.40 0.2007
838.50 0.2006
838.60 0.2005
838.70 0.2004
838.80 0.2004
838.90 0.2003
839.00 0.2002
839.10 0.2001
839.20 0.2001
839.30 0.2
839.40 0.1999
839.50 0.1998
839.60 0.1997
839.70 0.1997
839.80 0.1996
839.90 0.1995
840.00 0.1994
840.10 0.1993
840.20 0.1993
840.30 0.1992
840.40 0.1991
840.50 0.199
840.60 0.199
840.70 0.1989
840.80 0.1988
840.90 0.1987
841.00 0.1986
841.10 0.1986
841.20 0.1985
841.30 0.1984
841.40 0.1983
841.50 0.1983
841.60 0.1982
841.70 0.1981
841.80 0.198
841.90 0.1979
842.00 0.1979
842.10 0.1978
842.20 0.1977
842.30 0.1976
842.40 0.1975
842.50 0.1975
842.60 0.1974
842.70 0.1973
842.80 0.1972
842.90 0.1971
843.00 0.1971
843.10 0.197
843.20 0.1969
843.30 0.1968
843.40 0.1967
843.50 0.1967
843.60 0.1966
843.70 0.1965
843.80 0.1964
843.90 0.1963
844.00 0.1963
844.10 0.1962
844.20 0.1961
844.30 0.196
844.40 0.1959
844.50 0.1959
844.60 0.1958
844.70 0.1957
844.80 0.1956
844.90 0.1955
845.00 0.1955
845.10 0.1954
845.20 0.1953
845.30 0.1952
845.40 0.1951
845.50 0.1951
845.60 0.195
845.70 0.1949
845.80 0.1948
845.90 0.1947
846.00 0.1947
846.10 0.1946
846.20 0.1945
846.30 0.1944
846.40 0.1943
846.50 0.1943
846.60 0.1942
846.70 0.1941
846.80 0.194
846.90 0.1939
847.00 0.1939
847.10 0.1939
847.20 0.1938
847.30 0.1938
847.40 0.1938
847.50 0.1938
847.60 0.1938
847.70 0.1938
847.80 0.1938
847.90 0.1937
848.00 0.1937
848.10 0.1937
848.20 0.1937
848.30 0.1937
848.40 0.1937
848.50 0.1937
848.60 0.1937
848.70 0.1936
848.80 0.1936
848.90 0.1936
849.00 0.1936
849.10 0.1936
849.20 0.1936
849.30 0.1936
849.40 0.1935
849.50 0.1935
849.60 0.1935
849.70 0.1935
849.80 0.1935
849.90 0.1935
850.00 0.1935
850.10 0.1934
850.20 0.1934
850.30 0.1934
850.40 0.1934
850.50 0.1934
850.60 0.1934
850.70 0.1934
850.80 0.1934
850.90 0.1933
851.00 0.1933
851.10 0.1933
851.20 0.1933
851.30 0.1933
851.40 0.1933
851.50 0.1933
851.60 0.1932
851.70 0.1932
851.80 0.1932
851.90 0.1932
852.00 0.1932
852.10 0.1932
852.20 0.1931
852.30 0.1931
852.40 0.193
852.50 0.193
852.60 0.193
852.70 0.1929
852.80 0.1929
852.90 0.1928
853.00 0.1928
853.10 0.1928
853.20 0.1927
853.30 0.1927
853.40 0.1927
853.50 0.1926
853.60 0.1926
853.70 0.1925
853.80 0.1925
853.90 0.1925
854.00 0.1924
854.10 0.1924
854.20 0.1924
854.30 0.1923
854.40 0.1923
854.50 0.1922
854.60 0.1922
854.70 0.1922
854.80 0.1921
854.90 0.1921
855.00 0.1921
855.10 0.192
855.20 0.192
855.30 0.1919
855.40 0.1919
855.50 0.1919
855.60 0.1918
855.70 0.1918
855.80 0.1918
855.90 0.1917
856.00 0.1917
856.10 0.1916
856.20 0.1916
856.30 0.1916
856.40 0.1915
856.50 0.1915
856.60 0.1914
856.70 0.1914
856.80 0.1914
856.90 0.1913
857.00 0.1913
857.10 0.1913
857.20 0.1912
857.30 0.1912
857.40 0.1911
857.50 0.1911
857.60 0.1911
857.70 0.191
857.80 0.191
857.90 0.1909
858.00 0.1909
858.10 0.1909
858.20 0.1908
858.30 0.1908
858.40 0.1908
858.50 0.1907
858.60 0.1907
858.70 0.1906
858.80 0.1906
858.90 0.1906
859.00 0.1905
859.10 0.1905
859.20 0.1904
859.30 0.1904
859.40 0.1904
859.50 0.1903
859.60 0.1903
859.70 0.1902
859.80 0.1902
859.90 0.1902
860.00 0.1901
860.10 0.1901
860.20 0.19
860.30 0.19
860.40 0.19
860.50 0.1899
860.60 0.1899
860.70 0.1899
860.80 0.1898
860.90 0.1898
861.00 0.1897
861.10 0.1897
861.20 0.1897
861.30 0.1896
861.40 0.1896
861.50 0.1895
861.60 0.1895
861.70 0.1895
861.80 0.1894
861.90 0.1894
862.00 0.1894
862.10 0.1892
862.20 0.189
862.30 0.1889
862.40 0.1887
862.50 0.1886
862.60 0.1884
862.70 0.1883
862.80 0.1881
862.90 0.1879
863.00 0.1878
863.10 0.1876
863.20 0.1875
863.30 0.1873
863.40 0.1872
863.50 0.187
863.60 0.1868
863.70 0.1867
863.80 0.1865
863.90 0.1864
864.00 0.1862
864.10 0.1861
864.20 0.1859
864.30 0.1858
864.40 0.1856
864.50 0.1854
864.60 0.1853
864.70 0.1851
864.80 0.185
864.90 0.1848
865.00 0.1847
865.10 0.1845
865.20 0.1844
865.30 0.1842
865.40 0.184
865.50 0.1839
865.60 0.1837
865.70 0.1836
865.80 0.1834
865.90 0.1833
866.00 0.1831
866.10 0.183
866.20 0.1828
866.30 0.1827
866.40 0.1825
866.50 0.1823
866.60 0.1822
866.70 0.182
866.80 0.1819
866.90 0.1817
867.00 0.1816
867.10 0.1817
867.20 0.1817
867.30 0.1818
867.40 0.1819
867.50 0.1819
867.60 0.182
867.70 0.1821
867.80 0.1822
867.90 0.1822
868.00 0.1823
868.10 0.1824
868.20 0.1825
868.30 0.1825
868.40 0.1826
868.50 0.1827
868.60 0.1827
868.70 0.1828
868.80 0.1829
868.90 0.183
869.00 0.183
869.10 0.1831
869.20 0.1832
869.30 0.1832
869.40 0.1833
869.50 0.1834
869.60 0.1835
869.70 0.1835
869.80 0.1836
869.90 0.1837
870.00 0.1838
870.10 0.1838
870.20 0.1839
870.30 0.184
870.40 0.184
870.50 0.1841
870.60 0.1842
870.70 0.1843
870.80 0.1843
870.90 0.1844
871.00 0.1845
871.10 0.1845
871.20 0.1846
871.30 0.1847
871.40 0.1848
871.50 0.1848
871.60 0.1849
871.70 0.185
871.80 0.185
871.90 0.1851
872.00 0.1852
872.10 0.185
872.20 0.1849
872.30 0.1847
872.40 0.1845
872.50 0.1844
872.60 0.1842
872.70 0.1841
872.80 0.1839
872.90 0.1837
873.00 0.1836
873.10 0.1834
873.20 0.1832
873.30 0.1831
873.40 0.1829
873.50 0.1828
873.60 0.1826
873.70 0.1824
873.80 0.1823
873.90 0.1821
874.00 0.182
874.10 0.1818
874.20 0.1816
874.30 0.1815
874.40 0.1813
874.50 0.1812
874.60 0.181
874.70 0.1808
874.80 0.1807
874.90 0.1805
875.00 0.1804
875.10 0.1802
875.20 0.1801
875.30 0.1799
875.40 0.1797
875.50 0.1796
875.60 0.1794
875.70 0.1793
875.80 0.1791
875.90 0.1789
876.00 0.1788
876.10 0.1786
876.20 0.1785
876.30 0.1783
876.40 0.1781
876.50 0.178
876.60 0.1778
876.70 0.1777
876.80 0.1775
876.90 0.1774
877.00 0.1772
877.10 0.1773
877.20 0.1773
877.30 0.1774
877.40 0.1774
877.50 0.1775
877.60 0.1775
877.70 0.1776
877.80 0.1777
877.90 0.1777
878.00 0.1778
878.10 0.1778
878.20 0.1779
878.30 0.1779
878.40 0.178
878.50 0.178
878.60 0.1781
878.70 0.1782
878.80 0.1782
878.90 0.1783
879.00 0.1783
879.10 0.1784
879.20 0.1784
879.30 0.1785
879.40 0.1786
879.50 0.1786
879.60 0.1787
879.70 0.1787
879.80 0.1788
879.90 0.1788
880.00 0.1789
880.10 0.179
880.20 0.179
880.30 0.1791
880.40 0.1791
880.50 0.1792
880.60 0.1792
880.70 0.1793
880.80 0.1793
880.90 0.1794
881.00 0.1795
881.10 0.1795
881.20 0.1796
881.30 0.1796
881.40 0.1797
881.50 0.1797
881.60 0.1798
881.70 0.1798
881.80 0.1799
881.90 0.18
882.00 0.18
882.10 0.1794
882.20 0.1789
882.30 0.1783
882.40 0.1778
882.50 0.1772
882.60 0.1766
882.70 0.1761
882.80 0.1755
882.90 0.175
883.00 0.1744
883.10 0.1738
883.20 0.1733
883.30 0.1727
883.40 0.1721
883.50 0.1716
883.60 0.171
883.70 0.1705
883.80 0.1699
883.90 0.1694
884.00 0.1688
884.10 0.1682
884.20 0.1677
884.30 0.1671
884.40 0.1666
884.50 0.166
884.60 0.1654
884.70 0.1649
884.80 0.1643
884.90 0.1638
885.00 0.1632
885.10 0.1627
885.20 0.1621
885.30 0.1616
885.40 0.161
885.50 0.1604
885.60 0.1599
885.70 0.1593
885.80 0.1588
885.90 0.1582
886.00 0.1577
886.10 0.1571
886.20 0.1566
886.30 0.156
886.40 0.1555
886.50 0.1549
886.60 0.1544
886.70 0.1538
886.80 0.1533
886.90 0.1527
887.00 0.1522
887.10 0.1526
887.20 0.153
887.30 0.1535
887.40 0.1539
887.50 0.1544
887.60 0.1548
887.70 0.1552
887.80 0.1557
887.90 0.1561
888.00 0.1565
888.10 0.157
888.20 0.1574
888.30 0.1579
888.40 0.1583
888.50 0.1587
888.60 0.1592
888.70 0.1596
888.80 0.1601
888.90 0.1605
889.00 0.1609
889.10 0.1614
889.20 0.1618
889.30 0.1622
889.40 0.1627
889.50 0.1631
889.60 0.1635
889.70 0.164
889.80 0.1644
889.90 0.1648
890.00 0.1653
890.10 0.1657
890.20 0.1662
890.30 0.1666
890.40 0.167
890.50 0.1675
890.60 0.1679
890.70 0.1683
890.80 0.1688
890.90 0.1692
891.00 0.1696
891.10 0.1701
891.20 0.1705
891.30 0.1709
891.40 0.1714
891.50 0.1718
891.60 0.1722
891.70 0.1726
891.80 0.1731
891.90 0.1735
892.00 0.1739
892.10 0.1738
892.20 0.1736
892.30 0.1735
892.40 0.1733
892.50 0.1731
892.60 0.173
892.70 0.1728
892.80 0.1727
892.90 0.1725
893.00 0.1723
893.10 0.1722
893.20 0.172
893.30 0.1719
893.40 0.1717
893.50 0.1715
893.60 0.1714
893.70 0.1712
893.80 0.1711
893.90 0.1709
894.00 0.1707
894.10 0.1706
894.20 0.1704
894.30 0.1703
894.40 0.1701
894.50 0.17
894.60 0.1698
894.70 0.1696
894.80 0.1695
894.90 0.1693
895.00 0.1692
895.10 0.169
895.20 0.1688
895.30 0.1687
895.40 0.1685
895.50 0.1684
895.60 0.1682
895.70 0.1681
895.80 0.1679
895.90 0.1677
896.00 0.1676
896.10 0.1674
896.20 0.1673
896.30 0.1671
896.40 0.167
896.50 0.1668
896.60 0.1666
896.70 0.1665
896.80 0.1663
896.90 0.1662
897.00 0.166
897.10 0.1654
897.20 0.1647
897.30 0.1641
897.40 0.1634
897.50 0.1628
897.60 0.1621
897.70 0.1615
897.80 0.1608
897.90 0.1602
898.00 0.1595
898.10 0.1589
898.20 0.1582
898.30 0.1576
898.40 0.1569
898.50 0.1563
898.60 0.1557
898.70 0.155
898.80 0.1544
898.90 0.1537
899.00 0.1531
899.10 0.1524
899.20 0.1518
899.30 0.1511
899.40 0.1505
899.50 0.1499
899.60 0.1492
899.70 0.1486
899.80 0.1479
899.90 0.1473
900.00 0.1467
900.10 0.146
900.20 0.1454
900.30 0.1447
900.40 0.1441
900.50 0.1435
900.60 0.1428
900.70 0.1422
900.80 0.1415
900.90 0.1409
901.00 0.1403
901.10 0.1396
901.20 0.139
901.30 0.1383
901.40 0.1377
901.50 0.1371
901.60 0.1364
901.70 0.1358
901.80 0.1352
901.90 0.1345
902.00 0.1339
902.10 0.1344
902.20 0.135
902.30 0.1356
902.40 0.1361
902.50 0.1367
902.60 0.1372
902.70 0.1378
902.80 0.1383
902.90 0.1389
903.00 0.1394
903.10 0.14
903.20 0.1405
903.30 0.1411
903.40 0.1416
903.50 0.1422
903.60 0.1427
903.70 0.1433
903.80 0.1438
903.90 0.1444
904.00 0.1449
904.10 0.1455
904.20 0.146
904.30 0.1466
904.40 0.1471
904.50 0.1477
904.60 0.1482
904.70 0.1488
904.80 0.1493
904.90 0.1499
905.00 0.1504
905.10 0.151
905.20 0.1515
905.30 0.1521
905.40 0.1526
905.50 0.1532
905.60 0.1537
905.70 0.1543
905.80 0.1548
905.90 0.1553
906.00 0.1559
906.10 0.1564
906.20 0.157
906.30 0.1575
906.40 0.1581
906.50 0.1586
906.60 0.1592
906.70 0.1597
906.80 0.1602
906.90 0.1608
907.00 0.1613
907.10 0.1614
907.20 0.1615
907.30 0.1615
907.40 0.1616
907.50 0.1617
907.60 0.1618
907.70 0.1618
907.80 0.1619
907.90 0.162
908.00 0.1621
908.10 0.1621
908.20 0.1622
908.30 0.1623
908.40 0.1623
908.50 0.1624
908.60 0.1625
908.70 0.1626
908.80 0.1626
908.90 0.1627
909.00 0.1628
909.10 0.1628
909.20 0.1629
909.30 0.163
909.40 0.1631
909.50 0.1631
909.60 0.1632
909.70 0.1633
909.80 0.1633
909.90 0.1634
910.00 0.1635
910.10 0.1636
910.20 0.1636
910.30 0.1637
910.40 0.1638
910.50 0.1638
910.60 0.1639
910.70 0.164
910.80 0.1641
910.90 0.1641
911.00 0.1642
911.10 0.1643
911.20 0.1643
911.30 0.1644
911.40 0.1645
911.50 0.1646
911.60 0.1646
911.70 0.1647
911.80 0.1648
911.90 0.1648
912.00 0.1649
912.10 0.1647
912.20 0.1644
912.30 0.1642
912.40 0.164
912.50 0.1637
912.60 0.1635
912.70 0.1633
912.80 0.163
912.90 0.1628
913.00 0.1626
913.10 0.1624
913.20 0.1621
913.30 0.1619
913.40 0.1617
913.50 0.1614
913.60 0.1612
913.70 0.161
913.80 0.1607
913.90 0.1605
914.00 0.1603
914.10 0.16
914.20 0.1598
914.30 0.1596
914.40 0.1594
914.50 0.1591
914.60 0.1589
914.70 0.1587
914.80 0.1584
914.90 0.1582
915.00 0.158
915.10 0.1577
915.20 0.1575
915.30 0.1573
915.40 0.1571
915.50 0.1568
915.60 0.1566
915.70 0.1564
915.80 0.1561
915.90 0.1559
916.00 0.1557
916.10 0.1555
916.20 0.1552
916.30 0.155
916.40 0.1548
916.50 0.1545
916.60 0.1543
916.70 0.1541
916.80 0.1539
916.90 0.1536
917.00 0.1534
917.10 0.1527
917.20 0.1519
917.30 0.1512
917.40 0.1504
917.50 0.1497
917.60 0.149
917.70 0.1482
917.80 0.1475
917.90 0.1467
918.00 0.146
918.10 0.1453
918.20 0.1445
918.30 0.1438
918.40 0.143
918.50 0.1423
918.60 0.1416
918.70 0.1408
918.80 0.1401
918.90 0.1394
919.00 0.1386
919.10 0.1379
919.20 0.1371
919.30 0.1364
919.40 0.1357
919.50 0.1349
919.60 0.1342
919.70 0.1335
919.80 0.1327
919.90 0.132
920.00 0.1313
920.10 0.1305
920.20 0.1298
920.30 0.1291
920.40 0.1283
920.50 0.1276
920.60 0.1269
920.70 0.1262
920.80 0.1254
920.90 0.1247
921.00 0.124
921.10 0.1232
921.20 0.1225
921.30 0.1218
921.40 0.1211
921.50 0.1203
921.60 0.1196
921.70 0.1189
921.80 0.1181
921.90 0.1174
922.00 0.1167
922.10 0.1172
922.20 0.1176
922.30 0.1181
922.40 0.1186
922.50 0.119
922.60 0.1195
922.70 0.12
922.80 0.1205
922.90 0.1209
923.00 0.1214
923.10 0.1219
923.20 0.1223
923.30 0.1228
923.40 0.1233
923.50 0.1238
923.60 0.1242
923.70 0.1247
923.80 0.1252
923.90 0.1256
924.00 0.1261
924.10 0.1266
924.20 0.127
924.30 0.1275
924.40 0.128
924.50 0.1284
924.60 0.1289
924.70 0.1294
924.80 0.1298
924.90 0.1303
925.00 0.1308
925.10 0.1312
925.20 0.1317
925.30 0.1322
925.40 0.1326
925.50 0.1331
925.60 0.1336
925.70 0.134
925.80 0.1345
925.90 0.135
926.00 0.1354
926.10 0.1359
926.20 0.1364
926.30 0.1368
926.40 0.1373
926.50 0.1377
926.60 0.1382
926.70 0.1387
926.80 0.1391
926.90 0.1396
927.00 0.1401
927.10 0.1403
927.20 0.1405
927.30 0.1407
927.40 0.141
927.50 0.1412
927.60 0.1414
927.70 0.1416
927.80 0.1419
927.90 0.1421
928.00 0.1423
928.10 0.1426
928.20 0.1428
928.30 0.143
928.40 0.1432
928.50 0.1435
928.60 0.1437
928.70 0.1439
928.80 0.1441
928.90 0.1444
929.00 0.1446
929.10 0.1448
929.20 0.145
929.30 0.1453
929.40 0.1455
929.50 0.1457
929.60 0.1459
929.70 0.1462
929.80 0.1464
929.90 0.1466
930.00 0.1468
930.10 0.1471
930.20 0.1473
930.30 0.1475
930.40 0.1477
930.50 0.1479
930.60 0.1482
930.70 0.1484
930.80 0.1486
930.90 0.1488
931.00 0.1491
931.10 0.1493
931.20 0.1495
931.30 0.1497
931.40 0.15
931.50 0.1502
931.60 0.1504
931.70 0.1506
931.80 0.1508
931.90 0.1511
932.00 0.1513
932.10 0.1513
932.20 0.1514
932.30 0.1515
932.40 0.1515
932.50 0.1516
932.60 0.1516
932.70 0.1517
932.80 0.1517
932.90 0.1518
933.00 0.1518
933.10 0.1519
933.20 0.1519
933.30 0.152
933.40 0.1521
933.50 0.1521
933.60 0.1522
933.70 0.1522
933.80 0.1523
933.90 0.1523
934.00 0.1524
934.10 0.1524
934.20 0.1525
934.30 0.1525
934.40 0.1525
934.50 0.1525
934.60 0.1525
934.70 0.1525
934.80 0.1525
934.90 0.1525
935.00 0.1525
935.10 0.1525
935.20 0.1525
935.30 0.1525
935.40 0.1525
935.50 0.1525
935.60 0.1525
935.70 0.1525
935.80 0.1525
935.90 0.1525
936.00 0.1525
936.10 0.1525
936.20 0.1525
936.30 0.1525
936.40 0.1525
936.50 0.1525
936.60 0.1524
936.70 0.1524
936.80 0.1524
936.90 0.1524
937.00 0.1524
937.10 0.1524
937.20 0.1524
937.30 0.1523
937.40 0.1523
937.50 0.1522
937.60 0.1522
937.70 0.1522
937.80 0.1521
937.90 0.1521
938.00 0.152
938.10 0.152
938.20 0.152
938.30 0.1519
938.40 0.1519
938.50 0.1518
938.60 0.1517
938.70 0.1517
938.80 0.1516
938.90 0.1515
939.00 0.1515
939.10 0.1514
939.20 0.1513
939.30 0.1513
939.40 0.1512
939.50 0.1511
939.60 0.1511
939.70 0.151
939.80 0.1509
939.90 0.1508
940.00 0.1508
940.10 0.1507
940.20 0.1506
940.30 0.1506
940.40 0.1505
940.50 0.1504
940.60 0.1503
940.70 0.1502
940.80 0.1501
940.90 0.15
941.00 0.1499
941.10 0.1498
941.20 0.1497
941.30 0.1496
941.40 0.1495
941.50 0.1494
941.60 0.1493
941.70 0.1492
941.80 0.1491
941.90 0.149
942.00 0.1489
942.10 0.1488
942.20 0.1487
942.30 0.1485
942.40 0.1484
942.50 0.1482
942.60 0.1481
942.70 0.1479
942.80 0.1478
942.90 0.1477
943.00 0.1475
943.10 0.1474
943.20 0.1472
943.30 0.1471
943.40 0.1469
943.50 0.1468
943.60 0.1466
943.70 0.1465
943.80 0.1463
943.90 0.1462
944.00 0.146
944.10 0.1459
944.20 0.1457
944.30 0.1456
944.40 0.1454
944.50 0.1452
944.60 0.145
944.70 0.1448
944.80 0.1446
944.90 0.1444
945.00 0.1443
945.10 0.1441
945.20 0.1439
945.30 0.1437
945.40 0.1434
945.50 0.1432
945.60 0.1429
945.70 0.1427
945.80 0.1424
945.90 0.1422
946.00 0.142
946.10 0.1417
946.20 0.1415
946.30 0.1412
946.40 0.141
946.50 0.1407
946.60 0.1405
946.70 0.1402
946.80 0.14
946.90 0.1397
947.00 0.1395
947.10 0.1392
947.20 0.1389
947.30 0.1386
947.40 0.1383
947.50 0.1379
947.60 0.1375
947.70 0.1372
947.80 0.1368
947.90 0.1364
948.00 0.1361
948.10 0.1357
948.20 0.1353
948.30 0.135
948.40 0.1346
948.50 0.1343
948.60 0.1339
948.70 0.1335
948.80 0.1332
948.90 0.1328
949.00 0.1324
949.10 0.1321
949.20 0.1317
949.30 0.1314
949.40 0.1308
949.50 0.1303
949.60 0.1298
949.70 0.1293
949.80 0.1287
949.90 0.1282
950.00 0.1277
950.10 0.1272
950.20 0.1266
950.30 0.1261
950.40 0.1256
950.50 0.1251
950.60 0.1245
950.70 0.124
950.80 0.1235
950.90 0.123
951.00 0.1225
951.10 0.1219
951.20 0.1214
951.30 0.1209
951.40 0.1202
951.50 0.1196
951.60 0.1189
951.70 0.1182
951.80 0.1175
951.90 0.1169
952.00 0.1162
952.10 0.1154
952.20 0.1147
952.30 0.1139
952.40 0.1131
952.50 0.1124
952.60 0.1116
952.70 0.1108
952.80 0.11
952.90 0.1092
953.00 0.1083
953.10 0.1074
953.20 0.1066
953.30 0.1057
953.40 0.1048
953.50 0.1039
953.60 0.103
953.70 0.1021
953.80 0.1012
953.90 0.1003
954.00 0.09943
954.10 0.09861
954.20 0.09812
954.30 0.09927
954.40 0.09806
954.50 0.0985
954.60 0.09926
954.70 0.1
954.80 0.1009
954.90 0.1017
955.00 0.1026
955.10 0.1034
955.20 0.1042
955.30 0.105
955.40 0.1058
955.50 0.1066
955.60 0.1074
955.70 0.1082
955.80 0.109
955.90 0.1097
956.00 0.1103
956.10 0.111
956.20 0.1116
956.30 0.1123
956.40 0.113
956.50 0.1136
956.60 0.1143
956.70 0.1149
956.80 0.1156
956.90 0.1162
957.00 0.1169
957.10 0.1174
957.20 0.118
957.30 0.1185
957.40 0.119
957.50 0.1194
957.60 0.1198
957.70 0.1203
957.80 0.1207
957.90 0.1211
958.00 0.1215
958.10 0.122
958.20 0.1224
958.30 0.1228
958.40 0.1232
958.50 0.1237
958.60 0.1241
958.70 0.1245
958.80 0.1249
958.90 0.1254
959.00 0.1258
959.10 0.1262
959.20 0.1266
959.30 0.127
959.40 0.1273
959.50 0.1276
959.60 0.1278
959.70 0.1281
959.80 0.1283
959.90 0.1286
960.00 0.1289
960.10 0.1291
960.20 0.1294
960.30 0.1297
960.40 0.1299
960.50 0.1302
960.60 0.1304
960.70 0.1307
960.80 0.131
960.90 0.1312
961.00 0.1315
961.10 0.1317
961.20 0.132
961.30 0.1323
961.40 0.1324
961.50 0.1326
961.60 0.1328
961.70 0.133
961.80 0.1332
961.90 0.1333
962.00 0.1335
962.10 0.1337
962.20 0.1338
962.30 0.1339
962.40 0.1341
962.50 0.1342
962.60 0.1344
962.70 0.1345
962.80 0.1346
962.90 0.1348
963.00 0.1349
963.10 0.135
963.20 0.1352
963.30 0.1353
963.40 0.1354
963.50 0.1355
963.60 0.1356
963.70 0.1357
963.80 0.1358
963.90 0.1359
964.00 0.136
964.10 0.1361
964.20 0.1362
964.30 0.1362
964.40 0.1363
964.50 0.1364
964.60 0.1364
964.70 0.1365
964.80 0.1365
964.90 0.1366
965.00 0.1366
965.10 0.1367
965.20 0.1368
965.30 0.1368
965.40 0.1369
965.50 0.1369
965.60 0.137
965.70 0.137
965.80 0.1371
965.90 0.1371
966.00 0.1372
966.10 0.1373
966.20 0.1373
966.30 0.1374
966.40 0.1374
966.50 0.1374
966.60 0.1375
966.70 0.1375
966.80 0.1375
966.90 0.1376
967.00 0.1376
967.10 0.1376
967.20 0.1376
967.30 0.1376
967.40 0.1377
967.50 0.1377
967.60 0.1377
967.70 0.1377
967.80 0.1377
967.90 0.1377
968.00 0.1377
968.10 0.1377
968.20 0.1378
968.30 0.1378
968.40 0.1378
968.50 0.1378
968.60 0.1378
968.70 0.1378
968.80 0.1378
968.90 0.1378
969.00 0.1378
969.10 0.1377
969.20 0.1377
969.30 0.1377
969.40 0.1377
969.50 0.1377
969.60 0.1377
969.70 0.1377
969.80 0.1377
969.90 0.1377
970.00 0.1377
970.10 0.1377
970.20 0.1377
970.30 0.1377
970.40 0.1377
970.50 0.1377
970.60 0.1377
970.70 0.1376
970.80 0.1376
970.90 0.1376
971.00 0.1376
971.10 0.1376
971.20 0.1375
971.30 0.1375
971.40 0.1375
971.50 0.1375
971.60 0.1375
971.70 0.1374
971.80 0.1374
971.90 0.1374
972.00 0.1374
972.10 0.1374
972.20 0.1373
972.30 0.1373
972.40 0.1373
972.50 0.1373
972.60 0.1372
972.70 0.1372
972.80 0.1372
972.90 0.1371
973.00 0.1371
973.10 0.1371
973.20 0.1371
973.30 0.137
973.40 0.137
973.50 0.137
973.60 0.1369
973.70 0.1369
973.80 0.1369
973.90 0.1369
974.00 0.1368
974.10 0.1368
974.20 0.1368
974.30 0.1367
974.40 0.1367
974.50 0.1367
974.60 0.1366
974.70 0.1366
974.80 0.1366
974.90 0.1365
975.00 0.1365
975.10 0.1364
975.20 0.1364
975.30 0.1364
975.40 0.1363
975.50 0.1363
975.60 0.1363
975.70 0.1362
975.80 0.1362
975.90 0.1361
976.00 0.1361
976.10 0.1361
976.20 0.136
976.30 0.136
976.40 0.1359
976.50 0.1359
976.60 0.1359
976.70 0.1358
976.80 0.1358
976.90 0.1358
977.00 0.1357
977.10 0.1357
977.20 0.1356
977.30 0.1356
977.40 0.1355
977.50 0.1355
977.60 0.1354
977.70 0.1354
977.80 0.1353
977.90 0.1353
978.00 0.1352
978.10 0.1352
978.20 0.1351
978.30 0.1351
978.40 0.135
978.50 0.135
978.60 0.135
978.70 0.1349
978.80 0.1349
978.90 0.1348
979.00 0.1348
979.10 0.1347
979.20 0.1347
979.30 0.1346
979.40 0.1346
979.50 0.1345
979.60 0.1345
979.70 0.1344
979.80 0.1344
979.90 0.1343
980.00 0.1343
980.10 0.1342
980.20 0.1342
980.30 0.1341
980.40 0.1341
980.50 0.134
980.60 0.134
980.70 0.134
980.80 0.1339
980.90 0.1339
981.00 0.1338
981.10 0.1338
981.20 0.1337
981.30 0.1337
981.40 0.1336
981.50 0.1336
981.60 0.1335
981.70 0.1335
981.80 0.1334
981.90 0.1334
982.00 0.1333
982.10 0.1333
982.20 0.1332
982.30 0.1332
982.40 0.1331
982.50 0.133
982.60 0.133
982.70 0.1329
982.80 0.1329
982.90 0.1328
983.00 0.1328
983.10 0.1327
983.20 0.1326
983.30 0.1326
983.40 0.1325
983.50 0.1325
983.60 0.1324
983.70 0.1324
983.80 0.1323
983.90 0.1322
984.00 0.1322
984.10 0.1321
984.20 0.1321
984.30 0.132
984.40 0.132
984.50 0.1319
984.60 0.1318
984.70 0.1318
984.80 0.1317
984.90 0.1316
985.00 0.1316
985.10 0.1315
985.20 0.1314
985.30 0.1314
985.40 0.1313
985.50 0.1312
985.60 0.1312
985.70 0.1311
985.80 0.131
985.90 0.131
986.00 0.1309
986.10 0.1308
986.20 0.1308
986.30 0.1307
986.40 0.1306
986.50 0.1306
986.60 0.1305
986.70 0.1304
986.80 0.1304
986.90 0.1303
987.00 0.1302
987.10 0.1302
987.20 0.1301
987.30 0.13
987.40 0.1299
987.50 0.1298
987.60 0.1298
987.70 0.1297
987.80 0.1296
987.90 0.1295
988.00 0.1295
988.10 0.1294
988.20 0.1293
988.30 0.1292
988.40 0.1292
988.50 0.1291
988.60 0.129
988.70 0.1289
988.80 0.1288
988.90 0.1287
989.00 0.1287
989.10 0.1286
989.20 0.1285
989.30 0.1284
989.40 0.1283
989.50 0.1282
989.60 0.1281
989.70 0.128
989.80 0.1279
989.90 0.1278
990.00 0.1277
990.10 0.1276
990.20 0.1276
990.30 0.1275
990.40 0.1274
990.50 0.1273
990.60 0.1272
990.70 0.1271
990.80 0.127
990.90 0.1269
991.00 0.1268
991.10 0.1267
991.20 0.1266
991.30 0.1265
991.40 0.1263
991.50 0.1262
991.60 0.1261
991.70 0.126
991.80 0.1259
991.90 0.1258
992.00 0.1257
992.10 0.1256
992.20 0.1255
992.30 0.1254
992.40 0.1252
992.50 0.1251
992.60 0.125
992.70 0.1249
992.80 0.1247
992.90 0.1246
993.00 0.1244
993.10 0.1243
993.20 0.1241
993.30 0.124
993.40 0.1239
993.50 0.1237
993.60 0.1236
993.70 0.1234
993.80 0.1233
993.90 0.1231
994.00 0.123
994.10 0.1229
994.20 0.1227
994.30 0.1226
994.40 0.1224
994.50 0.1223
994.60 0.1221
994.70 0.122
994.80 0.1218
994.90 0.1216
995.00 0.1214
995.10 0.1212
995.20 0.1211
995.30 0.1209
995.40 0.1207
995.50 0.1205
995.60 0.1203
995.70 0.1201
995.80 0.1199
995.90 0.1197
996.00 0.1195
996.10 0.1193
996.20 0.1191
996.30 0.1189
996.40 0.1187
996.50 0.1185
996.60 0.1182
996.70 0.118
996.80 0.1178
996.90 0.1176
997.00 0.1174
997.10 0.1172
997.20 0.1169
997.30 0.1167
997.40 0.1164
997.50 0.1162
997.60 0.1159
997.70 0.1156
997.80 0.1153
997.90 0.115
998.00 0.1147
998.10 0.1144
998.20 0.1141
998.30 0.1138
998.40 0.1135
998.50 0.1132
998.60 0.1129
998.70 0.1126
998.80 0.1123
998.90 0.112
999.00 0.1117
999.10 0.1113
999.20 0.111
999.30 0.1107
999.40 0.1104
999.50 0.1101
999.60 0.1098
999.70 0.1094
999.80 0.109
999.90 0.1086
1000.00 0.1081
1000.10 0.1077
1000.20 0.1073
1000.30 0.1069
1000.40 0.1064
1000.50 0.106
1000.60 0.1056
1000.70 0.1051
1000.80 0.1047
1000.90 0.1043
1001.00 0.1039
1001.10 0.1034
1001.20 0.103
1001.30 0.1026
1001.40 0.1022
1001.50 0.1017
1001.60 0.1013
1001.70 0.1008
1001.80 0.1003
1001.90 0.09977
1002.00 0.09924
1002.10 0.09863
1002.20 0.09803
1002.30 0.09742
1002.40 0.09681
1002.50 0.09621
1002.60 0.0956
1002.70 0.095
1002.80 0.09439
1002.90 0.09379
1003.00 0.09318
1003.10 0.09258
1003.20 0.09187
1003.30 0.09114
1003.40 0.0904
1003.50 0.08967
1003.60 0.08894
1003.70 0.0882
1003.80 0.08747
1003.90 0.08661
1004.00 0.08571
1004.10 0.0848
1004.20 0.0839
1004.30 0.08277
1004.40 0.08157
1004.50 0.08024
1004.60 0.07938
1004.70 0.07955
1004.80 0.0809
1004.90 0.08207
1005.00 0.08322
1005.10 0.08414
1005.20 0.08499
1005.30 0.08583
1005.40 0.08668
1005.50 0.0874
1005.60 0.08807
1005.70 0.08874
1005.80 0.08941
1005.90 0.09009
1006.00 0.09076
1006.10 0.09143
1006.20 0.09201
1006.30 0.09256
1006.40 0.09311
1006.50 0.09367
1006.60 0.09422
1006.70 0.09477
1006.80 0.09532
1006.90 0.09587
1007.00 0.09642
1007.10 0.09689
1007.20 0.09735
1007.30 0.09782
1007.40 0.09828
1007.50 0.09875
1007.60 0.09921
1007.70 0.09959
1007.80 0.09994
1007.90 0.1003
1008.00 0.1006
1008.10 0.101
1008.20 0.1013
1008.30 0.1017
1008.40 0.102
1008.50 0.1024
1008.60 0.1027
1008.70 0.1031
1008.80 0.1034
1008.90 0.1038
1009.00 0.1041
1009.10 0.1044
1009.20 0.1048
1009.30 0.1051
1009.40 0.1055
1009.50 0.1058
1009.60 0.1062
1009.70 0.1064
1009.80 0.1067
1009.90 0.1069
1010.00 0.1071
1010.10 0.1073
1010.20 0.1075
1010.30 0.1078
1010.40 0.108
1010.50 0.1082
1010.60 0.1084
1010.70 0.1087
1010.80 0.1089
1010.90 0.1091
1011.00 0.1093
1011.10 0.1095
1011.20 0.1098
1011.30 0.11
1011.40 0.1102
1011.50 0.1104
1011.60 0.1106
1011.70 0.1108
1011.80 0.111
1011.90 0.1111
1012.00 0.1113
1012.10 0.1114
1012.20 0.1115
1012.30 0.1117
1012.40 0.1118
1012.50 0.1119
1012.60 0.1121
1012.70 0.1122
1012.80 0.1123
1012.90 0.1124
1013.00 0.1126
1013.10 0.1127
1013.20 0.1128
1013.30 0.113
1013.40 0.1131
1013.50 0.1132
1013.60 0.1133
1013.70 0.1134
1013.80 0.1135
1013.90 0.1136
1014.00 0.1137
1014.10 0.1138
1014.20 0.1139
1014.30 0.114
1014.40 0.1141
1014.50 0.1142
1014.60 0.1143
1014.70 0.1143
1014.80 0.1144
1014.90 0.1144
1015.00 0.1145
1015.10 0.1145
1015.20 0.1146
1015.30 0.1146
1015.40 0.1147
1015.50 0.1147
1015.60 0.1148
1015.70 0.1149
1015.80 0.1149
1015.90 0.115
1016.00 0.115
1016.10 0.1151
1016.20 0.1151
1016.30 0.1152
1016.40 0.1152
1016.50 0.1153
1016.60 0.1153
1016.70 0.1154
1016.80 0.1154
1016.90 0.1155
1017.00 0.1155
1017.10 0.1155
1017.20 0.1156
1017.30 0.1156
1017.40 0.1156
1017.50 0.1156
1017.60 0.1156
1017.70 0.1157
1017.80 0.1157
1017.90 0.1157
1018.00 0.1157
1018.10 0.1157
1018.20 0.1158
1018.30 0.1158
1018.40 0.1158
1018.50 0.1158
1018.60 0.1158
1018.70 0.1158
1018.80 0.1159
1018.90 0.1159
1019.00 0.1159
1019.10 0.1159
1019.20 0.1159
1019.30 0.1159
1019.40 0.1159
1019.50 0.1159
1019.60 0.1159
1019.70 0.1159
1019.80 0.1159
1019.90 0.1159
1020.00 0.1159
1020.10 0.1159
1020.20 0.1159
1020.30 0.1159
1020.40 0.1159
1020.50 0.1159
1020.60 0.1159
1020.70 0.1159
1020.80 0.1159
1020.90 0.1159
1021.00 0.1159
1021.10 0.1159
1021.20 0.1159
1021.30 0.1159
1021.40 0.1159
1021.50 0.1159
1021.60 0.1159
1021.70 0.1158
1021.80 0.1158
1021.90 0.1158
1022.00 0.1158
1022.10 0.1158
1022.20 0.1158
1022.30 0.1158
1022.40 0.1158
1022.50 0.1157
1022.60 0.1157
1022.70 0.1157
1022.80 0.1157
1022.90 0.1157
1023.00 0.1157
1023.10 0.1156
1023.20 0.1156
1023.30 0.1156
1023.40 0.1156
1023.50 0.1156
1023.60 0.1156
1023.70 0.1155
1023.80 0.1155
1023.90 0.1155
1024.00 0.1155
1024.10 0.1155
1024.20 0.1155
1024.30 0.1154
1024.40 0.1154
1024.50 0.1154
1024.60 0.1154
1024.70 0.1154
1024.80 0.1154
1024.90 0.1153
1025.00 0.1153
1025.10 0.1153
1025.20 0.1153
1025.30 0.1152
1025.40 0.1152
1025.50 0.1152
1025.60 0.1152
1025.70 0.1151
1025.80 0.1151
1025.90 0.1151
1026.00 0.1151
1026.10 0.115
1026.20 0.115
1026.30 0.115
1026.40 0.115
1026.50 0.1149
1026.60 0.1149
1026.70 0.1149
1026.80 0.1149
1026.90 0.1148
1027.00 0.1148
1027.10 0.1148
1027.20 0.1147
1027.30 0.1147
1027.40 0.1147
1027.50 0.1147
1027.60 0.1146
1027.70 0.1146
1027.80 0.1146
1027.90 0.1145
1028.00 0.1145
1028.10 0.1145
1028.20 0.1144
1028.30 0.1144
1028.40 0.1144
1028.50 0.1144
1028.60 0.1143
1028.70 0.1143
1028.80 0.1143
1028.90 0.1142
1029.00 0.1142
1029.10 0.1142
1029.20 0.1141
1029.30 0.1141
1029.40 0.1141
1029.50 0.1141
1029.60 0.114
1029.70 0.114
1029.80 0.114
1029.90 0.1139
1030.00 0.1139
1030.10 0.1139
1030.20 0.1138
1030.30 0.1138
1030.40 0.1138
1030.50 0.1138
1030.60 0.1137
1030.70 0.1137
1030.80 0.1137
1030.90 0.1136
1031.00 0.1136
1031.10 0.1136
1031.20 0.1135
1031.30 0.1135
1031.40 0.1135
1031.50 0.1135
1031.60 0.1134
1031.70 0.1134
1031.80 0.1134
1031.90 0.1133
1032.00 0.1133
1032.10 0.1133
1032.20 0.1132
1032.30 0.1132
1032.40 0.1132
1032.50 0.1131
1032.60 0.1131
1032.70 0.1131
1032.80 0.113
1032.90 0.113
1033.00 0.113
1033.10 0.1129
1033.20 0.1129
1033.30 0.1129
1033.40 0.1128
1033.50 0.1128
1033.60 0.1128
1033.70 0.1127
1033.80 0.1127
1033.90 0.1127
1034.00 0.1126
1034.10 0.1126
1034.20 0.1126
1034.30 0.1125
1034.40 0.1125
1034.50 0.1125
1034.60 0.1124
1034.70 0.1124
1034.80 0.1124
1034.90 0.1123
1035.00 0.1123
1035.10 0.1123
1035.20 0.1122
1035.30 0.1122
1035.40 0.1121
1035.50 0.1121
1035.60 0.1121
1035.70 0.112
1035.80 0.112
1035.90 0.112
1036.00 0.1119
1036.10 0.1119
1036.20 0.1119
1036.30 0.1118
1036.40 0.1118
1036.50 0.1118
1036.60 0.1117
1036.70 0.1117
1036.80 0.1117
1036.90 0.1116
1037.00 0.1116
1037.10 0.1116
1037.20 0.1115
1037.30 0.1115
1037.40 0.1115
1037.50 0.1114
1037.60 0.1114
1037.70 0.1114
1037.80 0.1113
1037.90 0.1113
1038.00 0.1113
1038.10 0.1112
1038.20 0.1112
1038.30 0.1112
1038.40 0.1111
1038.50 0.1111
1038.60 0.111
1038.70 0.111
1038.80 0.111
1038.90 0.1109
1039.00 0.1109
1039.10 0.1109
1039.20 0.1108
1039.30 0.1108
1039.40 0.1108
1039.50 0.1107
1039.60 0.1107
1039.70 0.1107
1039.80 0.1106
1039.90 0.1106
1040.00 0.1106
1040.10 0.1105
1040.20 0.1105
1040.30 0.1104
1040.40 0.1104
1040.50 0.1104
1040.60 0.1103
1040.70 0.1103
1040.80 0.1103
1040.90 0.1102
1041.00 0.1102
1041.10 0.1102
1041.20 0.1101
1041.30 0.1101
1041.40 0.1101
1041.50 0.11
1041.60 0.11
1041.70 0.11
1041.80 0.1099
1041.90 0.1099
1042.00 0.1098
1042.10 0.1098
1042.20 0.1098
1042.30 0.1097
1042.40 0.1097
1042.50 0.1097
1042.60 0.1096
1042.70 0.1096
1042.80 0.1096
1042.90 0.1095
1043.00 0.1095
1043.10 0.1095
1043.20 0.1094
1043.30 0.1094
1043.40 0.1093
1043.50 0.1093
1043.60 0.1093
1043.70 0.1092
1043.80 0.1092
1043.90 0.1092
1044.00 0.1091
1044.10 0.1091
1044.20 0.1091
1044.30 0.109
1044.40 0.109
1044.50 0.109
1044.60 0.1089
1044.70 0.1089
1044.80 0.1088
1044.90 0.1088
1045.00 0.1088
1045.10 0.1087
1045.20 0.1087
1045.30 0.1087
1045.40 0.1086
1045.50 0.1086
1045.60 0.1086
1045.70 0.1085
1045.80 0.1085
1045.90 0.1085
1046.00 0.1084
1046.10 0.1084
1046.20 0.1083
1046.30 0.1083
1046.40 0.1083
1046.50 0.1082
1046.60 0.1082
1046.70 0.1082
1046.80 0.1081
1046.90 0.1081
1047.00 0.1081
1047.10 0.108
1047.20 0.108
1047.30 0.108
1047.40 0.1079
1047.50 0.1079
1047.60 0.1078
1047.70 0.1078
1047.80 0.1078
1047.90 0.1077
1048.00 0.1077
1048.10 0.1077
1048.20 0.1076
1048.30 0.1076
1048.40 0.1076
1048.50 0.1075
1048.60 0.1075
1048.70 0.1075
1048.80 0.1074
1048.90 0.1074
1049.00 0.1073
1049.10 0.1073
1049.20 0.1073
1049.30 0.1072
1049.40 0.1072
1049.50 0.1072
1049.60 0.1071
1049.70 0.1071
1049.80 0.1071
1049.90 0.107
1050.00 0.107
1050.10 0.1069
1050.20 0.1069
1050.30 0.1069
1050.40 0.1068
1050.50 0.1068
1050.60 0.1068
1050.70 0.1067
1050.80 0.1067
1050.90 0.1067
1051.00 0.1066
1051.10 0.1066
1051.20 0.1066
1051.30 0.1065
1051.40 0.1065
1051.50 0.1064
1051.60 0.1064
1051.70 0.1064
1051.80 0.1063
1051.90 0.1063
1052.00 0.1063
1052.10 0.1062
1052.20 0.1062
1052.30 0.1062
1052.40 0.1061
1052.50 0.1061
1052.60 0.1061
1052.70 0.106
1052.80 0.106
1052.90 0.1059
1053.00 0.1059
1053.10 0.1059
1053.20 0.1058
1053.30 0.1058
1053.40 0.1058
1053.50 0.1057
1053.60 0.1057
1053.70 0.1057
1053.80 0.1056
1053.90 0.1056
1054.00 0.1055
1054.10 0.1055
1054.20 0.1055
1054.30 0.1054
1054.40 0.1054
1054.50 0.1054
1054.60 0.1053
1054.70 0.1053
1054.80 0.1053
1054.90 0.1052
1055.00 0.1052
1055.10 0.1052
1055.20 0.1051
1055.30 0.1051
1055.40 0.105
1055.50 0.105
1055.60 0.105
1055.70 0.1049
1055.80 0.1049
1055.90 0.1049
1056.00 0.1048
1056.10 0.1048
1056.20 0.1048
1056.30 0.1047
1056.40 0.1047
1056.50 0.1047
1056.60 0.1046
1056.70 0.1046
1056.80 0.1045
1056.90 0.1045
1057.00 0.1045
1057.10 0.1044
1057.20 0.1044
1057.30 0.1044
1057.40 0.1043
1057.50 0.1043
1057.60 0.1043
1057.70 0.1042
1057.80 0.1042
1057.90 0.1041
1058.00 0.1041
1058.10 0.1041
1058.20 0.104
1058.30 0.104
1058.40 0.104
1058.50 0.1039
1058.60 0.1039
1058.70 0.1039
1058.80 0.1038
1058.90 0.1038
1059.00 0.1037
1059.10 0.1037
1059.20 0.1037
1059.30 0.1036
1059.40 0.1036
1059.50 0.1036
1059.60 0.1035
1059.70 0.1035
1059.80 0.1035
1059.90 0.1034
1060.00 0.1034
1060.10 0.1033
1060.20 0.1033
1060.30 0.1033
1060.40 0.1032
1060.50 0.1032
1060.60 0.1032
1060.70 0.1031
1060.80 0.1031
1060.90 0.1031
1061.00 0.103
1061.10 0.103
1061.20 0.1029
1061.30 0.1029
1061.40 0.1029
1061.50 0.1028
1061.60 0.1028
1061.70 0.1028
1061.80 0.1027
1061.90 0.1027
1062.00 0.1027
1062.10 0.1026
1062.20 0.1026
1062.30 0.1025
1062.40 0.1025
1062.50 0.1025
1062.60 0.1024
1062.70 0.1024
1062.80 0.1023
1062.90 0.1023
1063.00 0.1023
1063.10 0.1022
1063.20 0.1022
1063.30 0.1022
1063.40 0.1021
1063.50 0.1021
1063.60 0.102
1063.70 0.102
1063.80 0.102
1063.90 0.1019
1064.00 0.1019
1064.10 0.1019
1064.20 0.1018
1064.30 0.1018
1064.40 0.1017
1064.50 0.1017
1064.60 0.1017
1064.70 0.1016
1064.80 0.1016
1064.90 0.1016
1065.00 0.1015
1065.10 0.1015
1065.20 0.1014
1065.30 0.1014
1065.40 0.1014
1065.50 0.1013
1065.60 0.1013
1065.70 0.1013
1065.80 0.1012
1065.90 0.1012
1066.00 0.1011
1066.10 0.1011
1066.20 0.1011
1066.30 0.101
1066.40 0.101
1066.50 0.101
1066.60 0.1009
1066.70 0.1009
1066.80 0.1008
1066.90 0.1008
1067.00 0.1008
1067.10 0.1007
1067.20 0.1007
1067.30 0.1006
1067.40 0.1006
1067.50 0.1006
1067.60 0.1005
1067.70 0.1005
1067.80 0.1004
1067.90 0.1004
1068.00 0.1004
1068.10 0.1003
1068.20 0.1003
1068.30 0.1002
1068.40 0.1002
1068.50 0.1001
1068.60 0.1001
1068.70 0.1001
1068.80 0.1
1068.90 0.09998
1069.00 0.09994
1069.10 0.0999
1069.20 0.09986
1069.30 0.09982
1069.40 0.09978
1069.50 0.09974
1069.60 0.0997
1069.70 0.09966
1069.80 0.09962
1069.90 0.09958
1070.00 0.09953
1070.10 0.09949
1070.20 0.09945
1070.30 0.09941
1070.40 0.09937
1070.50 0.09933
1070.60 0.09929
1070.70 0.09925
1070.80 0.09921
1070.90 0.09917
1071.00 0.09913
1071.10 0.09909
1071.20 0.09905
1071.30 0.099
1071.40 0.09896
1071.50 0.09892
1071.60 0.09888
1071.70 0.09884
1071.80 0.0988
1071.90 0.09876
1072.00 0.09872
1072.10 0.09868
1072.20 0.09863
1072.30 0.09859
1072.40 0.09854
1072.50 0.0985
1072.60 0.09845
1072.70 0.09841
1072.80 0.09836
1072.90 0.09832
1073.00 0.09827
1073.10 0.09823
1073.20 0.09818
1073.30 0.09814
1073.40 0.0981
1073.50 0.09805
1073.60 0.098
1073.70 0.09795
1073.80 0.09789
1073.90 0.09784
1074.00 0.09779
1074.10 0.09774
1074.20 0.09769
1074.30 0.09764
1074.40 0.09758
1074.50 0.09753
1074.60 0.09748
1074.70 0.09743
1074.80 0.09738
1074.90 0.09733
1075.00 0.09728
1075.10 0.09722
1075.20 0.09717
1075.30 0.09712
1075.40 0.09707
1075.50 0.09702
1075.60 0.09697
1075.70 0.09692
1075.80 0.09686
1075.90 0.09681
1076.00 0.09676
1076.10 0.09671
1076.20 0.09666
1076.30 0.09661
1076.40 0.09656
1076.50 0.09651
1076.60 0.09645
1076.70 0.0964
1076.80 0.09635
1076.90 0.0963
1077.00 0.09625
1077.10 0.09619
1077.20 0.09614
1077.30 0.09608
1077.40 0.09602
1077.50 0.09596
1077.60 0.0959
1077.70 0.09583
1077.80 0.09576
1077.90 0.0957
1078.00 0.09563
1078.10 0.09557
1078.20 0.0955
1078.30 0.09544
1078.40 0.09537
1078.50 0.09531
1078.60 0.09524
1078.70 0.09518
1078.80 0.09511
1078.90 0.09504
1079.00 0.09498
1079.10 0.09491
1079.20 0.09485
1079.30 0.09478
1079.40 0.09472
1079.50 0.09465
1079.60 0.09457
1079.70 0.0945
1079.80 0.09442
1079.90 0.09434
1080.00 0.09427
1080.10 0.09419
1080.20 0.09411
1080.30 0.09404
1080.40 0.09396
1080.50 0.09388
1080.60 0.09381
1080.70 0.09373
1080.80 0.09365
1080.90 0.09358
1081.00 0.0935
1081.10 0.09342
1081.20 0.09335
1081.30 0.09327
1081.40 0.09319
1081.50 0.09311
1081.60 0.09301
1081.70 0.09291
1081.80 0.09281
1081.90 0.09272
1082.00 0.09262
1082.10 0.09252
1082.20 0.09241
1082.30 0.09231
1082.40 0.09221
1082.50 0.09211
1082.60 0.09201
1082.70 0.09191
1082.80 0.09181
1082.90 0.09171
1083.00 0.09161
1083.10 0.09151
1083.20 0.09141
1083.30 0.09131
1083.40 0.0912
1083.50 0.0911
1083.60 0.09097
1083.70 0.09085
1083.80 0.09072
1083.90 0.0906
1084.00 0.09047
1084.10 0.09035
1084.20 0.09022
1084.30 0.0901
1084.40 0.08997
1084.50 0.08984
1084.60 0.08969
1084.70 0.08954
1084.80 0.08938
1084.90 0.08923
1085.00 0.08908
1085.10 0.08893
1085.20 0.08878
1085.30 0.08863
1085.40 0.08847
1085.50 0.08832
1085.60 0.08817
1085.70 0.08802
1085.80 0.08787
1085.90 0.08772
1086.00 0.08757
1086.10 0.08741
1086.20 0.08726
1086.30 0.08711
1086.40 0.08696
1086.50 0.0868
1086.60 0.08661
1086.70 0.08642
1086.80 0.08623
1086.90 0.08604
1087.00 0.08585
1087.10 0.08563
1087.20 0.08541
1087.30 0.0852
1087.40 0.08498
1087.50 0.08477
1087.60 0.08455
1087.70 0.08433
1087.80 0.08412
1087.90 0.0839
1088.00 0.08369
1088.10 0.08347
1088.20 0.08326
1088.30 0.08304
1088.40 0.08283
1088.50 0.08259
1088.60 0.08229
1088.70 0.08199
1088.80 0.0817
1088.90 0.0814
1089.00 0.08111
1089.10 0.08081
1089.20 0.08052
1089.30 0.08022
1089.40 0.07993
1089.50 0.07963
1089.60 0.07934
1089.70 0.07904
1089.80 0.07875
1089.90 0.07845
1090.00 0.07816
1090.10 0.07787
1090.20 0.07757
1090.30 0.07728
1090.40 0.07698
1090.50 0.07665
1090.60 0.07624
1090.70 0.07584
1090.80 0.07543
1090.90 0.07502
1091.00 0.07461
1091.10 0.07421
1091.20 0.0738
1091.30 0.07339
1091.40 0.07298
1091.50 0.07258
1091.60 0.07217
1091.70 0.07176
1091.80 0.07136
1091.90 0.07095
1092.00 0.07052
1092.10 0.07
1092.20 0.06947
1092.30 0.06894
1092.40 0.06842
1092.50 0.06789
1092.60 0.06736
1092.70 0.06678
1092.80 0.06608
1092.90 0.06537
1093.00 0.06467
1093.10 0.06381
1093.20 0.06261
1093.30 0.06135
1093.40 0.05933
1093.50 0.05865
1093.60 0.06064
1093.70 0.0621
1093.80 0.06326
1093.90 0.06426
1094.00 0.06492
1094.10 0.06559
1094.20 0.06625
1094.30 0.06685
1094.40 0.06734
1094.50 0.06782
1094.60 0.0683
1094.70 0.06878
1094.80 0.06926
1094.90 0.06974
1095.00 0.07018
1095.10 0.07054
1095.20 0.0709
1095.30 0.07125
1095.40 0.07161
1095.50 0.07197
1095.60 0.07233
1095.70 0.07269
1095.80 0.07304
1095.90 0.0734
1096.00 0.07376
1096.10 0.07412
1096.20 0.07447
1096.30 0.07483
1096.40 0.07519
1096.50 0.07552
1096.60 0.0758
1096.70 0.07608
1096.80 0.07636
1096.90 0.07664
1097.00 0.07692
1097.10 0.07715
1097.20 0.07737
1097.30 0.07759
1097.40 0.07782
1097.50 0.07804
1097.60 0.07827
1097.70 0.07849
1097.80 0.07872
1097.90 0.07894
1098.00 0.07917
1098.10 0.07939
1098.20 0.07961
1098.30 0.07984
1098.40 0.08006
1098.50 0.08026
1098.60 0.08041
1098.70 0.08056
1098.80 0.08071
1098.90 0.08086
1099.00 0.08101
1099.10 0.08116
1099.20 0.08131
1099.30 0.08145
1099.40 0.0816
1099.50 0.08175
1099.60 0.0819
1099.70 0.08205
1099.80 0.0822
1099.90 0.08235
1100.00 0.0825
1100.10 0.08264
1100.20 0.08279
1100.30 0.08294
1100.40 0.08309
1100.50 0.08322
1100.60 0.08332
1100.70 0.08341
1100.80 0.08351
1100.90 0.08361
1101.00 0.0837
1101.10 0.0838
1101.20 0.08389
1101.30 0.08399
1101.40 0.08409
1101.50 0.08418
1101.60 0.08428
1101.70 0.08437
1101.80 0.08447
1101.90 0.08456
1102.00 0.08466
1102.10 0.08473
1102.20 0.0848
1102.30 0.08487
1102.40 0.08494
1102.50 0.085
1102.60 0.08507
1102.70 0.08513
1102.80 0.08519
1102.90 0.08525
1103.00 0.08532
1103.10 0.08538
1103.20 0.08544
1103.30 0.0855
1103.40 0.08557
1103.50 0.08562
1103.60 0.08566
1103.70 0.0857
1103.80 0.08573
1103.90 0.08577
1104.00 0.08581
1104.10 0.08585
1104.20 0.08589
1104.30 0.08592
1104.40 0.08596
1104.50 0.086
1104.60 0.08604
1104.70 0.08607
1104.80 0.08611
1104.90 0.08615
1105.00 0.08619
1105.10 0.08622
1105.20 0.08626
1105.30 0.0863
1105.40 0.08634
1105.50 0.08637
1105.60 0.08638
1105.70 0.0864
1105.80 0.08641
1105.90 0.08643
1106.00 0.08645
1106.10 0.08646
1106.20 0.08648
1106.30 0.08649
1106.40 0.08651
1106.50 0.08653
1106.60 0.08654
1106.70 0.08656
1106.80 0.08658
1106.90 0.08659
1107.00 0.08661
1107.10 0.08662
1107.20 0.08662
1107.30 0.08663
1107.40 0.08664
1107.50 0.08665
1107.60 0.08665
1107.70 0.08665
1107.80 0.08666
1107.90 0.08666
1108.00 0.08666
1108.10 0.08667
1108.20 0.08667
1108.30 0.08667
1108.40 0.08668
1108.50 0.08668
1108.60 0.08668
1108.70 0.08669
1108.80 0.08669
1108.90 0.08669
1109.00 0.0867
1109.10 0.0867
1109.20 0.0867
1109.30 0.08671
1109.40 0.08671
1109.50 0.08671
1109.60 0.0867
1109.70 0.08669
1109.80 0.08668
1109.90 0.08668
1110.00 0.08667
1110.10 0.08666
1110.20 0.08665
1110.30 0.08664
1110.40 0.08663
1110.50 0.08663
1110.60 0.08662
1110.70 0.08661
1110.80 0.0866
1110.90 0.08659
1111.00 0.08659
1111.10 0.08658
1111.20 0.08657
1111.30 0.08656
1111.40 0.08655
1111.50 0.08654
1111.60 0.08654
1111.70 0.08653
1111.80 0.08652
1111.90 0.08651
1112.00 0.0865
1112.10 0.08649
1112.20 0.08648
1112.30 0.08647
1112.40 0.08645
1112.50 0.08644
1112.60 0.08643
1112.70 0.08642
1112.80 0.08641
1112.90 0.08639
1113.00 0.08638
1113.10 0.08637
1113.20 0.08636
1113.30 0.08634
1113.40 0.08633
1113.50 0.08632
1113.60 0.0863
1113.70 0.08628
1113.80 0.08626
1113.90 0.08625
1114.00 0.08623
1114.10 0.08621
1114.20 0.08619
1114.30 0.08617
1114.40 0.08616
1114.50 0.08614
1114.60 0.08612
1114.70 0.0861
1114.80 0.08608
1114.90 0.08607
1115.00 0.08605
1115.10 0.08603
1115.20 0.08601
1115.30 0.08599
1115.40 0.08598
1115.50 0.08596
1115.60 0.08594
1115.70 0.08592
1115.80 0.0859
1115.90 0.08589
1116.00 0.08587
1116.10 0.08585
1116.20 0.08583
1116.30 0.08582
1116.40 0.0858
1116.50 0.08578
1116.60 0.08576
1116.70 0.08574
1116.80 0.08573
1116.90 0.08571
1117.00 0.08569
1117.10 0.08567
1117.20 0.08565
1117.30 0.08563
1117.40 0.0856
1117.50 0.08558
1117.60 0.08556
1117.70 0.08554
1117.80 0.08552
1117.90 0.0855
1118.00 0.08547
1118.10 0.08545
1118.20 0.08543
1118.30 0.08541
1118.40 0.08539
1118.50 0.08537
1118.60 0.08534
1118.70 0.08532
1118.80 0.0853
1118.90 0.08528
1119.00 0.08526
1119.10 0.08524
1119.20 0.08521
1119.30 0.08519
1119.40 0.08517
1119.50 0.08515
1119.60 0.08513
1119.70 0.08511
1119.80 0.08508
1119.90 0.08506
1120.00 0.08504
1120.10 0.08502
1120.20 0.085
1120.30 0.08498
1120.40 0.08495
1120.50 0.08493
1120.60 0.08491
1120.70 0.08489
1120.80 0.08487
1120.90 0.08485
1121.00 0.08483
1121.10 0.0848
1121.20 0.08478
1121.30 0.08476
1121.40 0.08474
1121.50 0.08472
1121.60 0.0847
1121.70 0.08467
1121.80 0.08465
1121.90 0.08463
1122.00 0.08461
1122.10 0.08459
1122.20 0.08456
1122.30 0.08454
1122.40 0.08452
1122.50 0.08449
1122.60 0.08447
1122.70 0.08444
1122.80 0.08442
1122.90 0.0844
1123.00 0.08437
1123.10 0.08435
1123.20 0.08433
1123.30 0.0843
1123.40 0.08428
1123.50 0.08425
1123.60 0.08423
1123.70 0.08421
1123.80 0.08418
1123.90 0.08416
1124.00 0.08414
1124.10 0.08411
1124.20 0.08409
1124.30 0.08407
1124.40 0.08404
1124.50 0.08402
1124.60 0.08399
1124.70 0.08397
1124.80 0.08395
1124.90 0.08392
1125.00 0.0839
1125.10 0.08388
1125.20 0.08385
1125.30 0.08383
1125.40 0.08381
1125.50 0.08378
1125.60 0.08376
1125.70 0.08374
1125.80 0.08371
1125.90 0.08369
1126.00 0.08366
1126.10 0.08364
1126.20 0.08362
1126.30 0.08359
1126.40 0.08357
1126.50 0.08355
1126.60 0.08352
1126.70 0.0835
1126.80 0.08348
1126.90 0.08345
1127.00 0.08343
1127.10 0.08341
1127.20 0.08338
1127.30 0.08336
1127.40 0.08333
1127.50 0.08331
1127.60 0.08328
1127.70 0.08326
1127.80 0.08323
1127.90 0.08321
1128.00 0.08319
1128.10 0.08316
1128.20 0.08314
1128.30 0.08311
1128.40 0.08309
1128.50 0.08306
1128.60 0.08304
1128.70 0.08301
1128.80 0.08299
1128.90 0.08297
1129.00 0.08294
1129.10 0.08292
1129.20 0.08289
1129.30 0.08287
1129.40 0.08284
1129.50 0.08282
1129.60 0.08279
1129.70 0.08277
1129.80 0.08275
1129.90 0.08272
1130.00 0.0827
1130.10 0.08267
1130.20 0.08265
1130.30 0.08262
1130.40 0.0826
1130.50 0.08258
1130.60 0.08255
1130.70 0.08253
1130.80 0.0825
1130.90 0.08248
1131.00 0.08245
1131.10 0.08243
1131.20 0.08241
1131.30 0.08238
1131.40 0.08236
1131.50 0.08233
1131.60 0.08231
1131.70 0.08229
1131.80 0.08226
1131.90 0.08224
1132.00 0.08221
1132.10 0.08219
1132.20 0.08216
1132.30 0.08214
1132.40 0.08211
1132.50 0.08209
1132.60 0.08207
1132.70 0.08204
1132.80 0.08202
1132.90 0.08199
1133.00 0.08197
1133.10 0.08194
1133.20 0.08192
1133.30 0.08189
1133.40 0.08187
1133.50 0.08184
1133.60 0.08182
1133.70 0.0818
1133.80 0.08177
1133.90 0.08175
1134.00 0.08172
1134.10 0.0817
1134.20 0.08167
1134.30 0.08165
1134.40 0.08162
1134.50 0.0816
1134.60 0.08157
1134.70 0.08155
1134.80 0.08153
1134.90 0.0815
1135.00 0.08148
1135.10 0.08145
1135.20 0.08143
1135.30 0.0814
1135.40 0.08138
1135.50 0.08136
1135.60 0.08133
1135.70 0.08131
1135.80 0.08128
1135.90 0.08126
1136.00 0.08123
1136.10 0.08121
1136.20 0.08118
1136.30 0.08116
1136.40 0.08114
1136.50 0.08111
1136.60 0.08109
1136.70 0.08106
1136.80 0.08104
1136.90 0.08101
1137.00 0.08099
1137.10 0.08097
1137.20 0.08094
1137.30 0.08092
1137.40 0.08089
1137.50 0.08087
1137.60 0.08084
1137.70 0.08082
1137.80 0.08079
1137.90 0.08077
1138.00 0.08075
1138.10 0.08072
1138.20 0.0807
1138.30 0.08067
1138.40 0.08065
1138.50 0.08062
1138.60 0.0806
1138.70 0.08057
1138.80 0.08055
1138.90 0.08053
1139.00 0.0805
1139.10 0.08048
1139.20 0.08045
1139.30 0.08043
1139.40 0.0804
1139.50 0.08038
1139.60 0.08036
1139.70 0.08033
1139.80 0.08031
1139.90 0.08028
1140.00 0.08026
1140.10 0.08023
1140.20 0.08021
1140.30 0.08019
1140.40 0.08016
1140.50 0.08014
1140.60 0.08011
1140.70 0.08009
1140.80 0.08006
1140.90 0.08004
1141.00 0.08002
1141.10 0.07999
1141.20 0.07997
1141.30 0.07994
1141.40 0.07992
1141.50 0.07989
1141.60 0.07987
1141.70 0.07985
1141.80 0.07982
1141.90 0.0798
1142.00 0.07977
1142.10 0.07975
1142.20 0.07973
1142.30 0.0797
1142.40 0.07968
1142.50 0.07965
1142.60 0.07963
1142.70 0.0796
1142.80 0.07958
1142.90 0.07956
1143.00 0.07953
1143.10 0.07951
1143.20 0.07948
1143.30 0.07946
1143.40 0.07944
1143.50 0.07941
1143.60 0.07939
1143.70 0.07936
1143.80 0.07934
1143.90 0.07931
1144.00 0.07929
1144.10 0.07927
1144.20 0.07924
1144.30 0.07922
1144.40 0.07919
1144.50 0.07917
1144.60 0.07915
1144.70 0.07912
1144.80 0.0791
1144.90 0.07907
1145.00 0.07905
1145.10 0.07903
1145.20 0.079
1145.30 0.07898
1145.40 0.07895
1145.50 0.07893
1145.60 0.07891
1145.70 0.07888
1145.80 0.07886
1145.90 0.07883
1146.00 0.07881
1146.10 0.07879
1146.20 0.07876
1146.30 0.07874
1146.40 0.07872
1146.50 0.07869
1146.60 0.07867
1146.70 0.07864
1146.80 0.07862
1146.90 0.0786
1147.00 0.07857
1147.10 0.07855
1147.20 0.07852
1147.30 0.0785
1147.40 0.07848
1147.50 0.07845
1147.60 0.07843
1147.70 0.0784
1147.80 0.07838
1147.90 0.07836
1148.00 0.07833
1148.10 0.07831
1148.20 0.07829
1148.30 0.07826
1148.40 0.07824
1148.50 0.07821
1148.60 0.07819
1148.70 0.07817
1148.80 0.07814
1148.90 0.07812
1149.00 0.07809
1149.10 0.07807
1149.20 0.07805
1149.30 0.07802
1149.40 0.078
1149.50 0.07798
1149.60 0.07795
1149.70 0.07793
1149.80 0.0779
1149.90 0.07788
1150.00 0.07786
1150.10 0.07783
1150.20 0.07781
1150.30 0.07779
1150.40 0.07776
1150.50 0.07774
1150.60 0.07771
1150.70 0.07769
1150.80 0.07767
1150.90 0.07764
1151.00 0.07762
1151.10 0.0776
1151.20 0.07757
1151.30 0.07755
1151.40 0.07752
1151.50 0.0775
1151.60 0.07748
1151.70 0.07745
1151.80 0.07743
1151.90 0.07741
1152.00 0.07738
1152.10 0.07736
1152.20 0.07734
1152.30 0.07731
1152.40 0.07729
1152.50 0.07727
1152.60 0.07724
1152.70 0.07722
1152.80 0.07719
1152.90 0.07717
1153.00 0.07715
1153.10 0.07712
1153.20 0.0771
1153.30 0.07708
1153.40 0.07705
1153.50 0.07703
1153.60 0.07701
1153.70 0.07698
1153.80 0.07696
1153.90 0.07694
1154.00 0.07691
1154.10 0.07689
1154.20 0.07687
1154.30 0.07684
1154.40 0.07682
1154.50 0.0768
1154.60 0.07677
1154.70 0.07675
1154.80 0.07673
1154.90 0.0767
1155.00 0.07668
1155.10 0.07666
1155.20 0.07663
1155.30 0.07661
1155.40 0.07659
1155.50 0.07656
1155.60 0.07654
1155.70 0.07652
1155.80 0.07649
1155.90 0.07647
1156.00 0.07645
1156.10 0.07642
1156.20 0.0764
1156.30 0.07638
1156.40 0.07635
1156.50 0.07633
1156.60 0.07631
1156.70 0.07628
1156.80 0.07626
1156.90 0.07624
1157.00 0.07621
1157.10 0.07619
1157.20 0.07617
1157.30 0.07614
1157.40 0.07612
1157.50 0.0761
1157.60 0.07607
1157.70 0.07605
1157.80 0.07603
1157.90 0.07601
1158.00 0.07598
1158.10 0.07596
1158.20 0.07594
1158.30 0.07591
1158.40 0.07589
1158.50 0.07587
1158.60 0.07584
1158.70 0.07582
1158.80 0.0758
1158.90 0.07577
1159.00 0.07575
1159.10 0.07573
1159.20 0.07571
1159.30 0.07568
1159.40 0.07566
1159.50 0.07564
1159.60 0.07561
1159.70 0.07559
1159.80 0.07557
1159.90 0.07554
1160.00 0.07552
1160.10 0.0755
1160.20 0.07547
1160.30 0.07545
1160.40 0.07543
1160.50 0.07541
1160.60 0.07538
1160.70 0.07536
1160.80 0.07534
1160.90 0.07531
1161.00 0.07529
1161.10 0.07527
1161.20 0.07525
1161.30 0.07522
1161.40 0.0752
1161.50 0.07518
1161.60 0.07515
1161.70 0.07513
1161.80 0.07511
1161.90 0.07509
1162.00 0.07506
1162.10 0.07504
1162.20 0.07502
1162.30 0.07499
1162.40 0.07497
1162.50 0.07495
1162.60 0.07493
1162.70 0.0749
1162.80 0.07488
1162.90 0.07486
1163.00 0.07483
1163.10 0.07481
1163.20 0.07479
1163.30 0.07477
1163.40 0.07474
1163.50 0.07472
1163.60 0.0747
1163.70 0.07468
1163.80 0.07465
1163.90 0.07463
1164.00 0.07461
1164.10 0.07458
1164.20 0.07456
1164.30 0.07454
1164.40 0.07452
1164.50 0.07449
1164.60 0.07447
1164.70 0.07445
1164.80 0.07443
1164.90 0.0744
1165.00 0.07438
1165.10 0.07436
1165.20 0.07434
1165.30 0.07431
1165.40 0.07429
1165.50 0.07427
1165.60 0.07425
1165.70 0.07422
1165.80 0.0742
1165.90 0.07418
1166.00 0.07416
1166.10 0.07413
1166.20 0.07411
1166.30 0.07409
1166.40 0.07407
1166.50 0.07404
1166.60 0.07402
1166.70 0.074
1166.80 0.07398
1166.90 0.07395
1167.00 0.07393
1167.10 0.07391
1167.20 0.07389
1167.30 0.07386
1167.40 0.07384
1167.50 0.07382
1167.60 0.0738
1167.70 0.07377
1167.80 0.07375
1167.90 0.07373
1168.00 0.07371
1168.10 0.07368
1168.20 0.07366
1168.30 0.07364
1168.40 0.07362
1168.50 0.07359
1168.60 0.07357
1168.70 0.07355
1168.80 0.07353
1168.90 0.07351
1169.00 0.07348
1169.10 0.07346
1169.20 0.07344
1169.30 0.07342
1169.40 0.07339
1169.50 0.07337
1169.60 0.07335
1169.70 0.07333
1169.80 0.07331
1169.90 0.07328
1170.00 0.07326
1170.10 0.07324
1170.20 0.07322
1170.30 0.07319
1170.40 0.07317
1170.50 0.07315
1170.60 0.07313
1170.70 0.07311
1170.80 0.07308
1170.90 0.07306
1171.00 0.07304
1171.10 0.07302
1171.20 0.07299
1171.30 0.07297
1171.40 0.07295
1171.50 0.07293
1171.60 0.07291
1171.70 0.07288
1171.80 0.07286
1171.90 0.07284
1172.00 0.07282
1172.10 0.0728
1172.20 0.07277
1172.30 0.07275
1172.40 0.07273
1172.50 0.07271
1172.60 0.07269
1172.70 0.07266
1172.80 0.07264
1172.90 0.07262
1173.00 0.0726
1173.10 0.07258
1173.20 0.07255
1173.30 0.07253
1173.40 0.07251
1173.50 0.07249
1173.60 0.07247
1173.70 0.07244
1173.80 0.07242
1173.90 0.0724
1174.00 0.07238
1174.10 0.07236
1174.20 0.07233
1174.30 0.07231
1174.40 0.07229
1174.50 0.07227
1174.60 0.07225
1174.70 0.07223
1174.80 0.0722
1174.90 0.07218
1175.00 0.07216
1175.10 0.07214
1175.20 0.07212
1175.30 0.07209
1175.40 0.07207
1175.50 0.07205
1175.60 0.07203
1175.70 0.07201
1175.80 0.07199
1175.90 0.07196
1176.00 0.07194
1176.10 0.07192
1176.20 0.0719
1176.30 0.07188
1176.40 0.07185
1176.50 0.07183
1176.60 0.07181
1176.70 0.07179
1176.80 0.07177
1176.90 0.07175
1177.00 0.07172
1177.10 0.0717
1177.20 0.07168
1177.30 0.07166
1177.40 0.07164
1177.50 0.07162
1177.60 0.07159
1177.70 0.07157
1177.80 0.07155
1177.90 0.07153
1178.00 0.07151
1178.10 0.07149
1178.20 0.07147
1178.30 0.07144
1178.40 0.07142
1178.50 0.0714
1178.60 0.07138
1178.70 0.07136
1178.80 0.07134
1178.90 0.07131
1179.00 0.07129
1179.10 0.07127
1179.20 0.07125
1179.30 0.07123
1179.40 0.07121
1179.50 0.07119
1179.60 0.07116
1179.70 0.07114
1179.80 0.07112
1179.90 0.0711
1180.00 0.07108
1180.10 0.07106
1180.20 0.07104
1180.30 0.07101
1180.40 0.07099
1180.50 0.07097
1180.60 0.07095
1180.70 0.07093
1180.80 0.07091
1180.90 0.07089
1181.00 0.07087
1181.10 0.07084
1181.20 0.07082
1181.30 0.0708
1181.40 0.07078
1181.50 0.07076
1181.60 0.07074
1181.70 0.07072
1181.80 0.07069
1181.90 0.07067
1182.00 0.07065
1182.10 0.07063
1182.20 0.07061
1182.30 0.07059
1182.40 0.07057
1182.50 0.07055
1182.60 0.07052
1182.70 0.0705
1182.80 0.07048
1182.90 0.07046
1183.00 0.07044
1183.10 0.07042
1183.20 0.0704
1183.30 0.07038
1183.40 0.07035
1183.50 0.07033
1183.60 0.07031
1183.70 0.07029
1183.80 0.07027
1183.90 0.07025
1184.00 0.07023
1184.10 0.07021
1184.20 0.07018
1184.30 0.07016
1184.40 0.07014
1184.50 0.07012
1184.60 0.0701
1184.70 0.07008
1184.80 0.07006
1184.90 0.07004
1185.00 0.07002
1185.10 0.06999
1185.20 0.06997
1185.30 0.06995
1185.40 0.06993
1185.50 0.06991
1185.60 0.06989
1185.70 0.06987
1185.80 0.06985
1185.90 0.06983
1186.00 0.06981
1186.10 0.06978
1186.20 0.06976
1186.30 0.06974
1186.40 0.06972
1186.50 0.0697
1186.60 0.06968
1186.70 0.06966
1186.80 0.06964
1186.90 0.06962
1187.00 0.0696
1187.10 0.06957
1187.20 0.06955
1187.30 0.06953
1187.40 0.06951
1187.50 0.06949
1187.60 0.06947
1187.70 0.06945
1187.80 0.06943
1187.90 0.06941
1188.00 0.06939
1188.10 0.06937
1188.20 0.06935
1188.30 0.06932
1188.40 0.0693
1188.50 0.06928
1188.60 0.06926
1188.70 0.06924
1188.80 0.06922
1188.90 0.0692
1189.00 0.06918
1189.10 0.06916
1189.20 0.06914
1189.30 0.06912
1189.40 0.0691
1189.50 0.06908
1189.60 0.06905
1189.70 0.06903
1189.80 0.06901
1189.90 0.06899
1190.00 0.06897
1190.10 0.06895
1190.20 0.06893
1190.30 0.06891
1190.40 0.06889
1190.50 0.06887
1190.60 0.06885
1190.70 0.06883
1190.80 0.06881
1190.90 0.06879
1191.00 0.06876
1191.10 0.06874
1191.20 0.06872
1191.30 0.0687
1191.40 0.06868
1191.50 0.06866
1191.60 0.06864
1191.70 0.06862
1191.80 0.0686
1191.90 0.06858
1192.00 0.06856
1192.10 0.06854
1192.20 0.06852
1192.30 0.0685
1192.40 0.06848
1192.50 0.06846
1192.60 0.06844
1192.70 0.06842
1192.80 0.0684
1192.90 0.06837
1193.00 0.06835
1193.10 0.06833
1193.20 0.06831
1193.30 0.06829
1193.40 0.06827
1193.50 0.06825
1193.60 0.06823
1193.70 0.06821
1193.80 0.06819
1193.90 0.06817
1194.00 0.06815
1194.10 0.06813
1194.20 0.06811
1194.30 0.06809
1194.40 0.06807
1194.50 0.06805
1194.60 0.06803
1194.70 0.06801
1194.80 0.06799
1194.90 0.06797
1195.00 0.06795
1195.10 0.06793
1195.20 0.06791
1195.30 0.06789
1195.40 0.06786
1195.50 0.06784
1195.60 0.06782
1195.70 0.0678
1195.80 0.06778
1195.90 0.06776
1196.00 0.06774
1196.10 0.06772
1196.20 0.0677
1196.30 0.06768
1196.40 0.06766
1196.50 0.06764
1196.60 0.06762
1196.70 0.0676
1196.80 0.06758
1196.90 0.06756
1197.00 0.06754
1197.10 0.06752
1197.20 0.0675
1197.30 0.06748
1197.40 0.06746
1197.50 0.06744
1197.60 0.06742
1197.70 0.0674
1197.80 0.06738
1197.90 0.06736
1198.00 0.06734
1198.10 0.06732
1198.20 0.0673
1198.30 0.06728
1198.40 0.06726
1198.50 0.06724
1198.60 0.06722
1198.70 0.0672
1198.80 0.06718
1198.90 0.06716
1199.00 0.06714
1199.10 0.06712
1199.20 0.0671
1199.30 0.06708
1199.40 0.06706
1199.50 0.06704
1199.60 0.06702
1199.70 0.067
1199.80 0.06698
1199.90 0.06696
1200.00 0
