# Version 2.1 - nm, norm@500 to 1, cut digits, bergeron_12500_70.dat_12500
# Wavelength(nm)  Flambda(ergs/cm^s/s/nm)
300.00 1.626
300.10 1.625
300.20 1.624
300.30 1.623
300.40 1.622
300.50 1.621
300.60 1.62
300.70 1.619
300.80 1.618
300.90 1.617
301.00 1.616
301.10 1.615
301.20 1.614
301.30 1.613
301.40 1.612
301.50 1.611
301.60 1.61
301.70 1.609
301.80 1.608
301.90 1.607
302.00 1.606
302.10 1.605
302.20 1.604
302.30 1.603
302.40 1.602
302.50 1.601
302.60 1.6
302.70 1.599
302.80 1.598
302.90 1.597
303.00 1.596
303.10 1.595
303.20 1.594
303.30 1.593
303.40 1.591
303.50 1.59
303.60 1.589
303.70 1.588
303.80 1.587
303.90 1.586
304.00 1.585
304.10 1.584
304.20 1.583
304.30 1.582
304.40 1.581
304.50 1.58
304.60 1.579
304.70 1.579
304.80 1.578
304.90 1.577
305.00 1.576
305.10 1.575
305.20 1.574
305.30 1.573
305.40 1.572
305.50 1.571
305.60 1.57
305.70 1.569
305.80 1.568
305.90 1.567
306.00 1.566
306.10 1.565
306.20 1.564
306.30 1.563
306.40 1.562
306.50 1.561
306.60 1.56
306.70 1.559
306.80 1.558
306.90 1.557
307.00 1.556
307.10 1.555
307.20 1.554
307.30 1.553
307.40 1.552
307.50 1.551
307.60 1.55
307.70 1.549
307.80 1.548
307.90 1.547
308.00 1.546
308.10 1.545
308.20 1.544
308.30 1.543
308.40 1.542
308.50 1.541
308.60 1.54
308.70 1.539
308.80 1.538
308.90 1.538
309.00 1.537
309.10 1.536
309.20 1.535
309.30 1.534
309.40 1.533
309.50 1.532
309.60 1.531
309.70 1.53
309.80 1.529
309.90 1.528
310.00 1.527
310.10 1.526
310.20 1.525
310.30 1.524
310.40 1.523
310.50 1.522
310.60 1.521
310.70 1.52
310.80 1.519
310.90 1.519
311.00 1.518
311.10 1.517
311.20 1.516
311.30 1.515
311.40 1.514
311.50 1.513
311.60 1.512
311.70 1.511
311.80 1.51
311.90 1.509
312.00 1.508
312.10 1.507
312.20 1.506
312.30 1.505
312.40 1.505
312.50 1.504
312.60 1.503
312.70 1.502
312.80 1.501
312.90 1.5
313.00 1.499
313.10 1.498
313.20 1.497
313.30 1.496
313.40 1.495
313.50 1.494
313.60 1.493
313.70 1.493
313.80 1.492
313.90 1.491
314.00 1.49
314.10 1.489
314.20 1.488
314.30 1.487
314.40 1.486
314.50 1.485
314.60 1.484
314.70 1.483
314.80 1.482
314.90 1.482
315.00 1.481
315.10 1.48
315.20 1.479
315.30 1.478
315.40 1.477
315.50 1.476
315.60 1.475
315.70 1.474
315.80 1.473
315.90 1.473
316.00 1.472
316.10 1.471
316.20 1.47
316.30 1.469
316.40 1.468
316.50 1.467
316.60 1.466
316.70 1.465
316.80 1.464
316.90 1.464
317.00 1.463
317.10 1.462
317.20 1.461
317.30 1.46
317.40 1.459
317.50 1.458
317.60 1.457
317.70 1.456
317.80 1.456
317.90 1.455
318.00 1.454
318.10 1.453
318.20 1.452
318.30 1.451
318.40 1.45
318.50 1.449
318.60 1.448
318.70 1.448
318.80 1.447
318.90 1.446
319.00 1.445
319.10 1.444
319.20 1.443
319.30 1.442
319.40 1.441
319.50 1.441
319.60 1.44
319.70 1.439
319.80 1.438
319.90 1.437
320.00 1.436
320.10 1.435
320.20 1.434
320.30 1.434
320.40 1.433
320.50 1.432
320.60 1.431
320.70 1.43
320.80 1.429
320.90 1.428
321.00 1.428
321.10 1.427
321.20 1.426
321.30 1.425
321.40 1.424
321.50 1.423
321.60 1.422
321.70 1.422
321.80 1.421
321.90 1.42
322.00 1.419
322.10 1.418
322.20 1.417
322.30 1.416
322.40 1.416
322.50 1.415
322.60 1.414
322.70 1.413
322.80 1.412
322.90 1.411
323.00 1.41
323.10 1.41
323.20 1.409
323.30 1.408
323.40 1.407
323.50 1.406
323.60 1.405
323.70 1.405
323.80 1.404
323.90 1.403
324.00 1.402
324.10 1.401
324.20 1.4
324.30 1.399
324.40 1.399
324.50 1.398
324.60 1.397
324.70 1.396
324.80 1.395
324.90 1.394
325.00 1.394
325.10 1.393
325.20 1.392
325.30 1.391
325.40 1.39
325.50 1.389
325.60 1.389
325.70 1.388
325.80 1.387
325.90 1.386
326.00 1.385
326.10 1.384
326.20 1.384
326.30 1.383
326.40 1.382
326.50 1.381
326.60 1.38
326.70 1.38
326.80 1.379
326.90 1.378
327.00 1.377
327.10 1.376
327.20 1.375
327.30 1.375
327.40 1.374
327.50 1.373
327.60 1.372
327.70 1.371
327.80 1.371
327.90 1.37
328.00 1.369
328.10 1.368
328.20 1.367
328.30 1.366
328.40 1.366
328.50 1.365
328.60 1.364
328.70 1.363
328.80 1.362
328.90 1.362
329.00 1.361
329.10 1.36
329.20 1.359
329.30 1.358
329.40 1.358
329.50 1.357
329.60 1.356
329.70 1.355
329.80 1.354
329.90 1.354
330.00 1.353
330.10 1.352
330.20 1.351
330.30 1.35
330.40 1.35
330.50 1.349
330.60 1.348
330.70 1.347
330.80 1.346
330.90 1.346
331.00 1.345
331.10 1.344
331.20 1.343
331.30 1.342
331.40 1.342
331.50 1.341
331.60 1.34
331.70 1.339
331.80 1.338
331.90 1.338
332.00 1.337
332.10 1.336
332.20 1.335
332.30 1.334
332.40 1.334
332.50 1.333
332.60 1.332
332.70 1.331
332.80 1.331
332.90 1.33
333.00 1.329
333.10 1.328
333.20 1.327
333.30 1.327
333.40 1.326
333.50 1.325
333.60 1.324
333.70 1.324
333.80 1.323
333.90 1.322
334.00 1.321
334.10 1.32
334.20 1.32
334.30 1.319
334.40 1.318
334.50 1.317
334.60 1.317
334.70 1.316
334.80 1.315
334.90 1.314
335.00 1.313
335.10 1.313
335.20 1.312
335.30 1.311
335.40 1.31
335.50 1.31
335.60 1.309
335.70 1.308
335.80 1.307
335.90 1.307
336.00 1.306
336.10 1.305
336.20 1.304
336.30 1.303
336.40 1.303
336.50 1.302
336.60 1.301
336.70 1.3
336.80 1.3
336.90 1.299
337.00 1.298
337.10 1.297
337.20 1.297
337.30 1.296
337.40 1.295
337.50 1.294
337.60 1.294
337.70 1.293
337.80 1.292
337.90 1.291
338.00 1.291
338.10 1.29
338.20 1.289
338.30 1.288
338.40 1.288
338.50 1.287
338.60 1.286
338.70 1.285
338.80 1.285
338.90 1.284
339.00 1.283
339.10 1.282
339.20 1.282
339.30 1.281
339.40 1.28
339.50 1.279
339.60 1.279
339.70 1.278
339.80 1.277
339.90 1.276
340.00 1.276
340.10 1.275
340.20 1.274
340.30 1.273
340.40 1.273
340.50 1.272
340.60 1.271
340.70 1.271
340.80 1.27
340.90 1.269
341.00 1.268
341.10 1.268
341.20 1.267
341.30 1.266
341.40 1.265
341.50 1.265
341.60 1.264
341.70 1.263
341.80 1.262
341.90 1.262
342.00 1.261
342.10 1.26
342.20 1.26
342.30 1.259
342.40 1.258
342.50 1.257
342.60 1.257
342.70 1.256
342.80 1.255
342.90 1.254
343.00 1.254
343.10 1.253
343.20 1.252
343.30 1.252
343.40 1.251
343.50 1.25
343.60 1.249
343.70 1.249
343.80 1.248
343.90 1.247
344.00 1.247
344.10 1.246
344.20 1.245
344.30 1.244
344.40 1.244
344.50 1.243
344.60 1.242
344.70 1.242
344.80 1.241
344.90 1.24
345.00 1.239
345.10 1.239
345.20 1.238
345.30 1.237
345.40 1.237
345.50 1.236
345.60 1.235
345.70 1.234
345.80 1.234
345.90 1.233
346.00 1.232
346.10 1.232
346.20 1.231
346.30 1.23
346.40 1.229
346.50 1.229
346.60 1.228
346.70 1.227
346.80 1.227
346.90 1.226
347.00 1.225
347.10 1.225
347.20 1.224
347.30 1.223
347.40 1.222
347.50 1.222
347.60 1.221
347.70 1.22
347.80 1.22
347.90 1.219
348.00 1.218
348.10 1.218
348.20 1.217
348.30 1.216
348.40 1.215
348.50 1.215
348.60 1.214
348.70 1.213
348.80 1.213
348.90 1.212
349.00 1.211
349.10 1.211
349.20 1.21
349.30 1.209
349.40 1.209
349.50 1.208
349.60 1.207
349.70 1.207
349.80 1.206
349.90 1.205
350.00 1.204
350.10 1.204
350.20 1.203
350.30 1.202
350.40 1.202
350.50 1.201
350.60 1.2
350.70 1.2
350.80 1.199
350.90 1.198
351.00 1.198
351.10 1.197
351.20 1.196
351.30 1.196
351.40 1.195
351.50 1.194
351.60 1.194
351.70 1.193
351.80 1.192
351.90 1.192
352.00 1.191
352.10 1.19
352.20 1.19
352.30 1.189
352.40 1.188
352.50 1.187
352.60 1.187
352.70 1.186
352.80 1.185
352.90 1.185
353.00 1.184
353.10 1.183
353.20 1.183
353.30 1.182
353.40 1.181
353.50 1.181
353.60 1.18
353.70 1.179
353.80 1.179
353.90 1.178
354.00 1.177
354.10 1.177
354.20 1.176
354.30 1.175
354.40 1.175
354.50 1.174
354.60 1.173
354.70 1.173
354.80 1.172
354.90 1.171
355.00 1.171
355.10 1.17
355.20 1.169
355.30 1.169
355.40 1.168
355.50 1.168
355.60 1.167
355.70 1.166
355.80 1.166
355.90 1.165
356.00 1.164
356.10 1.164
356.20 1.163
356.30 1.162
356.40 1.162
356.50 1.161
356.60 1.16
356.70 1.16
356.80 1.159
356.90 1.158
357.00 1.158
357.10 1.157
357.20 1.156
357.30 1.156
357.40 1.155
357.50 1.154
357.60 1.154
357.70 1.153
357.80 1.152
357.90 1.152
358.00 1.151
358.10 1.151
358.20 1.15
358.30 1.149
358.40 1.149
358.50 1.148
358.60 1.147
358.70 1.147
358.80 1.146
358.90 1.145
359.00 1.145
359.10 1.144
359.20 1.143
359.30 1.143
359.40 1.142
359.50 1.142
359.60 1.141
359.70 1.14
359.80 1.14
359.90 1.139
360.00 1.138
360.10 1.138
360.20 1.137
360.30 1.136
360.40 1.136
360.50 1.135
360.60 1.135
360.70 1.134
360.80 1.133
360.90 1.133
361.00 1.132
361.10 1.131
361.20 1.131
361.30 1.13
361.40 1.13
361.50 1.129
361.60 1.128
361.70 1.128
361.80 1.127
361.90 1.126
362.00 1.126
362.10 1.125
362.20 1.124
362.30 1.124
362.40 1.123
362.50 1.123
362.60 1.122
362.70 1.121
362.80 1.121
362.90 1.12
363.00 1.12
363.10 1.119
363.20 1.118
363.30 1.118
363.40 1.117
363.50 1.116
363.60 1.116
363.70 1.115
363.80 1.114
363.90 1.114
364.00 1.113
364.10 1.112
364.20 1.112
364.30 1.111
364.40 1.11
364.50 1.11
364.60 1.109
364.70 1.108
364.80 1.108
364.90 1.107
365.00 1.107
365.10 1.106
365.20 1.105
365.30 1.105
365.40 1.104
365.50 1.104
365.60 1.103
365.70 1.102
365.80 1.102
365.90 1.101
366.00 1.101
366.10 1.1
366.20 1.099
366.30 1.099
366.40 1.098
366.50 1.098
366.60 1.097
366.70 1.097
366.80 1.096
366.90 1.096
367.00 1.095
367.10 1.094
367.20 1.094
367.30 1.093
367.40 1.093
367.50 1.092
367.60 1.092
367.70 1.091
367.80 1.091
367.90 1.09
368.00 1.089
368.10 1.09
368.20 1.09
368.30 1.09
368.40 1.091
368.50 1.091
368.60 1.091
368.70 1.091
368.80 1.092
368.90 1.092
369.00 1.092
369.10 1.092
369.20 1.093
369.30 1.093
369.40 1.093
369.50 1.093
369.60 1.094
369.70 1.094
369.80 1.094
369.90 1.094
370.00 1.095
370.10 1.097
370.20 1.098
370.30 1.1
370.40 1.102
370.50 1.104
370.60 1.106
370.70 1.108
370.80 1.11
370.90 1.112
371.00 1.114
371.10 1.116
371.20 1.118
371.30 1.12
371.40 1.121
371.50 1.123
371.60 1.125
371.70 1.127
371.80 1.129
371.90 1.131
372.00 1.133
372.10 1.136
372.20 1.14
372.30 1.143
372.40 1.147
372.50 1.15
372.60 1.153
372.70 1.157
372.80 1.16
372.90 1.164
373.00 1.167
373.10 1.17
373.20 1.174
373.30 1.177
373.40 1.181
373.50 1.184
373.60 1.187
373.70 1.191
373.80 1.194
373.90 1.198
374.00 1.201
374.10 1.205
374.20 1.208
374.30 1.212
374.40 1.216
374.50 1.219
374.60 1.223
374.70 1.226
374.80 1.23
374.90 1.234
375.00 1.237
375.10 1.241
375.20 1.245
375.30 1.248
375.40 1.252
375.50 1.256
375.60 1.259
375.70 1.263
375.80 1.266
375.90 1.27
376.00 1.274
376.10 1.275
376.20 1.277
376.30 1.279
376.40 1.281
376.50 1.283
376.60 1.284
376.70 1.286
376.80 1.288
376.90 1.29
377.00 1.292
377.10 1.289
377.20 1.286
377.30 1.283
377.40 1.28
377.50 1.277
377.60 1.274
377.70 1.271
377.80 1.268
377.90 1.265
378.00 1.262
378.10 1.244
378.20 1.227
378.30 1.209
378.40 1.192
378.50 1.175
378.60 1.157
378.70 1.14
378.80 1.122
378.90 1.105
379.00 1.088
379.10 1.073
379.20 1.058
379.30 1.043
379.40 1.027
379.50 1.012
379.60 0.9975
379.70 0.9825
379.80 0.9675
379.90 0.9525
380.00 0.9376
380.10 0.9612
380.20 0.9847
380.30 1.008
380.40 1.032
380.50 1.055
380.60 1.079
380.70 1.102
380.80 1.125
380.90 1.149
381.00 1.172
381.10 1.181
381.20 1.19
381.30 1.199
381.40 1.208
381.50 1.217
381.60 1.218
381.70 1.216
381.80 1.211
381.90 1.203
382.00 1.193
382.10 1.179
382.20 1.163
382.30 1.132
382.40 1.101
382.50 1.071
382.60 1.04
382.70 1.01
382.80 0.9792
382.90 0.9487
383.00 0.9183
383.10 0.8879
383.20 0.8576
383.30 0.8248
383.40 0.7889
383.50 0.7502
383.60 0.7587
383.70 0.7965
383.80 0.8319
383.90 0.8642
384.00 0.8973
384.10 0.9327
384.20 0.9689
384.30 1.005
384.40 1.041
384.50 1.076
384.60 1.109
384.70 1.139
384.80 1.167
384.90 1.191
385.00 1.213
385.10 1.231
385.20 1.248
385.30 1.263
385.40 1.275
385.50 1.285
385.60 1.294
385.70 1.301
385.80 1.306
385.90 1.31
386.00 1.311
386.10 1.312
386.20 1.311
386.30 1.308
386.40 1.304
386.50 1.298
386.60 1.29
386.70 1.281
386.80 1.271
386.90 1.259
387.00 1.245
387.10 1.23
387.20 1.212
387.30 1.193
387.40 1.173
387.50 1.148
387.60 1.123
387.70 1.095
387.80 1.063
387.90 1.029
388.00 0.9926
388.10 0.9536
388.20 0.914
388.30 0.8739
388.40 0.8341
388.50 0.7955
388.60 0.7581
388.70 0.7188
388.80 0.677
388.90 0.6325
389.00 0.6738
389.10 0.714
389.20 0.7532
389.30 0.7901
389.40 0.8281
389.50 0.8673
389.60 0.9073
389.70 0.9469
389.80 0.9861
389.90 1.023
390.00 1.058
390.10 1.091
390.20 1.121
390.30 1.149
390.40 1.175
390.50 1.199
390.60 1.222
390.70 1.243
390.80 1.263
390.90 1.281
391.00 1.299
391.10 1.316
391.20 1.331
391.30 1.346
391.40 1.36
391.50 1.373
391.60 1.385
391.70 1.396
391.80 1.407
391.90 1.416
392.00 1.424
392.10 1.432
392.20 1.439
392.30 1.444
392.40 1.449
392.50 1.453
392.60 1.455
392.70 1.457
392.80 1.458
392.90 1.458
393.00 1.456
393.10 1.454
393.20 1.451
393.30 1.446
393.40 1.441
393.50 1.435
393.60 1.428
393.70 1.419
393.80 1.41
393.90 1.4
394.00 1.388
394.10 1.376
394.20 1.363
394.30 1.349
394.40 1.333
394.50 1.317
394.60 1.301
394.70 1.283
394.80 1.264
394.90 1.245
395.00 1.225
395.10 1.204
395.20 1.182
395.30 1.159
395.40 1.135
395.50 1.11
395.60 1.083
395.70 1.055
395.80 1.026
395.90 0.9949
396.00 0.9623
396.10 0.9285
396.20 0.8922
396.30 0.855
396.40 0.8166
396.50 0.7779
396.60 0.7399
396.70 0.7026
396.80 0.662
396.90 0.6104
397.00 0.5478
397.10 0.6058
397.20 0.6553
397.30 0.6962
397.40 0.7329
397.50 0.7702
397.60 0.8082
397.70 0.8459
397.80 0.8826
397.90 0.9183
398.00 0.9516
398.10 0.9836
398.20 1.014
398.30 1.043
398.40 1.07
398.50 1.097
398.60 1.121
398.70 1.145
398.80 1.168
398.90 1.19
399.00 1.211
399.10 1.232
399.20 1.252
399.30 1.271
399.40 1.29
399.50 1.308
399.60 1.326
399.70 1.343
399.80 1.359
399.90 1.375
400.00 1.391
400.10 1.405
400.20 1.42
400.30 1.433
400.40 1.446
400.50 1.459
400.60 1.471
400.70 1.483
400.80 1.493
400.90 1.504
401.00 1.514
401.10 1.523
401.20 1.532
401.30 1.54
401.40 1.548
401.50 1.556
401.60 1.563
401.70 1.569
401.80 1.575
401.90 1.581
402.00 1.586
402.10 1.591
402.20 1.595
402.30 1.599
402.40 1.603
402.50 1.606
402.60 1.608
402.70 1.611
402.80 1.612
402.90 1.614
403.00 1.615
403.10 1.616
403.20 1.617
403.30 1.617
403.40 1.616
403.50 1.616
403.60 1.615
403.70 1.614
403.80 1.612
403.90 1.61
404.00 1.607
404.10 1.605
404.20 1.602
404.30 1.598
404.40 1.594
404.50 1.59
404.60 1.585
404.70 1.58
404.80 1.575
404.90 1.569
405.00 1.563
405.10 1.557
405.20 1.549
405.30 1.542
405.40 1.534
405.50 1.526
405.60 1.517
405.70 1.508
405.80 1.498
405.90 1.488
406.00 1.478
406.10 1.467
406.20 1.455
406.30 1.443
406.40 1.431
406.50 1.418
406.60 1.405
406.70 1.391
406.80 1.376
406.90 1.361
407.00 1.346
407.10 1.33
407.20 1.313
407.30 1.296
407.40 1.278
407.50 1.26
407.60 1.241
407.70 1.221
407.80 1.202
407.90 1.181
408.00 1.16
408.10 1.139
408.20 1.118
408.30 1.096
408.40 1.073
408.50 1.05
408.60 1.027
408.70 1.003
408.80 0.9782
408.90 0.9528
409.00 0.9269
409.10 0.8996
409.20 0.8715
409.30 0.8425
409.40 0.8115
409.50 0.7794
409.60 0.7464
409.70 0.7125
409.80 0.6785
409.90 0.6443
410.00 0.6017
410.10 0.5526
410.20 0.497
410.30 0.5697
410.40 0.6246
410.50 0.6617
410.60 0.695
410.70 0.7282
410.80 0.7613
410.90 0.793
411.00 0.8235
411.10 0.8528
411.20 0.8802
411.30 0.9067
411.40 0.9325
411.50 0.9569
411.60 0.9807
411.70 1.004
411.80 1.026
411.90 1.048
412.00 1.07
412.10 1.091
412.20 1.111
412.30 1.131
412.40 1.151
412.50 1.17
412.60 1.189
412.70 1.207
412.80 1.224
412.90 1.242
413.00 1.258
413.10 1.275
413.20 1.29
413.30 1.305
413.40 1.32
413.50 1.334
413.60 1.347
413.70 1.361
413.80 1.373
413.90 1.385
414.00 1.397
414.10 1.408
414.20 1.419
414.30 1.43
414.40 1.44
414.50 1.45
414.60 1.459
414.70 1.468
414.80 1.477
414.90 1.485
415.00 1.493
415.10 1.501
415.20 1.508
415.30 1.515
415.40 1.522
415.50 1.528
415.60 1.534
415.70 1.54
415.80 1.546
415.90 1.551
416.00 1.556
416.10 1.561
416.20 1.566
416.30 1.57
416.40 1.574
416.50 1.578
416.60 1.582
416.70 1.586
416.80 1.589
416.90 1.592
417.00 1.596
417.10 1.598
417.20 1.601
417.30 1.604
417.40 1.606
417.50 1.609
417.60 1.611
417.70 1.613
417.80 1.615
417.90 1.617
418.00 1.619
418.10 1.62
418.20 1.622
418.30 1.623
418.40 1.624
418.50 1.626
418.60 1.627
418.70 1.628
418.80 1.628
418.90 1.629
419.00 1.63
419.10 1.631
419.20 1.631
419.30 1.632
419.40 1.632
419.50 1.633
419.60 1.633
419.70 1.633
419.80 1.633
419.90 1.633
420.00 1.633
420.10 1.633
420.20 1.633
420.30 1.633
420.40 1.633
420.50 1.632
420.60 1.632
420.70 1.632
420.80 1.631
420.90 1.631
421.00 1.63
421.10 1.63
421.20 1.629
421.30 1.628
421.40 1.628
421.50 1.627
421.60 1.626
421.70 1.625
421.80 1.624
421.90 1.623
422.00 1.622
422.10 1.621
422.20 1.62
422.30 1.619
422.40 1.618
422.50 1.616
422.60 1.615
422.70 1.614
422.80 1.612
422.90 1.611
423.00 1.609
423.10 1.608
423.20 1.606
423.30 1.604
423.40 1.603
423.50 1.601
423.60 1.599
423.70 1.597
423.80 1.595
423.90 1.593
424.00 1.591
424.10 1.589
424.20 1.587
424.30 1.585
424.40 1.582
424.50 1.58
424.60 1.578
424.70 1.575
424.80 1.573
424.90 1.57
425.00 1.567
425.10 1.564
425.20 1.562
425.30 1.559
425.40 1.556
425.50 1.552
425.60 1.549
425.70 1.546
425.80 1.543
425.90 1.539
426.00 1.536
426.10 1.532
426.20 1.527
426.30 1.523
426.40 1.519
426.50 1.515
426.60 1.511
426.70 1.507
426.80 1.502
426.90 1.498
427.00 1.493
427.10 1.488
427.20 1.483
427.30 1.478
427.40 1.473
427.50 1.467
427.60 1.462
427.70 1.456
427.80 1.45
427.90 1.444
428.00 1.438
428.10 1.432
428.20 1.425
428.30 1.419
428.40 1.412
428.50 1.405
428.60 1.397
428.70 1.39
428.80 1.382
428.90 1.374
429.00 1.366
429.10 1.358
429.20 1.349
429.30 1.34
429.40 1.331
429.50 1.322
429.60 1.312
429.70 1.302
429.80 1.292
429.90 1.281
430.00 1.271
430.10 1.26
430.20 1.248
430.30 1.237
430.40 1.225
430.50 1.213
430.60 1.2
430.70 1.188
430.80 1.175
430.90 1.162
431.00 1.148
431.10 1.135
431.20 1.121
431.30 1.107
431.40 1.092
431.50 1.078
431.60 1.063
431.70 1.047
431.80 1.031
431.90 1.014
432.00 0.9971
432.10 0.9793
432.20 0.9604
432.30 0.9408
432.40 0.9205
432.50 0.8986
432.60 0.876
432.70 0.8526
432.80 0.8289
432.90 0.8055
433.00 0.7824
433.10 0.7603
433.20 0.738
433.30 0.7154
433.40 0.6906
433.50 0.6646
433.60 0.6375
433.70 0.6089
433.80 0.577
433.90 0.5417
434.00 0.4518
434.10 0.4529
434.20 0.5448
434.30 0.5788
434.40 0.6099
434.50 0.6379
434.60 0.6642
434.70 0.6894
434.80 0.7134
434.90 0.7352
435.00 0.7567
435.10 0.778
435.20 0.8002
435.30 0.8227
435.40 0.8454
435.50 0.8675
435.60 0.8889
435.70 0.9095
435.80 0.9285
435.90 0.9467
436.00 0.9643
436.10 0.9806
436.20 0.9964
436.30 1.012
436.40 1.026
436.50 1.04
436.60 1.054
436.70 1.067
436.80 1.08
436.90 1.092
437.00 1.104
437.10 1.116
437.20 1.128
437.30 1.139
437.40 1.15
437.50 1.161
437.60 1.171
437.70 1.182
437.80 1.192
437.90 1.201
438.00 1.21
438.10 1.22
438.20 1.228
438.30 1.237
438.40 1.245
438.50 1.253
438.60 1.26
438.70 1.268
438.80 1.275
438.90 1.281
439.00 1.288
439.10 1.294
439.20 1.3
439.30 1.306
439.40 1.311
439.50 1.317
439.60 1.322
439.70 1.327
439.80 1.332
439.90 1.336
440.00 1.341
440.10 1.345
440.20 1.349
440.30 1.353
440.40 1.356
440.50 1.36
440.60 1.363
440.70 1.366
440.80 1.37
440.90 1.372
441.00 1.375
441.10 1.378
441.20 1.381
441.30 1.383
441.40 1.385
441.50 1.388
441.60 1.39
441.70 1.392
441.80 1.394
441.90 1.395
442.00 1.397
442.10 1.399
442.20 1.4
442.30 1.402
442.40 1.403
442.50 1.404
442.60 1.406
442.70 1.407
442.80 1.408
442.90 1.409
443.00 1.41
443.10 1.411
443.20 1.411
443.30 1.412
443.40 1.413
443.50 1.413
443.60 1.414
443.70 1.415
443.80 1.415
443.90 1.416
444.00 1.416
444.10 1.416
444.20 1.417
444.30 1.417
444.40 1.417
444.50 1.417
444.60 1.417
444.70 1.418
444.80 1.418
444.90 1.418
445.00 1.418
445.10 1.418
445.20 1.418
445.30 1.418
445.40 1.417
445.50 1.417
445.60 1.417
445.70 1.417
445.80 1.417
445.90 1.417
446.00 1.416
446.10 1.416
446.20 1.416
446.30 1.415
446.40 1.415
446.50 1.415
446.60 1.414
446.70 1.414
446.80 1.414
446.90 1.413
447.00 1.413
447.10 1.412
447.20 1.412
447.30 1.411
447.40 1.411
447.50 1.41
447.60 1.41
447.70 1.409
447.80 1.409
447.90 1.408
448.00 1.408
448.10 1.407
448.20 1.407
448.30 1.406
448.40 1.406
448.50 1.405
448.60 1.404
448.70 1.404
448.80 1.403
448.90 1.402
449.00 1.402
449.10 1.401
449.20 1.401
449.30 1.4
449.40 1.399
449.50 1.399
449.60 1.398
449.70 1.397
449.80 1.397
449.90 1.396
450.00 1.395
450.10 1.395
450.20 1.394
450.30 1.393
450.40 1.392
450.50 1.392
450.60 1.391
450.70 1.39
450.80 1.389
450.90 1.389
451.00 1.388
451.10 1.387
451.20 1.386
451.30 1.386
451.40 1.385
451.50 1.384
451.60 1.383
451.70 1.383
451.80 1.382
451.90 1.381
452.00 1.38
452.10 1.38
452.20 1.379
452.30 1.378
452.40 1.377
452.50 1.376
452.60 1.375
452.70 1.375
452.80 1.374
452.90 1.373
453.00 1.372
453.10 1.371
453.20 1.371
453.30 1.37
453.40 1.369
453.50 1.368
453.60 1.367
453.70 1.366
453.80 1.366
453.90 1.365
454.00 1.364
454.10 1.363
454.20 1.362
454.30 1.361
454.40 1.361
454.50 1.36
454.60 1.359
454.70 1.358
454.80 1.357
454.90 1.356
455.00 1.356
455.10 1.355
455.20 1.354
455.30 1.353
455.40 1.352
455.50 1.351
455.60 1.35
455.70 1.35
455.80 1.349
455.90 1.348
456.00 1.347
456.10 1.346
456.20 1.345
456.30 1.344
456.40 1.344
456.50 1.343
456.60 1.342
456.70 1.341
456.80 1.34
456.90 1.339
457.00 1.338
457.10 1.338
457.20 1.337
457.30 1.336
457.40 1.335
457.50 1.334
457.60 1.333
457.70 1.332
457.80 1.332
457.90 1.331
458.00 1.33
458.10 1.329
458.20 1.328
458.30 1.327
458.40 1.326
458.50 1.325
458.60 1.324
458.70 1.324
458.80 1.323
458.90 1.322
459.00 1.321
459.10 1.32
459.20 1.319
459.30 1.318
459.40 1.317
459.50 1.316
459.60 1.315
459.70 1.315
459.80 1.314
459.90 1.313
460.00 1.312
460.10 1.311
460.20 1.31
460.30 1.309
460.40 1.308
460.50 1.307
460.60 1.306
460.70 1.306
460.80 1.305
460.90 1.304
461.00 1.303
461.10 1.302
461.20 1.301
461.30 1.3
461.40 1.299
461.50 1.298
461.60 1.297
461.70 1.296
461.80 1.295
461.90 1.295
462.00 1.294
462.10 1.293
462.20 1.292
462.30 1.291
462.40 1.29
462.50 1.289
462.60 1.288
462.70 1.287
462.80 1.286
462.90 1.285
463.00 1.284
463.10 1.283
463.20 1.283
463.30 1.282
463.40 1.281
463.50 1.28
463.60 1.279
463.70 1.278
463.80 1.277
463.90 1.276
464.00 1.275
464.10 1.274
464.20 1.273
464.30 1.272
464.40 1.271
464.50 1.27
464.60 1.269
464.70 1.268
464.80 1.267
464.90 1.266
465.00 1.266
465.10 1.265
465.20 1.264
465.30 1.263
465.40 1.262
465.50 1.261
465.60 1.26
465.70 1.259
465.80 1.258
465.90 1.257
466.00 1.256
466.10 1.255
466.20 1.254
466.30 1.253
466.40 1.252
466.50 1.251
466.60 1.25
466.70 1.249
466.80 1.248
466.90 1.247
467.00 1.246
467.10 1.245
467.20 1.244
467.30 1.243
467.40 1.242
467.50 1.241
467.60 1.24
467.70 1.239
467.80 1.238
467.90 1.237
468.00 1.236
468.10 1.235
468.20 1.234
468.30 1.233
468.40 1.232
468.50 1.231
468.60 1.23
468.70 1.229
468.80 1.228
468.90 1.227
469.00 1.225
469.10 1.224
469.20 1.223
469.30 1.222
469.40 1.221
469.50 1.22
469.60 1.219
469.70 1.218
469.80 1.217
469.90 1.216
470.00 1.215
470.10 1.214
470.20 1.212
470.30 1.211
470.40 1.21
470.50 1.209
470.60 1.208
470.70 1.207
470.80 1.206
470.90 1.205
471.00 1.203
471.10 1.202
471.20 1.201
471.30 1.2
471.40 1.199
471.50 1.197
471.60 1.196
471.70 1.195
471.80 1.194
471.90 1.193
472.00 1.191
472.10 1.19
472.20 1.189
472.30 1.188
472.40 1.186
472.50 1.185
472.60 1.184
472.70 1.182
472.80 1.181
472.90 1.18
473.00 1.178
473.10 1.177
473.20 1.176
473.30 1.174
473.40 1.173
473.50 1.171
473.60 1.17
473.70 1.168
473.80 1.167
473.90 1.166
474.00 1.164
474.10 1.163
474.20 1.161
474.30 1.159
474.40 1.158
474.50 1.156
474.60 1.155
474.70 1.153
474.80 1.151
474.90 1.15
475.00 1.148
475.10 1.147
475.20 1.145
475.30 1.143
475.40 1.141
475.50 1.139
475.60 1.137
475.70 1.136
475.80 1.134
475.90 1.132
476.00 1.13
476.10 1.128
476.20 1.126
476.30 1.124
476.40 1.122
476.50 1.12
476.60 1.118
476.70 1.115
476.80 1.113
476.90 1.111
477.00 1.109
477.10 1.107
477.20 1.104
477.30 1.102
477.40 1.099
477.50 1.097
477.60 1.094
477.70 1.091
477.80 1.089
477.90 1.086
478.00 1.084
478.10 1.081
478.20 1.078
478.30 1.075
478.40 1.072
478.50 1.069
478.60 1.066
478.70 1.062
478.80 1.059
478.90 1.056
479.00 1.053
479.10 1.05
479.20 1.046
479.30 1.042
479.40 1.038
479.50 1.034
479.60 1.03
479.70 1.026
479.80 1.022
479.90 1.019
480.00 1.015
480.10 1.011
480.20 1.006
480.30 1.001
480.40 0.996
480.50 0.9911
480.60 0.9861
480.70 0.9811
480.80 0.9762
480.90 0.9712
481.00 0.9662
481.10 0.9613
481.20 0.9554
481.30 0.949
481.40 0.9427
481.50 0.9363
481.60 0.93
481.70 0.9236
481.80 0.9173
481.90 0.9109
482.00 0.9046
482.10 0.8983
482.20 0.8908
482.30 0.8828
482.40 0.8748
482.50 0.8668
482.60 0.8587
482.70 0.8507
482.80 0.8427
482.90 0.8348
483.00 0.8268
483.10 0.8188
483.20 0.8094
483.30 0.7993
483.40 0.7892
483.50 0.7792
483.60 0.7691
483.70 0.759
483.80 0.749
483.90 0.739
484.00 0.7289
484.10 0.7189
484.20 0.7078
484.30 0.6961
484.40 0.6845
484.50 0.6728
484.60 0.6612
484.70 0.6488
484.80 0.636
484.90 0.6232
485.00 0.6105
485.10 0.5978
485.20 0.5845
485.30 0.571
485.40 0.5567
485.50 0.5421
485.60 0.5263
485.70 0.5099
485.80 0.4906
485.90 0.47
486.00 0.4418
486.10 0.3481
486.20 0.398
486.30 0.4531
486.40 0.4759
486.50 0.4963
486.60 0.5137
486.70 0.5297
486.80 0.5444
486.90 0.5585
487.00 0.5718
487.10 0.5847
487.20 0.5971
487.30 0.6092
487.40 0.6213
487.50 0.6333
487.60 0.6454
487.70 0.6566
487.80 0.6675
487.90 0.6783
488.00 0.6891
488.10 0.6999
488.20 0.7095
488.30 0.7186
488.40 0.7276
488.50 0.7367
488.60 0.7457
488.70 0.7547
488.80 0.7638
488.90 0.7728
489.00 0.7818
489.10 0.7908
489.20 0.7983
489.30 0.8051
489.40 0.8118
489.50 0.8186
489.60 0.8254
489.70 0.8321
489.80 0.8389
489.90 0.8456
490.00 0.8523
490.10 0.8591
490.20 0.8646
490.30 0.8695
490.40 0.8745
490.50 0.8794
490.60 0.8844
490.70 0.8893
490.80 0.8942
490.90 0.8992
491.00 0.9041
491.10 0.909
491.20 0.9129
491.30 0.9164
491.40 0.9199
491.50 0.9233
491.60 0.9268
491.70 0.9302
491.80 0.9337
491.90 0.9372
492.00 0.9406
492.10 0.9441
492.20 0.9467
492.30 0.9491
492.40 0.9515
492.50 0.9539
492.60 0.9562
492.70 0.9586
492.80 0.961
492.90 0.9633
493.00 0.9657
493.10 0.968
493.20 0.9699
493.30 0.9715
493.40 0.9731
493.50 0.9746
493.60 0.9762
493.70 0.9778
493.80 0.9794
493.90 0.981
494.00 0.9825
494.10 0.9841
494.20 0.9853
494.30 0.9863
494.40 0.9872
494.50 0.9882
494.60 0.9892
494.70 0.9902
494.80 0.9911
494.90 0.9921
495.00 0.9931
495.10 0.994
495.20 0.9947
495.30 0.9953
495.40 0.9959
495.50 0.9964
495.60 0.997
495.70 0.9975
495.80 0.9981
495.90 0.9986
496.00 0.9992
496.10 0.9997
496.20 1
496.30 1
496.40 1.001
496.50 1.001
496.60 1.001
496.70 1.001
496.80 1.002
496.90 1.002
497.00 1.002
497.10 1.002
497.20 1.003
497.30 1.003
497.40 1.003
497.50 1.003
497.60 1.003
497.70 1.003
497.80 1.003
497.90 1.003
498.00 1.003
498.10 1.003
498.20 1.003
498.30 1.003
498.40 1.003
498.50 1.003
498.60 1.003
498.70 1.002
498.80 1.002
498.90 1.002
499.00 1.002
499.10 1.002
499.20 1.002
499.30 1.002
499.40 1.001
499.50 1.001
499.60 1.001
499.70 1.001
499.80 1
499.90 1
500.00 1
500.10 0.9998
500.20 0.9995
500.30 0.9992
500.40 0.9989
500.50 0.9986
500.60 0.9983
500.70 0.998
500.80 0.9976
500.90 0.9973
501.00 0.997
501.10 0.9967
501.20 0.9964
501.30 0.996
501.40 0.9956
501.50 0.9953
501.60 0.9949
501.70 0.9945
501.80 0.9942
501.90 0.9938
502.00 0.9934
502.10 0.9931
502.20 0.9927
502.30 0.9922
502.40 0.9918
502.50 0.9914
502.60 0.991
502.70 0.9906
502.80 0.9902
502.90 0.9898
503.00 0.9893
503.10 0.9889
503.20 0.9885
503.30 0.988
503.40 0.9876
503.50 0.9871
503.60 0.9867
503.70 0.9862
503.80 0.9858
503.90 0.9853
504.00 0.9849
504.10 0.9844
504.20 0.984
504.30 0.9835
504.40 0.983
504.50 0.9825
504.60 0.9821
504.70 0.9816
504.80 0.9811
504.90 0.9806
505.00 0.9802
505.10 0.9797
505.20 0.9792
505.30 0.9787
505.40 0.9782
505.50 0.9777
505.60 0.9772
505.70 0.9767
505.80 0.9762
505.90 0.9757
506.00 0.9752
506.10 0.9747
506.20 0.9742
506.30 0.9737
506.40 0.9732
506.50 0.9727
506.60 0.9722
506.70 0.9717
506.80 0.9712
506.90 0.9707
507.00 0.9701
507.10 0.9696
507.20 0.9691
507.30 0.9686
507.40 0.9681
507.50 0.9675
507.60 0.967
507.70 0.9665
507.80 0.966
507.90 0.9655
508.00 0.9649
508.10 0.9644
508.20 0.9639
508.30 0.9633
508.40 0.9628
508.50 0.9623
508.60 0.9618
508.70 0.9612
508.80 0.9607
508.90 0.9602
509.00 0.9596
509.10 0.9591
509.20 0.9586
509.30 0.958
509.40 0.9575
509.50 0.9569
509.60 0.9564
509.70 0.9559
509.80 0.9553
509.90 0.9548
510.00 0.9543
510.10 0.9537
510.20 0.9532
510.30 0.9526
510.40 0.9521
510.50 0.9516
510.60 0.951
510.70 0.9505
510.80 0.9499
510.90 0.9494
511.00 0.9489
511.10 0.9483
511.20 0.9478
511.30 0.9472
511.40 0.9467
511.50 0.9461
511.60 0.9456
511.70 0.9451
511.80 0.9445
511.90 0.944
512.00 0.9434
512.10 0.9429
512.20 0.9423
512.30 0.9418
512.40 0.9412
512.50 0.9407
512.60 0.9402
512.70 0.9396
512.80 0.9391
512.90 0.9385
513.00 0.938
513.10 0.9374
513.20 0.9369
513.30 0.9363
513.40 0.9358
513.50 0.9352
513.60 0.9347
513.70 0.9342
513.80 0.9336
513.90 0.9331
514.00 0.9325
514.10 0.932
514.20 0.9314
514.30 0.9309
514.40 0.9303
514.50 0.9298
514.60 0.9293
514.70 0.9287
514.80 0.9282
514.90 0.9276
515.00 0.9271
515.10 0.9265
515.20 0.926
515.30 0.9254
515.40 0.9249
515.50 0.9243
515.60 0.9238
515.70 0.9233
515.80 0.9227
515.90 0.9222
516.00 0.9216
516.10 0.9211
516.20 0.9205
516.30 0.92
516.40 0.9195
516.50 0.9189
516.60 0.9184
516.70 0.9178
516.80 0.9173
516.90 0.9167
517.00 0.9162
517.10 0.9157
517.20 0.9151
517.30 0.9146
517.40 0.914
517.50 0.9135
517.60 0.9129
517.70 0.9124
517.80 0.9119
517.90 0.9113
518.00 0.9108
518.10 0.9102
518.20 0.9097
518.30 0.9092
518.40 0.9086
518.50 0.9081
518.60 0.9075
518.70 0.907
518.80 0.9065
518.90 0.9059
519.00 0.9054
519.10 0.9049
519.20 0.9043
519.30 0.9038
519.40 0.9032
519.50 0.9027
519.60 0.9022
519.70 0.9016
519.80 0.9011
519.90 0.9006
520.00 0.9
520.10 0.8995
520.20 0.899
520.30 0.8984
520.40 0.8979
520.50 0.8974
520.60 0.8968
520.70 0.8963
520.80 0.8957
520.90 0.8952
521.00 0.8947
521.10 0.8942
521.20 0.8936
521.30 0.8931
521.40 0.8926
521.50 0.892
521.60 0.8915
521.70 0.891
521.80 0.8904
521.90 0.8899
522.00 0.8894
522.10 0.8888
522.20 0.8883
522.30 0.8878
522.40 0.8872
522.50 0.8867
522.60 0.8862
522.70 0.8857
522.80 0.8851
522.90 0.8846
523.00 0.8841
523.10 0.8835
523.20 0.883
523.30 0.8825
523.40 0.882
523.50 0.8814
523.60 0.8809
523.70 0.8804
523.80 0.8799
523.90 0.8793
524.00 0.8788
524.10 0.8783
524.20 0.8778
524.30 0.8772
524.40 0.8767
524.50 0.8762
524.60 0.8757
524.70 0.8751
524.80 0.8746
524.90 0.8741
525.00 0.8736
525.10 0.8731
525.20 0.8725
525.30 0.872
525.40 0.8715
525.50 0.871
525.60 0.8705
525.70 0.8699
525.80 0.8694
525.90 0.8689
526.00 0.8684
526.10 0.8679
526.20 0.8673
526.30 0.8668
526.40 0.8663
526.50 0.8658
526.60 0.8653
526.70 0.8648
526.80 0.8643
526.90 0.8637
527.00 0.8632
527.10 0.8627
527.20 0.8622
527.30 0.8617
527.40 0.8612
527.50 0.8606
527.60 0.8601
527.70 0.8596
527.80 0.8591
527.90 0.8586
528.00 0.8581
528.10 0.8576
528.20 0.8571
528.30 0.8565
528.40 0.856
528.50 0.8555
528.60 0.855
528.70 0.8545
528.80 0.854
528.90 0.8535
529.00 0.853
529.10 0.8525
529.20 0.852
529.30 0.8515
529.40 0.8509
529.50 0.8504
529.60 0.8499
529.70 0.8494
529.80 0.8489
529.90 0.8484
530.00 0.8479
530.10 0.8474
530.20 0.8469
530.30 0.8464
530.40 0.8459
530.50 0.8454
530.60 0.8449
530.70 0.8444
530.80 0.8439
530.90 0.8434
531.00 0.8429
531.10 0.8424
531.20 0.8419
531.30 0.8414
531.40 0.8409
531.50 0.8404
531.60 0.8399
531.70 0.8394
531.80 0.8389
531.90 0.8384
532.00 0.8379
532.10 0.8374
532.20 0.8369
532.30 0.8364
532.40 0.8359
532.50 0.8354
532.60 0.8349
532.70 0.8344
532.80 0.8339
532.90 0.8334
533.00 0.8329
533.10 0.8324
533.20 0.8319
533.30 0.8314
533.40 0.8309
533.50 0.8304
533.60 0.8299
533.70 0.8294
533.80 0.8289
533.90 0.8285
534.00 0.828
534.10 0.8275
534.20 0.827
534.30 0.8265
534.40 0.826
534.50 0.8255
534.60 0.825
534.70 0.8245
534.80 0.824
534.90 0.8235
535.00 0.8231
535.10 0.8226
535.20 0.8221
535.30 0.8216
535.40 0.8211
535.50 0.8206
535.60 0.8201
535.70 0.8197
535.80 0.8192
535.90 0.8187
536.00 0.8182
536.10 0.8177
536.20 0.8172
536.30 0.8167
536.40 0.8163
536.50 0.8158
536.60 0.8153
536.70 0.8148
536.80 0.8143
536.90 0.8138
537.00 0.8134
537.10 0.8129
537.20 0.8124
537.30 0.8119
537.40 0.8114
537.50 0.811
537.60 0.8105
537.70 0.81
537.80 0.8095
537.90 0.809
538.00 0.8086
538.10 0.8081
538.20 0.8076
538.30 0.8071
538.40 0.8067
538.50 0.8062
538.60 0.8057
538.70 0.8052
538.80 0.8047
538.90 0.8043
539.00 0.8038
539.10 0.8033
539.20 0.8028
539.30 0.8024
539.40 0.8019
539.50 0.8014
539.60 0.801
539.70 0.8005
539.80 0.8
539.90 0.7995
540.00 0.7991
540.10 0.7986
540.20 0.7981
540.30 0.7977
540.40 0.7972
540.50 0.7967
540.60 0.7962
540.70 0.7958
540.80 0.7953
540.90 0.7948
541.00 0.7944
541.10 0.7939
541.20 0.7934
541.30 0.793
541.40 0.7925
541.50 0.792
541.60 0.7916
541.70 0.7911
541.80 0.7906
541.90 0.7902
542.00 0.7897
542.10 0.7892
542.20 0.7888
542.30 0.7883
542.40 0.7879
542.50 0.7874
542.60 0.7869
542.70 0.7865
542.80 0.786
542.90 0.7855
543.00 0.7851
543.10 0.7846
543.20 0.7842
543.30 0.7837
543.40 0.7832
543.50 0.7828
543.60 0.7823
543.70 0.7819
543.80 0.7814
543.90 0.7809
544.00 0.7805
544.10 0.78
544.20 0.7796
544.30 0.7791
544.40 0.7787
544.50 0.7782
544.60 0.7777
544.70 0.7773
544.80 0.7768
544.90 0.7764
545.00 0.7759
545.10 0.7755
545.20 0.775
545.30 0.7745
545.40 0.7741
545.50 0.7736
545.60 0.7732
545.70 0.7727
545.80 0.7723
545.90 0.7718
546.00 0.7714
546.10 0.7709
546.20 0.7705
546.30 0.7701
546.40 0.7697
546.50 0.7692
546.60 0.7688
546.70 0.7684
546.80 0.768
546.90 0.7675
547.00 0.7671
547.10 0.7667
547.20 0.7663
547.30 0.7658
547.40 0.7654
547.50 0.7649
547.60 0.7645
547.70 0.764
547.80 0.7636
547.90 0.7631
548.00 0.7627
548.10 0.7622
548.20 0.7618
548.30 0.7613
548.40 0.7609
548.50 0.7604
548.60 0.76
548.70 0.7596
548.80 0.7591
548.90 0.7587
549.00 0.7582
549.10 0.7578
549.20 0.7573
549.30 0.7569
549.40 0.7565
549.50 0.756
549.60 0.7556
549.70 0.7551
549.80 0.7547
549.90 0.7543
550.00 0.7538
550.10 0.7534
550.20 0.7529
550.30 0.7525
550.40 0.7521
550.50 0.7516
550.60 0.7512
550.70 0.7507
550.80 0.7503
550.90 0.7499
551.00 0.7494
551.10 0.749
551.20 0.7486
551.30 0.7481
551.40 0.7477
551.50 0.7472
551.60 0.7468
551.70 0.7464
551.80 0.7459
551.90 0.7455
552.00 0.7451
552.10 0.7446
552.20 0.7442
552.30 0.7438
552.40 0.7433
552.50 0.7429
552.60 0.7425
552.70 0.7421
552.80 0.7416
552.90 0.7412
553.00 0.7408
553.10 0.7403
553.20 0.7399
553.30 0.7395
553.40 0.739
553.50 0.7386
553.60 0.7382
553.70 0.7378
553.80 0.7373
553.90 0.7369
554.00 0.7365
554.10 0.736
554.20 0.7356
554.30 0.7352
554.40 0.7348
554.50 0.7343
554.60 0.7339
554.70 0.7335
554.80 0.7331
554.90 0.7326
555.00 0.7322
555.10 0.7318
555.20 0.7314
555.30 0.7309
555.40 0.7305
555.50 0.7301
555.60 0.7297
555.70 0.7293
555.80 0.7288
555.90 0.7284
556.00 0.728
556.10 0.7276
556.20 0.7271
556.30 0.7267
556.40 0.7263
556.50 0.7259
556.60 0.7255
556.70 0.725
556.80 0.7246
556.90 0.7242
557.00 0.7238
557.10 0.7234
557.20 0.723
557.30 0.7225
557.40 0.7221
557.50 0.7217
557.60 0.7213
557.70 0.7209
557.80 0.7205
557.90 0.72
558.00 0.7196
558.10 0.7192
558.20 0.7188
558.30 0.7184
558.40 0.718
558.50 0.7176
558.60 0.7171
558.70 0.7167
558.80 0.7163
558.90 0.7159
559.00 0.7155
559.10 0.7151
559.20 0.7147
559.30 0.7143
559.40 0.7139
559.50 0.7134
559.60 0.713
559.70 0.7126
559.80 0.7122
559.90 0.7118
560.00 0.7114
560.10 0.711
560.20 0.7106
560.30 0.7102
560.40 0.7098
560.50 0.7093
560.60 0.7089
560.70 0.7085
560.80 0.7081
560.90 0.7077
561.00 0.7073
561.10 0.7069
561.20 0.7065
561.30 0.7061
561.40 0.7057
561.50 0.7053
561.60 0.7049
561.70 0.7045
561.80 0.7041
561.90 0.7037
562.00 0.7033
562.10 0.7029
562.20 0.7025
562.30 0.7021
562.40 0.7017
562.50 0.7013
562.60 0.7009
562.70 0.7005
562.80 0.7001
562.90 0.6997
563.00 0.6993
563.10 0.6989
563.20 0.6985
563.30 0.6981
563.40 0.6977
563.50 0.6973
563.60 0.6969
563.70 0.6965
563.80 0.6961
563.90 0.6957
564.00 0.6953
564.10 0.6949
564.20 0.6945
564.30 0.6941
564.40 0.6937
564.50 0.6933
564.60 0.6929
564.70 0.6925
564.80 0.6921
564.90 0.6917
565.00 0.6913
565.10 0.6909
565.20 0.6905
565.30 0.6901
565.40 0.6897
565.50 0.6893
565.60 0.6889
565.70 0.6886
565.80 0.6882
565.90 0.6878
566.00 0.6874
566.10 0.687
566.20 0.6866
566.30 0.6862
566.40 0.6858
566.50 0.6854
566.60 0.685
566.70 0.6846
566.80 0.6843
566.90 0.6839
567.00 0.6835
567.10 0.6831
567.20 0.6827
567.30 0.6823
567.40 0.6819
567.50 0.6815
567.60 0.6812
567.70 0.6808
567.80 0.6804
567.90 0.68
568.00 0.6796
568.10 0.6792
568.20 0.6788
568.30 0.6785
568.40 0.6781
568.50 0.6777
568.60 0.6773
568.70 0.6769
568.80 0.6765
568.90 0.6761
569.00 0.6758
569.10 0.6754
569.20 0.675
569.30 0.6746
569.40 0.6742
569.50 0.6738
569.60 0.6735
569.70 0.6731
569.80 0.6727
569.90 0.6723
570.00 0.6719
570.10 0.6716
570.20 0.6712
570.30 0.6708
570.40 0.6704
570.50 0.67
570.60 0.6697
570.70 0.6693
570.80 0.6689
570.90 0.6685
571.00 0.6681
571.10 0.6678
571.20 0.6674
571.30 0.667
571.40 0.6666
571.50 0.6663
571.60 0.6659
571.70 0.6655
571.80 0.6651
571.90 0.6648
572.00 0.6644
572.10 0.664
572.20 0.6636
572.30 0.6633
572.40 0.6629
572.50 0.6625
572.60 0.6621
572.70 0.6618
572.80 0.6614
572.90 0.661
573.00 0.6606
573.10 0.6603
573.20 0.6599
573.30 0.6595
573.40 0.6592
573.50 0.6588
573.60 0.6584
573.70 0.658
573.80 0.6577
573.90 0.6573
574.00 0.6569
574.10 0.6566
574.20 0.6562
574.30 0.6558
574.40 0.6555
574.50 0.6551
574.60 0.6547
574.70 0.6544
574.80 0.654
574.90 0.6536
575.00 0.6533
575.10 0.6529
575.20 0.6525
575.30 0.6522
575.40 0.6518
575.50 0.6514
575.60 0.6511
575.70 0.6507
575.80 0.6503
575.90 0.65
576.00 0.6496
576.10 0.6492
576.20 0.6489
576.30 0.6485
576.40 0.6481
576.50 0.6478
576.60 0.6474
576.70 0.647
576.80 0.6467
576.90 0.6463
577.00 0.646
577.10 0.6456
577.20 0.6452
577.30 0.6449
577.40 0.6445
577.50 0.6442
577.60 0.6438
577.70 0.6434
577.80 0.6431
577.90 0.6427
578.00 0.6424
578.10 0.642
578.20 0.6416
578.30 0.6413
578.40 0.6409
578.50 0.6406
578.60 0.6402
578.70 0.6398
578.80 0.6395
578.90 0.6391
579.00 0.6388
579.10 0.6384
579.20 0.6381
579.30 0.6377
579.40 0.6373
579.50 0.637
579.60 0.6366
579.70 0.6363
579.80 0.6359
579.90 0.6356
580.00 0.6352
580.10 0.6349
580.20 0.6345
580.30 0.6341
580.40 0.6338
580.50 0.6334
580.60 0.6331
580.70 0.6327
580.80 0.6324
580.90 0.632
581.00 0.6317
581.10 0.6313
581.20 0.631
581.30 0.6306
581.40 0.6303
581.50 0.6299
581.60 0.6296
581.70 0.6292
581.80 0.6289
581.90 0.6285
582.00 0.6282
582.10 0.6278
582.20 0.6275
582.30 0.6271
582.40 0.6268
582.50 0.6264
582.60 0.6261
582.70 0.6257
582.80 0.6254
582.90 0.625
583.00 0.6247
583.10 0.6243
583.20 0.624
583.30 0.6237
583.40 0.6233
583.50 0.623
583.60 0.6226
583.70 0.6223
583.80 0.6219
583.90 0.6216
584.00 0.6212
584.10 0.6209
584.20 0.6205
584.30 0.6202
584.40 0.6199
584.50 0.6195
584.60 0.6192
584.70 0.6188
584.80 0.6185
584.90 0.6181
585.00 0.6178
585.10 0.6175
585.20 0.6171
585.30 0.6168
585.40 0.6164
585.50 0.6161
585.60 0.6158
585.70 0.6154
585.80 0.6151
585.90 0.6147
586.00 0.6144
586.10 0.6141
586.20 0.6137
586.30 0.6134
586.40 0.613
586.50 0.6127
586.60 0.6124
586.70 0.612
586.80 0.6117
586.90 0.6113
587.00 0.611
587.10 0.6107
587.20 0.6103
587.30 0.61
587.40 0.6097
587.50 0.6093
587.60 0.609
587.70 0.6087
587.80 0.6083
587.90 0.608
588.00 0.6076
588.10 0.6073
588.20 0.607
588.30 0.6066
588.40 0.6063
588.50 0.606
588.60 0.6056
588.70 0.6053
588.80 0.605
588.90 0.6046
589.00 0.6043
589.10 0.604
589.20 0.6036
589.30 0.6033
589.40 0.603
589.50 0.6026
589.60 0.6023
589.70 0.602
589.80 0.6016
589.90 0.6013
590.00 0.601
590.10 0.6007
590.20 0.6003
590.30 0.6
590.40 0.5997
590.50 0.5993
590.60 0.599
590.70 0.5987
590.80 0.5984
590.90 0.598
591.00 0.5977
591.10 0.5974
591.20 0.597
591.30 0.5967
591.40 0.5964
591.50 0.5961
591.60 0.5957
591.70 0.5954
591.80 0.5951
591.90 0.5948
592.00 0.5944
592.10 0.5941
592.20 0.5938
592.30 0.5935
592.40 0.5931
592.50 0.5928
592.60 0.5925
592.70 0.5922
592.80 0.5918
592.90 0.5915
593.00 0.5912
593.10 0.5909
593.20 0.5905
593.30 0.5902
593.40 0.5899
593.50 0.5896
593.60 0.5892
593.70 0.5889
593.80 0.5886
593.90 0.5883
594.00 0.5879
594.10 0.5876
594.20 0.5873
594.30 0.587
594.40 0.5867
594.50 0.5863
594.60 0.586
594.70 0.5857
594.80 0.5854
594.90 0.5851
595.00 0.5847
595.10 0.5844
595.20 0.5841
595.30 0.5838
595.40 0.5835
595.50 0.5832
595.60 0.5828
595.70 0.5825
595.80 0.5822
595.90 0.5819
596.00 0.5816
596.10 0.5813
596.20 0.5809
596.30 0.5805
596.40 0.5802
596.50 0.5798
596.60 0.5794
596.70 0.5791
596.80 0.5787
596.90 0.5783
597.00 0.578
597.10 0.5776
597.20 0.5773
597.30 0.5769
597.40 0.5766
597.50 0.5763
597.60 0.576
597.70 0.5757
597.80 0.5754
597.90 0.5751
598.00 0.5747
598.10 0.5744
598.20 0.5741
598.30 0.5738
598.40 0.5735
598.50 0.5732
598.60 0.5729
598.70 0.5725
598.80 0.5722
598.90 0.5719
599.00 0.5716
599.10 0.5713
599.20 0.571
599.30 0.5707
599.40 0.5704
599.50 0.57
599.60 0.5697
599.70 0.5694
599.80 0.5691
599.90 0.5688
600.00 0.5685
600.10 0.5682
600.20 0.5679
600.30 0.5676
600.40 0.5673
600.50 0.5669
600.60 0.5666
600.70 0.5663
600.80 0.566
600.90 0.5657
601.00 0.5654
601.10 0.5651
601.20 0.5648
601.30 0.5645
601.40 0.5642
601.50 0.5639
601.60 0.5636
601.70 0.5632
601.80 0.5629
601.90 0.5626
602.00 0.5623
602.10 0.562
602.20 0.5617
602.30 0.5614
602.40 0.5611
602.50 0.5608
602.60 0.5605
602.70 0.5602
602.80 0.5599
602.90 0.5596
603.00 0.5593
603.10 0.559
603.20 0.5587
603.30 0.5584
603.40 0.5581
603.50 0.5578
603.60 0.5575
603.70 0.5572
603.80 0.5569
603.90 0.5565
604.00 0.5562
604.10 0.5559
604.20 0.5556
604.30 0.5553
604.40 0.555
604.50 0.5547
604.60 0.5544
604.70 0.5541
604.80 0.5538
604.90 0.5535
605.00 0.5532
605.10 0.5529
605.20 0.5526
605.30 0.5523
605.40 0.552
605.50 0.5517
605.60 0.5514
605.70 0.5511
605.80 0.5508
605.90 0.5505
606.00 0.5502
606.10 0.5499
606.20 0.5496
606.30 0.5493
606.40 0.549
606.50 0.5487
606.60 0.5484
606.70 0.5482
606.80 0.5479
606.90 0.5476
607.00 0.5473
607.10 0.547
607.20 0.5467
607.30 0.5464
607.40 0.5461
607.50 0.5458
607.60 0.5455
607.70 0.5452
607.80 0.5449
607.90 0.5446
608.00 0.5443
608.10 0.544
608.20 0.5437
608.30 0.5434
608.40 0.5431
608.50 0.5428
608.60 0.5425
608.70 0.5422
608.80 0.542
608.90 0.5417
609.00 0.5414
609.10 0.5411
609.20 0.5408
609.30 0.5405
609.40 0.5402
609.50 0.5399
609.60 0.5396
609.70 0.5393
609.80 0.539
609.90 0.5387
610.00 0.5384
610.10 0.5382
610.20 0.5379
610.30 0.5376
610.40 0.5373
610.50 0.537
610.60 0.5367
610.70 0.5364
610.80 0.5361
610.90 0.5358
611.00 0.5355
611.10 0.5352
611.20 0.535
611.30 0.5347
611.40 0.5344
611.50 0.5341
611.60 0.5338
611.70 0.5335
611.80 0.5332
611.90 0.5329
612.00 0.5326
612.10 0.5324
612.20 0.5321
612.30 0.5318
612.40 0.5315
612.50 0.5312
612.60 0.5309
612.70 0.5306
612.80 0.5304
612.90 0.5301
613.00 0.5298
613.10 0.5295
613.20 0.5292
613.30 0.5289
613.40 0.5286
613.50 0.5283
613.60 0.5281
613.70 0.5278
613.80 0.5275
613.90 0.5272
614.00 0.5269
614.10 0.5266
614.20 0.5263
614.30 0.5261
614.40 0.5258
614.50 0.5255
614.60 0.5252
614.70 0.5249
614.80 0.5246
614.90 0.5244
615.00 0.5241
615.10 0.5238
615.20 0.5235
615.30 0.5232
615.40 0.5229
615.50 0.5227
615.60 0.5224
615.70 0.5221
615.80 0.5218
615.90 0.5215
616.00 0.5212
616.10 0.521
616.20 0.5207
616.30 0.5204
616.40 0.5201
616.50 0.5198
616.60 0.5196
616.70 0.5193
616.80 0.519
616.90 0.5187
617.00 0.5184
617.10 0.5182
617.20 0.5179
617.30 0.5176
617.40 0.5173
617.50 0.517
617.60 0.5168
617.70 0.5165
617.80 0.5162
617.90 0.5159
618.00 0.5156
618.10 0.5154
618.20 0.5151
618.30 0.5148
618.40 0.5145
618.50 0.5142
618.60 0.514
618.70 0.5137
618.80 0.5134
618.90 0.5131
619.00 0.5129
619.10 0.5126
619.20 0.5123
619.30 0.512
619.40 0.5117
619.50 0.5115
619.60 0.5112
619.70 0.5109
619.80 0.5106
619.90 0.5104
620.00 0.5101
620.10 0.5098
620.20 0.5095
620.30 0.5092
620.40 0.509
620.50 0.5087
620.60 0.5084
620.70 0.5081
620.80 0.5079
620.90 0.5076
621.00 0.5073
621.10 0.507
621.20 0.5068
621.30 0.5065
621.40 0.5062
621.50 0.5059
621.60 0.5057
621.70 0.5054
621.80 0.5051
621.90 0.5048
622.00 0.5046
622.10 0.5043
622.20 0.504
622.30 0.5037
622.40 0.5035
622.50 0.5032
622.60 0.5029
622.70 0.5026
622.80 0.5024
622.90 0.5021
623.00 0.5018
623.10 0.5015
623.20 0.5013
623.30 0.501
623.40 0.5007
623.50 0.5004
623.60 0.5002
623.70 0.4999
623.80 0.4996
623.90 0.4993
624.00 0.4991
624.10 0.4988
624.20 0.4985
624.30 0.4983
624.40 0.498
624.50 0.4977
624.60 0.4974
624.70 0.4972
624.80 0.4969
624.90 0.4966
625.00 0.4963
625.10 0.4961
625.20 0.4958
625.30 0.4955
625.40 0.4953
625.50 0.495
625.60 0.4947
625.70 0.4944
625.80 0.4942
625.90 0.4939
626.00 0.4936
626.10 0.4934
626.20 0.4931
626.30 0.4928
626.40 0.4925
626.50 0.4923
626.60 0.492
626.70 0.4917
626.80 0.4915
626.90 0.4912
627.00 0.4909
627.10 0.4906
627.20 0.4904
627.30 0.4901
627.40 0.4898
627.50 0.4896
627.60 0.4893
627.70 0.489
627.80 0.4887
627.90 0.4885
628.00 0.4882
628.10 0.4879
628.20 0.4877
628.30 0.4874
628.40 0.4871
628.50 0.4868
628.60 0.4866
628.70 0.4863
628.80 0.486
628.90 0.4858
629.00 0.4855
629.10 0.4852
629.20 0.4849
629.30 0.4847
629.40 0.4844
629.50 0.4841
629.60 0.4839
629.70 0.4836
629.80 0.4833
629.90 0.483
630.00 0.4828
630.10 0.4825
630.20 0.4822
630.30 0.482
630.40 0.4817
630.50 0.4814
630.60 0.4811
630.70 0.4809
630.80 0.4806
630.90 0.4803
631.00 0.48
631.10 0.4798
631.20 0.4795
631.30 0.4792
631.40 0.4789
631.50 0.4787
631.60 0.4784
631.70 0.4781
631.80 0.4779
631.90 0.4776
632.00 0.4773
632.10 0.477
632.20 0.4768
632.30 0.4765
632.40 0.4762
632.50 0.4759
632.60 0.4757
632.70 0.4754
632.80 0.4751
632.90 0.4748
633.00 0.4745
633.10 0.4743
633.20 0.474
633.30 0.4737
633.40 0.4734
633.50 0.4732
633.60 0.4729
633.70 0.4726
633.80 0.4723
633.90 0.472
634.00 0.4718
634.10 0.4715
634.20 0.4712
634.30 0.4709
634.40 0.4707
634.50 0.4704
634.60 0.4701
634.70 0.4698
634.80 0.4695
634.90 0.4692
635.00 0.469
635.10 0.4687
635.20 0.4684
635.30 0.4681
635.40 0.4678
635.50 0.4675
635.60 0.4672
635.70 0.467
635.80 0.4667
635.90 0.4664
636.00 0.4661
636.10 0.4658
636.20 0.4655
636.30 0.4652
636.40 0.4649
636.50 0.4647
636.60 0.4644
636.70 0.4641
636.80 0.4638
636.90 0.4635
637.00 0.4632
637.10 0.4629
637.20 0.4626
637.30 0.4623
637.40 0.462
637.50 0.4617
637.60 0.4614
637.70 0.4611
637.80 0.4608
637.90 0.4605
638.00 0.4602
638.10 0.4599
638.20 0.4596
638.30 0.4593
638.40 0.459
638.50 0.4587
638.60 0.4584
638.70 0.4581
638.80 0.4578
638.90 0.4574
639.00 0.4571
639.10 0.4568
639.20 0.4565
639.30 0.4562
639.40 0.4559
639.50 0.4556
639.60 0.4552
639.70 0.4549
639.80 0.4546
639.90 0.4543
640.00 0.4539
640.10 0.4536
640.20 0.4533
640.30 0.453
640.40 0.4526
640.50 0.4523
640.60 0.452
640.70 0.4516
640.80 0.4513
640.90 0.4509
641.00 0.4506
641.10 0.4503
641.20 0.4499
641.30 0.4496
641.40 0.4492
641.50 0.4489
641.60 0.4485
641.70 0.4482
641.80 0.4478
641.90 0.4474
642.00 0.4471
642.10 0.4467
642.20 0.4464
642.30 0.446
642.40 0.4456
642.50 0.4452
642.60 0.4449
642.70 0.4445
642.80 0.4441
642.90 0.4437
643.00 0.4433
643.10 0.4429
643.20 0.4426
643.30 0.4422
643.40 0.4417
643.50 0.4413
643.60 0.4409
643.70 0.4405
643.80 0.4401
643.90 0.4396
644.00 0.4392
644.10 0.4388
644.20 0.4384
644.30 0.438
644.40 0.4375
644.50 0.437
644.60 0.4366
644.70 0.4361
644.80 0.4356
644.90 0.4352
645.00 0.4347
645.10 0.4342
645.20 0.4338
645.30 0.4333
645.40 0.4328
645.50 0.4322
645.60 0.4317
645.70 0.4312
645.80 0.4307
645.90 0.4301
646.00 0.4296
646.10 0.4291
646.20 0.4286
646.30 0.428
646.40 0.4274
646.50 0.4268
646.60 0.4262
646.70 0.4256
646.80 0.425
646.90 0.4244
647.00 0.4238
647.10 0.4232
647.20 0.4226
647.30 0.422
647.40 0.4212
647.50 0.4205
647.60 0.4198
647.70 0.4191
647.80 0.4184
647.90 0.4177
648.00 0.417
648.10 0.4162
648.20 0.4155
648.30 0.4148
648.40 0.4139
648.50 0.4131
648.60 0.4122
648.70 0.4113
648.80 0.4105
648.90 0.4096
649.00 0.4088
649.10 0.4079
649.20 0.407
649.30 0.4061
649.40 0.4051
649.50 0.404
649.60 0.403
649.70 0.4019
649.80 0.4009
649.90 0.3998
650.00 0.3988
650.10 0.3977
650.20 0.3967
650.30 0.3956
650.40 0.3943
650.50 0.393
650.60 0.3917
650.70 0.3904
650.80 0.389
650.90 0.3877
651.00 0.3864
651.10 0.3851
651.20 0.3838
651.30 0.3825
651.40 0.3808
651.50 0.3791
651.60 0.3775
651.70 0.3758
651.80 0.3742
651.90 0.3725
652.00 0.3709
652.10 0.3692
652.20 0.3676
652.30 0.3658
652.40 0.3637
652.50 0.3616
652.60 0.3595
652.70 0.3574
652.80 0.3553
652.90 0.3532
653.00 0.3511
653.10 0.3491
653.20 0.347
653.30 0.3448
653.40 0.3421
653.50 0.3395
653.60 0.3368
653.70 0.3342
653.80 0.3315
653.90 0.3289
654.00 0.3262
654.10 0.3236
654.20 0.3209
654.30 0.3182
654.40 0.315
654.50 0.3119
654.60 0.3088
654.70 0.3056
654.80 0.3024
654.90 0.2987
655.00 0.295
655.10 0.2914
655.20 0.2877
655.30 0.284
655.40 0.2799
655.50 0.2758
655.60 0.2713
655.70 0.2666
655.80 0.2613
655.90 0.2555
656.00 0.2477
656.10 0.2391
656.20 0.2096
656.30 0.1826
656.40 0.2281
656.50 0.2424
656.60 0.2501
656.70 0.2572
656.80 0.2623
656.90 0.2673
657.00 0.2715
657.10 0.2757
657.20 0.2795
657.30 0.2832
657.40 0.2866
657.50 0.29
657.60 0.2934
657.70 0.2968
657.80 0.3001
657.90 0.303
658.00 0.3058
658.10 0.3087
658.20 0.3115
658.30 0.3142
658.40 0.3166
658.50 0.3189
658.60 0.3212
658.70 0.3235
658.80 0.3258
658.90 0.3281
659.00 0.3304
659.10 0.3327
659.20 0.335
659.30 0.3372
659.40 0.3389
659.50 0.3406
659.60 0.3424
659.70 0.3441
659.80 0.3458
659.90 0.3475
660.00 0.3492
660.10 0.3509
660.20 0.3526
660.30 0.3542
660.40 0.3555
660.50 0.3567
660.60 0.358
660.70 0.3592
660.80 0.3605
660.90 0.3617
661.00 0.3629
661.10 0.3642
661.20 0.3654
661.30 0.3666
661.40 0.3674
661.50 0.3683
661.60 0.3692
661.70 0.3701
661.80 0.3709
661.90 0.3718
662.00 0.3727
662.10 0.3735
662.20 0.3744
662.30 0.3752
662.40 0.3758
662.50 0.3764
662.60 0.377
662.70 0.3776
662.80 0.3783
662.90 0.3789
663.00 0.3795
663.10 0.3801
663.20 0.3807
663.30 0.3812
663.40 0.3816
663.50 0.382
663.60 0.3824
663.70 0.3828
663.80 0.3833
663.90 0.3837
664.00 0.3841
664.10 0.3845
664.20 0.3849
664.30 0.3852
664.40 0.3855
664.50 0.3858
664.60 0.386
664.70 0.3863
664.80 0.3865
664.90 0.3868
665.00 0.387
665.10 0.3873
665.20 0.3876
665.30 0.3878
665.40 0.3879
665.50 0.3881
665.60 0.3882
665.70 0.3884
665.80 0.3885
665.90 0.3887
666.00 0.3888
666.10 0.389
666.20 0.3891
666.30 0.3893
666.40 0.3893
666.50 0.3894
666.60 0.3895
666.70 0.3895
666.80 0.3896
666.90 0.3897
667.00 0.3897
667.10 0.3898
667.20 0.3899
667.30 0.3899
667.40 0.3899
667.50 0.39
667.60 0.39
667.70 0.39
667.80 0.39
667.90 0.39
668.00 0.39
668.10 0.39
668.20 0.39
668.30 0.39
668.40 0.39
668.50 0.39
668.60 0.3899
668.70 0.3899
668.80 0.3899
668.90 0.3898
669.00 0.3898
669.10 0.3898
669.20 0.3897
669.30 0.3897
669.40 0.3896
669.50 0.3896
669.60 0.3895
669.70 0.3894
669.80 0.3894
669.90 0.3893
670.00 0.3892
670.10 0.3892
670.20 0.3891
670.30 0.389
670.40 0.389
670.50 0.3889
670.60 0.3888
670.70 0.3887
670.80 0.3886
670.90 0.3885
671.00 0.3884
671.10 0.3883
671.20 0.3882
671.30 0.3881
671.40 0.388
671.50 0.3879
671.60 0.3878
671.70 0.3877
671.80 0.3876
671.90 0.3875
672.00 0.3874
672.10 0.3873
672.20 0.3872
672.30 0.387
672.40 0.3869
672.50 0.3868
672.60 0.3867
672.70 0.3866
672.80 0.3864
672.90 0.3863
673.00 0.3862
673.10 0.3861
673.20 0.3859
673.30 0.3858
673.40 0.3857
673.50 0.3855
673.60 0.3854
673.70 0.3853
673.80 0.3851
673.90 0.385
674.00 0.3849
674.10 0.3847
674.20 0.3846
674.30 0.3845
674.40 0.3843
674.50 0.3842
674.60 0.384
674.70 0.3839
674.80 0.3838
674.90 0.3836
675.00 0.3835
675.10 0.3833
675.20 0.3832
675.30 0.3831
675.40 0.3829
675.50 0.3828
675.60 0.3826
675.70 0.3825
675.80 0.3823
675.90 0.3822
676.00 0.382
676.10 0.3819
676.20 0.3817
676.30 0.3816
676.40 0.3814
676.50 0.3813
676.60 0.3811
676.70 0.3809
676.80 0.3808
676.90 0.3806
677.00 0.3805
677.10 0.3803
677.20 0.3802
677.30 0.38
677.40 0.3799
677.50 0.3797
677.60 0.3795
677.70 0.3794
677.80 0.3792
677.90 0.3791
678.00 0.3789
678.10 0.3788
678.20 0.3786
678.30 0.3784
678.40 0.3783
678.50 0.3781
678.60 0.378
678.70 0.3778
678.80 0.3776
678.90 0.3775
679.00 0.3773
679.10 0.3771
679.20 0.377
679.30 0.3768
679.40 0.3767
679.50 0.3765
679.60 0.3763
679.70 0.3762
679.80 0.376
679.90 0.3758
680.00 0.3757
680.10 0.3755
680.20 0.3754
680.30 0.3752
680.40 0.375
680.50 0.3749
680.60 0.3747
680.70 0.3745
680.80 0.3744
680.90 0.3742
681.00 0.374
681.10 0.3739
681.20 0.3737
681.30 0.3735
681.40 0.3734
681.50 0.3732
681.60 0.373
681.70 0.3729
681.80 0.3727
681.90 0.3725
682.00 0.3724
682.10 0.3722
682.20 0.372
682.30 0.3719
682.40 0.3717
682.50 0.3715
682.60 0.3714
682.70 0.3712
682.80 0.371
682.90 0.3709
683.00 0.3707
683.10 0.3705
683.20 0.3704
683.30 0.3702
683.40 0.37
683.50 0.3699
683.60 0.3697
683.70 0.3695
683.80 0.3694
683.90 0.3692
684.00 0.369
684.10 0.3689
684.20 0.3687
684.30 0.3685
684.40 0.3684
684.50 0.3682
684.60 0.368
684.70 0.3679
684.80 0.3677
684.90 0.3675
685.00 0.3673
685.10 0.3672
685.20 0.367
685.30 0.3668
685.40 0.3667
685.50 0.3665
685.60 0.3663
685.70 0.3662
685.80 0.366
685.90 0.3658
686.00 0.3657
686.10 0.3655
686.20 0.3653
686.30 0.3652
686.40 0.365
686.50 0.3648
686.60 0.3647
686.70 0.3645
686.80 0.3643
686.90 0.3642
687.00 0.364
687.10 0.3638
687.20 0.3637
687.30 0.3635
687.40 0.3633
687.50 0.3632
687.60 0.363
687.70 0.3628
687.80 0.3626
687.90 0.3625
688.00 0.3623
688.10 0.3621
688.20 0.362
688.30 0.3618
688.40 0.3616
688.50 0.3615
688.60 0.3613
688.70 0.3611
688.80 0.361
688.90 0.3608
689.00 0.3606
689.10 0.3605
689.20 0.3603
689.30 0.3601
689.40 0.36
689.50 0.3598
689.60 0.3596
689.70 0.3595
689.80 0.3593
689.90 0.3591
690.00 0.359
690.10 0.3588
690.20 0.3586
690.30 0.3585
690.40 0.3583
690.50 0.3581
690.60 0.358
690.70 0.3578
690.80 0.3576
690.90 0.3574
691.00 0.3573
691.10 0.3571
691.20 0.3569
691.30 0.3568
691.40 0.3566
691.50 0.3564
691.60 0.3563
691.70 0.3561
691.80 0.3559
691.90 0.3558
692.00 0.3556
692.10 0.3554
692.20 0.3553
692.30 0.3551
692.40 0.3549
692.50 0.3548
692.60 0.3546
692.70 0.3544
692.80 0.3543
692.90 0.3541
693.00 0.354
693.10 0.3538
693.20 0.3536
693.30 0.3535
693.40 0.3533
693.50 0.3531
693.60 0.353
693.70 0.3528
693.80 0.3526
693.90 0.3525
694.00 0.3523
694.10 0.3521
694.20 0.352
694.30 0.3518
694.40 0.3516
694.50 0.3515
694.60 0.3513
694.70 0.3511
694.80 0.351
694.90 0.3508
695.00 0.3507
695.10 0.3505
695.20 0.3503
695.30 0.3502
695.40 0.35
695.50 0.3498
695.60 0.3497
695.70 0.3495
695.80 0.3493
695.90 0.3492
696.00 0.349
696.10 0.3489
696.20 0.3487
696.30 0.3485
696.40 0.3484
696.50 0.3482
696.60 0.348
696.70 0.3479
696.80 0.3477
696.90 0.3476
697.00 0.3474
697.10 0.3472
697.20 0.3471
697.30 0.3469
697.40 0.3467
697.50 0.3466
697.60 0.3464
697.70 0.3463
697.80 0.3461
697.90 0.3459
698.00 0.3458
698.10 0.3456
698.20 0.3454
698.30 0.3453
698.40 0.3451
698.50 0.345
698.60 0.3448
698.70 0.3446
698.80 0.3445
698.90 0.3443
699.00 0.3442
699.10 0.344
699.20 0.3438
699.30 0.3437
699.40 0.3435
699.50 0.3434
699.60 0.3432
699.70 0.343
699.80 0.3429
699.90 0.3427
700.00 0.3426
700.10 0.3424
700.20 0.3423
700.30 0.3421
700.40 0.342
700.50 0.3418
700.60 0.3417
700.70 0.3415
700.80 0.3414
700.90 0.3413
701.00 0.3411
701.10 0.341
701.20 0.3408
701.30 0.3407
701.40 0.3405
701.50 0.3404
701.60 0.3402
701.70 0.3401
701.80 0.34
701.90 0.3398
702.00 0.3397
702.10 0.3395
702.20 0.3394
702.30 0.3392
702.40 0.3391
702.50 0.3389
702.60 0.3388
702.70 0.3387
702.80 0.3385
702.90 0.3384
703.00 0.3382
703.10 0.3381
703.20 0.3379
703.30 0.3378
703.40 0.3377
703.50 0.3375
703.60 0.3374
703.70 0.3372
703.80 0.3371
703.90 0.3369
704.00 0.3368
704.10 0.3367
704.20 0.3365
704.30 0.3364
704.40 0.3362
704.50 0.3361
704.60 0.336
704.70 0.3358
704.80 0.3357
704.90 0.3355
705.00 0.3354
705.10 0.3352
705.20 0.3351
705.30 0.3349
705.40 0.3348
705.50 0.3346
705.60 0.3344
705.70 0.3343
705.80 0.3341
705.90 0.334
706.00 0.3338
706.10 0.3337
706.20 0.3335
706.30 0.3334
706.40 0.3332
706.50 0.333
706.60 0.3329
706.70 0.3327
706.80 0.3326
706.90 0.3324
707.00 0.3323
707.10 0.3321
707.20 0.332
707.30 0.3318
707.40 0.3316
707.50 0.3315
707.60 0.3313
707.70 0.3312
707.80 0.331
707.90 0.3309
708.00 0.3307
708.10 0.3306
708.20 0.3304
708.30 0.3302
708.40 0.3301
708.50 0.3299
708.60 0.3298
708.70 0.3296
708.80 0.3295
708.90 0.3293
709.00 0.3292
709.10 0.329
709.20 0.3289
709.30 0.3287
709.40 0.3286
709.50 0.3284
709.60 0.3282
709.70 0.3281
709.80 0.3279
709.90 0.3278
710.00 0.3276
710.10 0.3275
710.20 0.3273
710.30 0.3272
710.40 0.327
710.50 0.3269
710.60 0.3267
710.70 0.3266
710.80 0.3264
710.90 0.3263
711.00 0.3261
711.10 0.326
711.20 0.3258
711.30 0.3257
711.40 0.3255
711.50 0.3254
711.60 0.3252
711.70 0.325
711.80 0.3249
711.90 0.3247
712.00 0.3246
712.10 0.3244
712.20 0.3243
712.30 0.3241
712.40 0.324
712.50 0.3238
712.60 0.3237
712.70 0.3235
712.80 0.3234
712.90 0.3232
713.00 0.3231
713.10 0.3229
713.20 0.3228
713.30 0.3226
713.40 0.3225
713.50 0.3223
713.60 0.3222
713.70 0.322
713.80 0.3219
713.90 0.3217
714.00 0.3216
714.10 0.3214
714.20 0.3213
714.30 0.3211
714.40 0.321
714.50 0.3208
714.60 0.3207
714.70 0.3205
714.80 0.3204
714.90 0.3202
715.00 0.3201
715.10 0.3199
715.20 0.3198
715.30 0.3197
715.40 0.3195
715.50 0.3194
715.60 0.3192
715.70 0.3191
715.80 0.3189
715.90 0.3188
716.00 0.3186
716.10 0.3185
716.20 0.3183
716.30 0.3182
716.40 0.318
716.50 0.3179
716.60 0.3178
716.70 0.3176
716.80 0.3175
716.90 0.3173
717.00 0.3172
717.10 0.317
717.20 0.3169
717.30 0.3167
717.40 0.3166
717.50 0.3165
717.60 0.3163
717.70 0.3162
717.80 0.316
717.90 0.3159
718.00 0.3157
718.10 0.3156
718.20 0.3154
718.30 0.3153
718.40 0.3152
718.50 0.315
718.60 0.3149
718.70 0.3147
718.80 0.3146
718.90 0.3144
719.00 0.3143
719.10 0.3141
719.20 0.314
719.30 0.3139
719.40 0.3137
719.50 0.3136
719.60 0.3134
719.70 0.3133
719.80 0.3131
719.90 0.313
720.00 0.3129
720.10 0.3127
720.20 0.3126
720.30 0.3124
720.40 0.3123
720.50 0.3121
720.60 0.312
720.70 0.3118
720.80 0.3117
720.90 0.3116
721.00 0.3114
721.10 0.3113
721.20 0.3111
721.30 0.311
721.40 0.3108
721.50 0.3107
721.60 0.3105
721.70 0.3104
721.80 0.3103
721.90 0.3101
722.00 0.31
722.10 0.3098
722.20 0.3097
722.30 0.3095
722.40 0.3094
722.50 0.3093
722.60 0.3091
722.70 0.309
722.80 0.3088
722.90 0.3087
723.00 0.3085
723.10 0.3084
723.20 0.3083
723.30 0.3081
723.40 0.308
723.50 0.3078
723.60 0.3077
723.70 0.3075
723.80 0.3074
723.90 0.3073
724.00 0.3071
724.10 0.307
724.20 0.3068
724.30 0.3067
724.40 0.3065
724.50 0.3064
724.60 0.3063
724.70 0.3061
724.80 0.306
724.90 0.3058
725.00 0.3057
725.10 0.3056
725.20 0.3054
725.30 0.3053
725.40 0.3051
725.50 0.305
725.60 0.3049
725.70 0.3047
725.80 0.3046
725.90 0.3044
726.00 0.3043
726.10 0.3042
726.20 0.304
726.30 0.3039
726.40 0.3037
726.50 0.3036
726.60 0.3035
726.70 0.3033
726.80 0.3032
726.90 0.303
727.00 0.3029
727.10 0.3028
727.20 0.3026
727.30 0.3025
727.40 0.3023
727.50 0.3022
727.60 0.3021
727.70 0.3019
727.80 0.3018
727.90 0.3016
728.00 0.3015
728.10 0.3014
728.20 0.3012
728.30 0.3011
728.40 0.301
728.50 0.3008
728.60 0.3007
728.70 0.3005
728.80 0.3004
728.90 0.3003
729.00 0.3001
729.10 0.3
729.20 0.2999
729.30 0.2997
729.40 0.2996
729.50 0.2994
729.60 0.2993
729.70 0.2992
729.80 0.299
729.90 0.2989
730.00 0.2988
730.10 0.2986
730.20 0.2985
730.30 0.2983
730.40 0.2982
730.50 0.2981
730.60 0.2979
730.70 0.2978
730.80 0.2977
730.90 0.2975
731.00 0.2974
731.10 0.2973
731.20 0.2971
731.30 0.297
731.40 0.2968
731.50 0.2967
731.60 0.2966
731.70 0.2964
731.80 0.2963
731.90 0.2962
732.00 0.296
732.10 0.2959
732.20 0.2958
732.30 0.2956
732.40 0.2955
732.50 0.2954
732.60 0.2952
732.70 0.2951
732.80 0.295
732.90 0.2948
733.00 0.2947
733.10 0.2946
733.20 0.2944
733.30 0.2943
733.40 0.2942
733.50 0.294
733.60 0.2939
733.70 0.2938
733.80 0.2936
733.90 0.2935
734.00 0.2934
734.10 0.2932
734.20 0.2931
734.30 0.293
734.40 0.2928
734.50 0.2927
734.60 0.2926
734.70 0.2924
734.80 0.2923
734.90 0.2922
735.00 0.292
735.10 0.2919
735.20 0.2918
735.30 0.2916
735.40 0.2915
735.50 0.2914
735.60 0.2912
735.70 0.2911
735.80 0.291
735.90 0.2908
736.00 0.2907
736.10 0.2906
736.20 0.2904
736.30 0.2903
736.40 0.2902
736.50 0.29
736.60 0.2899
736.70 0.2898
736.80 0.2896
736.90 0.2895
737.00 0.2894
737.10 0.2892
737.20 0.2891
737.30 0.289
737.40 0.2888
737.50 0.2887
737.60 0.2886
737.70 0.2884
737.80 0.2883
737.90 0.2882
738.00 0.2881
738.10 0.2879
738.20 0.2878
738.30 0.2877
738.40 0.2875
738.50 0.2874
738.60 0.2873
738.70 0.2871
738.80 0.287
738.90 0.2869
739.00 0.2867
739.10 0.2866
739.20 0.2865
739.30 0.2864
739.40 0.2862
739.50 0.2861
739.60 0.286
739.70 0.2858
739.80 0.2857
739.90 0.2856
740.00 0.2854
740.10 0.2853
740.20 0.2852
740.30 0.2851
740.40 0.2849
740.50 0.2848
740.60 0.2847
740.70 0.2845
740.80 0.2844
740.90 0.2843
741.00 0.2842
741.10 0.284
741.20 0.2839
741.30 0.2838
741.40 0.2836
741.50 0.2835
741.60 0.2834
741.70 0.2833
741.80 0.2831
741.90 0.283
742.00 0.2829
742.10 0.2828
742.20 0.2826
742.30 0.2825
742.40 0.2824
742.50 0.2822
742.60 0.2821
742.70 0.282
742.80 0.2819
742.90 0.2817
743.00 0.2816
743.10 0.2815
743.20 0.2814
743.30 0.2812
743.40 0.2811
743.50 0.281
743.60 0.2808
743.70 0.2807
743.80 0.2806
743.90 0.2805
744.00 0.2803
744.10 0.2802
744.20 0.2801
744.30 0.28
744.40 0.2798
744.50 0.2797
744.60 0.2796
744.70 0.2795
744.80 0.2793
744.90 0.2792
745.00 0.2791
745.10 0.279
745.20 0.2788
745.30 0.2787
745.40 0.2786
745.50 0.2785
745.60 0.2783
745.70 0.2782
745.80 0.2781
745.90 0.278
746.00 0.2778
746.10 0.2777
746.20 0.2776
746.30 0.2775
746.40 0.2773
746.50 0.2772
746.60 0.2771
746.70 0.277
746.80 0.2768
746.90 0.2767
747.00 0.2766
747.10 0.2765
747.20 0.2763
747.30 0.2762
747.40 0.2761
747.50 0.276
747.60 0.2758
747.70 0.2757
747.80 0.2756
747.90 0.2755
748.00 0.2753
748.10 0.2752
748.20 0.2751
748.30 0.275
748.40 0.2748
748.50 0.2747
748.60 0.2746
748.70 0.2745
748.80 0.2743
748.90 0.2742
749.00 0.2741
749.10 0.274
749.20 0.2739
749.30 0.2737
749.40 0.2736
749.50 0.2735
749.60 0.2734
749.70 0.2732
749.80 0.2731
749.90 0.273
750.00 0.2729
750.10 0.2727
750.20 0.2726
750.30 0.2725
750.40 0.2724
750.50 0.2723
750.60 0.2721
750.70 0.272
750.80 0.2719
750.90 0.2718
751.00 0.2717
751.10 0.2715
751.20 0.2714
751.30 0.2713
751.40 0.2712
751.50 0.2711
751.60 0.2709
751.70 0.2708
751.80 0.2707
751.90 0.2706
752.00 0.2704
752.10 0.2703
752.20 0.2702
752.30 0.2701
752.40 0.27
752.50 0.2698
752.60 0.2697
752.70 0.2696
752.80 0.2695
752.90 0.2694
753.00 0.2692
753.10 0.2691
753.20 0.269
753.30 0.2689
753.40 0.2688
753.50 0.2686
753.60 0.2685
753.70 0.2684
753.80 0.2683
753.90 0.2682
754.00 0.2681
754.10 0.2679
754.20 0.2678
754.30 0.2677
754.40 0.2676
754.50 0.2675
754.60 0.2673
754.70 0.2672
754.80 0.2671
754.90 0.267
755.00 0.2669
755.10 0.2667
755.20 0.2666
755.30 0.2665
755.40 0.2664
755.50 0.2663
755.60 0.2661
755.70 0.266
755.80 0.2659
755.90 0.2658
756.00 0.2657
756.10 0.2656
756.20 0.2654
756.30 0.2653
756.40 0.2652
756.50 0.2651
756.60 0.265
756.70 0.2648
756.80 0.2647
756.90 0.2646
757.00 0.2645
757.10 0.2644
757.20 0.2643
757.30 0.2641
757.40 0.264
757.50 0.2639
757.60 0.2638
757.70 0.2637
757.80 0.2636
757.90 0.2634
758.00 0.2633
758.10 0.2632
758.20 0.2631
758.30 0.263
758.40 0.2629
758.50 0.2627
758.60 0.2626
758.70 0.2625
758.80 0.2624
758.90 0.2623
759.00 0.2622
759.10 0.262
759.20 0.2619
759.30 0.2618
759.40 0.2617
759.50 0.2616
759.60 0.2615
759.70 0.2613
759.80 0.2612
759.90 0.2611
760.00 0.261
760.10 0.2609
760.20 0.2608
760.30 0.2606
760.40 0.2605
760.50 0.2604
760.60 0.2603
760.70 0.2602
760.80 0.2601
760.90 0.26
761.00 0.2598
761.10 0.2597
761.20 0.2596
761.30 0.2595
761.40 0.2594
761.50 0.2593
761.60 0.2592
761.70 0.259
761.80 0.2589
761.90 0.2588
762.00 0.2587
762.10 0.2586
762.20 0.2585
762.30 0.2584
762.40 0.2582
762.50 0.2581
762.60 0.258
762.70 0.2579
762.80 0.2578
762.90 0.2577
763.00 0.2576
763.10 0.2574
763.20 0.2573
763.30 0.2572
763.40 0.2571
763.50 0.257
763.60 0.2569
763.70 0.2568
763.80 0.2567
763.90 0.2565
764.00 0.2564
764.10 0.2563
764.20 0.2562
764.30 0.2561
764.40 0.256
764.50 0.2559
764.60 0.2558
764.70 0.2556
764.80 0.2555
764.90 0.2554
765.00 0.2553
765.10 0.2552
765.20 0.2551
765.30 0.255
765.40 0.2549
765.50 0.2547
765.60 0.2546
765.70 0.2545
765.80 0.2544
765.90 0.2543
766.00 0.2542
766.10 0.2541
766.20 0.254
766.30 0.2538
766.40 0.2537
766.50 0.2536
766.60 0.2535
766.70 0.2534
766.80 0.2533
766.90 0.2532
767.00 0.2531
767.10 0.253
767.20 0.2528
767.30 0.2527
767.40 0.2526
767.50 0.2525
767.60 0.2524
767.70 0.2523
767.80 0.2522
767.90 0.2521
768.00 0.252
768.10 0.2518
768.20 0.2517
768.30 0.2516
768.40 0.2515
768.50 0.2514
768.60 0.2513
768.70 0.2512
768.80 0.2511
768.90 0.251
769.00 0.2508
769.10 0.2507
769.20 0.2506
769.30 0.2505
769.40 0.2504
769.50 0.2503
769.60 0.2502
769.70 0.2501
769.80 0.25
769.90 0.2499
770.00 0.2497
770.10 0.2496
770.20 0.2495
770.30 0.2494
770.40 0.2493
770.50 0.2492
770.60 0.2491
770.70 0.249
770.80 0.2489
770.90 0.2488
771.00 0.2487
771.10 0.2486
771.20 0.2484
771.30 0.2483
771.40 0.2482
771.50 0.2481
771.60 0.248
771.70 0.2479
771.80 0.2478
771.90 0.2477
772.00 0.2476
772.10 0.2475
772.20 0.2474
772.30 0.2473
772.40 0.2472
772.50 0.247
772.60 0.2469
772.70 0.2468
772.80 0.2467
772.90 0.2466
773.00 0.2465
773.10 0.2464
773.20 0.2463
773.30 0.2462
773.40 0.2461
773.50 0.246
773.60 0.2459
773.70 0.2458
773.80 0.2457
773.90 0.2455
774.00 0.2454
774.10 0.2453
774.20 0.2452
774.30 0.2451
774.40 0.245
774.50 0.2449
774.60 0.2448
774.70 0.2447
774.80 0.2446
774.90 0.2445
775.00 0.2444
775.10 0.2443
775.20 0.2442
775.30 0.2441
775.40 0.2439
775.50 0.2438
775.60 0.2437
775.70 0.2436
775.80 0.2435
775.90 0.2434
776.00 0.2433
776.10 0.2432
776.20 0.2431
776.30 0.243
776.40 0.2429
776.50 0.2428
776.60 0.2427
776.70 0.2426
776.80 0.2425
776.90 0.2424
777.00 0.2423
777.10 0.2421
777.20 0.242
777.30 0.2419
777.40 0.2418
777.50 0.2417
777.60 0.2416
777.70 0.2415
777.80 0.2414
777.90 0.2413
778.00 0.2412
778.10 0.2411
778.20 0.241
778.30 0.2409
778.40 0.2408
778.50 0.2407
778.60 0.2406
778.70 0.2405
778.80 0.2404
778.90 0.2403
779.00 0.2402
779.10 0.24
779.20 0.2399
779.30 0.2398
779.40 0.2397
779.50 0.2396
779.60 0.2395
779.70 0.2394
779.80 0.2393
779.90 0.2392
780.00 0.2391
780.10 0.239
780.20 0.2389
780.30 0.2388
780.40 0.2387
780.50 0.2386
780.60 0.2385
780.70 0.2384
780.80 0.2383
780.90 0.2382
781.00 0.2381
781.10 0.238
781.20 0.2379
781.30 0.2378
781.40 0.2377
781.50 0.2376
781.60 0.2375
781.70 0.2374
781.80 0.2373
781.90 0.2372
782.00 0.2371
782.10 0.237
782.20 0.2369
782.30 0.2368
782.40 0.2367
782.50 0.2366
782.60 0.2365
782.70 0.2363
782.80 0.2362
782.90 0.2361
783.00 0.236
783.10 0.2359
783.20 0.2358
783.30 0.2357
783.40 0.2356
783.50 0.2355
783.60 0.2354
783.70 0.2353
783.80 0.2352
783.90 0.2351
784.00 0.235
784.10 0.2349
784.20 0.2348
784.30 0.2347
784.40 0.2346
784.50 0.2345
784.60 0.2344
784.70 0.2343
784.80 0.2342
784.90 0.2341
785.00 0.234
785.10 0.2339
785.20 0.2338
785.30 0.2337
785.40 0.2336
785.50 0.2335
785.60 0.2334
785.70 0.2333
785.80 0.2332
785.90 0.2331
786.00 0.233
786.10 0.2329
786.20 0.2328
786.30 0.2327
786.40 0.2326
786.50 0.2325
786.60 0.2324
786.70 0.2323
786.80 0.2322
786.90 0.2321
787.00 0.232
787.10 0.2319
787.20 0.2318
787.30 0.2317
787.40 0.2316
787.50 0.2315
787.60 0.2314
787.70 0.2313
787.80 0.2312
787.90 0.2311
788.00 0.231
788.10 0.2309
788.20 0.2308
788.30 0.2307
788.40 0.2306
788.50 0.2305
788.60 0.2304
788.70 0.2303
788.80 0.2302
788.90 0.2301
789.00 0.23
789.10 0.2299
789.20 0.2298
789.30 0.2297
789.40 0.2296
789.50 0.2295
789.60 0.2294
789.70 0.2293
789.80 0.2292
789.90 0.2291
790.00 0.229
790.10 0.2289
790.20 0.2288
790.30 0.2287
790.40 0.2287
790.50 0.2286
790.60 0.2285
790.70 0.2284
790.80 0.2283
790.90 0.2282
791.00 0.2281
791.10 0.228
791.20 0.2279
791.30 0.2278
791.40 0.2277
791.50 0.2276
791.60 0.2275
791.70 0.2274
791.80 0.2273
791.90 0.2272
792.00 0.2271
792.10 0.227
792.20 0.2269
792.30 0.2268
792.40 0.2267
792.50 0.2266
792.60 0.2265
792.70 0.2264
792.80 0.2263
792.90 0.2262
793.00 0.2261
793.10 0.226
793.20 0.2259
793.30 0.2258
793.40 0.2258
793.50 0.2257
793.60 0.2256
793.70 0.2255
793.80 0.2254
793.90 0.2253
794.00 0.2252
794.10 0.2251
794.20 0.225
794.30 0.2249
794.40 0.2248
794.50 0.2247
794.60 0.2246
794.70 0.2245
794.80 0.2244
794.90 0.2243
795.00 0.2242
795.10 0.2241
795.20 0.224
795.30 0.2239
795.40 0.2238
795.50 0.2237
795.60 0.2236
795.70 0.2236
795.80 0.2235
795.90 0.2234
796.00 0.2233
796.10 0.2232
796.20 0.2231
796.30 0.223
796.40 0.2229
796.50 0.2228
796.60 0.2227
796.70 0.2226
796.80 0.2225
796.90 0.2224
797.00 0.2223
797.10 0.2222
797.20 0.2221
797.30 0.222
797.40 0.2219
797.50 0.2218
797.60 0.2218
797.70 0.2217
797.80 0.2216
797.90 0.2215
798.00 0.2214
798.10 0.2213
798.20 0.2212
798.30 0.2211
798.40 0.221
798.50 0.2209
798.60 0.2208
798.70 0.2207
798.80 0.2206
798.90 0.2205
799.00 0.2204
799.10 0.2203
799.20 0.2202
799.30 0.2202
799.40 0.2201
799.50 0.22
799.60 0.2199
799.70 0.2198
799.80 0.2197
799.90 0.2196
800.00 0.2195
800.10 0.2194
800.20 0.2193
800.30 0.2192
800.40 0.2191
800.50 0.219
800.60 0.2189
800.70 0.2189
800.80 0.2188
800.90 0.2187
801.00 0.2186
801.10 0.2185
801.20 0.2184
801.30 0.2183
801.40 0.2182
801.50 0.2181
801.60 0.218
801.70 0.2179
801.80 0.2178
801.90 0.2177
802.00 0.2177
802.10 0.2176
802.20 0.2175
802.30 0.2174
802.40 0.2173
802.50 0.2172
802.60 0.2171
802.70 0.217
802.80 0.2169
802.90 0.2168
803.00 0.2167
803.10 0.2167
803.20 0.2166
803.30 0.2165
803.40 0.2164
803.50 0.2163
803.60 0.2162
803.70 0.2161
803.80 0.216
803.90 0.2159
804.00 0.2158
804.10 0.2157
804.20 0.2157
804.30 0.2156
804.40 0.2155
804.50 0.2154
804.60 0.2153
804.70 0.2152
804.80 0.2151
804.90 0.215
805.00 0.2149
805.10 0.2148
805.20 0.2147
805.30 0.2147
805.40 0.2146
805.50 0.2145
805.60 0.2144
805.70 0.2143
805.80 0.2142
805.90 0.2141
806.00 0.214
806.10 0.2139
806.20 0.2138
806.30 0.2138
806.40 0.2137
806.50 0.2136
806.60 0.2135
806.70 0.2134
806.80 0.2133
806.90 0.2132
807.00 0.2131
807.10 0.213
807.20 0.2129
807.30 0.2129
807.40 0.2128
807.50 0.2127
807.60 0.2126
807.70 0.2125
807.80 0.2124
807.90 0.2123
808.00 0.2122
808.10 0.2121
808.20 0.212
808.30 0.212
808.40 0.2119
808.50 0.2118
808.60 0.2117
808.70 0.2116
808.80 0.2115
808.90 0.2114
809.00 0.2113
809.10 0.2112
809.20 0.2112
809.30 0.2111
809.40 0.211
809.50 0.2109
809.60 0.2108
809.70 0.2107
809.80 0.2106
809.90 0.2105
810.00 0.2104
810.10 0.2104
810.20 0.2103
810.30 0.2102
810.40 0.2101
810.50 0.21
810.60 0.2099
810.70 0.2098
810.80 0.2097
810.90 0.2097
811.00 0.2096
811.10 0.2095
811.20 0.2094
811.30 0.2093
811.40 0.2092
811.50 0.2091
811.60 0.2091
811.70 0.209
811.80 0.2089
811.90 0.2088
812.00 0.2087
812.10 0.2086
812.20 0.2085
812.30 0.2084
812.40 0.2084
812.50 0.2083
812.60 0.2082
812.70 0.2081
812.80 0.208
812.90 0.2079
813.00 0.2078
813.10 0.2077
813.20 0.2077
813.30 0.2076
813.40 0.2075
813.50 0.2074
813.60 0.2073
813.70 0.2072
813.80 0.2071
813.90 0.2071
814.00 0.207
814.10 0.2069
814.20 0.2068
814.30 0.2067
814.40 0.2066
814.50 0.2065
814.60 0.2065
814.70 0.2064
814.80 0.2063
814.90 0.2062
815.00 0.2061
815.10 0.206
815.20 0.2059
815.30 0.2059
815.40 0.2058
815.50 0.2057
815.60 0.2056
815.70 0.2055
815.80 0.2054
815.90 0.2053
816.00 0.2053
816.10 0.2052
816.20 0.2051
816.30 0.205
816.40 0.2049
816.50 0.2048
816.60 0.2047
816.70 0.2047
816.80 0.2046
816.90 0.2045
817.00 0.2044
817.10 0.2043
817.20 0.2042
817.30 0.2041
817.40 0.2041
817.50 0.204
817.60 0.2039
817.70 0.2038
817.80 0.2037
817.90 0.2036
818.00 0.2036
818.10 0.2035
818.20 0.2034
818.30 0.2033
818.40 0.2032
818.50 0.2031
818.60 0.203
818.70 0.203
818.80 0.2029
818.90 0.2028
819.00 0.2027
819.10 0.2026
819.20 0.2025
819.30 0.2025
819.40 0.2024
819.50 0.2023
819.60 0.2022
819.70 0.2021
819.80 0.202
819.90 0.202
820.00 0.2019
820.10 0.2018
820.20 0.2017
820.30 0.2016
820.40 0.2015
820.50 0.2015
820.60 0.2014
820.70 0.2013
820.80 0.2012
820.90 0.2011
821.00 0.201
821.10 0.201
821.20 0.2009
821.30 0.2008
821.40 0.2007
821.50 0.2006
821.60 0.2005
821.70 0.2005
821.80 0.2004
821.90 0.2003
822.00 0.2002
822.10 0.2001
822.20 0.2
822.30 0.2
822.40 0.1999
822.50 0.1998
822.60 0.1997
822.70 0.1996
822.80 0.1995
822.90 0.1995
823.00 0.1994
823.10 0.1993
823.20 0.1992
823.30 0.1991
823.40 0.1991
823.50 0.199
823.60 0.1989
823.70 0.1988
823.80 0.1987
823.90 0.1986
824.00 0.1986
824.10 0.1985
824.20 0.1984
824.30 0.1983
824.40 0.1982
824.50 0.1982
824.60 0.1981
824.70 0.198
824.80 0.1979
824.90 0.1978
825.00 0.1977
825.10 0.1977
825.20 0.1976
825.30 0.1975
825.40 0.1974
825.50 0.1973
825.60 0.1973
825.70 0.1972
825.80 0.1971
825.90 0.197
826.00 0.1969
826.10 0.1968
826.20 0.1968
826.30 0.1967
826.40 0.1966
826.50 0.1965
826.60 0.1964
826.70 0.1964
826.80 0.1963
826.90 0.1962
827.00 0.1961
827.10 0.196
827.20 0.196
827.30 0.1959
827.40 0.1958
827.50 0.1957
827.60 0.1956
827.70 0.1956
827.80 0.1955
827.90 0.1954
828.00 0.1953
828.10 0.1952
828.20 0.1952
828.30 0.1951
828.40 0.195
828.50 0.1949
828.60 0.1948
828.70 0.1948
828.80 0.1947
828.90 0.1946
829.00 0.1945
829.10 0.1944
829.20 0.1944
829.30 0.1943
829.40 0.1942
829.50 0.1941
829.60 0.194
829.70 0.194
829.80 0.1939
829.90 0.1938
830.00 0.1937
830.10 0.1936
830.20 0.1936
830.30 0.1935
830.40 0.1934
830.50 0.1933
830.60 0.1932
830.70 0.1932
830.80 0.1931
830.90 0.193
831.00 0.1929
831.10 0.1929
831.20 0.1928
831.30 0.1927
831.40 0.1926
831.50 0.1925
831.60 0.1925
831.70 0.1924
831.80 0.1923
831.90 0.1922
832.00 0.1921
832.10 0.1921
832.20 0.192
832.30 0.1919
832.40 0.1918
832.50 0.1917
832.60 0.1917
832.70 0.1916
832.80 0.1915
832.90 0.1914
833.00 0.1914
833.10 0.1913
833.20 0.1912
833.30 0.1911
833.40 0.191
833.50 0.191
833.60 0.1909
833.70 0.1908
833.80 0.1907
833.90 0.1907
834.00 0.1906
834.10 0.1905
834.20 0.1904
834.30 0.1903
834.40 0.1903
834.50 0.1902
834.60 0.1901
834.70 0.19
834.80 0.19
834.90 0.1899
835.00 0.1898
835.10 0.1897
835.20 0.1896
835.30 0.1896
835.40 0.1895
835.50 0.1894
835.60 0.1893
835.70 0.1893
835.80 0.1892
835.90 0.1891
836.00 0.189
836.10 0.189
836.20 0.1889
836.30 0.1888
836.40 0.1887
836.50 0.1886
836.60 0.1886
836.70 0.1885
836.80 0.1884
836.90 0.1883
837.00 0.1883
837.10 0.1882
837.20 0.1881
837.30 0.188
837.40 0.188
837.50 0.1879
837.60 0.1878
837.70 0.1877
837.80 0.1877
837.90 0.1876
838.00 0.1875
838.10 0.1874
838.20 0.1873
838.30 0.1873
838.40 0.1872
838.50 0.1871
838.60 0.187
838.70 0.187
838.80 0.1869
838.90 0.1868
839.00 0.1867
839.10 0.1867
839.20 0.1866
839.30 0.1865
839.40 0.1864
839.50 0.1864
839.60 0.1863
839.70 0.1862
839.80 0.1861
839.90 0.1861
840.00 0.186
840.10 0.1859
840.20 0.1858
840.30 0.1858
840.40 0.1857
840.50 0.1856
840.60 0.1855
840.70 0.1855
840.80 0.1854
840.90 0.1853
841.00 0.1852
841.10 0.1851
841.20 0.1851
841.30 0.185
841.40 0.1849
841.50 0.1848
841.60 0.1848
841.70 0.1847
841.80 0.1846
841.90 0.1845
842.00 0.1845
842.10 0.1844
842.20 0.1843
842.30 0.1842
842.40 0.1842
842.50 0.1841
842.60 0.184
842.70 0.1839
842.80 0.1839
842.90 0.1838
843.00 0.1837
843.10 0.1836
843.20 0.1836
843.30 0.1835
843.40 0.1834
843.50 0.1833
843.60 0.1833
843.70 0.1832
843.80 0.1831
843.90 0.183
844.00 0.183
844.10 0.1829
844.20 0.1828
844.30 0.1827
844.40 0.1827
844.50 0.1826
844.60 0.1825
844.70 0.1824
844.80 0.1824
844.90 0.1823
845.00 0.1822
845.10 0.1821
845.20 0.1821
845.30 0.182
845.40 0.1819
845.50 0.1818
845.60 0.1818
845.70 0.1817
845.80 0.1816
845.90 0.1816
846.00 0.1815
846.10 0.1814
846.20 0.1813
846.30 0.1813
846.40 0.1812
846.50 0.1811
846.60 0.181
846.70 0.181
846.80 0.1809
846.90 0.1808
847.00 0.1807
847.10 0.1807
847.20 0.1806
847.30 0.1806
847.40 0.1806
847.50 0.1805
847.60 0.1805
847.70 0.1804
847.80 0.1804
847.90 0.1803
848.00 0.1803
848.10 0.1802
848.20 0.1802
848.30 0.1802
848.40 0.1801
848.50 0.1801
848.60 0.18
848.70 0.18
848.80 0.1799
848.90 0.1799
849.00 0.1798
849.10 0.1798
849.20 0.1798
849.30 0.1797
849.40 0.1797
849.50 0.1796
849.60 0.1796
849.70 0.1795
849.80 0.1795
849.90 0.1794
850.00 0.1794
850.10 0.1794
850.20 0.1793
850.30 0.1793
850.40 0.1792
850.50 0.1792
850.60 0.1791
850.70 0.1791
850.80 0.1791
850.90 0.179
851.00 0.179
851.10 0.1789
851.20 0.1789
851.30 0.1788
851.40 0.1788
851.50 0.1787
851.60 0.1787
851.70 0.1787
851.80 0.1786
851.90 0.1786
852.00 0.1785
852.10 0.1785
852.20 0.1784
852.30 0.1784
852.40 0.1783
852.50 0.1783
852.60 0.1782
852.70 0.1782
852.80 0.1781
852.90 0.1781
853.00 0.178
853.10 0.178
853.20 0.1779
853.30 0.1779
853.40 0.1778
853.50 0.1778
853.60 0.1777
853.70 0.1777
853.80 0.1776
853.90 0.1776
854.00 0.1775
854.10 0.1775
854.20 0.1774
854.30 0.1774
854.40 0.1773
854.50 0.1773
854.60 0.1772
854.70 0.1772
854.80 0.1771
854.90 0.1771
855.00 0.177
855.10 0.177
855.20 0.1769
855.30 0.1769
855.40 0.1768
855.50 0.1768
855.60 0.1767
855.70 0.1767
855.80 0.1766
855.90 0.1766
856.00 0.1765
856.10 0.1765
856.20 0.1764
856.30 0.1764
856.40 0.1763
856.50 0.1763
856.60 0.1762
856.70 0.1762
856.80 0.1761
856.90 0.1761
857.00 0.176
857.10 0.176
857.20 0.1759
857.30 0.1759
857.40 0.1759
857.50 0.1758
857.60 0.1758
857.70 0.1757
857.80 0.1757
857.90 0.1756
858.00 0.1756
858.10 0.1755
858.20 0.1755
858.30 0.1755
858.40 0.1754
858.50 0.1754
858.60 0.1753
858.70 0.1753
858.80 0.1752
858.90 0.1752
859.00 0.1751
859.10 0.1751
859.20 0.1751
859.30 0.175
859.40 0.175
859.50 0.1749
859.60 0.1749
859.70 0.1748
859.80 0.1748
859.90 0.1747
860.00 0.1747
860.10 0.1747
860.20 0.1746
860.30 0.1746
860.40 0.1745
860.50 0.1745
860.60 0.1744
860.70 0.1744
860.80 0.1743
860.90 0.1743
861.00 0.1743
861.10 0.1742
861.20 0.1742
861.30 0.1741
861.40 0.1741
861.50 0.174
861.60 0.174
861.70 0.174
861.80 0.1739
861.90 0.1739
862.00 0.1738
862.10 0.1737
862.20 0.1737
862.30 0.1736
862.40 0.1735
862.50 0.1734
862.60 0.1734
862.70 0.1733
862.80 0.1732
862.90 0.1731
863.00 0.1731
863.10 0.173
863.20 0.1729
863.30 0.1728
863.40 0.1728
863.50 0.1727
863.60 0.1726
863.70 0.1725
863.80 0.1725
863.90 0.1724
864.00 0.1723
864.10 0.1722
864.20 0.1722
864.30 0.1721
864.40 0.172
864.50 0.1719
864.60 0.1719
864.70 0.1718
864.80 0.1717
864.90 0.1716
865.00 0.1716
865.10 0.1715
865.20 0.1714
865.30 0.1713
865.40 0.1713
865.50 0.1712
865.60 0.1711
865.70 0.171
865.80 0.171
865.90 0.1709
866.00 0.1708
866.10 0.1707
866.20 0.1707
866.30 0.1706
866.40 0.1705
866.50 0.1704
866.60 0.1704
866.70 0.1703
866.80 0.1702
866.90 0.1701
867.00 0.1701
867.10 0.1701
867.20 0.1701
867.30 0.1701
867.40 0.17
867.50 0.17
867.60 0.17
867.70 0.17
867.80 0.17
867.90 0.17
868.00 0.17
868.10 0.17
868.20 0.17
868.30 0.17
868.40 0.17
868.50 0.17
868.60 0.17
868.70 0.17
868.80 0.17
868.90 0.17
869.00 0.17
869.10 0.17
869.20 0.17
869.30 0.17
869.40 0.17
869.50 0.17
869.60 0.17
869.70 0.17
869.80 0.17
869.90 0.17
870.00 0.17
870.10 0.17
870.20 0.17
870.30 0.17
870.40 0.17
870.50 0.17
870.60 0.17
870.70 0.17
870.80 0.17
870.90 0.17
871.00 0.17
871.10 0.17
871.20 0.17
871.30 0.17
871.40 0.17
871.50 0.17
871.60 0.17
871.70 0.17
871.80 0.17
871.90 0.17
872.00 0.17
872.10 0.1699
872.20 0.1698
872.30 0.1697
872.40 0.1696
872.50 0.1695
872.60 0.1694
872.70 0.1693
872.80 0.1692
872.90 0.1691
873.00 0.169
873.10 0.1689
873.20 0.1688
873.30 0.1687
873.40 0.1686
873.50 0.1685
873.60 0.1684
873.70 0.1683
873.80 0.1682
873.90 0.1681
874.00 0.168
874.10 0.1679
874.20 0.1678
874.30 0.1677
874.40 0.1676
874.50 0.1675
874.60 0.1674
874.70 0.1673
874.80 0.1672
874.90 0.1671
875.00 0.167
875.10 0.167
875.20 0.1669
875.30 0.1668
875.40 0.1667
875.50 0.1666
875.60 0.1665
875.70 0.1664
875.80 0.1663
875.90 0.1662
876.00 0.1661
876.10 0.166
876.20 0.1659
876.30 0.1658
876.40 0.1657
876.50 0.1656
876.60 0.1655
876.70 0.1654
876.80 0.1653
876.90 0.1652
877.00 0.1651
877.10 0.1651
877.20 0.1651
877.30 0.1651
877.40 0.1651
877.50 0.1651
877.60 0.1652
877.70 0.1652
877.80 0.1652
877.90 0.1652
878.00 0.1652
878.10 0.1652
878.20 0.1652
878.30 0.1652
878.40 0.1652
878.50 0.1652
878.60 0.1652
878.70 0.1652
878.80 0.1652
878.90 0.1652
879.00 0.1652
879.10 0.1652
879.20 0.1652
879.30 0.1652
879.40 0.1652
879.50 0.1653
879.60 0.1653
879.70 0.1653
879.80 0.1653
879.90 0.1653
880.00 0.1653
880.10 0.1653
880.20 0.1653
880.30 0.1653
880.40 0.1653
880.50 0.1653
880.60 0.1653
880.70 0.1653
880.80 0.1653
880.90 0.1653
881.00 0.1653
881.10 0.1653
881.20 0.1653
881.30 0.1653
881.40 0.1654
881.50 0.1654
881.60 0.1654
881.70 0.1654
881.80 0.1654
881.90 0.1654
882.00 0.1654
882.10 0.1651
882.20 0.1648
882.30 0.1644
882.40 0.1641
882.50 0.1638
882.60 0.1635
882.70 0.1632
882.80 0.1629
882.90 0.1626
883.00 0.1622
883.10 0.1619
883.20 0.1616
883.30 0.1613
883.40 0.161
883.50 0.1607
883.60 0.1604
883.70 0.16
883.80 0.1597
883.90 0.1594
884.00 0.1591
884.10 0.1588
884.20 0.1585
884.30 0.1582
884.40 0.1579
884.50 0.1576
884.60 0.1572
884.70 0.1569
884.80 0.1566
884.90 0.1563
885.00 0.156
885.10 0.1557
885.20 0.1554
885.30 0.1551
885.40 0.1548
885.50 0.1544
885.60 0.1541
885.70 0.1538
885.80 0.1535
885.90 0.1532
886.00 0.1529
886.10 0.1526
886.20 0.1523
886.30 0.152
886.40 0.1517
886.50 0.1514
886.60 0.151
886.70 0.1507
886.80 0.1504
886.90 0.1501
887.00 0.1498
887.10 0.15
887.20 0.1502
887.30 0.1505
887.40 0.1507
887.50 0.1509
887.60 0.1511
887.70 0.1513
887.80 0.1515
887.90 0.1518
888.00 0.152
888.10 0.1522
888.20 0.1524
888.30 0.1526
888.40 0.1528
888.50 0.1531
888.60 0.1533
888.70 0.1535
888.80 0.1537
888.90 0.1539
889.00 0.1541
889.10 0.1544
889.20 0.1546
889.30 0.1548
889.40 0.155
889.50 0.1552
889.60 0.1554
889.70 0.1557
889.80 0.1559
889.90 0.1561
890.00 0.1563
890.10 0.1565
890.20 0.1567
890.30 0.1569
890.40 0.1572
890.50 0.1574
890.60 0.1576
890.70 0.1578
890.80 0.158
890.90 0.1582
891.00 0.1584
891.10 0.1587
891.20 0.1589
891.30 0.1591
891.40 0.1593
891.50 0.1595
891.60 0.1597
891.70 0.1599
891.80 0.1601
891.90 0.1604
892.00 0.1606
892.10 0.1605
892.20 0.1604
892.30 0.1603
892.40 0.1601
892.50 0.16
892.60 0.1599
892.70 0.1598
892.80 0.1597
892.90 0.1596
893.00 0.1595
893.10 0.1594
893.20 0.1593
893.30 0.1592
893.40 0.1591
893.50 0.159
893.60 0.1589
893.70 0.1588
893.80 0.1587
893.90 0.1586
894.00 0.1585
894.10 0.1584
894.20 0.1583
894.30 0.1582
894.40 0.1581
894.50 0.1579
894.60 0.1578
894.70 0.1577
894.80 0.1576
894.90 0.1575
895.00 0.1574
895.10 0.1573
895.20 0.1572
895.30 0.1571
895.40 0.157
895.50 0.1569
895.60 0.1568
895.70 0.1567
895.80 0.1566
895.90 0.1565
896.00 0.1564
896.10 0.1563
896.20 0.1562
896.30 0.1561
896.40 0.156
896.50 0.1559
896.60 0.1558
896.70 0.1557
896.80 0.1556
896.90 0.1555
897.00 0.1554
897.10 0.1549
897.20 0.1544
897.30 0.1539
897.40 0.1534
897.50 0.1529
897.60 0.1524
897.70 0.1519
897.80 0.1514
897.90 0.1509
898.00 0.1504
898.10 0.1499
898.20 0.1494
898.30 0.1489
898.40 0.1484
898.50 0.148
898.60 0.1475
898.70 0.147
898.80 0.1465
898.90 0.146
899.00 0.1455
899.10 0.145
899.20 0.1445
899.30 0.144
899.40 0.1435
899.50 0.143
899.60 0.1426
899.70 0.1421
899.80 0.1416
899.90 0.1411
900.00 0.1406
900.10 0.1401
900.20 0.1396
900.30 0.1391
900.40 0.1386
900.50 0.1382
900.60 0.1377
900.70 0.1372
900.80 0.1367
900.90 0.1362
901.00 0.1357
901.10 0.1352
901.20 0.1348
901.30 0.1343
901.40 0.1338
901.50 0.1333
901.60 0.1328
901.70 0.1323
901.80 0.1318
901.90 0.1314
902.00 0.1309
902.10 0.1312
902.20 0.1315
902.30 0.1319
902.40 0.1322
902.50 0.1325
902.60 0.1329
902.70 0.1332
902.80 0.1335
902.90 0.1339
903.00 0.1342
903.10 0.1345
903.20 0.1349
903.30 0.1352
903.40 0.1355
903.50 0.1359
903.60 0.1362
903.70 0.1365
903.80 0.1368
903.90 0.1372
904.00 0.1375
904.10 0.1378
904.20 0.1382
904.30 0.1385
904.40 0.1388
904.50 0.1392
904.60 0.1395
904.70 0.1398
904.80 0.1401
904.90 0.1405
905.00 0.1408
905.10 0.1411
905.20 0.1415
905.30 0.1418
905.40 0.1421
905.50 0.1424
905.60 0.1428
905.70 0.1431
905.80 0.1434
905.90 0.1438
906.00 0.1441
906.10 0.1444
906.20 0.1447
906.30 0.1451
906.40 0.1454
906.50 0.1457
906.60 0.146
906.70 0.1464
906.80 0.1467
906.90 0.147
907.00 0.1473
907.10 0.1474
907.20 0.1475
907.30 0.1475
907.40 0.1476
907.50 0.1476
907.60 0.1477
907.70 0.1477
907.80 0.1478
907.90 0.1478
908.00 0.1479
908.10 0.1479
908.20 0.148
908.30 0.148
908.40 0.1481
908.50 0.1481
908.60 0.1482
908.70 0.1482
908.80 0.1483
908.90 0.1483
909.00 0.1484
909.10 0.1484
909.20 0.1485
909.30 0.1485
909.40 0.1486
909.50 0.1486
909.60 0.1487
909.70 0.1487
909.80 0.1488
909.90 0.1488
910.00 0.1489
910.10 0.1489
910.20 0.149
910.30 0.1491
910.40 0.1491
910.50 0.1492
910.60 0.1492
910.70 0.1493
910.80 0.1493
910.90 0.1494
911.00 0.1494
911.10 0.1495
911.20 0.1495
911.30 0.1496
911.40 0.1496
911.50 0.1497
911.60 0.1497
911.70 0.1498
911.80 0.1498
911.90 0.1499
912.00 0.1499
912.10 0.1497
912.20 0.1495
912.30 0.1493
912.40 0.1491
912.50 0.1489
912.60 0.1487
912.70 0.1485
912.80 0.1483
912.90 0.1481
913.00 0.1478
913.10 0.1476
913.20 0.1474
913.30 0.1472
913.40 0.147
913.50 0.1468
913.60 0.1466
913.70 0.1464
913.80 0.1462
913.90 0.146
914.00 0.1458
914.10 0.1456
914.20 0.1454
914.30 0.1452
914.40 0.145
914.50 0.1448
914.60 0.1445
914.70 0.1443
914.80 0.1441
914.90 0.1439
915.00 0.1437
915.10 0.1435
915.20 0.1433
915.30 0.1431
915.40 0.1429
915.50 0.1427
915.60 0.1425
915.70 0.1423
915.80 0.1421
915.90 0.1419
916.00 0.1417
916.10 0.1415
916.20 0.1413
916.30 0.1411
916.40 0.1409
916.50 0.1407
916.60 0.1405
916.70 0.1403
916.80 0.14
916.90 0.1398
917.00 0.1396
917.10 0.1391
917.20 0.1386
917.30 0.138
917.40 0.1375
917.50 0.1369
917.60 0.1364
917.70 0.1359
917.80 0.1353
917.90 0.1348
918.00 0.1343
918.10 0.1337
918.20 0.1332
918.30 0.1327
918.40 0.1321
918.50 0.1316
918.60 0.131
918.70 0.1305
918.80 0.13
918.90 0.1294
919.00 0.1289
919.10 0.1284
919.20 0.1278
919.30 0.1273
919.40 0.1268
919.50 0.1262
919.60 0.1257
919.70 0.1252
919.80 0.1246
919.90 0.1241
920.00 0.1236
920.10 0.123
920.20 0.1225
920.30 0.122
920.40 0.1214
920.50 0.1209
920.60 0.1204
920.70 0.1198
920.80 0.1193
920.90 0.1188
921.00 0.1183
921.10 0.1177
921.20 0.1172
921.30 0.1167
921.40 0.1161
921.50 0.1156
921.60 0.1151
921.70 0.1145
921.80 0.114
921.90 0.1135
922.00 0.113
922.10 0.1132
922.20 0.1135
922.30 0.1138
922.40 0.114
922.50 0.1143
922.60 0.1146
922.70 0.1149
922.80 0.1151
922.90 0.1154
923.00 0.1157
923.10 0.1159
923.20 0.1162
923.30 0.1165
923.40 0.1167
923.50 0.117
923.60 0.1173
923.70 0.1175
923.80 0.1178
923.90 0.1181
924.00 0.1184
924.10 0.1186
924.20 0.1189
924.30 0.1192
924.40 0.1194
924.50 0.1197
924.60 0.12
924.70 0.1202
924.80 0.1205
924.90 0.1208
925.00 0.121
925.10 0.1213
925.20 0.1216
925.30 0.1218
925.40 0.1221
925.50 0.1224
925.60 0.1226
925.70 0.1229
925.80 0.1232
925.90 0.1234
926.00 0.1237
926.10 0.124
926.20 0.1242
926.30 0.1245
926.40 0.1248
926.50 0.125
926.60 0.1253
926.70 0.1255
926.80 0.1258
926.90 0.1261
927.00 0.1263
927.10 0.1265
927.20 0.1267
927.30 0.1269
927.40 0.1271
927.50 0.1273
927.60 0.1275
927.70 0.1277
927.80 0.1279
927.90 0.1281
928.00 0.1283
928.10 0.1285
928.20 0.1287
928.30 0.1289
928.40 0.1291
928.50 0.1293
928.60 0.1295
928.70 0.1297
928.80 0.1299
928.90 0.1301
929.00 0.1303
929.10 0.1305
929.20 0.1307
929.30 0.1309
929.40 0.1311
929.50 0.1313
929.60 0.1315
929.70 0.1317
929.80 0.1319
929.90 0.1321
930.00 0.1322
930.10 0.1324
930.20 0.1326
930.30 0.1328
930.40 0.133
930.50 0.1332
930.60 0.1334
930.70 0.1336
930.80 0.1338
930.90 0.134
931.00 0.1342
931.10 0.1344
931.20 0.1346
931.30 0.1348
931.40 0.135
931.50 0.1352
931.60 0.1354
931.70 0.1356
931.80 0.1358
931.90 0.1359
932.00 0.1361
932.10 0.1362
932.20 0.1363
932.30 0.1363
932.40 0.1364
932.50 0.1364
932.60 0.1365
932.70 0.1366
932.80 0.1366
932.90 0.1367
933.00 0.1367
933.10 0.1368
933.20 0.1368
933.30 0.1369
933.40 0.137
933.50 0.137
933.60 0.1371
933.70 0.1371
933.80 0.1372
933.90 0.1373
934.00 0.1373
934.10 0.1374
934.20 0.1374
934.30 0.1375
934.40 0.1375
934.50 0.1375
934.60 0.1375
934.70 0.1375
934.80 0.1375
934.90 0.1375
935.00 0.1375
935.10 0.1375
935.20 0.1375
935.30 0.1375
935.40 0.1375
935.50 0.1375
935.60 0.1375
935.70 0.1375
935.80 0.1375
935.90 0.1375
936.00 0.1375
936.10 0.1375
936.20 0.1375
936.30 0.1375
936.40 0.1375
936.50 0.1375
936.60 0.1375
936.70 0.1375
936.80 0.1375
936.90 0.1375
937.00 0.1375
937.10 0.1375
937.20 0.1374
937.30 0.1374
937.40 0.1374
937.50 0.1373
937.60 0.1373
937.70 0.1373
937.80 0.1372
937.90 0.1372
938.00 0.1372
938.10 0.1371
938.20 0.1371
938.30 0.137
938.40 0.137
938.50 0.1369
938.60 0.1368
938.70 0.1368
938.80 0.1367
938.90 0.1367
939.00 0.1366
939.10 0.1365
939.20 0.1365
939.30 0.1364
939.40 0.1363
939.50 0.1363
939.60 0.1362
939.70 0.1361
939.80 0.1361
939.90 0.136
940.00 0.1359
940.10 0.1359
940.20 0.1358
940.30 0.1357
940.40 0.1356
940.50 0.1355
940.60 0.1354
940.70 0.1353
940.80 0.1352
940.90 0.1351
941.00 0.135
941.10 0.1349
941.20 0.1348
941.30 0.1347
941.40 0.1346
941.50 0.1345
941.60 0.1344
941.70 0.1343
941.80 0.1342
941.90 0.1341
942.00 0.134
942.10 0.1339
942.20 0.1338
942.30 0.1337
942.40 0.1335
942.50 0.1334
942.60 0.1332
942.70 0.1331
942.80 0.1329
942.90 0.1328
943.00 0.1326
943.10 0.1325
943.20 0.1323
943.30 0.1322
943.40 0.132
943.50 0.1319
943.60 0.1317
943.70 0.1316
943.80 0.1314
943.90 0.1313
944.00 0.1311
944.10 0.131
944.20 0.1308
944.30 0.1307
944.40 0.1305
944.50 0.1303
944.60 0.1301
944.70 0.1299
944.80 0.1297
944.90 0.1295
945.00 0.1293
945.10 0.1291
945.20 0.129
945.30 0.1288
945.40 0.1285
945.50 0.1283
945.60 0.1281
945.70 0.1278
945.80 0.1276
945.90 0.1273
946.00 0.1271
946.10 0.1269
946.20 0.1266
946.30 0.1264
946.40 0.1261
946.50 0.1259
946.60 0.1257
946.70 0.1254
946.80 0.1252
946.90 0.125
947.00 0.1247
947.10 0.1244
947.20 0.1242
947.30 0.1239
947.40 0.1236
947.50 0.1232
947.60 0.1229
947.70 0.1226
947.80 0.1222
947.90 0.1219
948.00 0.1216
948.10 0.1213
948.20 0.1209
948.30 0.1206
948.40 0.1203
948.50 0.1199
948.60 0.1196
948.70 0.1193
948.80 0.1189
948.90 0.1186
949.00 0.1183
949.10 0.118
949.20 0.1176
949.30 0.1173
949.40 0.1169
949.50 0.1164
949.60 0.116
949.70 0.1156
949.80 0.1151
949.90 0.1147
950.00 0.1143
950.10 0.1138
950.20 0.1134
950.30 0.113
950.40 0.1125
950.50 0.1121
950.60 0.1116
950.70 0.1112
950.80 0.1108
950.90 0.1103
951.00 0.1099
951.10 0.1095
951.20 0.1091
951.30 0.1086
951.40 0.1081
951.50 0.1076
951.60 0.1071
951.70 0.1066
951.80 0.1061
951.90 0.1056
952.00 0.1051
952.10 0.1045
952.20 0.104
952.30 0.1034
952.40 0.1029
952.50 0.1023
952.60 0.1018
952.70 0.1013
952.80 0.1007
952.90 0.1002
953.00 0.09961
953.10 0.09907
953.20 0.09852
953.30 0.09797
953.40 0.09743
953.50 0.09688
953.60 0.09643
953.70 0.09598
953.80 0.09552
953.90 0.09507
954.00 0.09495
954.10 0.09483
954.20 0.09539
954.30 0.097
954.40 0.09531
954.50 0.09471
954.60 0.09477
954.70 0.09484
954.80 0.09523
954.90 0.09562
955.00 0.09601
955.10 0.0964
955.20 0.09688
955.30 0.09735
955.40 0.09783
955.50 0.09831
955.60 0.09879
955.70 0.09926
955.80 0.09974
955.90 0.1002
956.00 0.1007
956.10 0.1011
956.20 0.1016
956.30 0.102
956.40 0.1025
956.50 0.1029
956.60 0.1034
956.70 0.1039
956.80 0.1043
956.90 0.1048
957.00 0.1052
957.10 0.1056
957.20 0.1061
957.30 0.1065
957.40 0.1068
957.50 0.1072
957.60 0.1075
957.70 0.1079
957.80 0.1082
957.90 0.1085
958.00 0.1089
958.10 0.1092
958.20 0.1096
958.30 0.1099
958.40 0.1103
958.50 0.1106
958.60 0.111
958.70 0.1113
958.80 0.1117
958.90 0.112
959.00 0.1123
959.10 0.1127
959.20 0.113
959.30 0.1134
959.40 0.1136
959.50 0.1138
959.60 0.1141
959.70 0.1143
959.80 0.1146
959.90 0.1148
960.00 0.115
960.10 0.1153
960.20 0.1155
960.30 0.1157
960.40 0.116
960.50 0.1162
960.60 0.1164
960.70 0.1167
960.80 0.1169
960.90 0.1171
961.00 0.1174
961.10 0.1176
961.20 0.1179
961.30 0.1181
961.40 0.1183
961.50 0.1184
961.60 0.1186
961.70 0.1188
961.80 0.119
961.90 0.1191
962.00 0.1193
962.10 0.1194
962.20 0.1196
962.30 0.1197
962.40 0.1199
962.50 0.12
962.60 0.1201
962.70 0.1203
962.80 0.1204
962.90 0.1206
963.00 0.1207
963.10 0.1208
963.20 0.121
963.30 0.1211
963.40 0.1212
963.50 0.1213
963.60 0.1214
963.70 0.1215
963.80 0.1216
963.90 0.1217
964.00 0.1218
964.10 0.1219
964.20 0.122
964.30 0.1221
964.40 0.1222
964.50 0.1223
964.60 0.1223
964.70 0.1224
964.80 0.1225
964.90 0.1225
965.00 0.1226
965.10 0.1227
965.20 0.1227
965.30 0.1228
965.40 0.1229
965.50 0.1229
965.60 0.123
965.70 0.1231
965.80 0.1231
965.90 0.1232
966.00 0.1233
966.10 0.1233
966.20 0.1234
966.30 0.1235
966.40 0.1235
966.50 0.1236
966.60 0.1236
966.70 0.1236
966.80 0.1237
966.90 0.1237
967.00 0.1238
967.10 0.1238
967.20 0.1238
967.30 0.1239
967.40 0.1239
967.50 0.1239
967.60 0.1239
967.70 0.124
967.80 0.124
967.90 0.124
968.00 0.124
968.10 0.1241
968.20 0.1241
968.30 0.1241
968.40 0.1241
968.50 0.1241
968.60 0.1241
968.70 0.1241
968.80 0.1242
968.90 0.1242
969.00 0.1242
969.10 0.1242
969.20 0.1242
969.30 0.1242
969.40 0.1242
969.50 0.1242
969.60 0.1242
969.70 0.1242
969.80 0.1242
969.90 0.1242
970.00 0.1242
970.10 0.1243
970.20 0.1243
970.30 0.1243
970.40 0.1243
970.50 0.1243
970.60 0.1242
970.70 0.1242
970.80 0.1242
970.90 0.1242
971.00 0.1242
971.10 0.1242
971.20 0.1242
971.30 0.1242
971.40 0.1242
971.50 0.1242
971.60 0.1242
971.70 0.1242
971.80 0.1241
971.90 0.1241
972.00 0.1241
972.10 0.1241
972.20 0.1241
972.30 0.1241
972.40 0.124
972.50 0.124
972.60 0.124
972.70 0.124
972.80 0.124
972.90 0.1239
973.00 0.1239
973.10 0.1239
973.20 0.1239
973.30 0.1239
973.40 0.1238
973.50 0.1238
973.60 0.1238
973.70 0.1238
973.80 0.1237
973.90 0.1237
974.00 0.1237
974.10 0.1237
974.20 0.1237
974.30 0.1236
974.40 0.1236
974.50 0.1236
974.60 0.1235
974.70 0.1235
974.80 0.1235
974.90 0.1235
975.00 0.1234
975.10 0.1234
975.20 0.1234
975.30 0.1233
975.40 0.1233
975.50 0.1233
975.60 0.1232
975.70 0.1232
975.80 0.1232
975.90 0.1231
976.00 0.1231
976.10 0.1231
976.20 0.123
976.30 0.123
976.40 0.123
976.50 0.1229
976.60 0.1229
976.70 0.1229
976.80 0.1229
976.90 0.1228
977.00 0.1228
977.10 0.1227
977.20 0.1227
977.30 0.1227
977.40 0.1226
977.50 0.1226
977.60 0.1225
977.70 0.1225
977.80 0.1224
977.90 0.1224
978.00 0.1223
978.10 0.1223
978.20 0.1223
978.30 0.1222
978.40 0.1222
978.50 0.1221
978.60 0.1221
978.70 0.122
978.80 0.122
978.90 0.1219
979.00 0.1219
979.10 0.1218
979.20 0.1218
979.30 0.1218
979.40 0.1217
979.50 0.1217
979.60 0.1216
979.70 0.1216
979.80 0.1215
979.90 0.1215
980.00 0.1214
980.10 0.1214
980.20 0.1214
980.30 0.1213
980.40 0.1213
980.50 0.1212
980.60 0.1212
980.70 0.1211
980.80 0.1211
980.90 0.121
981.00 0.121
981.10 0.121
981.20 0.1209
981.30 0.1209
981.40 0.1208
981.50 0.1208
981.60 0.1207
981.70 0.1207
981.80 0.1206
981.90 0.1206
982.00 0.1206
982.10 0.1205
982.20 0.1204
982.30 0.1204
982.40 0.1203
982.50 0.1203
982.60 0.1202
982.70 0.1202
982.80 0.1201
982.90 0.12
983.00 0.12
983.10 0.1199
983.20 0.1199
983.30 0.1198
983.40 0.1198
983.50 0.1197
983.60 0.1197
983.70 0.1196
983.80 0.1195
983.90 0.1195
984.00 0.1194
984.10 0.1194
984.20 0.1193
984.30 0.1193
984.40 0.1192
984.50 0.1191
984.60 0.1191
984.70 0.119
984.80 0.119
984.90 0.1189
985.00 0.1188
985.10 0.1187
985.20 0.1187
985.30 0.1186
985.40 0.1185
985.50 0.1185
985.60 0.1184
985.70 0.1183
985.80 0.1183
985.90 0.1182
986.00 0.1181
986.10 0.1181
986.20 0.118
986.30 0.1179
986.40 0.1178
986.50 0.1178
986.60 0.1177
986.70 0.1176
986.80 0.1176
986.90 0.1175
987.00 0.1174
987.10 0.1173
987.20 0.1173
987.30 0.1172
987.40 0.1171
987.50 0.117
987.60 0.1169
987.70 0.1169
987.80 0.1168
987.90 0.1167
988.00 0.1166
988.10 0.1165
988.20 0.1165
988.30 0.1164
988.40 0.1163
988.50 0.1162
988.60 0.1161
988.70 0.116
988.80 0.1159
988.90 0.1159
989.00 0.1158
989.10 0.1157
989.20 0.1156
989.30 0.1155
989.40 0.1154
989.50 0.1153
989.60 0.1152
989.70 0.1151
989.80 0.115
989.90 0.1149
990.00 0.1148
990.10 0.1147
990.20 0.1146
990.30 0.1145
990.40 0.1144
990.50 0.1144
990.60 0.1143
990.70 0.1141
990.80 0.114
990.90 0.1139
991.00 0.1138
991.10 0.1137
991.20 0.1136
991.30 0.1135
991.40 0.1133
991.50 0.1132
991.60 0.1131
991.70 0.113
991.80 0.1129
991.90 0.1128
992.00 0.1127
992.10 0.1125
992.20 0.1124
992.30 0.1123
992.40 0.1122
992.50 0.112
992.60 0.1119
992.70 0.1118
992.80 0.1116
992.90 0.1115
993.00 0.1113
993.10 0.1112
993.20 0.111
993.30 0.1109
993.40 0.1107
993.50 0.1106
993.60 0.1104
993.70 0.1103
993.80 0.1102
993.90 0.11
994.00 0.1099
994.10 0.1097
994.20 0.1096
994.30 0.1094
994.40 0.1093
994.50 0.1091
994.60 0.109
994.70 0.1088
994.80 0.1086
994.90 0.1085
995.00 0.1083
995.10 0.1081
995.20 0.1079
995.30 0.1077
995.40 0.1076
995.50 0.1074
995.60 0.1072
995.70 0.107
995.80 0.1068
995.90 0.1066
996.00 0.1064
996.10 0.1062
996.20 0.106
996.30 0.1058
996.40 0.1056
996.50 0.1054
996.60 0.1052
996.70 0.1049
996.80 0.1047
996.90 0.1045
997.00 0.1043
997.10 0.1041
997.20 0.1039
997.30 0.1036
997.40 0.1034
997.50 0.1031
997.60 0.1029
997.70 0.1026
997.80 0.1024
997.90 0.1021
998.00 0.1018
998.10 0.1015
998.20 0.1012
998.30 0.101
998.40 0.1007
998.50 0.1004
998.60 0.1001
998.70 0.09985
998.80 0.09957
998.90 0.0993
999.00 0.09902
999.10 0.09874
999.20 0.09846
999.30 0.09818
999.40 0.0979
999.50 0.09763
999.60 0.09735
999.70 0.09701
999.80 0.09665
999.90 0.09628
1000.00 0.09592
1000.10 0.09556
1000.20 0.0952
1000.30 0.09484
1000.40 0.09448
1000.50 0.09412
1000.60 0.09376
1000.70 0.0934
1000.80 0.09304
1000.90 0.09268
1001.00 0.09232
1001.10 0.09196
1001.20 0.0916
1001.30 0.09124
1001.40 0.09088
1001.50 0.09052
1001.60 0.09016
1001.70 0.08976
1001.80 0.08935
1001.90 0.08894
1002.00 0.08852
1002.10 0.08807
1002.20 0.08762
1002.30 0.08716
1002.40 0.08671
1002.50 0.08626
1002.60 0.08581
1002.70 0.08535
1002.80 0.0849
1002.90 0.08445
1003.00 0.084
1003.10 0.08355
1003.20 0.08305
1003.30 0.08253
1003.40 0.08201
1003.50 0.0815
1003.60 0.08098
1003.70 0.08046
1003.80 0.07995
1003.90 0.07937
1004.00 0.07878
1004.10 0.07819
1004.20 0.0776
1004.30 0.07697
1004.40 0.07633
1004.50 0.0758
1004.60 0.07623
1004.70 0.07569
1004.80 0.07596
1004.90 0.07654
1005.00 0.07713
1005.10 0.07768
1005.20 0.07823
1005.30 0.07877
1005.40 0.07931
1005.50 0.07979
1005.60 0.08025
1005.70 0.08071
1005.80 0.08117
1005.90 0.08163
1006.00 0.08209
1006.10 0.08255
1006.20 0.08297
1006.30 0.08337
1006.40 0.08376
1006.50 0.08416
1006.60 0.08456
1006.70 0.08496
1006.80 0.08536
1006.90 0.08575
1007.00 0.08615
1007.10 0.08651
1007.20 0.08686
1007.30 0.08721
1007.40 0.08757
1007.50 0.08792
1007.60 0.08828
1007.70 0.08858
1007.80 0.08887
1007.90 0.08916
1008.00 0.08945
1008.10 0.08974
1008.20 0.09003
1008.30 0.09032
1008.40 0.09061
1008.50 0.0909
1008.60 0.09119
1008.70 0.09148
1008.80 0.09177
1008.90 0.09205
1009.00 0.09234
1009.10 0.09263
1009.20 0.09292
1009.30 0.09321
1009.40 0.0935
1009.50 0.09378
1009.60 0.09407
1009.70 0.09429
1009.80 0.0945
1009.90 0.0947
1010.00 0.0949
1010.10 0.0951
1010.20 0.0953
1010.30 0.09551
1010.40 0.09571
1010.50 0.09591
1010.60 0.09611
1010.70 0.09631
1010.80 0.09651
1010.90 0.09671
1011.00 0.09691
1011.10 0.09712
1011.20 0.09732
1011.30 0.09752
1011.40 0.09772
1011.50 0.09792
1011.60 0.09812
1011.70 0.09829
1011.80 0.09845
1011.90 0.09862
1012.00 0.09878
1012.10 0.09891
1012.20 0.09904
1012.30 0.09917
1012.40 0.09929
1012.50 0.09942
1012.60 0.09955
1012.70 0.09968
1012.80 0.09981
1012.90 0.09994
1013.00 0.1001
1013.10 0.1002
1013.20 0.1003
1013.30 0.1005
1013.40 0.1006
1013.50 0.1007
1013.60 0.1008
1013.70 0.1009
1013.80 0.101
1013.90 0.1011
1014.00 0.1012
1014.10 0.1013
1014.20 0.1014
1014.30 0.1015
1014.40 0.1016
1014.50 0.1017
1014.60 0.1018
1014.70 0.1019
1014.80 0.102
1014.90 0.102
1015.00 0.1021
1015.10 0.1021
1015.20 0.1022
1015.30 0.1023
1015.40 0.1023
1015.50 0.1024
1015.60 0.1025
1015.70 0.1025
1015.80 0.1026
1015.90 0.1027
1016.00 0.1027
1016.10 0.1028
1016.20 0.1029
1016.30 0.1029
1016.40 0.103
1016.50 0.1031
1016.60 0.1031
1016.70 0.1032
1016.80 0.1032
1016.90 0.1033
1017.00 0.1033
1017.10 0.1034
1017.20 0.1034
1017.30 0.1034
1017.40 0.1035
1017.50 0.1035
1017.60 0.1035
1017.70 0.1036
1017.80 0.1036
1017.90 0.1036
1018.00 0.1037
1018.10 0.1037
1018.20 0.1037
1018.30 0.1038
1018.40 0.1038
1018.50 0.1038
1018.60 0.1039
1018.70 0.1039
1018.80 0.1039
1018.90 0.1039
1019.00 0.1039
1019.10 0.1039
1019.20 0.104
1019.30 0.104
1019.40 0.104
1019.50 0.104
1019.60 0.104
1019.70 0.104
1019.80 0.104
1019.90 0.1041
1020.00 0.1041
1020.10 0.1041
1020.20 0.1041
1020.30 0.1041
1020.40 0.1041
1020.50 0.1041
1020.60 0.1042
1020.70 0.1042
1020.80 0.1042
1020.90 0.1042
1021.00 0.1042
1021.10 0.1042
1021.20 0.1042
1021.30 0.1042
1021.40 0.1042
1021.50 0.1042
1021.60 0.1042
1021.70 0.1042
1021.80 0.1042
1021.90 0.1042
1022.00 0.1042
1022.10 0.1042
1022.20 0.1042
1022.30 0.1042
1022.40 0.1042
1022.50 0.1042
1022.60 0.1042
1022.70 0.1041
1022.80 0.1041
1022.90 0.1041
1023.00 0.1041
1023.10 0.1041
1023.20 0.1041
1023.30 0.1041
1023.40 0.1041
1023.50 0.1041
1023.60 0.1041
1023.70 0.1041
1023.80 0.104
1023.90 0.104
1024.00 0.104
1024.10 0.104
1024.20 0.104
1024.30 0.104
1024.40 0.104
1024.50 0.104
1024.60 0.104
1024.70 0.104
1024.80 0.1039
1024.90 0.1039
1025.00 0.1039
1025.10 0.1039
1025.20 0.1039
1025.30 0.1039
1025.40 0.1038
1025.50 0.1038
1025.60 0.1038
1025.70 0.1038
1025.80 0.1038
1025.90 0.1038
1026.00 0.1037
1026.10 0.1037
1026.20 0.1037
1026.30 0.1037
1026.40 0.1037
1026.50 0.1037
1026.60 0.1036
1026.70 0.1036
1026.80 0.1036
1026.90 0.1036
1027.00 0.1036
1027.10 0.1035
1027.20 0.1035
1027.30 0.1035
1027.40 0.1035
1027.50 0.1034
1027.60 0.1034
1027.70 0.1034
1027.80 0.1034
1027.90 0.1033
1028.00 0.1033
1028.10 0.1033
1028.20 0.1033
1028.30 0.1032
1028.40 0.1032
1028.50 0.1032
1028.60 0.1032
1028.70 0.1031
1028.80 0.1031
1028.90 0.1031
1029.00 0.1031
1029.10 0.103
1029.20 0.103
1029.30 0.103
1029.40 0.103
1029.50 0.1029
1029.60 0.1029
1029.70 0.1029
1029.80 0.1029
1029.90 0.1029
1030.00 0.1028
1030.10 0.1028
1030.20 0.1028
1030.30 0.1028
1030.40 0.1027
1030.50 0.1027
1030.60 0.1027
1030.70 0.1027
1030.80 0.1026
1030.90 0.1026
1031.00 0.1026
1031.10 0.1026
1031.20 0.1025
1031.30 0.1025
1031.40 0.1025
1031.50 0.1025
1031.60 0.1024
1031.70 0.1024
1031.80 0.1024
1031.90 0.1024
1032.00 0.1023
1032.10 0.1023
1032.20 0.1023
1032.30 0.1022
1032.40 0.1022
1032.50 0.1022
1032.60 0.1022
1032.70 0.1021
1032.80 0.1021
1032.90 0.1021
1033.00 0.102
1033.10 0.102
1033.20 0.102
1033.30 0.1019
1033.40 0.1019
1033.50 0.1019
1033.60 0.1018
1033.70 0.1018
1033.80 0.1018
1033.90 0.1018
1034.00 0.1017
1034.10 0.1017
1034.20 0.1017
1034.30 0.1016
1034.40 0.1016
1034.50 0.1016
1034.60 0.1015
1034.70 0.1015
1034.80 0.1015
1034.90 0.1015
1035.00 0.1014
1035.10 0.1014
1035.20 0.1014
1035.30 0.1013
1035.40 0.1013
1035.50 0.1013
1035.60 0.1012
1035.70 0.1012
1035.80 0.1012
1035.90 0.1012
1036.00 0.1011
1036.10 0.1011
1036.20 0.1011
1036.30 0.101
1036.40 0.101
1036.50 0.101
1036.60 0.1009
1036.70 0.1009
1036.80 0.1009
1036.90 0.1009
1037.00 0.1008
1037.10 0.1008
1037.20 0.1008
1037.30 0.1007
1037.40 0.1007
1037.50 0.1007
1037.60 0.1006
1037.70 0.1006
1037.80 0.1006
1037.90 0.1005
1038.00 0.1005
1038.10 0.1005
1038.20 0.1004
1038.30 0.1004
1038.40 0.1004
1038.50 0.1004
1038.60 0.1003
1038.70 0.1003
1038.80 0.1003
1038.90 0.1002
1039.00 0.1002
1039.10 0.1002
1039.20 0.1001
1039.30 0.1001
1039.40 0.1001
1039.50 0.1
1039.60 0.1
1039.70 0.09997
1039.80 0.09994
1039.90 0.0999
1040.00 0.09987
1040.10 0.09984
1040.20 0.09981
1040.30 0.09978
1040.40 0.09975
1040.50 0.09971
1040.60 0.09968
1040.70 0.09965
1040.80 0.09962
1040.90 0.09959
1041.00 0.09955
1041.10 0.09952
1041.20 0.09949
1041.30 0.09946
1041.40 0.09943
1041.50 0.0994
1041.60 0.09937
1041.70 0.09933
1041.80 0.0993
1041.90 0.09927
1042.00 0.09924
1042.10 0.09921
1042.20 0.09917
1042.30 0.09914
1042.40 0.09911
1042.50 0.09907
1042.60 0.09904
1042.70 0.09901
1042.80 0.09897
1042.90 0.09894
1043.00 0.09891
1043.10 0.09888
1043.20 0.09884
1043.30 0.09881
1043.40 0.09878
1043.50 0.09874
1043.60 0.09871
1043.70 0.09868
1043.80 0.09865
1043.90 0.09861
1044.00 0.09858
1044.10 0.09855
1044.20 0.09851
1044.30 0.09848
1044.40 0.09845
1044.50 0.09842
1044.60 0.09838
1044.70 0.09835
1044.80 0.09832
1044.90 0.09828
1045.00 0.09825
1045.10 0.09822
1045.20 0.09819
1045.30 0.09815
1045.40 0.09812
1045.50 0.09809
1045.60 0.09806
1045.70 0.09802
1045.80 0.09799
1045.90 0.09796
1046.00 0.09793
1046.10 0.09789
1046.20 0.09786
1046.30 0.09783
1046.40 0.09779
1046.50 0.09776
1046.60 0.09773
1046.70 0.0977
1046.80 0.09766
1046.90 0.09763
1047.00 0.0976
1047.10 0.09757
1047.20 0.09753
1047.30 0.0975
1047.40 0.09747
1047.50 0.09743
1047.60 0.0974
1047.70 0.09736
1047.80 0.09733
1047.90 0.0973
1048.00 0.09726
1048.10 0.09723
1048.20 0.0972
1048.30 0.09716
1048.40 0.09713
1048.50 0.0971
1048.60 0.09706
1048.70 0.09703
1048.80 0.097
1048.90 0.09696
1049.00 0.09693
1049.10 0.0969
1049.20 0.09686
1049.30 0.09683
1049.40 0.0968
1049.50 0.09676
1049.60 0.09673
1049.70 0.0967
1049.80 0.09666
1049.90 0.09663
1050.00 0.0966
1050.10 0.09656
1050.20 0.09653
1050.30 0.0965
1050.40 0.09646
1050.50 0.09643
1050.60 0.0964
1050.70 0.09637
1050.80 0.09633
1050.90 0.0963
1051.00 0.09627
1051.10 0.09623
1051.20 0.0962
1051.30 0.09617
1051.40 0.09613
1051.50 0.0961
1051.60 0.09607
1051.70 0.09603
1051.80 0.096
1051.90 0.09597
1052.00 0.09594
1052.10 0.0959
1052.20 0.09587
1052.30 0.09583
1052.40 0.0958
1052.50 0.09577
1052.60 0.09573
1052.70 0.0957
1052.80 0.09566
1052.90 0.09563
1053.00 0.0956
1053.10 0.09556
1053.20 0.09553
1053.30 0.0955
1053.40 0.09546
1053.50 0.09543
1053.60 0.09539
1053.70 0.09536
1053.80 0.09533
1053.90 0.09529
1054.00 0.09526
1054.10 0.09523
1054.20 0.09519
1054.30 0.09516
1054.40 0.09512
1054.50 0.09509
1054.60 0.09506
1054.70 0.09502
1054.80 0.09499
1054.90 0.09496
1055.00 0.09492
1055.10 0.09489
1055.20 0.09486
1055.30 0.09482
1055.40 0.09479
1055.50 0.09476
1055.60 0.09472
1055.70 0.09469
1055.80 0.09465
1055.90 0.09462
1056.00 0.09459
1056.10 0.09455
1056.20 0.09452
1056.30 0.09449
1056.40 0.09445
1056.50 0.09442
1056.60 0.09439
1056.70 0.09435
1056.80 0.09432
1056.90 0.09429
1057.00 0.09425
1057.10 0.09422
1057.20 0.09418
1057.30 0.09415
1057.40 0.09411
1057.50 0.09408
1057.60 0.09405
1057.70 0.09401
1057.80 0.09398
1057.90 0.09394
1058.00 0.09391
1058.10 0.09387
1058.20 0.09384
1058.30 0.0938
1058.40 0.09377
1058.50 0.09373
1058.60 0.0937
1058.70 0.09367
1058.80 0.09363
1058.90 0.0936
1059.00 0.09356
1059.10 0.09353
1059.20 0.09349
1059.30 0.09346
1059.40 0.09342
1059.50 0.09339
1059.60 0.09336
1059.70 0.09332
1059.80 0.09329
1059.90 0.09325
1060.00 0.09322
1060.10 0.09318
1060.20 0.09315
1060.30 0.09312
1060.40 0.09308
1060.50 0.09305
1060.60 0.09301
1060.70 0.09298
1060.80 0.09294
1060.90 0.09291
1061.00 0.09288
1061.10 0.09284
1061.20 0.09281
1061.30 0.09277
1061.40 0.09274
1061.50 0.0927
1061.60 0.09267
1061.70 0.09264
1061.80 0.0926
1061.90 0.09257
1062.00 0.09253
1062.10 0.0925
1062.20 0.09246
1062.30 0.09242
1062.40 0.09239
1062.50 0.09235
1062.60 0.09231
1062.70 0.09228
1062.80 0.09224
1062.90 0.09221
1063.00 0.09217
1063.10 0.09213
1063.20 0.0921
1063.30 0.09206
1063.40 0.09202
1063.50 0.09199
1063.60 0.09195
1063.70 0.09192
1063.80 0.09188
1063.90 0.09184
1064.00 0.09181
1064.10 0.09177
1064.20 0.09173
1064.30 0.0917
1064.40 0.09166
1064.50 0.09163
1064.60 0.09159
1064.70 0.09155
1064.80 0.09152
1064.90 0.09148
1065.00 0.09145
1065.10 0.09141
1065.20 0.09137
1065.30 0.09134
1065.40 0.0913
1065.50 0.09127
1065.60 0.09123
1065.70 0.09119
1065.80 0.09116
1065.90 0.09112
1066.00 0.09109
1066.10 0.09105
1066.20 0.09101
1066.30 0.09098
1066.40 0.09094
1066.50 0.09091
1066.60 0.09087
1066.70 0.09083
1066.80 0.0908
1066.90 0.09076
1067.00 0.09073
1067.10 0.09069
1067.20 0.09064
1067.30 0.0906
1067.40 0.09056
1067.50 0.09052
1067.60 0.09048
1067.70 0.09044
1067.80 0.0904
1067.90 0.09036
1068.00 0.09032
1068.10 0.09028
1068.20 0.09024
1068.30 0.0902
1068.40 0.09016
1068.50 0.09012
1068.60 0.09008
1068.70 0.09004
1068.80 0.08999
1068.90 0.08995
1069.00 0.08991
1069.10 0.08987
1069.20 0.08983
1069.30 0.08979
1069.40 0.08975
1069.50 0.08971
1069.60 0.08967
1069.70 0.08963
1069.80 0.08959
1069.90 0.08955
1070.00 0.08951
1070.10 0.08947
1070.20 0.08943
1070.30 0.08939
1070.40 0.08935
1070.50 0.08931
1070.60 0.08927
1070.70 0.08923
1070.80 0.08919
1070.90 0.08915
1071.00 0.08911
1071.10 0.08907
1071.20 0.08903
1071.30 0.08899
1071.40 0.08895
1071.50 0.08891
1071.60 0.08887
1071.70 0.08883
1071.80 0.08879
1071.90 0.08875
1072.00 0.08871
1072.10 0.08866
1072.20 0.08861
1072.30 0.08856
1072.40 0.08852
1072.50 0.08847
1072.60 0.08842
1072.70 0.08837
1072.80 0.08833
1072.90 0.08828
1073.00 0.08823
1073.10 0.08819
1073.20 0.08814
1073.30 0.08809
1073.40 0.08804
1073.50 0.088
1073.60 0.08794
1073.70 0.08789
1073.80 0.08784
1073.90 0.08779
1074.00 0.08773
1074.10 0.08768
1074.20 0.08763
1074.30 0.08758
1074.40 0.08753
1074.50 0.08747
1074.60 0.08742
1074.70 0.08737
1074.80 0.08732
1074.90 0.08727
1075.00 0.08721
1075.10 0.08716
1075.20 0.08711
1075.30 0.08706
1075.40 0.08701
1075.50 0.08695
1075.60 0.0869
1075.70 0.08685
1075.80 0.0868
1075.90 0.08675
1076.00 0.08669
1076.10 0.08664
1076.20 0.08659
1076.30 0.08654
1076.40 0.08649
1076.50 0.08644
1076.60 0.08638
1076.70 0.08633
1076.80 0.08628
1076.90 0.08623
1077.00 0.08618
1077.10 0.08611
1077.20 0.08604
1077.30 0.08597
1077.40 0.0859
1077.50 0.08583
1077.60 0.08576
1077.70 0.0857
1077.80 0.08563
1077.90 0.08557
1078.00 0.0855
1078.10 0.08543
1078.20 0.08537
1078.30 0.0853
1078.40 0.08523
1078.50 0.08517
1078.60 0.0851
1078.70 0.08504
1078.80 0.08497
1078.90 0.0849
1079.00 0.08484
1079.10 0.08477
1079.20 0.0847
1079.30 0.08464
1079.40 0.08457
1079.50 0.0845
1079.60 0.08442
1079.70 0.08434
1079.80 0.08425
1079.90 0.08417
1080.00 0.08409
1080.10 0.084
1080.20 0.08392
1080.30 0.08384
1080.40 0.08376
1080.50 0.08367
1080.60 0.08359
1080.70 0.08351
1080.80 0.08343
1080.90 0.08334
1081.00 0.08326
1081.10 0.08318
1081.20 0.0831
1081.30 0.08301
1081.40 0.08293
1081.50 0.08285
1081.60 0.08276
1081.70 0.08266
1081.80 0.08257
1081.90 0.08248
1082.00 0.08239
1082.10 0.08229
1082.20 0.08218
1082.30 0.08207
1082.40 0.08197
1082.50 0.08186
1082.60 0.08176
1082.70 0.08165
1082.80 0.08154
1082.90 0.08144
1083.00 0.08133
1083.10 0.08123
1083.20 0.08112
1083.30 0.08101
1083.40 0.08091
1083.50 0.0808
1083.60 0.08067
1083.70 0.08055
1083.80 0.08043
1083.90 0.08031
1084.00 0.08018
1084.10 0.08006
1084.20 0.07994
1084.30 0.07981
1084.40 0.07969
1084.50 0.07956
1084.60 0.07941
1084.70 0.07927
1084.80 0.07912
1084.90 0.07897
1085.00 0.07883
1085.10 0.07868
1085.20 0.07853
1085.30 0.07838
1085.40 0.07824
1085.50 0.07809
1085.60 0.07794
1085.70 0.0778
1085.80 0.07765
1085.90 0.07751
1086.00 0.07736
1086.10 0.07721
1086.20 0.07707
1086.30 0.07692
1086.40 0.07677
1086.50 0.07662
1086.60 0.07644
1086.70 0.07627
1086.80 0.07609
1086.90 0.07592
1087.00 0.07574
1087.10 0.07554
1087.20 0.07534
1087.30 0.07514
1087.40 0.07494
1087.50 0.07475
1087.60 0.07455
1087.70 0.07435
1087.80 0.07415
1087.90 0.07395
1088.00 0.07375
1088.10 0.07356
1088.20 0.07336
1088.30 0.07316
1088.40 0.07296
1088.50 0.07275
1088.60 0.0725
1088.70 0.07225
1088.80 0.072
1088.90 0.07175
1089.00 0.0715
1089.10 0.07125
1089.20 0.071
1089.30 0.07075
1089.40 0.07051
1089.50 0.07026
1089.60 0.07001
1089.70 0.06976
1089.80 0.06951
1089.90 0.06926
1090.00 0.06902
1090.10 0.06877
1090.20 0.06852
1090.30 0.06827
1090.40 0.06802
1090.50 0.06776
1090.60 0.06744
1090.70 0.06713
1090.80 0.06682
1090.90 0.06651
1091.00 0.0662
1091.10 0.06589
1091.20 0.06557
1091.30 0.06526
1091.40 0.06495
1091.50 0.06464
1091.60 0.06433
1091.70 0.06402
1091.80 0.06371
1091.90 0.0634
1092.00 0.06307
1092.10 0.06268
1092.20 0.06229
1092.30 0.0619
1092.40 0.0615
1092.50 0.06111
1092.60 0.06072
1092.70 0.06028
1092.80 0.05974
1092.90 0.05921
1093.00 0.05867
1093.10 0.05804
1093.20 0.05723
1093.30 0.0564
1093.40 0.05551
1093.50 0.05544
1093.60 0.05601
1093.70 0.05686
1093.80 0.05764
1093.90 0.05833
1094.00 0.05883
1094.10 0.05933
1094.20 0.05983
1094.30 0.06028
1094.40 0.06064
1094.50 0.06099
1094.60 0.06134
1094.70 0.06169
1094.80 0.06204
1094.90 0.06239
1095.00 0.06272
1095.10 0.06299
1095.20 0.06325
1095.30 0.06352
1095.40 0.06379
1095.50 0.06406
1095.60 0.06432
1095.70 0.06459
1095.80 0.06486
1095.90 0.06513
1096.00 0.06539
1096.10 0.06566
1096.20 0.06593
1096.30 0.06619
1096.40 0.06646
1096.50 0.06671
1096.60 0.06694
1096.70 0.06716
1096.80 0.06739
1096.90 0.06762
1097.00 0.06784
1097.10 0.06803
1097.20 0.06822
1097.30 0.06841
1097.40 0.0686
1097.50 0.06879
1097.60 0.06898
1097.70 0.06917
1097.80 0.06935
1097.90 0.06954
1098.00 0.06973
1098.10 0.06992
1098.20 0.07011
1098.30 0.0703
1098.40 0.07049
1098.50 0.07066
1098.60 0.0708
1098.70 0.07094
1098.80 0.07108
1098.90 0.07122
1099.00 0.07136
1099.10 0.07149
1099.20 0.07163
1099.30 0.07177
1099.40 0.07191
1099.50 0.07205
1099.60 0.07219
1099.70 0.07233
1099.80 0.07246
1099.90 0.0726
1100.00 0.07274
1100.10 0.07288
1100.20 0.07302
1100.30 0.07315
1100.40 0.07329
1100.50 0.07342
1100.60 0.07351
1100.70 0.07361
1100.80 0.0737
1100.90 0.0738
1101.00 0.07389
1101.10 0.07399
1101.20 0.07408
1101.30 0.07418
1101.40 0.07427
1101.50 0.07437
1101.60 0.07446
1101.70 0.07456
1101.80 0.07465
1101.90 0.07475
1102.00 0.07484
1102.10 0.07492
1102.20 0.07499
1102.30 0.07507
1102.40 0.07514
1102.50 0.07521
1102.60 0.07528
1102.70 0.07534
1102.80 0.07541
1102.90 0.07548
1103.00 0.07554
1103.10 0.07561
1103.20 0.07567
1103.30 0.07574
1103.40 0.07581
1103.50 0.07586
1103.60 0.07591
1103.70 0.07595
1103.80 0.076
1103.90 0.07604
1104.00 0.07609
1104.10 0.07613
1104.20 0.07618
1104.30 0.07622
1104.40 0.07626
1104.50 0.07631
1104.60 0.07635
1104.70 0.0764
1104.80 0.07644
1104.90 0.07649
1105.00 0.07653
1105.10 0.07658
1105.20 0.07662
1105.30 0.07666
1105.40 0.07671
1105.50 0.07675
1105.60 0.07677
1105.70 0.0768
1105.80 0.07683
1105.90 0.07686
1106.00 0.07688
1106.10 0.07691
1106.20 0.07694
1106.30 0.07697
1106.40 0.07699
1106.50 0.07702
1106.60 0.07705
1106.70 0.07708
1106.80 0.0771
1106.90 0.07713
1107.00 0.07716
1107.10 0.07717
1107.20 0.07719
1107.30 0.0772
1107.40 0.07722
1107.50 0.07723
1107.60 0.07724
1107.70 0.07725
1107.80 0.07726
1107.90 0.07727
1108.00 0.07727
1108.10 0.07728
1108.20 0.07729
1108.30 0.0773
1108.40 0.07731
1108.50 0.07732
1108.60 0.07733
1108.70 0.07733
1108.80 0.07734
1108.90 0.07735
1109.00 0.07736
1109.10 0.07737
1109.20 0.07738
1109.30 0.07739
1109.40 0.07739
1109.50 0.0774
1109.60 0.0774
1109.70 0.0774
1109.80 0.0774
1109.90 0.0774
1110.00 0.0774
1110.10 0.0774
1110.20 0.0774
1110.30 0.0774
1110.40 0.07739
1110.50 0.07739
1110.60 0.07739
1110.70 0.07739
1110.80 0.07739
1110.90 0.07739
1111.00 0.07739
1111.10 0.07739
1111.20 0.07739
1111.30 0.07739
1111.40 0.07739
1111.50 0.07739
1111.60 0.07739
1111.70 0.07739
1111.80 0.07739
1111.90 0.07739
1112.00 0.07739
1112.10 0.07738
1112.20 0.07737
1112.30 0.07736
1112.40 0.07735
1112.50 0.07734
1112.60 0.07734
1112.70 0.07733
1112.80 0.07732
1112.90 0.07731
1113.00 0.0773
1113.10 0.07729
1113.20 0.07729
1113.30 0.07728
1113.40 0.07727
1113.50 0.07726
1113.60 0.07725
1113.70 0.07723
1113.80 0.07722
1113.90 0.07721
1114.00 0.0772
1114.10 0.07718
1114.20 0.07717
1114.30 0.07716
1114.40 0.07714
1114.50 0.07713
1114.60 0.07712
1114.70 0.07711
1114.80 0.07709
1114.90 0.07708
1115.00 0.07707
1115.10 0.07705
1115.20 0.07704
1115.30 0.07703
1115.40 0.07702
1115.50 0.077
1115.60 0.07699
1115.70 0.07698
1115.80 0.07696
1115.90 0.07695
1116.00 0.07694
1116.10 0.07693
1116.20 0.07691
1116.30 0.0769
1116.40 0.07689
1116.50 0.07688
1116.60 0.07686
1116.70 0.07685
1116.80 0.07684
1116.90 0.07682
1117.00 0.07681
1117.10 0.07679
1117.20 0.07678
1117.30 0.07676
1117.40 0.07674
1117.50 0.07672
1117.60 0.0767
1117.70 0.07668
1117.80 0.07667
1117.90 0.07665
1118.00 0.07663
1118.10 0.07661
1118.20 0.07659
1118.30 0.07658
1118.40 0.07656
1118.50 0.07654
1118.60 0.07652
1118.70 0.0765
1118.80 0.07648
1118.90 0.07647
1119.00 0.07645
1119.10 0.07643
1119.20 0.07641
1119.30 0.07639
1119.40 0.07638
1119.50 0.07636
1119.60 0.07634
1119.70 0.07632
1119.80 0.0763
1119.90 0.07629
1120.00 0.07627
1120.10 0.07625
1120.20 0.07623
1120.30 0.07621
1120.40 0.07619
1120.50 0.07618
1120.60 0.07616
1120.70 0.07614
1120.80 0.07612
1120.90 0.0761
1121.00 0.07609
1121.10 0.07607
1121.20 0.07605
1121.30 0.07603
1121.40 0.07601
1121.50 0.076
1121.60 0.07598
1121.70 0.07596
1121.80 0.07594
1121.90 0.07592
1122.00 0.07591
1122.10 0.07589
1122.20 0.07586
1122.30 0.07584
1122.40 0.07582
1122.50 0.0758
1122.60 0.07578
1122.70 0.07576
1122.80 0.07574
1122.90 0.07572
1123.00 0.0757
1123.10 0.07568
1123.20 0.07566
1123.30 0.07563
1123.40 0.07561
1123.50 0.07559
1123.60 0.07557
1123.70 0.07555
1123.80 0.07553
1123.90 0.07551
1124.00 0.07549
1124.10 0.07547
1124.20 0.07545
1124.30 0.07543
1124.40 0.0754
1124.50 0.07538
1124.60 0.07536
1124.70 0.07534
1124.80 0.07532
1124.90 0.0753
1125.00 0.07528
1125.10 0.07526
1125.20 0.07524
1125.30 0.07522
1125.40 0.0752
1125.50 0.07518
1125.60 0.07516
1125.70 0.07513
1125.80 0.07511
1125.90 0.07509
1126.00 0.07507
1126.10 0.07505
1126.20 0.07503
1126.30 0.07501
1126.40 0.07499
1126.50 0.07497
1126.60 0.07495
1126.70 0.07493
1126.80 0.07491
1126.90 0.07489
1127.00 0.07487
1127.10 0.07484
1127.20 0.07482
1127.30 0.0748
1127.40 0.07478
1127.50 0.07476
1127.60 0.07473
1127.70 0.07471
1127.80 0.07469
1127.90 0.07467
1128.00 0.07465
1128.10 0.07462
1128.20 0.0746
1128.30 0.07458
1128.40 0.07456
1128.50 0.07454
1128.60 0.07451
1128.70 0.07449
1128.80 0.07447
1128.90 0.07445
1129.00 0.07443
1129.10 0.07441
1129.20 0.07438
1129.30 0.07436
1129.40 0.07434
1129.50 0.07432
1129.60 0.0743
1129.70 0.07428
1129.80 0.07425
1129.90 0.07423
1130.00 0.07421
1130.10 0.07419
1130.20 0.07417
1130.30 0.07414
1130.40 0.07412
1130.50 0.0741
1130.60 0.07408
1130.70 0.07406
1130.80 0.07404
1130.90 0.07401
1131.00 0.07399
1131.10 0.07397
1131.20 0.07395
1131.30 0.07393
1131.40 0.07391
1131.50 0.07388
1131.60 0.07386
1131.70 0.07384
1131.80 0.07382
1131.90 0.0738
1132.00 0.07378
1132.10 0.07375
1132.20 0.07373
1132.30 0.07371
1132.40 0.07369
1132.50 0.07366
1132.60 0.07364
1132.70 0.07362
1132.80 0.0736
1132.90 0.07358
1133.00 0.07355
1133.10 0.07353
1133.20 0.07351
1133.30 0.07349
1133.40 0.07346
1133.50 0.07344
1133.60 0.07342
1133.70 0.0734
1133.80 0.07338
1133.90 0.07335
1134.00 0.07333
1134.10 0.07331
1134.20 0.07329
1134.30 0.07327
1134.40 0.07324
1134.50 0.07322
1134.60 0.0732
1134.70 0.07318
1134.80 0.07315
1134.90 0.07313
1135.00 0.07311
1135.10 0.07309
1135.20 0.07307
1135.30 0.07304
1135.40 0.07302
1135.50 0.073
1135.60 0.07298
1135.70 0.07296
1135.80 0.07293
1135.90 0.07291
1136.00 0.07289
1136.10 0.07287
1136.20 0.07285
1136.30 0.07282
1136.40 0.0728
1136.50 0.07278
1136.60 0.07276
1136.70 0.07274
1136.80 0.07271
1136.90 0.07269
1137.00 0.07267
1137.10 0.07265
1137.20 0.07262
1137.30 0.0726
1137.40 0.07258
1137.50 0.07256
1137.60 0.07254
1137.70 0.07251
1137.80 0.07249
1137.90 0.07247
1138.00 0.07245
1138.10 0.07242
1138.20 0.0724
1138.30 0.07238
1138.40 0.07236
1138.50 0.07234
1138.60 0.07231
1138.70 0.07229
1138.80 0.07227
1138.90 0.07225
1139.00 0.07222
1139.10 0.0722
1139.20 0.07218
1139.30 0.07216
1139.40 0.07214
1139.50 0.07211
1139.60 0.07209
1139.70 0.07207
1139.80 0.07205
1139.90 0.07203
1140.00 0.072
1140.10 0.07198
1140.20 0.07196
1140.30 0.07194
1140.40 0.07192
1140.50 0.07189
1140.60 0.07187
1140.70 0.07185
1140.80 0.07183
1140.90 0.0718
1141.00 0.07178
1141.10 0.07176
1141.20 0.07174
1141.30 0.07172
1141.40 0.07169
1141.50 0.07167
1141.60 0.07165
1141.70 0.07163
1141.80 0.07161
1141.90 0.07158
1142.00 0.07156
1142.10 0.07154
1142.20 0.07152
1142.30 0.0715
1142.40 0.07147
1142.50 0.07145
1142.60 0.07143
1142.70 0.07141
1142.80 0.07139
1142.90 0.07136
1143.00 0.07134
1143.10 0.07132
1143.20 0.0713
1143.30 0.07128
1143.40 0.07125
1143.50 0.07123
1143.60 0.07121
1143.70 0.07119
1143.80 0.07117
1143.90 0.07114
1144.00 0.07112
1144.10 0.0711
1144.20 0.07108
1144.30 0.07106
1144.40 0.07103
1144.50 0.07101
1144.60 0.07099
1144.70 0.07097
1144.80 0.07095
1144.90 0.07092
1145.00 0.0709
1145.10 0.07088
1145.20 0.07086
1145.30 0.07084
1145.40 0.07081
1145.50 0.07079
1145.60 0.07077
1145.70 0.07075
1145.80 0.07073
1145.90 0.0707
1146.00 0.07068
1146.10 0.07066
1146.20 0.07064
1146.30 0.07062
1146.40 0.07059
1146.50 0.07057
1146.60 0.07055
1146.70 0.07053
1146.80 0.07051
1146.90 0.07049
1147.00 0.07046
1147.10 0.07044
1147.20 0.07042
1147.30 0.0704
1147.40 0.07038
1147.50 0.07035
1147.60 0.07033
1147.70 0.07031
1147.80 0.07029
1147.90 0.07027
1148.00 0.07025
1148.10 0.07022
1148.20 0.0702
1148.30 0.07018
1148.40 0.07016
1148.50 0.07014
1148.60 0.07011
1148.70 0.07009
1148.80 0.07007
1148.90 0.07005
1149.00 0.07003
1149.10 0.07001
1149.20 0.06998
1149.30 0.06996
1149.40 0.06994
1149.50 0.06992
1149.60 0.0699
1149.70 0.06988
1149.80 0.06985
1149.90 0.06983
1150.00 0.06981
1150.10 0.06979
1150.20 0.06977
1150.30 0.06975
1150.40 0.06972
1150.50 0.0697
1150.60 0.06968
1150.70 0.06966
1150.80 0.06964
1150.90 0.06962
1151.00 0.06959
1151.10 0.06957
1151.20 0.06955
1151.30 0.06953
1151.40 0.06951
1151.50 0.06949
1151.60 0.06947
1151.70 0.06944
1151.80 0.06942
1151.90 0.0694
1152.00 0.06938
1152.10 0.06936
1152.20 0.06934
1152.30 0.06931
1152.40 0.06929
1152.50 0.06927
1152.60 0.06925
1152.70 0.06923
1152.80 0.06921
1152.90 0.06919
1153.00 0.06916
1153.10 0.06914
1153.20 0.06912
1153.30 0.0691
1153.40 0.06908
1153.50 0.06906
1153.60 0.06904
1153.70 0.06901
1153.80 0.06899
1153.90 0.06897
1154.00 0.06895
1154.10 0.06893
1154.20 0.06891
1154.30 0.06889
1154.40 0.06886
1154.50 0.06884
1154.60 0.06882
1154.70 0.0688
1154.80 0.06878
1154.90 0.06876
1155.00 0.06874
1155.10 0.06871
1155.20 0.06869
1155.30 0.06867
1155.40 0.06865
1155.50 0.06863
1155.60 0.06861
1155.70 0.06859
1155.80 0.06857
1155.90 0.06854
1156.00 0.06852
1156.10 0.0685
1156.20 0.06848
1156.30 0.06846
1156.40 0.06844
1156.50 0.06842
1156.60 0.06839
1156.70 0.06837
1156.80 0.06835
1156.90 0.06833
1157.00 0.06831
1157.10 0.06829
1157.20 0.06827
1157.30 0.06825
1157.40 0.06823
1157.50 0.0682
1157.60 0.06818
1157.70 0.06816
1157.80 0.06814
1157.90 0.06812
1158.00 0.0681
1158.10 0.06808
1158.20 0.06806
1158.30 0.06803
1158.40 0.06801
1158.50 0.06799
1158.60 0.06797
1158.70 0.06795
1158.80 0.06793
1158.90 0.06791
1159.00 0.06789
1159.10 0.06787
1159.20 0.06784
1159.30 0.06782
1159.40 0.0678
1159.50 0.06778
1159.60 0.06776
1159.70 0.06774
1159.80 0.06772
1159.90 0.0677
1160.00 0.06768
1160.10 0.06766
1160.20 0.06763
1160.30 0.06761
1160.40 0.06759
1160.50 0.06757
1160.60 0.06755
1160.70 0.06753
1160.80 0.06751
1160.90 0.06749
1161.00 0.06747
1161.10 0.06745
1161.20 0.06742
1161.30 0.0674
1161.40 0.06738
1161.50 0.06736
1161.60 0.06734
1161.70 0.06732
1161.80 0.0673
1161.90 0.06728
1162.00 0.06726
1162.10 0.06724
1162.20 0.06722
1162.30 0.06719
1162.40 0.06717
1162.50 0.06715
1162.60 0.06713
1162.70 0.06711
1162.80 0.06709
1162.90 0.06707
1163.00 0.06705
1163.10 0.06703
1163.20 0.06701
1163.30 0.06699
1163.40 0.06696
1163.50 0.06694
1163.60 0.06692
1163.70 0.0669
1163.80 0.06688
1163.90 0.06686
1164.00 0.06684
1164.10 0.06682
1164.20 0.0668
1164.30 0.06678
1164.40 0.06676
1164.50 0.06674
1164.60 0.06672
1164.70 0.06669
1164.80 0.06667
1164.90 0.06665
1165.00 0.06663
1165.10 0.06661
1165.20 0.06659
1165.30 0.06657
1165.40 0.06655
1165.50 0.06653
1165.60 0.06651
1165.70 0.06649
1165.80 0.06647
1165.90 0.06645
1166.00 0.06643
1166.10 0.06641
1166.20 0.06638
1166.30 0.06636
1166.40 0.06634
1166.50 0.06632
1166.60 0.0663
1166.70 0.06628
1166.80 0.06626
1166.90 0.06624
1167.00 0.06622
1167.10 0.0662
1167.20 0.06618
1167.30 0.06616
1167.40 0.06614
1167.50 0.06612
1167.60 0.0661
1167.70 0.06608
1167.80 0.06606
1167.90 0.06604
1168.00 0.06601
1168.10 0.06599
1168.20 0.06597
1168.30 0.06595
1168.40 0.06593
1168.50 0.06591
1168.60 0.06589
1168.70 0.06587
1168.80 0.06585
1168.90 0.06583
1169.00 0.06581
1169.10 0.06579
1169.20 0.06577
1169.30 0.06575
1169.40 0.06573
1169.50 0.06571
1169.60 0.06569
1169.70 0.06567
1169.80 0.06565
1169.90 0.06563
1170.00 0.06561
1170.10 0.06559
1170.20 0.06557
1170.30 0.06555
1170.40 0.06553
1170.50 0.06551
1170.60 0.06549
1170.70 0.06546
1170.80 0.06544
1170.90 0.06542
1171.00 0.0654
1171.10 0.06538
1171.20 0.06536
1171.30 0.06534
1171.40 0.06532
1171.50 0.0653
1171.60 0.06528
1171.70 0.06526
1171.80 0.06524
1171.90 0.06522
1172.00 0.0652
1172.10 0.06518
1172.20 0.06516
1172.30 0.06514
1172.40 0.06512
1172.50 0.0651
1172.60 0.06508
1172.70 0.06506
1172.80 0.06504
1172.90 0.06502
1173.00 0.065
1173.10 0.06498
1173.20 0.06496
1173.30 0.06494
1173.40 0.06492
1173.50 0.0649
1173.60 0.06488
1173.70 0.06486
1173.80 0.06484
1173.90 0.06482
1174.00 0.0648
1174.10 0.06478
1174.20 0.06476
1174.30 0.06474
1174.40 0.06472
1174.50 0.0647
1174.60 0.06468
1174.70 0.06466
1174.80 0.06464
1174.90 0.06462
1175.00 0.0646
1175.10 0.06458
1175.20 0.06456
1175.30 0.06454
1175.40 0.06452
1175.50 0.0645
1175.60 0.06448
1175.70 0.06446
1175.80 0.06444
1175.90 0.06442
1176.00 0.0644
1176.10 0.06438
1176.20 0.06436
1176.30 0.06434
1176.40 0.06432
1176.50 0.0643
1176.60 0.06428
1176.70 0.06426
1176.80 0.06424
1176.90 0.06422
1177.00 0.0642
1177.10 0.06418
1177.20 0.06416
1177.30 0.06414
1177.40 0.06412
1177.50 0.0641
1177.60 0.06408
1177.70 0.06406
1177.80 0.06404
1177.90 0.06402
1178.00 0.064
1178.10 0.06398
1178.20 0.06397
1178.30 0.06395
1178.40 0.06393
1178.50 0.06391
1178.60 0.06389
1178.70 0.06387
1178.80 0.06385
1178.90 0.06383
1179.00 0.06381
1179.10 0.06379
1179.20 0.06377
1179.30 0.06375
1179.40 0.06373
1179.50 0.06371
1179.60 0.06369
1179.70 0.06367
1179.80 0.06365
1179.90 0.06363
1180.00 0.06361
1180.10 0.06359
1180.20 0.06357
1180.30 0.06355
1180.40 0.06353
1180.50 0.06351
1180.60 0.06349
1180.70 0.06347
1180.80 0.06345
1180.90 0.06343
1181.00 0.06341
1181.10 0.06339
1181.20 0.06337
1181.30 0.06336
1181.40 0.06334
1181.50 0.06332
1181.60 0.0633
1181.70 0.06328
1181.80 0.06326
1181.90 0.06324
1182.00 0.06322
1182.10 0.0632
1182.20 0.06318
1182.30 0.06316
1182.40 0.06314
1182.50 0.06312
1182.60 0.0631
1182.70 0.06308
1182.80 0.06306
1182.90 0.06304
1183.00 0.06302
1183.10 0.063
1183.20 0.06299
1183.30 0.06297
1183.40 0.06295
1183.50 0.06293
1183.60 0.06291
1183.70 0.06289
1183.80 0.06287
1183.90 0.06285
1184.00 0.06283
1184.10 0.06281
1184.20 0.06279
1184.30 0.06277
1184.40 0.06275
1184.50 0.06273
1184.60 0.06271
1184.70 0.0627
1184.80 0.06268
1184.90 0.06266
1185.00 0.06264
1185.10 0.06262
1185.20 0.0626
1185.30 0.06258
1185.40 0.06256
1185.50 0.06254
1185.60 0.06252
1185.70 0.0625
1185.80 0.06248
1185.90 0.06246
1186.00 0.06244
1186.10 0.06243
1186.20 0.06241
1186.30 0.06239
1186.40 0.06237
1186.50 0.06235
1186.60 0.06233
1186.70 0.06231
1186.80 0.06229
1186.90 0.06227
1187.00 0.06225
1187.10 0.06223
1187.20 0.06221
1187.30 0.0622
1187.40 0.06218
1187.50 0.06216
1187.60 0.06214
1187.70 0.06212
1187.80 0.0621
1187.90 0.06208
1188.00 0.06206
1188.10 0.06204
1188.20 0.06202
1188.30 0.062
1188.40 0.06199
1188.50 0.06197
1188.60 0.06195
1188.70 0.06193
1188.80 0.06191
1188.90 0.06189
1189.00 0.06187
1189.10 0.06185
1189.20 0.06183
1189.30 0.06181
1189.40 0.0618
1189.50 0.06178
1189.60 0.06176
1189.70 0.06174
1189.80 0.06172
1189.90 0.0617
1190.00 0.06168
1190.10 0.06166
1190.20 0.06164
1190.30 0.06163
1190.40 0.06161
1190.50 0.06159
1190.60 0.06157
1190.70 0.06155
1190.80 0.06153
1190.90 0.06151
1191.00 0.06149
1191.10 0.06147
1191.20 0.06146
1191.30 0.06144
1191.40 0.06142
1191.50 0.0614
1191.60 0.06138
1191.70 0.06136
1191.80 0.06134
1191.90 0.06132
1192.00 0.0613
1192.10 0.06129
1192.20 0.06127
1192.30 0.06125
1192.40 0.06123
1192.50 0.06121
1192.60 0.06119
1192.70 0.06117
1192.80 0.06115
1192.90 0.06114
1193.00 0.06112
1193.10 0.0611
1193.20 0.06108
1193.30 0.06106
1193.40 0.06104
1193.50 0.06102
1193.60 0.06101
1193.70 0.06099
1193.80 0.06097
1193.90 0.06095
1194.00 0.06093
1194.10 0.06091
1194.20 0.06089
1194.30 0.06087
1194.40 0.06086
1194.50 0.06084
1194.60 0.06082
1194.70 0.0608
1194.80 0.06078
1194.90 0.06076
1195.00 0.06074
1195.10 0.06073
1195.20 0.06071
1195.30 0.06069
1195.40 0.06067
1195.50 0.06065
1195.60 0.06063
1195.70 0.06061
1195.80 0.0606
1195.90 0.06058
1196.00 0.06056
1196.10 0.06054
1196.20 0.06052
1196.30 0.0605
1196.40 0.06048
1196.50 0.06047
1196.60 0.06045
1196.70 0.06043
1196.80 0.06041
1196.90 0.06039
1197.00 0.06037
1197.10 0.06035
1197.20 0.06034
1197.30 0.06032
1197.40 0.0603
1197.50 0.06028
1197.60 0.06026
1197.70 0.06024
1197.80 0.06023
1197.90 0.06021
1198.00 0.06019
1198.10 0.06017
1198.20 0.06015
1198.30 0.06013
1198.40 0.06011
1198.50 0.0601
1198.60 0.06008
1198.70 0.06006
1198.80 0.06004
1198.90 0.06002
1199.00 0.06
1199.10 0.05999
1199.20 0.05997
1199.30 0.05995
1199.40 0.05993
1199.50 0.05991
1199.60 0.05989
1199.70 0.05988
1199.80 0.05986
1199.90 0.05984
1200.00 0
