# Version 2.1 - nm, norm@500 to 1, cut digits, bergeron_17000_65.dat_17000
# Wavelength(nm)  Flambda(ergs/cm^s/s/nm)
300.00 2.537
300.10 2.535
300.20 2.532
300.30 2.53
300.40 2.528
300.50 2.526
300.60 2.524
300.70 2.522
300.80 2.52
300.90 2.518
301.00 2.516
301.10 2.513
301.20 2.511
301.30 2.509
301.40 2.507
301.50 2.505
301.60 2.503
301.70 2.501
301.80 2.499
301.90 2.497
302.00 2.495
302.10 2.493
302.20 2.491
302.30 2.488
302.40 2.486
302.50 2.484
302.60 2.482
302.70 2.48
302.80 2.478
302.90 2.476
303.00 2.474
303.10 2.472
303.20 2.47
303.30 2.468
303.40 2.466
303.50 2.464
303.60 2.462
303.70 2.46
303.80 2.458
303.90 2.456
304.00 2.454
304.10 2.452
304.20 2.45
304.30 2.448
304.40 2.446
304.50 2.444
304.60 2.441
304.70 2.439
304.80 2.437
304.90 2.435
305.00 2.433
305.10 2.431
305.20 2.429
305.30 2.427
305.40 2.425
305.50 2.423
305.60 2.421
305.70 2.419
305.80 2.417
305.90 2.415
306.00 2.413
306.10 2.411
306.20 2.41
306.30 2.408
306.40 2.406
306.50 2.404
306.60 2.402
306.70 2.4
306.80 2.398
306.90 2.396
307.00 2.394
307.10 2.392
307.20 2.39
307.30 2.388
307.40 2.386
307.50 2.384
307.60 2.382
307.70 2.38
307.80 2.378
307.90 2.376
308.00 2.374
308.10 2.372
308.20 2.37
308.30 2.368
308.40 2.366
308.50 2.364
308.60 2.362
308.70 2.361
308.80 2.359
308.90 2.357
309.00 2.355
309.10 2.353
309.20 2.351
309.30 2.349
309.40 2.347
309.50 2.345
309.60 2.343
309.70 2.341
309.80 2.339
309.90 2.338
310.00 2.336
310.10 2.334
310.20 2.332
310.30 2.33
310.40 2.328
310.50 2.326
310.60 2.324
310.70 2.322
310.80 2.321
310.90 2.319
311.00 2.317
311.10 2.315
311.20 2.313
311.30 2.311
311.40 2.309
311.50 2.307
311.60 2.306
311.70 2.304
311.80 2.302
311.90 2.3
312.00 2.298
312.10 2.296
312.20 2.294
312.30 2.292
312.40 2.291
312.50 2.289
312.60 2.287
312.70 2.285
312.80 2.283
312.90 2.281
313.00 2.279
313.10 2.278
313.20 2.276
313.30 2.274
313.40 2.272
313.50 2.27
313.60 2.268
313.70 2.267
313.80 2.265
313.90 2.263
314.00 2.261
314.10 2.259
314.20 2.257
314.30 2.256
314.40 2.254
314.50 2.252
314.60 2.25
314.70 2.248
314.80 2.247
314.90 2.245
315.00 2.243
315.10 2.241
315.20 2.239
315.30 2.238
315.40 2.236
315.50 2.234
315.60 2.232
315.70 2.23
315.80 2.229
315.90 2.227
316.00 2.225
316.10 2.223
316.20 2.222
316.30 2.22
316.40 2.218
316.50 2.216
316.60 2.214
316.70 2.213
316.80 2.211
316.90 2.209
317.00 2.207
317.10 2.206
317.20 2.204
317.30 2.202
317.40 2.2
317.50 2.199
317.60 2.197
317.70 2.195
317.80 2.193
317.90 2.192
318.00 2.19
318.10 2.188
318.20 2.186
318.30 2.185
318.40 2.183
318.50 2.181
318.60 2.179
318.70 2.178
318.80 2.176
318.90 2.174
319.00 2.172
319.10 2.171
319.20 2.169
319.30 2.167
319.40 2.166
319.50 2.164
319.60 2.162
319.70 2.16
319.80 2.159
319.90 2.157
320.00 2.155
320.10 2.154
320.20 2.152
320.30 2.15
320.40 2.149
320.50 2.147
320.60 2.145
320.70 2.143
320.80 2.142
320.90 2.14
321.00 2.138
321.10 2.137
321.20 2.135
321.30 2.133
321.40 2.132
321.50 2.13
321.60 2.128
321.70 2.126
321.80 2.125
321.90 2.123
322.00 2.121
322.10 2.12
322.20 2.118
322.30 2.116
322.40 2.115
322.50 2.113
322.60 2.111
322.70 2.11
322.80 2.108
322.90 2.106
323.00 2.105
323.10 2.103
323.20 2.102
323.30 2.1
323.40 2.098
323.50 2.097
323.60 2.095
323.70 2.093
323.80 2.092
323.90 2.09
324.00 2.088
324.10 2.087
324.20 2.085
324.30 2.083
324.40 2.082
324.50 2.08
324.60 2.079
324.70 2.077
324.80 2.075
324.90 2.074
325.00 2.072
325.10 2.07
325.20 2.069
325.30 2.067
325.40 2.066
325.50 2.064
325.60 2.062
325.70 2.061
325.80 2.059
325.90 2.058
326.00 2.056
326.10 2.054
326.20 2.053
326.30 2.051
326.40 2.05
326.50 2.048
326.60 2.046
326.70 2.045
326.80 2.043
326.90 2.042
327.00 2.04
327.10 2.038
327.20 2.037
327.30 2.035
327.40 2.034
327.50 2.032
327.60 2.03
327.70 2.029
327.80 2.027
327.90 2.026
328.00 2.024
328.10 2.023
328.20 2.021
328.30 2.019
328.40 2.018
328.50 2.016
328.60 2.015
328.70 2.013
328.80 2.012
328.90 2.01
329.00 2.008
329.10 2.007
329.20 2.005
329.30 2.004
329.40 2.002
329.50 2.001
329.60 1.999
329.70 1.998
329.80 1.996
329.90 1.994
330.00 1.993
330.10 1.991
330.20 1.99
330.30 1.988
330.40 1.987
330.50 1.985
330.60 1.984
330.70 1.982
330.80 1.981
330.90 1.979
331.00 1.978
331.10 1.976
331.20 1.975
331.30 1.973
331.40 1.972
331.50 1.97
331.60 1.969
331.70 1.967
331.80 1.966
331.90 1.964
332.00 1.963
332.10 1.961
332.20 1.96
332.30 1.958
332.40 1.956
332.50 1.955
332.60 1.953
332.70 1.952
332.80 1.95
332.90 1.949
333.00 1.947
333.10 1.946
333.20 1.944
333.30 1.943
333.40 1.941
333.50 1.94
333.60 1.939
333.70 1.937
333.80 1.936
333.90 1.934
334.00 1.933
334.10 1.931
334.20 1.93
334.30 1.928
334.40 1.927
334.50 1.925
334.60 1.924
334.70 1.922
334.80 1.921
334.90 1.919
335.00 1.918
335.10 1.916
335.20 1.915
335.30 1.913
335.40 1.912
335.50 1.911
335.60 1.909
335.70 1.908
335.80 1.906
335.90 1.905
336.00 1.903
336.10 1.902
336.20 1.9
336.30 1.899
336.40 1.898
336.50 1.896
336.60 1.895
336.70 1.893
336.80 1.892
336.90 1.89
337.00 1.889
337.10 1.887
337.20 1.886
337.30 1.885
337.40 1.883
337.50 1.882
337.60 1.88
337.70 1.879
337.80 1.877
337.90 1.876
338.00 1.875
338.10 1.873
338.20 1.872
338.30 1.87
338.40 1.869
338.50 1.868
338.60 1.866
338.70 1.865
338.80 1.863
338.90 1.862
339.00 1.86
339.10 1.859
339.20 1.858
339.30 1.856
339.40 1.855
339.50 1.853
339.60 1.852
339.70 1.851
339.80 1.849
339.90 1.848
340.00 1.846
340.10 1.845
340.20 1.844
340.30 1.842
340.40 1.841
340.50 1.84
340.60 1.838
340.70 1.837
340.80 1.835
340.90 1.834
341.00 1.833
341.10 1.831
341.20 1.83
341.30 1.829
341.40 1.827
341.50 1.826
341.60 1.824
341.70 1.823
341.80 1.822
341.90 1.82
342.00 1.819
342.10 1.818
342.20 1.816
342.30 1.815
342.40 1.813
342.50 1.812
342.60 1.811
342.70 1.809
342.80 1.808
342.90 1.807
343.00 1.805
343.10 1.804
343.20 1.803
343.30 1.801
343.40 1.8
343.50 1.799
343.60 1.797
343.70 1.796
343.80 1.795
343.90 1.793
344.00 1.792
344.10 1.79
344.20 1.789
344.30 1.788
344.40 1.786
344.50 1.785
344.60 1.784
344.70 1.783
344.80 1.781
344.90 1.78
345.00 1.779
345.10 1.777
345.20 1.776
345.30 1.775
345.40 1.773
345.50 1.772
345.60 1.771
345.70 1.769
345.80 1.768
345.90 1.767
346.00 1.765
346.10 1.764
346.20 1.763
346.30 1.761
346.40 1.76
346.50 1.759
346.60 1.757
346.70 1.756
346.80 1.755
346.90 1.754
347.00 1.752
347.10 1.751
347.20 1.75
347.30 1.748
347.40 1.747
347.50 1.746
347.60 1.744
347.70 1.743
347.80 1.742
347.90 1.741
348.00 1.739
348.10 1.738
348.20 1.737
348.30 1.735
348.40 1.734
348.50 1.733
348.60 1.732
348.70 1.73
348.80 1.729
348.90 1.728
349.00 1.726
349.10 1.725
349.20 1.724
349.30 1.723
349.40 1.721
349.50 1.72
349.60 1.719
349.70 1.718
349.80 1.716
349.90 1.715
350.00 1.714
350.10 1.712
350.20 1.711
350.30 1.71
350.40 1.709
350.50 1.707
350.60 1.706
350.70 1.705
350.80 1.704
350.90 1.702
351.00 1.701
351.10 1.7
351.20 1.699
351.30 1.697
351.40 1.696
351.50 1.695
351.60 1.694
351.70 1.692
351.80 1.691
351.90 1.69
352.00 1.689
352.10 1.687
352.20 1.686
352.30 1.685
352.40 1.684
352.50 1.683
352.60 1.681
352.70 1.68
352.80 1.679
352.90 1.678
353.00 1.676
353.10 1.675
353.20 1.674
353.30 1.673
353.40 1.672
353.50 1.67
353.60 1.669
353.70 1.668
353.80 1.667
353.90 1.665
354.00 1.664
354.10 1.663
354.20 1.662
354.30 1.661
354.40 1.659
354.50 1.658
354.60 1.657
354.70 1.656
354.80 1.655
354.90 1.653
355.00 1.652
355.10 1.651
355.20 1.65
355.30 1.649
355.40 1.647
355.50 1.646
355.60 1.645
355.70 1.644
355.80 1.643
355.90 1.641
356.00 1.64
356.10 1.639
356.20 1.638
356.30 1.637
356.40 1.635
356.50 1.634
356.60 1.633
356.70 1.632
356.80 1.631
356.90 1.629
357.00 1.628
357.10 1.627
357.20 1.626
357.30 1.625
357.40 1.623
357.50 1.622
357.60 1.621
357.70 1.62
357.80 1.619
357.90 1.618
358.00 1.616
358.10 1.615
358.20 1.614
358.30 1.613
358.40 1.612
358.50 1.611
358.60 1.609
358.70 1.608
358.80 1.607
358.90 1.606
359.00 1.605
359.10 1.604
359.20 1.602
359.30 1.601
359.40 1.6
359.50 1.599
359.60 1.598
359.70 1.597
359.80 1.596
359.90 1.594
360.00 1.593
360.10 1.592
360.20 1.591
360.30 1.59
360.40 1.589
360.50 1.588
360.60 1.586
360.70 1.585
360.80 1.584
360.90 1.583
361.00 1.582
361.10 1.581
361.20 1.58
361.30 1.578
361.40 1.577
361.50 1.576
361.60 1.575
361.70 1.574
361.80 1.573
361.90 1.572
362.00 1.571
362.10 1.569
362.20 1.568
362.30 1.567
362.40 1.566
362.50 1.565
362.60 1.564
362.70 1.563
362.80 1.562
362.90 1.56
363.00 1.559
363.10 1.558
363.20 1.557
363.30 1.556
363.40 1.555
363.50 1.554
363.60 1.553
363.70 1.551
363.80 1.55
363.90 1.549
364.00 1.548
364.10 1.547
364.20 1.546
364.30 1.545
364.40 1.544
364.50 1.542
364.60 1.541
364.70 1.54
364.80 1.539
364.90 1.538
365.00 1.537
365.10 1.536
365.20 1.535
365.30 1.534
365.40 1.533
365.50 1.532
365.60 1.531
365.70 1.53
365.80 1.529
365.90 1.528
366.00 1.527
366.10 1.526
366.20 1.525
366.30 1.524
366.40 1.523
366.50 1.522
366.60 1.521
366.70 1.52
366.80 1.519
366.90 1.518
367.00 1.517
367.10 1.516
367.20 1.515
367.30 1.514
367.40 1.513
367.50 1.512
367.60 1.511
367.70 1.51
367.80 1.509
367.90 1.508
368.00 1.507
368.10 1.507
368.20 1.508
368.30 1.508
368.40 1.508
368.50 1.509
368.60 1.509
368.70 1.51
368.80 1.51
368.90 1.51
369.00 1.511
369.10 1.511
369.20 1.511
369.30 1.512
369.40 1.512
369.50 1.512
369.60 1.513
369.70 1.513
369.80 1.513
369.90 1.514
370.00 1.514
370.10 1.517
370.20 1.52
370.30 1.523
370.40 1.526
370.50 1.529
370.60 1.532
370.70 1.535
370.80 1.538
370.90 1.541
371.00 1.544
371.10 1.547
371.20 1.55
371.30 1.553
371.40 1.556
371.50 1.559
371.60 1.562
371.70 1.565
371.80 1.568
371.90 1.571
372.00 1.574
372.10 1.58
372.20 1.585
372.30 1.59
372.40 1.596
372.50 1.601
372.60 1.606
372.70 1.611
372.80 1.617
372.90 1.622
373.00 1.627
373.10 1.633
373.20 1.638
373.30 1.643
373.40 1.648
373.50 1.654
373.60 1.659
373.70 1.664
373.80 1.669
373.90 1.674
374.00 1.68
374.10 1.685
374.20 1.69
374.30 1.696
374.40 1.701
374.50 1.706
374.60 1.711
374.70 1.717
374.80 1.722
374.90 1.727
375.00 1.733
375.10 1.738
375.20 1.743
375.30 1.748
375.40 1.754
375.50 1.759
375.60 1.764
375.70 1.769
375.80 1.775
375.90 1.78
376.00 1.785
376.10 1.787
376.20 1.79
376.30 1.792
376.40 1.794
376.50 1.796
376.60 1.799
376.70 1.801
376.80 1.803
376.90 1.805
377.00 1.808
377.10 1.802
377.20 1.797
377.30 1.791
377.40 1.785
377.50 1.78
377.60 1.774
377.70 1.769
377.80 1.763
377.90 1.758
378.00 1.752
378.10 1.724
378.20 1.697
378.30 1.669
378.40 1.641
378.50 1.613
378.60 1.585
378.70 1.558
378.80 1.53
378.90 1.502
379.00 1.475
379.10 1.452
379.20 1.428
379.30 1.405
379.40 1.382
379.50 1.359
379.60 1.336
379.70 1.313
379.80 1.29
379.90 1.267
380.00 1.244
380.10 1.28
380.20 1.316
380.30 1.351
380.40 1.386
380.50 1.422
380.60 1.457
380.70 1.493
380.80 1.528
380.90 1.563
381.00 1.598
381.10 1.614
381.20 1.629
381.30 1.645
381.40 1.66
381.50 1.676
381.60 1.678
381.70 1.675
381.80 1.669
381.90 1.658
382.00 1.643
382.10 1.622
382.20 1.597
382.30 1.554
382.40 1.511
382.50 1.467
382.60 1.424
382.70 1.381
382.80 1.338
382.90 1.295
383.00 1.252
383.10 1.209
383.20 1.166
383.30 1.119
383.40 1.069
383.50 1.016
383.60 1.027
383.70 1.079
383.80 1.127
383.90 1.173
384.00 1.22
384.10 1.267
384.20 1.315
384.30 1.363
384.40 1.412
384.50 1.459
384.60 1.504
384.70 1.546
384.80 1.585
384.90 1.62
385.00 1.651
385.10 1.678
385.20 1.702
385.30 1.724
385.40 1.741
385.50 1.756
385.60 1.769
385.70 1.779
385.80 1.787
385.90 1.793
386.00 1.796
386.10 1.797
386.20 1.797
386.30 1.794
386.40 1.789
386.50 1.782
386.60 1.773
386.70 1.762
386.80 1.749
386.90 1.732
387.00 1.714
387.10 1.694
387.20 1.67
387.30 1.644
387.40 1.615
387.50 1.582
387.60 1.545
387.70 1.506
387.80 1.462
387.90 1.415
388.00 1.365
388.10 1.313
388.20 1.26
388.30 1.206
388.40 1.154
388.50 1.102
388.60 1.051
388.70 0.9969
388.80 0.9391
388.90 0.8772
389.00 0.9345
389.10 0.9896
389.20 1.043
389.30 1.093
389.40 1.144
389.50 1.194
389.60 1.246
389.70 1.298
389.80 1.35
389.90 1.399
390.00 1.446
390.10 1.49
390.20 1.53
390.30 1.568
390.40 1.603
390.50 1.633
390.60 1.662
390.70 1.689
390.80 1.713
390.90 1.735
391.00 1.756
391.10 1.774
391.20 1.791
391.30 1.807
391.40 1.821
391.50 1.835
391.60 1.847
391.70 1.857
391.80 1.867
391.90 1.876
392.00 1.883
392.10 1.89
392.20 1.896
392.30 1.901
392.40 1.904
392.50 1.908
392.60 1.909
392.70 1.911
392.80 1.911
392.90 1.91
393.00 1.909
393.10 1.907
393.20 1.903
393.30 1.899
393.40 1.894
393.50 1.888
393.60 1.881
393.70 1.874
393.80 1.865
393.90 1.855
394.00 1.844
394.10 1.832
394.20 1.819
394.30 1.805
394.40 1.789
394.50 1.772
394.60 1.755
394.70 1.735
394.80 1.714
394.90 1.693
395.00 1.669
395.10 1.644
395.20 1.617
395.30 1.588
395.40 1.558
395.50 1.526
395.60 1.49
395.70 1.453
395.80 1.413
395.90 1.371
396.00 1.326
396.10 1.279
396.20 1.23
396.30 1.179
396.40 1.128
396.50 1.076
396.60 1.025
396.70 0.9748
396.80 0.9205
396.90 0.8519
397.00 0.7691
397.10 0.8455
397.20 0.9108
397.30 0.965
397.40 1.014
397.50 1.064
397.60 1.114
397.70 1.164
397.80 1.213
397.90 1.261
398.00 1.306
398.10 1.349
398.20 1.39
398.30 1.428
398.40 1.464
398.50 1.498
398.60 1.529
398.70 1.558
398.80 1.586
398.90 1.611
399.00 1.634
399.10 1.657
399.20 1.678
399.30 1.698
399.40 1.717
399.50 1.734
399.60 1.75
399.70 1.765
399.80 1.779
399.90 1.793
400.00 1.805
400.10 1.817
400.20 1.828
400.30 1.838
400.40 1.847
400.50 1.855
400.60 1.863
400.70 1.871
400.80 1.877
400.90 1.884
401.00 1.889
401.10 1.895
401.20 1.899
401.30 1.904
401.40 1.908
401.50 1.911
401.60 1.915
401.70 1.918
401.80 1.92
401.90 1.922
402.00 1.924
402.10 1.926
402.20 1.927
402.30 1.929
402.40 1.93
402.50 1.93
402.60 1.931
402.70 1.931
402.80 1.931
402.90 1.931
403.00 1.931
403.10 1.93
403.20 1.929
403.30 1.928
403.40 1.927
403.50 1.926
403.60 1.925
403.70 1.923
403.80 1.921
403.90 1.919
404.00 1.917
404.10 1.915
404.20 1.912
404.30 1.909
404.40 1.906
404.50 1.903
404.60 1.9
404.70 1.897
404.80 1.893
404.90 1.889
405.00 1.885
405.10 1.88
405.20 1.876
405.30 1.87
405.40 1.865
405.50 1.86
405.60 1.854
405.70 1.848
405.80 1.841
405.90 1.834
406.00 1.827
406.10 1.819
406.20 1.811
406.30 1.802
406.40 1.793
406.50 1.784
406.60 1.774
406.70 1.763
406.80 1.752
406.90 1.74
407.00 1.727
407.10 1.713
407.20 1.699
407.30 1.683
407.40 1.667
407.50 1.65
407.60 1.632
407.70 1.613
407.80 1.593
407.90 1.571
408.00 1.549
408.10 1.526
408.20 1.501
408.30 1.476
408.40 1.449
408.50 1.421
408.60 1.392
408.70 1.362
408.80 1.33
408.90 1.296
409.00 1.262
409.10 1.225
409.20 1.187
409.30 1.147
409.40 1.105
409.50 1.061
409.60 1.016
409.70 0.9708
409.80 0.9254
409.90 0.8801
410.00 0.8256
410.10 0.7631
410.20 0.6927
410.30 0.7841
410.40 0.8539
410.50 0.9021
410.60 0.9461
410.70 0.99
410.80 1.034
410.90 1.077
411.00 1.118
411.10 1.158
411.20 1.194
411.30 1.23
411.40 1.264
411.50 1.295
411.60 1.326
411.70 1.355
411.80 1.382
411.90 1.408
412.00 1.433
412.10 1.456
412.20 1.479
412.30 1.5
412.40 1.52
412.50 1.539
412.60 1.557
412.70 1.574
412.80 1.59
412.90 1.605
413.00 1.619
413.10 1.632
413.20 1.644
413.30 1.655
413.40 1.665
413.50 1.675
413.60 1.684
413.70 1.692
413.80 1.7
413.90 1.707
414.00 1.714
414.10 1.72
414.20 1.726
414.30 1.731
414.40 1.737
414.50 1.741
414.60 1.745
414.70 1.749
414.80 1.753
414.90 1.757
415.00 1.76
415.10 1.763
415.20 1.765
415.30 1.768
415.40 1.77
415.50 1.772
415.60 1.774
415.70 1.775
415.80 1.777
415.90 1.778
416.00 1.779
416.10 1.78
416.20 1.781
416.30 1.782
416.40 1.783
416.50 1.784
416.60 1.784
416.70 1.785
416.80 1.785
416.90 1.785
417.00 1.786
417.10 1.786
417.20 1.786
417.30 1.786
417.40 1.786
417.50 1.785
417.60 1.785
417.70 1.785
417.80 1.785
417.90 1.784
418.00 1.784
418.10 1.783
418.20 1.783
418.30 1.783
418.40 1.782
418.50 1.781
418.60 1.781
418.70 1.78
418.80 1.779
418.90 1.779
419.00 1.778
419.10 1.777
419.20 1.776
419.30 1.775
419.40 1.774
419.50 1.774
419.60 1.773
419.70 1.772
419.80 1.771
419.90 1.77
420.00 1.769
420.10 1.768
420.20 1.767
420.30 1.766
420.40 1.765
420.50 1.764
420.60 1.762
420.70 1.761
420.80 1.76
420.90 1.759
421.00 1.758
421.10 1.757
421.20 1.755
421.30 1.754
421.40 1.753
421.50 1.752
421.60 1.75
421.70 1.749
421.80 1.748
421.90 1.747
422.00 1.745
422.10 1.744
422.20 1.743
422.30 1.741
422.40 1.74
422.50 1.739
422.60 1.737
422.70 1.736
422.80 1.734
422.90 1.733
423.00 1.732
423.10 1.73
423.20 1.729
423.30 1.727
423.40 1.726
423.50 1.724
423.60 1.723
423.70 1.721
423.80 1.719
423.90 1.718
424.00 1.716
424.10 1.715
424.20 1.713
424.30 1.711
424.40 1.71
424.50 1.708
424.60 1.706
424.70 1.704
424.80 1.703
424.90 1.701
425.00 1.699
425.10 1.697
425.20 1.695
425.30 1.693
425.40 1.691
425.50 1.689
425.60 1.687
425.70 1.685
425.80 1.683
425.90 1.681
426.00 1.679
426.10 1.677
426.20 1.674
426.30 1.672
426.40 1.67
426.50 1.667
426.60 1.665
426.70 1.662
426.80 1.66
426.90 1.657
427.00 1.654
427.10 1.652
427.20 1.649
427.30 1.646
427.40 1.643
427.50 1.64
427.60 1.637
427.70 1.634
427.80 1.631
427.90 1.627
428.00 1.624
428.10 1.62
428.20 1.617
428.30 1.613
428.40 1.609
428.50 1.605
428.60 1.601
428.70 1.597
428.80 1.592
428.90 1.587
429.00 1.583
429.10 1.578
429.20 1.573
429.30 1.567
429.40 1.562
429.50 1.556
429.60 1.55
429.70 1.544
429.80 1.537
429.90 1.53
430.00 1.523
430.10 1.516
430.20 1.508
430.30 1.5
430.40 1.492
430.50 1.483
430.60 1.474
430.70 1.464
430.80 1.454
430.90 1.444
431.00 1.433
431.10 1.421
431.20 1.41
431.30 1.397
431.40 1.384
431.50 1.37
431.60 1.355
431.70 1.339
431.80 1.323
431.90 1.305
432.00 1.287
432.10 1.268
432.20 1.247
432.30 1.224
432.40 1.201
432.50 1.176
432.60 1.149
432.70 1.121
432.80 1.092
432.90 1.063
433.00 1.033
433.10 1.004
433.20 0.9733
433.30 0.9423
433.40 0.9086
433.50 0.8739
433.60 0.8382
433.70 0.8014
433.80 0.7613
433.90 0.7179
434.00 0.6082
434.10 0.6094
434.20 0.7212
434.30 0.7629
434.40 0.8017
434.50 0.8374
434.60 0.8719
434.70 0.9053
434.80 0.9377
434.90 0.9672
435.00 0.996
435.10 1.024
435.20 1.052
435.30 1.08
435.40 1.107
435.50 1.133
435.60 1.157
435.70 1.181
435.80 1.201
435.90 1.221
436.00 1.24
436.10 1.257
436.20 1.273
436.30 1.288
436.40 1.302
436.50 1.315
436.60 1.328
436.70 1.339
436.80 1.35
436.90 1.36
437.00 1.369
437.10 1.378
437.20 1.386
437.30 1.394
437.40 1.402
437.50 1.409
437.60 1.415
437.70 1.421
437.80 1.427
437.90 1.432
438.00 1.437
438.10 1.442
438.20 1.446
438.30 1.451
438.40 1.454
438.50 1.458
438.60 1.461
438.70 1.464
438.80 1.467
438.90 1.47
439.00 1.473
439.10 1.475
439.20 1.477
439.30 1.479
439.40 1.481
439.50 1.482
439.60 1.484
439.70 1.485
439.80 1.487
439.90 1.488
440.00 1.489
440.10 1.49
440.20 1.491
440.30 1.491
440.40 1.492
440.50 1.492
440.60 1.493
440.70 1.493
440.80 1.494
440.90 1.494
441.00 1.494
441.10 1.494
441.20 1.495
441.30 1.495
441.40 1.495
441.50 1.494
441.60 1.494
441.70 1.494
441.80 1.494
441.90 1.494
442.00 1.494
442.10 1.493
442.20 1.493
442.30 1.493
442.40 1.492
442.50 1.492
442.60 1.491
442.70 1.491
442.80 1.49
442.90 1.49
443.00 1.489
443.10 1.489
443.20 1.488
443.30 1.487
443.40 1.487
443.50 1.486
443.60 1.485
443.70 1.485
443.80 1.484
443.90 1.483
444.00 1.483
444.10 1.482
444.20 1.481
444.30 1.48
444.40 1.479
444.50 1.479
444.60 1.478
444.70 1.477
444.80 1.476
444.90 1.475
445.00 1.475
445.10 1.474
445.20 1.473
445.30 1.472
445.40 1.471
445.50 1.47
445.60 1.469
445.70 1.468
445.80 1.468
445.90 1.467
446.00 1.466
446.10 1.465
446.20 1.464
446.30 1.463
446.40 1.462
446.50 1.461
446.60 1.46
446.70 1.459
446.80 1.458
446.90 1.457
447.00 1.456
447.10 1.455
447.20 1.454
447.30 1.454
447.40 1.453
447.50 1.452
447.60 1.451
447.70 1.45
447.80 1.449
447.90 1.448
448.00 1.447
448.10 1.446
448.20 1.445
448.30 1.444
448.40 1.443
448.50 1.442
448.60 1.441
448.70 1.44
448.80 1.439
448.90 1.438
449.00 1.437
449.10 1.436
449.20 1.435
449.30 1.434
449.40 1.433
449.50 1.432
449.60 1.431
449.70 1.43
449.80 1.429
449.90 1.428
450.00 1.427
450.10 1.426
450.20 1.425
450.30 1.424
450.40 1.423
450.50 1.422
450.60 1.421
450.70 1.42
450.80 1.419
450.90 1.418
451.00 1.417
451.10 1.416
451.20 1.415
451.30 1.414
451.40 1.413
451.50 1.412
451.60 1.411
451.70 1.41
451.80 1.409
451.90 1.408
452.00 1.407
452.10 1.406
452.20 1.405
452.30 1.404
452.40 1.403
452.50 1.402
452.60 1.401
452.70 1.4
452.80 1.399
452.90 1.398
453.00 1.397
453.10 1.396
453.20 1.395
453.30 1.394
453.40 1.393
453.50 1.392
453.60 1.391
453.70 1.39
453.80 1.389
453.90 1.388
454.00 1.387
454.10 1.386
454.20 1.385
454.30 1.384
454.40 1.383
454.50 1.382
454.60 1.381
454.70 1.38
454.80 1.379
454.90 1.378
455.00 1.377
455.10 1.376
455.20 1.375
455.30 1.374
455.40 1.373
455.50 1.372
455.60 1.371
455.70 1.37
455.80 1.369
455.90 1.368
456.00 1.367
456.10 1.366
456.20 1.365
456.30 1.364
456.40 1.363
456.50 1.362
456.60 1.361
456.70 1.36
456.80 1.359
456.90 1.358
457.00 1.357
457.10 1.356
457.20 1.355
457.30 1.354
457.40 1.353
457.50 1.352
457.60 1.351
457.70 1.35
457.80 1.349
457.90 1.349
458.00 1.348
458.10 1.347
458.20 1.346
458.30 1.345
458.40 1.344
458.50 1.343
458.60 1.342
458.70 1.341
458.80 1.34
458.90 1.339
459.00 1.338
459.10 1.337
459.20 1.336
459.30 1.335
459.40 1.334
459.50 1.333
459.60 1.332
459.70 1.331
459.80 1.33
459.90 1.329
460.00 1.328
460.10 1.327
460.20 1.326
460.30 1.325
460.40 1.324
460.50 1.323
460.60 1.322
460.70 1.321
460.80 1.32
460.90 1.319
461.00 1.318
461.10 1.317
461.20 1.316
461.30 1.315
461.40 1.314
461.50 1.313
461.60 1.313
461.70 1.312
461.80 1.311
461.90 1.31
462.00 1.309
462.10 1.308
462.20 1.307
462.30 1.306
462.40 1.305
462.50 1.304
462.60 1.303
462.70 1.302
462.80 1.301
462.90 1.3
463.00 1.299
463.10 1.298
463.20 1.297
463.30 1.296
463.40 1.295
463.50 1.294
463.60 1.293
463.70 1.292
463.80 1.291
463.90 1.29
464.00 1.289
464.10 1.289
464.20 1.288
464.30 1.287
464.40 1.286
464.50 1.285
464.60 1.284
464.70 1.283
464.80 1.282
464.90 1.281
465.00 1.28
465.10 1.279
465.20 1.278
465.30 1.277
465.40 1.276
465.50 1.275
465.60 1.274
465.70 1.273
465.80 1.272
465.90 1.271
466.00 1.27
466.10 1.27
466.20 1.269
466.30 1.268
466.40 1.267
466.50 1.266
466.60 1.265
466.70 1.264
466.80 1.263
466.90 1.262
467.00 1.261
467.10 1.26
467.20 1.259
467.30 1.258
467.40 1.257
467.50 1.256
467.60 1.255
467.70 1.254
467.80 1.253
467.90 1.252
468.00 1.251
468.10 1.25
468.20 1.25
468.30 1.249
468.40 1.248
468.50 1.247
468.60 1.246
468.70 1.245
468.80 1.244
468.90 1.243
469.00 1.242
469.10 1.241
469.20 1.24
469.30 1.239
469.40 1.238
469.50 1.237
469.60 1.236
469.70 1.235
469.80 1.234
469.90 1.233
470.00 1.232
470.10 1.231
470.20 1.23
470.30 1.229
470.40 1.229
470.50 1.228
470.60 1.227
470.70 1.226
470.80 1.225
470.90 1.224
471.00 1.223
471.10 1.222
471.20 1.221
471.30 1.22
471.40 1.219
471.50 1.218
471.60 1.217
471.70 1.216
471.80 1.215
471.90 1.214
472.00 1.213
472.10 1.212
472.20 1.211
472.30 1.21
472.40 1.209
472.50 1.208
472.60 1.207
472.70 1.206
472.80 1.205
472.90 1.204
473.00 1.203
473.10 1.202
473.20 1.201
473.30 1.2
473.40 1.199
473.50 1.198
473.60 1.197
473.70 1.196
473.80 1.195
473.90 1.194
474.00 1.193
474.10 1.192
474.20 1.191
474.30 1.189
474.40 1.188
474.50 1.187
474.60 1.186
474.70 1.185
474.80 1.184
474.90 1.183
475.00 1.182
475.10 1.181
475.20 1.18
475.30 1.179
475.40 1.177
475.50 1.176
475.60 1.175
475.70 1.174
475.80 1.173
475.90 1.172
476.00 1.17
476.10 1.169
476.20 1.168
476.30 1.167
476.40 1.166
476.50 1.164
476.60 1.163
476.70 1.162
476.80 1.16
476.90 1.159
477.00 1.158
477.10 1.157
477.20 1.155
477.30 1.154
477.40 1.152
477.50 1.151
477.60 1.15
477.70 1.148
477.80 1.147
477.90 1.145
478.00 1.144
478.10 1.142
478.20 1.141
478.30 1.139
478.40 1.137
478.50 1.136
478.60 1.134
478.70 1.132
478.80 1.131
478.90 1.129
479.00 1.127
479.10 1.126
479.20 1.124
479.30 1.121
479.40 1.119
479.50 1.117
479.60 1.115
479.70 1.113
479.80 1.111
479.90 1.109
480.00 1.106
480.10 1.104
480.20 1.102
480.30 1.099
480.40 1.096
480.50 1.093
480.60 1.09
480.70 1.087
480.80 1.085
480.90 1.082
481.00 1.079
481.10 1.076
481.20 1.072
481.30 1.068
481.40 1.064
481.50 1.06
481.60 1.056
481.70 1.052
481.80 1.048
481.90 1.044
482.00 1.039
482.10 1.035
482.20 1.03
482.30 1.024
482.40 1.017
482.50 1.011
482.60 1.005
482.70 0.9986
482.80 0.9923
482.90 0.9861
483.00 0.9799
483.10 0.9737
483.20 0.965
483.30 0.9552
483.40 0.9454
483.50 0.9356
483.60 0.9259
483.70 0.9161
483.80 0.9063
483.90 0.8966
484.00 0.8868
484.10 0.8771
484.20 0.8651
484.30 0.8519
484.40 0.8388
484.50 0.8257
484.60 0.8127
484.70 0.7979
484.80 0.7824
484.90 0.7668
485.00 0.7513
485.10 0.7358
485.20 0.7193
485.30 0.7024
485.40 0.6844
485.50 0.6659
485.60 0.6461
485.70 0.6258
485.80 0.6029
485.90 0.5789
486.00 0.5479
486.10 0.4367
486.20 0.4981
486.30 0.5597
486.40 0.5854
486.50 0.609
486.60 0.6299
486.70 0.6495
486.80 0.6678
486.90 0.6855
487.00 0.702
487.10 0.718
487.20 0.733
487.30 0.7475
487.40 0.762
487.50 0.7764
487.60 0.7909
487.70 0.8035
487.80 0.8154
487.90 0.8273
488.00 0.8391
488.10 0.8509
488.20 0.8604
488.30 0.8687
488.40 0.877
488.50 0.8853
488.60 0.8935
488.70 0.9018
488.80 0.9101
488.90 0.9183
489.00 0.9266
489.10 0.9348
489.20 0.9406
489.30 0.9453
489.40 0.9499
489.50 0.9545
489.60 0.9591
489.70 0.9637
489.80 0.9684
489.90 0.973
490.00 0.9776
490.10 0.9822
490.20 0.9853
490.30 0.9877
490.40 0.9902
490.50 0.9926
490.60 0.995
490.70 0.9975
490.80 0.9999
490.90 1.002
491.00 1.005
491.10 1.007
491.20 1.009
491.30 1.01
491.40 1.011
491.50 1.012
491.60 1.013
491.70 1.015
491.80 1.016
491.90 1.017
492.00 1.018
492.10 1.019
492.20 1.02
492.30 1.021
492.40 1.021
492.50 1.021
492.60 1.022
492.70 1.022
492.80 1.023
492.90 1.023
493.00 1.024
493.10 1.024
493.20 1.025
493.30 1.025
493.40 1.025
493.50 1.025
493.60 1.025
493.70 1.025
493.80 1.025
493.90 1.025
494.00 1.025
494.10 1.025
494.20 1.025
494.30 1.025
494.40 1.025
494.50 1.025
494.60 1.024
494.70 1.024
494.80 1.024
494.90 1.024
495.00 1.024
495.10 1.023
495.20 1.023
495.30 1.023
495.40 1.022
495.50 1.022
495.60 1.022
495.70 1.021
495.80 1.021
495.90 1.021
496.00 1.02
496.10 1.02
496.20 1.02
496.30 1.019
496.40 1.019
496.50 1.018
496.60 1.018
496.70 1.017
496.80 1.017
496.90 1.016
497.00 1.016
497.10 1.016
497.20 1.015
497.30 1.015
497.40 1.014
497.50 1.014
497.60 1.013
497.70 1.013
497.80 1.012
497.90 1.012
498.00 1.011
498.10 1.011
498.20 1.01
498.30 1.01
498.40 1.009
498.50 1.008
498.60 1.008
498.70 1.007
498.80 1.007
498.90 1.006
499.00 1.006
499.10 1.005
499.20 1.005
499.30 1.004
499.40 1.003
499.50 1.003
499.60 1.002
499.70 1.002
499.80 1.001
499.90 1.001
500.00 1
500.10 0.9994
500.20 0.9988
500.30 0.9983
500.40 0.9977
500.50 0.9971
500.60 0.9965
500.70 0.9959
500.80 0.9953
500.90 0.9947
501.00 0.9941
501.10 0.9935
501.20 0.9929
501.30 0.9923
501.40 0.9917
501.50 0.9911
501.60 0.9905
501.70 0.9899
501.80 0.9893
501.90 0.9887
502.00 0.9881
502.10 0.9875
502.20 0.9868
502.30 0.9862
502.40 0.9856
502.50 0.985
502.60 0.9844
502.70 0.9838
502.80 0.9832
502.90 0.9826
503.00 0.982
503.10 0.9814
503.20 0.9807
503.30 0.9801
503.40 0.9795
503.50 0.9789
503.60 0.9783
503.70 0.9776
503.80 0.977
503.90 0.9764
504.00 0.9758
504.10 0.9752
504.20 0.9745
504.30 0.9739
504.40 0.9733
504.50 0.9727
504.60 0.972
504.70 0.9714
504.80 0.9708
504.90 0.9702
505.00 0.9695
505.10 0.9689
505.20 0.9683
505.30 0.9677
505.40 0.9671
505.50 0.9664
505.60 0.9658
505.70 0.9652
505.80 0.9646
505.90 0.964
506.00 0.9633
506.10 0.9627
506.20 0.9621
506.30 0.9615
506.40 0.9609
506.50 0.9603
506.60 0.9597
506.70 0.959
506.80 0.9584
506.90 0.9578
507.00 0.9572
507.10 0.9566
507.20 0.956
507.30 0.9553
507.40 0.9547
507.50 0.9541
507.60 0.9535
507.70 0.9529
507.80 0.9523
507.90 0.9516
508.00 0.951
508.10 0.9504
508.20 0.9498
508.30 0.9492
508.40 0.9485
508.50 0.9479
508.60 0.9473
508.70 0.9467
508.80 0.9461
508.90 0.9454
509.00 0.9448
509.10 0.9442
509.20 0.9436
509.30 0.943
509.40 0.9424
509.50 0.9418
509.60 0.9411
509.70 0.9405
509.80 0.9399
509.90 0.9393
510.00 0.9387
510.10 0.9381
510.20 0.9375
510.30 0.9369
510.40 0.9363
510.50 0.9356
510.60 0.935
510.70 0.9344
510.80 0.9338
510.90 0.9332
511.00 0.9326
511.10 0.932
511.20 0.9314
511.30 0.9308
511.40 0.9301
511.50 0.9295
511.60 0.9289
511.70 0.9283
511.80 0.9277
511.90 0.9271
512.00 0.9265
512.10 0.9259
512.20 0.9253
512.30 0.9247
512.40 0.9241
512.50 0.9235
512.60 0.9229
512.70 0.9223
512.80 0.9217
512.90 0.921
513.00 0.9204
513.10 0.9198
513.20 0.9192
513.30 0.9186
513.40 0.918
513.50 0.9174
513.60 0.9168
513.70 0.9162
513.80 0.9156
513.90 0.915
514.00 0.9144
514.10 0.9138
514.20 0.9132
514.30 0.9127
514.40 0.9121
514.50 0.9115
514.60 0.9109
514.70 0.9103
514.80 0.9097
514.90 0.9091
515.00 0.9085
515.10 0.9079
515.20 0.9073
515.30 0.9068
515.40 0.9062
515.50 0.9056
515.60 0.905
515.70 0.9044
515.80 0.9038
515.90 0.9032
516.00 0.9026
516.10 0.902
516.20 0.9014
516.30 0.9008
516.40 0.9002
516.50 0.8997
516.60 0.8991
516.70 0.8985
516.80 0.8979
516.90 0.8973
517.00 0.8967
517.10 0.8961
517.20 0.8955
517.30 0.895
517.40 0.8944
517.50 0.8938
517.60 0.8932
517.70 0.8926
517.80 0.892
517.90 0.8914
518.00 0.8909
518.10 0.8903
518.20 0.8897
518.30 0.8891
518.40 0.8886
518.50 0.888
518.60 0.8874
518.70 0.8868
518.80 0.8863
518.90 0.8857
519.00 0.8851
519.10 0.8845
519.20 0.884
519.30 0.8834
519.40 0.8828
519.50 0.8822
519.60 0.8816
519.70 0.8811
519.80 0.8805
519.90 0.8799
520.00 0.8793
520.10 0.8788
520.20 0.8782
520.30 0.8776
520.40 0.8771
520.50 0.8765
520.60 0.8759
520.70 0.8754
520.80 0.8748
520.90 0.8742
521.00 0.8737
521.10 0.8731
521.20 0.8725
521.30 0.872
521.40 0.8714
521.50 0.8708
521.60 0.8703
521.70 0.8697
521.80 0.8691
521.90 0.8686
522.00 0.868
522.10 0.8675
522.20 0.8669
522.30 0.8663
522.40 0.8658
522.50 0.8652
522.60 0.8646
522.70 0.8641
522.80 0.8635
522.90 0.8629
523.00 0.8624
523.10 0.8618
523.20 0.8612
523.30 0.8607
523.40 0.8601
523.50 0.8596
523.60 0.859
523.70 0.8585
523.80 0.8579
523.90 0.8574
524.00 0.8568
524.10 0.8562
524.20 0.8557
524.30 0.8551
524.40 0.8546
524.50 0.854
524.60 0.8535
524.70 0.8529
524.80 0.8524
524.90 0.8518
525.00 0.8513
525.10 0.8507
525.20 0.8502
525.30 0.8496
525.40 0.8491
525.50 0.8485
525.60 0.848
525.70 0.8475
525.80 0.8469
525.90 0.8464
526.00 0.8458
526.10 0.8453
526.20 0.8448
526.30 0.8442
526.40 0.8437
526.50 0.8431
526.60 0.8426
526.70 0.842
526.80 0.8415
526.90 0.8409
527.00 0.8404
527.10 0.8398
527.20 0.8393
527.30 0.8388
527.40 0.8382
527.50 0.8377
527.60 0.8371
527.70 0.8366
527.80 0.8361
527.90 0.8355
528.00 0.835
528.10 0.8344
528.20 0.8339
528.30 0.8334
528.40 0.8328
528.50 0.8323
528.60 0.8318
528.70 0.8312
528.80 0.8307
528.90 0.8302
529.00 0.8296
529.10 0.8291
529.20 0.8286
529.30 0.828
529.40 0.8275
529.50 0.827
529.60 0.8264
529.70 0.8259
529.80 0.8254
529.90 0.8248
530.00 0.8243
530.10 0.8238
530.20 0.8232
530.30 0.8227
530.40 0.8222
530.50 0.8217
530.60 0.8211
530.70 0.8206
530.80 0.8201
530.90 0.8196
531.00 0.819
531.10 0.8185
531.20 0.818
531.30 0.8175
531.40 0.8169
531.50 0.8164
531.60 0.8159
531.70 0.8154
531.80 0.8149
531.90 0.8143
532.00 0.8138
532.10 0.8133
532.20 0.8128
532.30 0.8123
532.40 0.8117
532.50 0.8112
532.60 0.8107
532.70 0.8102
532.80 0.8097
532.90 0.8092
533.00 0.8086
533.10 0.8081
533.20 0.8076
533.30 0.8071
533.40 0.8066
533.50 0.8061
533.60 0.8055
533.70 0.805
533.80 0.8045
533.90 0.804
534.00 0.8035
534.10 0.803
534.20 0.8025
534.30 0.8019
534.40 0.8014
534.50 0.8009
534.60 0.8004
534.70 0.7999
534.80 0.7994
534.90 0.7989
535.00 0.7984
535.10 0.7979
535.20 0.7973
535.30 0.7968
535.40 0.7963
535.50 0.7958
535.60 0.7953
535.70 0.7948
535.80 0.7943
535.90 0.7938
536.00 0.7933
536.10 0.7928
536.20 0.7923
536.30 0.7918
536.40 0.7913
536.50 0.7908
536.60 0.7903
536.70 0.7898
536.80 0.7893
536.90 0.7888
537.00 0.7883
537.10 0.7878
537.20 0.7873
537.30 0.7868
537.40 0.7863
537.50 0.7858
537.60 0.7853
537.70 0.7848
537.80 0.7843
537.90 0.7838
538.00 0.7833
538.10 0.7828
538.20 0.7823
538.30 0.7818
538.40 0.7813
538.50 0.7808
538.60 0.7803
538.70 0.7798
538.80 0.7793
538.90 0.7788
539.00 0.7783
539.10 0.7778
539.20 0.7773
539.30 0.7768
539.40 0.7764
539.50 0.7759
539.60 0.7754
539.70 0.7749
539.80 0.7744
539.90 0.7739
540.00 0.7734
540.10 0.7729
540.20 0.7724
540.30 0.772
540.40 0.7715
540.50 0.771
540.60 0.7705
540.70 0.77
540.80 0.7695
540.90 0.769
541.00 0.7686
541.10 0.7681
541.20 0.7676
541.30 0.7671
541.40 0.7666
541.50 0.7661
541.60 0.7656
541.70 0.7652
541.80 0.7647
541.90 0.7642
542.00 0.7637
542.10 0.7632
542.20 0.7627
542.30 0.7623
542.40 0.7618
542.50 0.7613
542.60 0.7608
542.70 0.7603
542.80 0.7599
542.90 0.7594
543.00 0.7589
543.10 0.7584
543.20 0.758
543.30 0.7575
543.40 0.757
543.50 0.7565
543.60 0.7561
543.70 0.7556
543.80 0.7551
543.90 0.7547
544.00 0.7542
544.10 0.7537
544.20 0.7532
544.30 0.7528
544.40 0.7523
544.50 0.7518
544.60 0.7513
544.70 0.7509
544.80 0.7504
544.90 0.7499
545.00 0.7494
545.10 0.749
545.20 0.7485
545.30 0.748
545.40 0.7476
545.50 0.7471
545.60 0.7466
545.70 0.7462
545.80 0.7457
545.90 0.7452
546.00 0.7448
546.10 0.7443
546.20 0.7439
546.30 0.7434
546.40 0.7429
546.50 0.7425
546.60 0.742
546.70 0.7415
546.80 0.7411
546.90 0.7406
547.00 0.7402
547.10 0.7397
547.20 0.7392
547.30 0.7388
547.40 0.7383
547.50 0.7378
547.60 0.7374
547.70 0.7369
547.80 0.7365
547.90 0.736
548.00 0.7356
548.10 0.7351
548.20 0.7346
548.30 0.7342
548.40 0.7337
548.50 0.7333
548.60 0.7328
548.70 0.7324
548.80 0.7319
548.90 0.7314
549.00 0.731
549.10 0.7305
549.20 0.7301
549.30 0.7296
549.40 0.7292
549.50 0.7287
549.60 0.7283
549.70 0.7278
549.80 0.7273
549.90 0.7269
550.00 0.7264
550.10 0.726
550.20 0.7255
550.30 0.7251
550.40 0.7246
550.50 0.7242
550.60 0.7237
550.70 0.7233
550.80 0.7228
550.90 0.7224
551.00 0.7219
551.10 0.7215
551.20 0.721
551.30 0.7206
551.40 0.7201
551.50 0.7197
551.60 0.7193
551.70 0.7188
551.80 0.7184
551.90 0.7179
552.00 0.7175
552.10 0.717
552.20 0.7166
552.30 0.7162
552.40 0.7157
552.50 0.7153
552.60 0.7148
552.70 0.7144
552.80 0.7139
552.90 0.7135
553.00 0.713
553.10 0.7126
553.20 0.7122
553.30 0.7117
553.40 0.7113
553.50 0.7108
553.60 0.7104
553.70 0.71
553.80 0.7095
553.90 0.7091
554.00 0.7087
554.10 0.7082
554.20 0.7078
554.30 0.7074
554.40 0.7069
554.50 0.7065
554.60 0.706
554.70 0.7056
554.80 0.7052
554.90 0.7047
555.00 0.7043
555.10 0.7039
555.20 0.7034
555.30 0.703
555.40 0.7026
555.50 0.7021
555.60 0.7017
555.70 0.7013
555.80 0.7008
555.90 0.7004
556.00 0.6999
556.10 0.6995
556.20 0.6991
556.30 0.6986
556.40 0.6982
556.50 0.6978
556.60 0.6974
556.70 0.6969
556.80 0.6965
556.90 0.6961
557.00 0.6956
557.10 0.6952
557.20 0.6948
557.30 0.6944
557.40 0.6939
557.50 0.6935
557.60 0.6931
557.70 0.6926
557.80 0.6922
557.90 0.6918
558.00 0.6914
558.10 0.6909
558.20 0.6905
558.30 0.6901
558.40 0.6897
558.50 0.6892
558.60 0.6888
558.70 0.6884
558.80 0.688
558.90 0.6876
559.00 0.6871
559.10 0.6867
559.20 0.6863
559.30 0.6859
559.40 0.6855
559.50 0.685
559.60 0.6846
559.70 0.6842
559.80 0.6838
559.90 0.6834
560.00 0.683
560.10 0.6826
560.20 0.6821
560.30 0.6817
560.40 0.6813
560.50 0.6809
560.60 0.6805
560.70 0.68
560.80 0.6796
560.90 0.6792
561.00 0.6788
561.10 0.6784
561.20 0.678
561.30 0.6775
561.40 0.6771
561.50 0.6767
561.60 0.6763
561.70 0.6759
561.80 0.6755
561.90 0.6751
562.00 0.6747
562.10 0.6743
562.20 0.6738
562.30 0.6734
562.40 0.673
562.50 0.6726
562.60 0.6722
562.70 0.6718
562.80 0.6714
562.90 0.6709
563.00 0.6705
563.10 0.6701
563.20 0.6697
563.30 0.6693
563.40 0.6689
563.50 0.6685
563.60 0.6681
563.70 0.6677
563.80 0.6673
563.90 0.6669
564.00 0.6665
564.10 0.6661
564.20 0.6657
564.30 0.6653
564.40 0.6649
564.50 0.6645
564.60 0.664
564.70 0.6636
564.80 0.6632
564.90 0.6628
565.00 0.6624
565.10 0.662
565.20 0.6616
565.30 0.6612
565.40 0.6608
565.50 0.6604
565.60 0.66
565.70 0.6596
565.80 0.6592
565.90 0.6588
566.00 0.6584
566.10 0.658
566.20 0.6576
566.30 0.6572
566.40 0.6568
566.50 0.6564
566.60 0.656
566.70 0.6556
566.80 0.6552
566.90 0.6548
567.00 0.6544
567.10 0.654
567.20 0.6536
567.30 0.6533
567.40 0.6529
567.50 0.6525
567.60 0.6521
567.70 0.6517
567.80 0.6513
567.90 0.6509
568.00 0.6505
568.10 0.6501
568.20 0.6497
568.30 0.6493
568.40 0.6489
568.50 0.6485
568.60 0.6481
568.70 0.6478
568.80 0.6474
568.90 0.647
569.00 0.6466
569.10 0.6462
569.20 0.6458
569.30 0.6454
569.40 0.645
569.50 0.6446
569.60 0.6442
569.70 0.6439
569.80 0.6435
569.90 0.6431
570.00 0.6427
570.10 0.6423
570.20 0.6419
570.30 0.6415
570.40 0.6411
570.50 0.6408
570.60 0.6404
570.70 0.64
570.80 0.6396
570.90 0.6392
571.00 0.6388
571.10 0.6385
571.20 0.6381
571.30 0.6377
571.40 0.6373
571.50 0.6369
571.60 0.6366
571.70 0.6362
571.80 0.6358
571.90 0.6354
572.00 0.635
572.10 0.6346
572.20 0.6343
572.30 0.6339
572.40 0.6335
572.50 0.6331
572.60 0.6327
572.70 0.6323
572.80 0.632
572.90 0.6316
573.00 0.6312
573.10 0.6308
573.20 0.6304
573.30 0.6301
573.40 0.6297
573.50 0.6293
573.60 0.6289
573.70 0.6285
573.80 0.6282
573.90 0.6278
574.00 0.6274
574.10 0.627
574.20 0.6267
574.30 0.6263
574.40 0.6259
574.50 0.6255
574.60 0.6252
574.70 0.6248
574.80 0.6244
574.90 0.624
575.00 0.6237
575.10 0.6233
575.20 0.6229
575.30 0.6226
575.40 0.6222
575.50 0.6218
575.60 0.6214
575.70 0.6211
575.80 0.6207
575.90 0.6203
576.00 0.62
576.10 0.6196
576.20 0.6192
576.30 0.6188
576.40 0.6185
576.50 0.6181
576.60 0.6178
576.70 0.6174
576.80 0.617
576.90 0.6167
577.00 0.6163
577.10 0.6159
577.20 0.6156
577.30 0.6152
577.40 0.6148
577.50 0.6145
577.60 0.6141
577.70 0.6137
577.80 0.6134
577.90 0.613
578.00 0.6126
578.10 0.6123
578.20 0.6119
578.30 0.6115
578.40 0.6112
578.50 0.6108
578.60 0.6104
578.70 0.6101
578.80 0.6097
578.90 0.6093
579.00 0.609
579.10 0.6086
579.20 0.6082
579.30 0.6079
579.40 0.6075
579.50 0.6072
579.60 0.6068
579.70 0.6064
579.80 0.6061
579.90 0.6057
580.00 0.6054
580.10 0.605
580.20 0.6047
580.30 0.6043
580.40 0.604
580.50 0.6036
580.60 0.6032
580.70 0.6029
580.80 0.6025
580.90 0.6022
581.00 0.6018
581.10 0.6015
581.20 0.6011
581.30 0.6008
581.40 0.6004
581.50 0.6
581.60 0.5997
581.70 0.5993
581.80 0.599
581.90 0.5986
582.00 0.5983
582.10 0.5979
582.20 0.5976
582.30 0.5972
582.40 0.5968
582.50 0.5965
582.60 0.5961
582.70 0.5958
582.80 0.5954
582.90 0.5951
583.00 0.5947
583.10 0.5944
583.20 0.594
583.30 0.5937
583.40 0.5933
583.50 0.5929
583.60 0.5926
583.70 0.5923
583.80 0.5919
583.90 0.5916
584.00 0.5912
584.10 0.5909
584.20 0.5905
584.30 0.5902
584.40 0.5898
584.50 0.5895
584.60 0.5891
584.70 0.5888
584.80 0.5885
584.90 0.5881
585.00 0.5878
585.10 0.5874
585.20 0.5871
585.30 0.5867
585.40 0.5864
585.50 0.586
585.60 0.5857
585.70 0.5854
585.80 0.585
585.90 0.5847
586.00 0.5843
586.10 0.584
586.20 0.5836
586.30 0.5833
586.40 0.5829
586.50 0.5826
586.60 0.5823
586.70 0.5819
586.80 0.5816
586.90 0.5812
587.00 0.5809
587.10 0.5805
587.20 0.5802
587.30 0.5799
587.40 0.5795
587.50 0.5792
587.60 0.5788
587.70 0.5785
587.80 0.5782
587.90 0.5778
588.00 0.5775
588.10 0.5772
588.20 0.5768
588.30 0.5765
588.40 0.5761
588.50 0.5758
588.60 0.5755
588.70 0.5751
588.80 0.5748
588.90 0.5745
589.00 0.5741
589.10 0.5738
589.20 0.5734
589.30 0.5731
589.40 0.5728
589.50 0.5724
589.60 0.5721
589.70 0.5718
589.80 0.5714
589.90 0.5711
590.00 0.5708
590.10 0.5704
590.20 0.5701
590.30 0.5698
590.40 0.5694
590.50 0.5691
590.60 0.5688
590.70 0.5684
590.80 0.5681
590.90 0.5678
591.00 0.5674
591.10 0.5671
591.20 0.5668
591.30 0.5664
591.40 0.5661
591.50 0.5658
591.60 0.5654
591.70 0.5651
591.80 0.5648
591.90 0.5645
592.00 0.5641
592.10 0.5638
592.20 0.5635
592.30 0.5631
592.40 0.5628
592.50 0.5625
592.60 0.5622
592.70 0.5618
592.80 0.5615
592.90 0.5612
593.00 0.5609
593.10 0.5605
593.20 0.5602
593.30 0.5599
593.40 0.5596
593.50 0.5592
593.60 0.5589
593.70 0.5586
593.80 0.5583
593.90 0.5579
594.00 0.5576
594.10 0.5573
594.20 0.557
594.30 0.5566
594.40 0.5563
594.50 0.556
594.60 0.5557
594.70 0.5553
594.80 0.555
594.90 0.5547
595.00 0.5544
595.10 0.5541
595.20 0.5537
595.30 0.5534
595.40 0.5531
595.50 0.5528
595.60 0.5525
595.70 0.5521
595.80 0.5518
595.90 0.5515
596.00 0.5512
596.10 0.5509
596.20 0.5506
596.30 0.5502
596.40 0.5499
596.50 0.5496
596.60 0.5492
596.70 0.5489
596.80 0.5486
596.90 0.5483
597.00 0.5479
597.10 0.5476
597.20 0.5473
597.30 0.547
597.40 0.5466
597.50 0.5463
597.60 0.546
597.70 0.5457
597.80 0.5454
597.90 0.5451
598.00 0.5447
598.10 0.5444
598.20 0.5441
598.30 0.5438
598.40 0.5435
598.50 0.5432
598.60 0.5428
598.70 0.5425
598.80 0.5422
598.90 0.5419
599.00 0.5416
599.10 0.5413
599.20 0.5409
599.30 0.5406
599.40 0.5403
599.50 0.54
599.60 0.5397
599.70 0.5394
599.80 0.5391
599.90 0.5388
600.00 0.5385
600.10 0.5382
600.20 0.5379
600.30 0.5376
600.40 0.5372
600.50 0.5369
600.60 0.5366
600.70 0.5363
600.80 0.536
600.90 0.5357
601.00 0.5354
601.10 0.5351
601.20 0.5348
601.30 0.5345
601.40 0.5342
601.50 0.5339
601.60 0.5335
601.70 0.5332
601.80 0.5329
601.90 0.5326
602.00 0.5323
602.10 0.532
602.20 0.5317
602.30 0.5314
602.40 0.5311
602.50 0.5308
602.60 0.5305
602.70 0.5302
602.80 0.5299
602.90 0.5296
603.00 0.5293
603.10 0.529
603.20 0.5286
603.30 0.5283
603.40 0.528
603.50 0.5277
603.60 0.5274
603.70 0.5271
603.80 0.5268
603.90 0.5265
604.00 0.5262
604.10 0.5259
604.20 0.5256
604.30 0.5253
604.40 0.525
604.50 0.5247
604.60 0.5244
604.70 0.5241
604.80 0.5238
604.90 0.5235
605.00 0.5232
605.10 0.5229
605.20 0.5226
605.30 0.5223
605.40 0.522
605.50 0.5217
605.60 0.5214
605.70 0.5211
605.80 0.5208
605.90 0.5205
606.00 0.5202
606.10 0.5199
606.20 0.5196
606.30 0.5193
606.40 0.519
606.50 0.5188
606.60 0.5185
606.70 0.5182
606.80 0.5179
606.90 0.5176
607.00 0.5173
607.10 0.517
607.20 0.5167
607.30 0.5164
607.40 0.5161
607.50 0.5158
607.60 0.5155
607.70 0.5152
607.80 0.5149
607.90 0.5146
608.00 0.5144
608.10 0.5141
608.20 0.5138
608.30 0.5135
608.40 0.5132
608.50 0.5129
608.60 0.5126
608.70 0.5123
608.80 0.512
608.90 0.5117
609.00 0.5114
609.10 0.5111
609.20 0.5108
609.30 0.5106
609.40 0.5103
609.50 0.51
609.60 0.5097
609.70 0.5094
609.80 0.5091
609.90 0.5088
610.00 0.5085
610.10 0.5083
610.20 0.508
610.30 0.5077
610.40 0.5074
610.50 0.5071
610.60 0.5068
610.70 0.5065
610.80 0.5062
610.90 0.5059
611.00 0.5056
611.10 0.5054
611.20 0.5051
611.30 0.5048
611.40 0.5045
611.50 0.5042
611.60 0.5039
611.70 0.5036
611.80 0.5034
611.90 0.5031
612.00 0.5028
612.10 0.5025
612.20 0.5022
612.30 0.5019
612.40 0.5016
612.50 0.5014
612.60 0.5011
612.70 0.5008
612.80 0.5005
612.90 0.5002
613.00 0.4999
613.10 0.4996
613.20 0.4994
613.30 0.4991
613.40 0.4988
613.50 0.4985
613.60 0.4982
613.70 0.498
613.80 0.4977
613.90 0.4974
614.00 0.4971
614.10 0.4968
614.20 0.4966
614.30 0.4963
614.40 0.496
614.50 0.4957
614.60 0.4954
614.70 0.4952
614.80 0.4949
614.90 0.4946
615.00 0.4943
615.10 0.494
615.20 0.4938
615.30 0.4935
615.40 0.4932
615.50 0.4929
615.60 0.4926
615.70 0.4924
615.80 0.4921
615.90 0.4918
616.00 0.4915
616.10 0.4913
616.20 0.491
616.30 0.4907
616.40 0.4904
616.50 0.4902
616.60 0.4899
616.70 0.4896
616.80 0.4893
616.90 0.4891
617.00 0.4888
617.10 0.4885
617.20 0.4882
617.30 0.4879
617.40 0.4877
617.50 0.4874
617.60 0.4871
617.70 0.4869
617.80 0.4866
617.90 0.4863
618.00 0.486
618.10 0.4858
618.20 0.4855
618.30 0.4852
618.40 0.4849
618.50 0.4847
618.60 0.4844
618.70 0.4841
618.80 0.4838
618.90 0.4836
619.00 0.4833
619.10 0.483
619.20 0.4828
619.30 0.4825
619.40 0.4822
619.50 0.4819
619.60 0.4817
619.70 0.4814
619.80 0.4811
619.90 0.4808
620.00 0.4806
620.10 0.4803
620.20 0.48
620.30 0.4798
620.40 0.4795
620.50 0.4792
620.60 0.479
620.70 0.4787
620.80 0.4784
620.90 0.4781
621.00 0.4779
621.10 0.4776
621.20 0.4773
621.30 0.4771
621.40 0.4768
621.50 0.4765
621.60 0.4763
621.70 0.476
621.80 0.4757
621.90 0.4755
622.00 0.4752
622.10 0.4749
622.20 0.4747
622.30 0.4744
622.40 0.4741
622.50 0.4739
622.60 0.4736
622.70 0.4733
622.80 0.4731
622.90 0.4728
623.00 0.4726
623.10 0.4723
623.20 0.472
623.30 0.4718
623.40 0.4715
623.50 0.4712
623.60 0.471
623.70 0.4707
623.80 0.4704
623.90 0.4702
624.00 0.4699
624.10 0.4696
624.20 0.4694
624.30 0.4691
624.40 0.4688
624.50 0.4686
624.60 0.4683
624.70 0.468
624.80 0.4678
624.90 0.4675
625.00 0.4673
625.10 0.467
625.20 0.4667
625.30 0.4665
625.40 0.4662
625.50 0.466
625.60 0.4657
625.70 0.4654
625.80 0.4652
625.90 0.4649
626.00 0.4647
626.10 0.4644
626.20 0.4641
626.30 0.4639
626.40 0.4636
626.50 0.4634
626.60 0.4631
626.70 0.4628
626.80 0.4626
626.90 0.4623
627.00 0.4621
627.10 0.4618
627.20 0.4615
627.30 0.4613
627.40 0.461
627.50 0.4608
627.60 0.4605
627.70 0.4603
627.80 0.46
627.90 0.4597
628.00 0.4595
628.10 0.4592
628.20 0.459
628.30 0.4587
628.40 0.4585
628.50 0.4582
628.60 0.4579
628.70 0.4577
628.80 0.4574
628.90 0.4572
629.00 0.4569
629.10 0.4567
629.20 0.4564
629.30 0.4561
629.40 0.4559
629.50 0.4556
629.60 0.4554
629.70 0.4551
629.80 0.4549
629.90 0.4546
630.00 0.4543
630.10 0.4541
630.20 0.4538
630.30 0.4536
630.40 0.4533
630.50 0.4531
630.60 0.4528
630.70 0.4526
630.80 0.4523
630.90 0.4521
631.00 0.4518
631.10 0.4516
631.20 0.4513
631.30 0.451
631.40 0.4508
631.50 0.4505
631.60 0.4503
631.70 0.45
631.80 0.4498
631.90 0.4495
632.00 0.4493
632.10 0.449
632.20 0.4488
632.30 0.4485
632.40 0.4483
632.50 0.448
632.60 0.4477
632.70 0.4475
632.80 0.4472
632.90 0.447
633.00 0.4467
633.10 0.4465
633.20 0.4462
633.30 0.446
633.40 0.4457
633.50 0.4455
633.60 0.4452
633.70 0.445
633.80 0.4447
633.90 0.4445
634.00 0.4442
634.10 0.444
634.20 0.4437
634.30 0.4435
634.40 0.4432
634.50 0.443
634.60 0.4427
634.70 0.4425
634.80 0.4422
634.90 0.442
635.00 0.4417
635.10 0.4415
635.20 0.4412
635.30 0.441
635.40 0.4407
635.50 0.4405
635.60 0.4402
635.70 0.44
635.80 0.4397
635.90 0.4395
636.00 0.4392
636.10 0.439
636.20 0.4387
636.30 0.4385
636.40 0.4382
636.50 0.438
636.60 0.4377
636.70 0.4375
636.80 0.4372
636.90 0.437
637.00 0.4367
637.10 0.4365
637.20 0.4362
637.30 0.436
637.40 0.4357
637.50 0.4354
637.60 0.4352
637.70 0.4349
637.80 0.4347
637.90 0.4344
638.00 0.4342
638.10 0.4339
638.20 0.4337
638.30 0.4334
638.40 0.4332
638.50 0.4329
638.60 0.4327
638.70 0.4324
638.80 0.4322
638.90 0.4319
639.00 0.4317
639.10 0.4314
639.20 0.4312
639.30 0.4309
639.40 0.4306
639.50 0.4304
639.60 0.4301
639.70 0.4299
639.80 0.4296
639.90 0.4294
640.00 0.4291
640.10 0.4289
640.20 0.4286
640.30 0.4284
640.40 0.4281
640.50 0.4278
640.60 0.4276
640.70 0.4273
640.80 0.4271
640.90 0.4268
641.00 0.4265
641.10 0.4263
641.20 0.426
641.30 0.4258
641.40 0.4255
641.50 0.4252
641.60 0.425
641.70 0.4247
641.80 0.4245
641.90 0.4242
642.00 0.4239
642.10 0.4237
642.20 0.4234
642.30 0.4231
642.40 0.4229
642.50 0.4226
642.60 0.4223
642.70 0.4221
642.80 0.4218
642.90 0.4215
643.00 0.4213
643.10 0.421
643.20 0.4207
643.30 0.4205
643.40 0.4202
643.50 0.4199
643.60 0.4196
643.70 0.4193
643.80 0.4191
643.90 0.4188
644.00 0.4185
644.10 0.4182
644.20 0.4179
644.30 0.4177
644.40 0.4174
644.50 0.4171
644.60 0.4168
644.70 0.4165
644.80 0.4162
644.90 0.4159
645.00 0.4156
645.10 0.4153
645.20 0.415
645.30 0.4147
645.40 0.4144
645.50 0.4141
645.60 0.4138
645.70 0.4135
645.80 0.4132
645.90 0.4129
646.00 0.4126
646.10 0.4122
646.20 0.4119
646.30 0.4116
646.40 0.4113
646.50 0.4109
646.60 0.4106
646.70 0.4103
646.80 0.4099
646.90 0.4096
647.00 0.4092
647.10 0.4089
647.20 0.4086
647.30 0.4082
647.40 0.4078
647.50 0.4074
647.60 0.4071
647.70 0.4067
647.80 0.4063
647.90 0.4059
648.00 0.4055
648.10 0.4051
648.20 0.4047
648.30 0.4043
648.40 0.4039
648.50 0.4034
648.60 0.403
648.70 0.4025
648.80 0.4021
648.90 0.4016
649.00 0.4012
649.10 0.4007
649.20 0.4003
649.30 0.3998
649.40 0.3992
649.50 0.3987
649.60 0.3981
649.70 0.3976
649.80 0.397
649.90 0.3964
650.00 0.3959
650.10 0.3953
650.20 0.3948
650.30 0.3942
650.40 0.3934
650.50 0.3927
650.60 0.3919
650.70 0.3912
650.80 0.3904
650.90 0.3897
651.00 0.389
651.10 0.3882
651.20 0.3875
651.30 0.3867
651.40 0.3856
651.50 0.3846
651.60 0.3835
651.70 0.3825
651.80 0.3814
651.90 0.3804
652.00 0.3794
652.10 0.3783
652.20 0.3773
652.30 0.3761
652.40 0.3746
652.50 0.373
652.60 0.3715
652.70 0.3699
652.80 0.3684
652.90 0.3668
653.00 0.3653
653.10 0.3637
653.20 0.3622
653.30 0.3605
653.40 0.3582
653.50 0.3558
653.60 0.3535
653.70 0.3511
653.80 0.3488
653.90 0.3465
654.00 0.3441
654.10 0.3418
654.20 0.3394
654.30 0.337
654.40 0.3338
654.50 0.3307
654.60 0.3276
654.70 0.3244
654.80 0.3212
654.90 0.3173
655.00 0.3134
655.10 0.3095
655.20 0.3056
655.30 0.3016
655.40 0.2973
655.50 0.2928
655.60 0.2879
655.70 0.2829
655.80 0.2774
655.90 0.2715
656.00 0.2639
656.10 0.2557
656.20 0.2217
656.30 0.1886
656.40 0.2446
656.50 0.2587
656.60 0.266
656.70 0.273
656.80 0.2783
656.90 0.2834
657.00 0.288
657.10 0.2925
657.20 0.2965
657.30 0.3005
657.40 0.304
657.50 0.3076
657.60 0.3112
657.70 0.3147
657.80 0.3181
657.90 0.3209
658.00 0.3237
658.10 0.3264
658.20 0.3292
658.30 0.3318
658.40 0.3337
658.50 0.3357
658.60 0.3376
658.70 0.3395
658.80 0.3415
658.90 0.3434
659.00 0.3453
659.10 0.3473
659.20 0.3492
659.30 0.351
659.40 0.3521
659.50 0.3532
659.60 0.3543
659.70 0.3554
659.80 0.3566
659.90 0.3577
660.00 0.3588
660.10 0.3599
660.20 0.361
660.30 0.362
660.40 0.3626
660.50 0.3632
660.60 0.3638
660.70 0.3644
660.80 0.365
660.90 0.3656
661.00 0.3662
661.10 0.3668
661.20 0.3674
661.30 0.368
661.40 0.3683
661.50 0.3686
661.60 0.3689
661.70 0.3692
661.80 0.3695
661.90 0.3698
662.00 0.3701
662.10 0.3704
662.20 0.3707
662.30 0.3709
662.40 0.371
662.50 0.3712
662.60 0.3713
662.70 0.3714
662.80 0.3715
662.90 0.3716
663.00 0.3717
663.10 0.3719
663.20 0.372
663.30 0.3721
663.40 0.3721
663.50 0.3721
663.60 0.3721
663.70 0.3721
663.80 0.3722
663.90 0.3722
664.00 0.3722
664.10 0.3722
664.20 0.3722
664.30 0.3722
664.40 0.3722
664.50 0.3721
664.60 0.3721
664.70 0.372
664.80 0.372
664.90 0.3719
665.00 0.3719
665.10 0.3718
665.20 0.3718
665.30 0.3717
665.40 0.3716
665.50 0.3715
665.60 0.3714
665.70 0.3713
665.80 0.3712
665.90 0.3711
666.00 0.371
666.10 0.371
666.20 0.3709
666.30 0.3708
666.40 0.3706
666.50 0.3705
666.60 0.3704
666.70 0.3703
666.80 0.3702
666.90 0.37
667.00 0.3699
667.10 0.3698
667.20 0.3697
667.30 0.3696
667.40 0.3694
667.50 0.3693
667.60 0.3691
667.70 0.369
667.80 0.3689
667.90 0.3687
668.00 0.3686
668.10 0.3685
668.20 0.3683
668.30 0.3682
668.40 0.368
668.50 0.3679
668.60 0.3677
668.70 0.3676
668.80 0.3674
668.90 0.3673
669.00 0.3671
669.10 0.367
669.20 0.3668
669.30 0.3667
669.40 0.3665
669.50 0.3664
669.60 0.3662
669.70 0.366
669.80 0.3659
669.90 0.3657
670.00 0.3656
670.10 0.3654
670.20 0.3653
670.30 0.3651
670.40 0.3649
670.50 0.3648
670.60 0.3646
670.70 0.3644
670.80 0.3643
670.90 0.3641
671.00 0.3639
671.10 0.3638
671.20 0.3636
671.30 0.3634
671.40 0.3633
671.50 0.3631
671.60 0.3629
671.70 0.3628
671.80 0.3626
671.90 0.3624
672.00 0.3623
672.10 0.3621
672.20 0.3619
672.30 0.3618
672.40 0.3616
672.50 0.3614
672.60 0.3612
672.70 0.3611
672.80 0.3609
672.90 0.3607
673.00 0.3606
673.10 0.3604
673.20 0.3602
673.30 0.36
673.40 0.3599
673.50 0.3597
673.60 0.3595
673.70 0.3594
673.80 0.3592
673.90 0.359
674.00 0.3588
674.10 0.3587
674.20 0.3585
674.30 0.3583
674.40 0.3581
674.50 0.358
674.60 0.3578
674.70 0.3576
674.80 0.3574
674.90 0.3573
675.00 0.3571
675.10 0.3569
675.20 0.3567
675.30 0.3566
675.40 0.3564
675.50 0.3562
675.60 0.356
675.70 0.3559
675.80 0.3557
675.90 0.3555
676.00 0.3553
676.10 0.3552
676.20 0.355
676.30 0.3548
676.40 0.3546
676.50 0.3545
676.60 0.3543
676.70 0.3541
676.80 0.3539
676.90 0.3538
677.00 0.3536
677.10 0.3534
677.20 0.3532
677.30 0.3531
677.40 0.3529
677.50 0.3527
677.60 0.3525
677.70 0.3524
677.80 0.3522
677.90 0.352
678.00 0.3518
678.10 0.3517
678.20 0.3515
678.30 0.3513
678.40 0.3511
678.50 0.351
678.60 0.3508
678.70 0.3506
678.80 0.3504
678.90 0.3503
679.00 0.3501
679.10 0.3499
679.20 0.3497
679.30 0.3496
679.40 0.3494
679.50 0.3492
679.60 0.349
679.70 0.3489
679.80 0.3487
679.90 0.3485
680.00 0.3483
680.10 0.3482
680.20 0.348
680.30 0.3478
680.40 0.3476
680.50 0.3475
680.60 0.3473
680.70 0.3471
680.80 0.3469
680.90 0.3468
681.00 0.3466
681.10 0.3464
681.20 0.3462
681.30 0.3461
681.40 0.3459
681.50 0.3457
681.60 0.3455
681.70 0.3454
681.80 0.3452
681.90 0.345
682.00 0.3449
682.10 0.3447
682.20 0.3445
682.30 0.3443
682.40 0.3442
682.50 0.344
682.60 0.3438
682.70 0.3436
682.80 0.3435
682.90 0.3433
683.00 0.3431
683.10 0.343
683.20 0.3428
683.30 0.3426
683.40 0.3424
683.50 0.3423
683.60 0.3421
683.70 0.3419
683.80 0.3417
683.90 0.3416
684.00 0.3414
684.10 0.3412
684.20 0.3411
684.30 0.3409
684.40 0.3407
684.50 0.3405
684.60 0.3404
684.70 0.3402
684.80 0.34
684.90 0.3399
685.00 0.3397
685.10 0.3395
685.20 0.3393
685.30 0.3392
685.40 0.339
685.50 0.3388
685.60 0.3387
685.70 0.3385
685.80 0.3383
685.90 0.3381
686.00 0.338
686.10 0.3378
686.20 0.3376
686.30 0.3375
686.40 0.3373
686.50 0.3371
686.60 0.337
686.70 0.3368
686.80 0.3366
686.90 0.3364
687.00 0.3363
687.10 0.3361
687.20 0.3359
687.30 0.3358
687.40 0.3356
687.50 0.3354
687.60 0.3353
687.70 0.3351
687.80 0.3349
687.90 0.3348
688.00 0.3346
688.10 0.3344
688.20 0.3343
688.30 0.3341
688.40 0.3339
688.50 0.3337
688.60 0.3336
688.70 0.3334
688.80 0.3332
688.90 0.3331
689.00 0.3329
689.10 0.3327
689.20 0.3326
689.30 0.3324
689.40 0.3322
689.50 0.3321
689.60 0.3319
689.70 0.3317
689.80 0.3316
689.90 0.3314
690.00 0.3312
690.10 0.3311
690.20 0.3309
690.30 0.3307
690.40 0.3306
690.50 0.3304
690.60 0.3302
690.70 0.3301
690.80 0.3299
690.90 0.3297
691.00 0.3296
691.10 0.3294
691.20 0.3293
691.30 0.3291
691.40 0.3289
691.50 0.3288
691.60 0.3286
691.70 0.3284
691.80 0.3283
691.90 0.3281
692.00 0.3279
692.10 0.3278
692.20 0.3276
692.30 0.3274
692.40 0.3273
692.50 0.3271
692.60 0.327
692.70 0.3268
692.80 0.3266
692.90 0.3265
693.00 0.3263
693.10 0.3261
693.20 0.326
693.30 0.3258
693.40 0.3256
693.50 0.3255
693.60 0.3253
693.70 0.3252
693.80 0.325
693.90 0.3248
694.00 0.3247
694.10 0.3245
694.20 0.3243
694.30 0.3242
694.40 0.324
694.50 0.3239
694.60 0.3237
694.70 0.3235
694.80 0.3234
694.90 0.3232
695.00 0.323
695.10 0.3229
695.20 0.3227
695.30 0.3226
695.40 0.3224
695.50 0.3222
695.60 0.3221
695.70 0.3219
695.80 0.3217
695.90 0.3216
696.00 0.3214
696.10 0.3213
696.20 0.3211
696.30 0.3209
696.40 0.3208
696.50 0.3206
696.60 0.3205
696.70 0.3203
696.80 0.3201
696.90 0.32
697.00 0.3198
697.10 0.3197
697.20 0.3195
697.30 0.3193
697.40 0.3192
697.50 0.319
697.60 0.3189
697.70 0.3187
697.80 0.3185
697.90 0.3184
698.00 0.3182
698.10 0.3181
698.20 0.3179
698.30 0.3177
698.40 0.3176
698.50 0.3174
698.60 0.3173
698.70 0.3171
698.80 0.3169
698.90 0.3168
699.00 0.3166
699.10 0.3165
699.20 0.3163
699.30 0.3161
699.40 0.316
699.50 0.3158
699.60 0.3157
699.70 0.3155
699.80 0.3154
699.90 0.3152
700.00 0.315
700.10 0.3149
700.20 0.3147
700.30 0.3146
700.40 0.3144
700.50 0.3143
700.60 0.3141
700.70 0.314
700.80 0.3138
700.90 0.3137
701.00 0.3135
701.10 0.3134
701.20 0.3132
701.30 0.3131
701.40 0.3129
701.50 0.3127
701.60 0.3126
701.70 0.3124
701.80 0.3123
701.90 0.3121
702.00 0.312
702.10 0.3118
702.20 0.3117
702.30 0.3115
702.40 0.3114
702.50 0.3112
702.60 0.3111
702.70 0.3109
702.80 0.3108
702.90 0.3106
703.00 0.3105
703.10 0.3103
703.20 0.3102
703.30 0.31
703.40 0.3099
703.50 0.3097
703.60 0.3096
703.70 0.3094
703.80 0.3093
703.90 0.3091
704.00 0.309
704.10 0.3088
704.20 0.3087
704.30 0.3085
704.40 0.3084
704.50 0.3082
704.60 0.3081
704.70 0.3079
704.80 0.3078
704.90 0.3076
705.00 0.3075
705.10 0.3073
705.20 0.3072
705.30 0.307
705.40 0.3069
705.50 0.3067
705.60 0.3066
705.70 0.3064
705.80 0.3063
705.90 0.3061
706.00 0.3059
706.10 0.3058
706.20 0.3056
706.30 0.3055
706.40 0.3053
706.50 0.3052
706.60 0.305
706.70 0.3049
706.80 0.3047
706.90 0.3046
707.00 0.3044
707.10 0.3043
707.20 0.3041
707.30 0.304
707.40 0.3038
707.50 0.3037
707.60 0.3035
707.70 0.3034
707.80 0.3032
707.90 0.3031
708.00 0.3029
708.10 0.3028
708.20 0.3026
708.30 0.3025
708.40 0.3023
708.50 0.3022
708.60 0.302
708.70 0.3019
708.80 0.3017
708.90 0.3016
709.00 0.3014
709.10 0.3013
709.20 0.3011
709.30 0.301
709.40 0.3008
709.50 0.3007
709.60 0.3005
709.70 0.3004
709.80 0.3002
709.90 0.3001
710.00 0.2999
710.10 0.2998
710.20 0.2997
710.30 0.2995
710.40 0.2994
710.50 0.2992
710.60 0.2991
710.70 0.2989
710.80 0.2988
710.90 0.2986
711.00 0.2985
711.10 0.2983
711.20 0.2982
711.30 0.298
711.40 0.2979
711.50 0.2977
711.60 0.2976
711.70 0.2974
711.80 0.2973
711.90 0.2972
712.00 0.297
712.10 0.2969
712.20 0.2967
712.30 0.2966
712.40 0.2964
712.50 0.2963
712.60 0.2961
712.70 0.296
712.80 0.2958
712.90 0.2957
713.00 0.2955
713.10 0.2954
713.20 0.2953
713.30 0.2951
713.40 0.295
713.50 0.2948
713.60 0.2947
713.70 0.2945
713.80 0.2944
713.90 0.2942
714.00 0.2941
714.10 0.2939
714.20 0.2938
714.30 0.2937
714.40 0.2935
714.50 0.2934
714.60 0.2932
714.70 0.2931
714.80 0.2929
714.90 0.2928
715.00 0.2926
715.10 0.2925
715.20 0.2924
715.30 0.2922
715.40 0.2921
715.50 0.2919
715.60 0.2918
715.70 0.2917
715.80 0.2915
715.90 0.2914
716.00 0.2912
716.10 0.2911
716.20 0.2909
716.30 0.2908
716.40 0.2907
716.50 0.2905
716.60 0.2904
716.70 0.2902
716.80 0.2901
716.90 0.2899
717.00 0.2898
717.10 0.2897
717.20 0.2895
717.30 0.2894
717.40 0.2892
717.50 0.2891
717.60 0.289
717.70 0.2888
717.80 0.2887
717.90 0.2885
718.00 0.2884
718.10 0.2883
718.20 0.2881
718.30 0.288
718.40 0.2878
718.50 0.2877
718.60 0.2876
718.70 0.2874
718.80 0.2873
718.90 0.2871
719.00 0.287
719.10 0.2869
719.20 0.2867
719.30 0.2866
719.40 0.2864
719.50 0.2863
719.60 0.2862
719.70 0.286
719.80 0.2859
719.90 0.2857
720.00 0.2856
720.10 0.2855
720.20 0.2853
720.30 0.2852
720.40 0.285
720.50 0.2849
720.60 0.2848
720.70 0.2846
720.80 0.2845
720.90 0.2843
721.00 0.2842
721.10 0.2841
721.20 0.2839
721.30 0.2838
721.40 0.2837
721.50 0.2835
721.60 0.2834
721.70 0.2832
721.80 0.2831
721.90 0.283
722.00 0.2828
722.10 0.2827
722.20 0.2826
722.30 0.2824
722.40 0.2823
722.50 0.2821
722.60 0.282
722.70 0.2819
722.80 0.2817
722.90 0.2816
723.00 0.2815
723.10 0.2813
723.20 0.2812
723.30 0.281
723.40 0.2809
723.50 0.2808
723.60 0.2806
723.70 0.2805
723.80 0.2804
723.90 0.2802
724.00 0.2801
724.10 0.28
724.20 0.2798
724.30 0.2797
724.40 0.2795
724.50 0.2794
724.60 0.2793
724.70 0.2791
724.80 0.279
724.90 0.2789
725.00 0.2787
725.10 0.2786
725.20 0.2785
725.30 0.2783
725.40 0.2782
725.50 0.2781
725.60 0.2779
725.70 0.2778
725.80 0.2777
725.90 0.2775
726.00 0.2774
726.10 0.2772
726.20 0.2771
726.30 0.277
726.40 0.2768
726.50 0.2767
726.60 0.2766
726.70 0.2764
726.80 0.2763
726.90 0.2762
727.00 0.276
727.10 0.2759
727.20 0.2758
727.30 0.2756
727.40 0.2755
727.50 0.2754
727.60 0.2752
727.70 0.2751
727.80 0.275
727.90 0.2748
728.00 0.2747
728.10 0.2746
728.20 0.2744
728.30 0.2743
728.40 0.2742
728.50 0.274
728.60 0.2739
728.70 0.2738
728.80 0.2737
728.90 0.2735
729.00 0.2734
729.10 0.2733
729.20 0.2731
729.30 0.273
729.40 0.2729
729.50 0.2727
729.60 0.2726
729.70 0.2725
729.80 0.2723
729.90 0.2722
730.00 0.2721
730.10 0.2719
730.20 0.2718
730.30 0.2717
730.40 0.2715
730.50 0.2714
730.60 0.2713
730.70 0.2712
730.80 0.271
730.90 0.2709
731.00 0.2708
731.10 0.2706
731.20 0.2705
731.30 0.2704
731.40 0.2702
731.50 0.2701
731.60 0.27
731.70 0.2699
731.80 0.2697
731.90 0.2696
732.00 0.2695
732.10 0.2693
732.20 0.2692
732.30 0.2691
732.40 0.269
732.50 0.2688
732.60 0.2687
732.70 0.2686
732.80 0.2684
732.90 0.2683
733.00 0.2682
733.10 0.2681
733.20 0.2679
733.30 0.2678
733.40 0.2677
733.50 0.2675
733.60 0.2674
733.70 0.2673
733.80 0.2672
733.90 0.267
734.00 0.2669
734.10 0.2668
734.20 0.2666
734.30 0.2665
734.40 0.2664
734.50 0.2663
734.60 0.2661
734.70 0.266
734.80 0.2659
734.90 0.2658
735.00 0.2656
735.10 0.2655
735.20 0.2654
735.30 0.2652
735.40 0.2651
735.50 0.265
735.60 0.2649
735.70 0.2647
735.80 0.2646
735.90 0.2645
736.00 0.2644
736.10 0.2642
736.20 0.2641
736.30 0.264
736.40 0.2639
736.50 0.2637
736.60 0.2636
736.70 0.2635
736.80 0.2633
736.90 0.2632
737.00 0.2631
737.10 0.263
737.20 0.2628
737.30 0.2627
737.40 0.2626
737.50 0.2625
737.60 0.2623
737.70 0.2622
737.80 0.2621
737.90 0.262
738.00 0.2618
738.10 0.2617
738.20 0.2616
738.30 0.2615
738.40 0.2613
738.50 0.2612
738.60 0.2611
738.70 0.261
738.80 0.2608
738.90 0.2607
739.00 0.2606
739.10 0.2605
739.20 0.2603
739.30 0.2602
739.40 0.2601
739.50 0.26
739.60 0.2598
739.70 0.2597
739.80 0.2596
739.90 0.2595
740.00 0.2593
740.10 0.2592
740.20 0.2591
740.30 0.259
740.40 0.2588
740.50 0.2587
740.60 0.2586
740.70 0.2585
740.80 0.2584
740.90 0.2582
741.00 0.2581
741.10 0.258
741.20 0.2579
741.30 0.2577
741.40 0.2576
741.50 0.2575
741.60 0.2574
741.70 0.2573
741.80 0.2571
741.90 0.257
742.00 0.2569
742.10 0.2568
742.20 0.2567
742.30 0.2565
742.40 0.2564
742.50 0.2563
742.60 0.2562
742.70 0.256
742.80 0.2559
742.90 0.2558
743.00 0.2557
743.10 0.2556
743.20 0.2554
743.30 0.2553
743.40 0.2552
743.50 0.2551
743.60 0.255
743.70 0.2548
743.80 0.2547
743.90 0.2546
744.00 0.2545
744.10 0.2544
744.20 0.2542
744.30 0.2541
744.40 0.254
744.50 0.2539
744.60 0.2538
744.70 0.2536
744.80 0.2535
744.90 0.2534
745.00 0.2533
745.10 0.2532
745.20 0.253
745.30 0.2529
745.40 0.2528
745.50 0.2527
745.60 0.2526
745.70 0.2524
745.80 0.2523
745.90 0.2522
746.00 0.2521
746.10 0.252
746.20 0.2518
746.30 0.2517
746.40 0.2516
746.50 0.2515
746.60 0.2514
746.70 0.2512
746.80 0.2511
746.90 0.251
747.00 0.2509
747.10 0.2508
747.20 0.2506
747.30 0.2505
747.40 0.2504
747.50 0.2503
747.60 0.2502
747.70 0.2501
747.80 0.2499
747.90 0.2498
748.00 0.2497
748.10 0.2496
748.20 0.2495
748.30 0.2493
748.40 0.2492
748.50 0.2491
748.60 0.249
748.70 0.2489
748.80 0.2488
748.90 0.2486
749.00 0.2485
749.10 0.2484
749.20 0.2483
749.30 0.2482
749.40 0.2481
749.50 0.2479
749.60 0.2478
749.70 0.2477
749.80 0.2476
749.90 0.2475
750.00 0.2473
750.10 0.2472
750.20 0.2471
750.30 0.247
750.40 0.2469
750.50 0.2468
750.60 0.2467
750.70 0.2465
750.80 0.2464
750.90 0.2463
751.00 0.2462
751.10 0.2461
751.20 0.246
751.30 0.2459
751.40 0.2457
751.50 0.2456
751.60 0.2455
751.70 0.2454
751.80 0.2453
751.90 0.2452
752.00 0.245
752.10 0.2449
752.20 0.2448
752.30 0.2447
752.40 0.2446
752.50 0.2445
752.60 0.2444
752.70 0.2442
752.80 0.2441
752.90 0.244
753.00 0.2439
753.10 0.2438
753.20 0.2437
753.30 0.2436
753.40 0.2434
753.50 0.2433
753.60 0.2432
753.70 0.2431
753.80 0.243
753.90 0.2429
754.00 0.2428
754.10 0.2427
754.20 0.2425
754.30 0.2424
754.40 0.2423
754.50 0.2422
754.60 0.2421
754.70 0.242
754.80 0.2419
754.90 0.2417
755.00 0.2416
755.10 0.2415
755.20 0.2414
755.30 0.2413
755.40 0.2412
755.50 0.2411
755.60 0.241
755.70 0.2408
755.80 0.2407
755.90 0.2406
756.00 0.2405
756.10 0.2404
756.20 0.2403
756.30 0.2402
756.40 0.2401
756.50 0.2399
756.60 0.2398
756.70 0.2397
756.80 0.2396
756.90 0.2395
757.00 0.2394
757.10 0.2393
757.20 0.2392
757.30 0.239
757.40 0.2389
757.50 0.2388
757.60 0.2387
757.70 0.2386
757.80 0.2385
757.90 0.2384
758.00 0.2383
758.10 0.2382
758.20 0.238
758.30 0.2379
758.40 0.2378
758.50 0.2377
758.60 0.2376
758.70 0.2375
758.80 0.2374
758.90 0.2373
759.00 0.2372
759.10 0.237
759.20 0.2369
759.30 0.2368
759.40 0.2367
759.50 0.2366
759.60 0.2365
759.70 0.2364
759.80 0.2363
759.90 0.2362
760.00 0.236
760.10 0.2359
760.20 0.2358
760.30 0.2357
760.40 0.2356
760.50 0.2355
760.60 0.2354
760.70 0.2353
760.80 0.2352
760.90 0.2351
761.00 0.235
761.10 0.2349
761.20 0.2347
761.30 0.2346
761.40 0.2345
761.50 0.2344
761.60 0.2343
761.70 0.2342
761.80 0.2341
761.90 0.234
762.00 0.2339
762.10 0.2338
762.20 0.2337
762.30 0.2336
762.40 0.2334
762.50 0.2333
762.60 0.2332
762.70 0.2331
762.80 0.233
762.90 0.2329
763.00 0.2328
763.10 0.2327
763.20 0.2326
763.30 0.2325
763.40 0.2324
763.50 0.2323
763.60 0.2322
763.70 0.2321
763.80 0.2319
763.90 0.2318
764.00 0.2317
764.10 0.2316
764.20 0.2315
764.30 0.2314
764.40 0.2313
764.50 0.2312
764.60 0.2311
764.70 0.231
764.80 0.2309
764.90 0.2308
765.00 0.2307
765.10 0.2306
765.20 0.2304
765.30 0.2303
765.40 0.2302
765.50 0.2301
765.60 0.23
765.70 0.2299
765.80 0.2298
765.90 0.2297
766.00 0.2296
766.10 0.2295
766.20 0.2294
766.30 0.2293
766.40 0.2292
766.50 0.2291
766.60 0.229
766.70 0.2289
766.80 0.2288
766.90 0.2286
767.00 0.2285
767.10 0.2284
767.20 0.2283
767.30 0.2282
767.40 0.2281
767.50 0.228
767.60 0.2279
767.70 0.2278
767.80 0.2277
767.90 0.2276
768.00 0.2275
768.10 0.2274
768.20 0.2273
768.30 0.2272
768.40 0.2271
768.50 0.227
768.60 0.2269
768.70 0.2268
768.80 0.2266
768.90 0.2265
769.00 0.2264
769.10 0.2263
769.20 0.2262
769.30 0.2261
769.40 0.226
769.50 0.2259
769.60 0.2258
769.70 0.2257
769.80 0.2256
769.90 0.2255
770.00 0.2254
770.10 0.2253
770.20 0.2252
770.30 0.2251
770.40 0.225
770.50 0.2249
770.60 0.2248
770.70 0.2247
770.80 0.2246
770.90 0.2245
771.00 0.2244
771.10 0.2243
771.20 0.2242
771.30 0.2241
771.40 0.224
771.50 0.2239
771.60 0.2238
771.70 0.2237
771.80 0.2235
771.90 0.2234
772.00 0.2233
772.10 0.2232
772.20 0.2231
772.30 0.223
772.40 0.2229
772.50 0.2228
772.60 0.2227
772.70 0.2226
772.80 0.2225
772.90 0.2224
773.00 0.2223
773.10 0.2222
773.20 0.2221
773.30 0.222
773.40 0.2219
773.50 0.2218
773.60 0.2217
773.70 0.2216
773.80 0.2215
773.90 0.2214
774.00 0.2213
774.10 0.2212
774.20 0.2211
774.30 0.221
774.40 0.2209
774.50 0.2208
774.60 0.2207
774.70 0.2206
774.80 0.2205
774.90 0.2204
775.00 0.2203
775.10 0.2202
775.20 0.2201
775.30 0.22
775.40 0.2199
775.50 0.2198
775.60 0.2197
775.70 0.2196
775.80 0.2195
775.90 0.2194
776.00 0.2193
776.10 0.2192
776.20 0.2191
776.30 0.219
776.40 0.2189
776.50 0.2188
776.60 0.2187
776.70 0.2186
776.80 0.2185
776.90 0.2184
777.00 0.2183
777.10 0.2182
777.20 0.2181
777.30 0.218
777.40 0.2179
777.50 0.2178
777.60 0.2177
777.70 0.2176
777.80 0.2175
777.90 0.2174
778.00 0.2173
778.10 0.2172
778.20 0.2171
778.30 0.217
778.40 0.2169
778.50 0.2168
778.60 0.2167
778.70 0.2166
778.80 0.2165
778.90 0.2164
779.00 0.2163
779.10 0.2162
779.20 0.2161
779.30 0.216
779.40 0.2159
779.50 0.2158
779.60 0.2157
779.70 0.2156
779.80 0.2155
779.90 0.2154
780.00 0.2153
780.10 0.2152
780.20 0.2151
780.30 0.215
780.40 0.2149
780.50 0.2149
780.60 0.2148
780.70 0.2147
780.80 0.2146
780.90 0.2145
781.00 0.2144
781.10 0.2143
781.20 0.2142
781.30 0.2141
781.40 0.214
781.50 0.2139
781.60 0.2138
781.70 0.2137
781.80 0.2136
781.90 0.2135
782.00 0.2134
782.10 0.2133
782.20 0.2132
782.30 0.2131
782.40 0.213
782.50 0.2129
782.60 0.2128
782.70 0.2127
782.80 0.2126
782.90 0.2125
783.00 0.2124
783.10 0.2123
783.20 0.2123
783.30 0.2122
783.40 0.2121
783.50 0.212
783.60 0.2119
783.70 0.2118
783.80 0.2117
783.90 0.2116
784.00 0.2115
784.10 0.2114
784.20 0.2113
784.30 0.2112
784.40 0.2111
784.50 0.211
784.60 0.2109
784.70 0.2108
784.80 0.2107
784.90 0.2106
785.00 0.2105
785.10 0.2104
785.20 0.2103
785.30 0.2102
785.40 0.2102
785.50 0.2101
785.60 0.21
785.70 0.2099
785.80 0.2098
785.90 0.2097
786.00 0.2096
786.10 0.2095
786.20 0.2094
786.30 0.2093
786.40 0.2092
786.50 0.2091
786.60 0.209
786.70 0.2089
786.80 0.2088
786.90 0.2087
787.00 0.2086
787.10 0.2085
787.20 0.2085
787.30 0.2084
787.40 0.2083
787.50 0.2082
787.60 0.2081
787.70 0.208
787.80 0.2079
787.90 0.2078
788.00 0.2077
788.10 0.2076
788.20 0.2075
788.30 0.2074
788.40 0.2073
788.50 0.2072
788.60 0.2071
788.70 0.207
788.80 0.207
788.90 0.2069
789.00 0.2068
789.10 0.2067
789.20 0.2066
789.30 0.2065
789.40 0.2064
789.50 0.2063
789.60 0.2062
789.70 0.2061
789.80 0.206
789.90 0.2059
790.00 0.2058
790.10 0.2057
790.20 0.2057
790.30 0.2056
790.40 0.2055
790.50 0.2054
790.60 0.2053
790.70 0.2052
790.80 0.2051
790.90 0.205
791.00 0.2049
791.10 0.2048
791.20 0.2047
791.30 0.2046
791.40 0.2046
791.50 0.2045
791.60 0.2044
791.70 0.2043
791.80 0.2042
791.90 0.2041
792.00 0.204
792.10 0.2039
792.20 0.2038
792.30 0.2037
792.40 0.2036
792.50 0.2036
792.60 0.2035
792.70 0.2034
792.80 0.2033
792.90 0.2032
793.00 0.2031
793.10 0.203
793.20 0.2029
793.30 0.2028
793.40 0.2027
793.50 0.2027
793.60 0.2026
793.70 0.2025
793.80 0.2024
793.90 0.2023
794.00 0.2022
794.10 0.2021
794.20 0.202
794.30 0.2019
794.40 0.2018
794.50 0.2017
794.60 0.2017
794.70 0.2016
794.80 0.2015
794.90 0.2014
795.00 0.2013
795.10 0.2012
795.20 0.2011
795.30 0.201
795.40 0.2009
795.50 0.2009
795.60 0.2008
795.70 0.2007
795.80 0.2006
795.90 0.2005
796.00 0.2004
796.10 0.2003
796.20 0.2002
796.30 0.2001
796.40 0.2
796.50 0.2
796.60 0.1999
796.70 0.1998
796.80 0.1997
796.90 0.1996
797.00 0.1995
797.10 0.1994
797.20 0.1993
797.30 0.1992
797.40 0.1992
797.50 0.1991
797.60 0.199
797.70 0.1989
797.80 0.1988
797.90 0.1987
798.00 0.1986
798.10 0.1985
798.20 0.1984
798.30 0.1984
798.40 0.1983
798.50 0.1982
798.60 0.1981
798.70 0.198
798.80 0.1979
798.90 0.1978
799.00 0.1977
799.10 0.1977
799.20 0.1976
799.30 0.1975
799.40 0.1974
799.50 0.1973
799.60 0.1972
799.70 0.1971
799.80 0.197
799.90 0.1969
800.00 0.1969
800.10 0.1968
800.20 0.1967
800.30 0.1966
800.40 0.1965
800.50 0.1964
800.60 0.1963
800.70 0.1963
800.80 0.1962
800.90 0.1961
801.00 0.196
801.10 0.1959
801.20 0.1958
801.30 0.1957
801.40 0.1956
801.50 0.1956
801.60 0.1955
801.70 0.1954
801.80 0.1953
801.90 0.1952
802.00 0.1951
802.10 0.195
802.20 0.195
802.30 0.1949
802.40 0.1948
802.50 0.1947
802.60 0.1946
802.70 0.1945
802.80 0.1944
802.90 0.1944
803.00 0.1943
803.10 0.1942
803.20 0.1941
803.30 0.194
803.40 0.1939
803.50 0.1938
803.60 0.1938
803.70 0.1937
803.80 0.1936
803.90 0.1935
804.00 0.1934
804.10 0.1933
804.20 0.1933
804.30 0.1932
804.40 0.1931
804.50 0.193
804.60 0.1929
804.70 0.1928
804.80 0.1927
804.90 0.1927
805.00 0.1926
805.10 0.1925
805.20 0.1924
805.30 0.1923
805.40 0.1922
805.50 0.1921
805.60 0.1921
805.70 0.192
805.80 0.1919
805.90 0.1918
806.00 0.1917
806.10 0.1916
806.20 0.1916
806.30 0.1915
806.40 0.1914
806.50 0.1913
806.60 0.1912
806.70 0.1911
806.80 0.191
806.90 0.191
807.00 0.1909
807.10 0.1908
807.20 0.1907
807.30 0.1906
807.40 0.1905
807.50 0.1905
807.60 0.1904
807.70 0.1903
807.80 0.1902
807.90 0.1901
808.00 0.19
808.10 0.19
808.20 0.1899
808.30 0.1898
808.40 0.1897
808.50 0.1896
808.60 0.1895
808.70 0.1895
808.80 0.1894
808.90 0.1893
809.00 0.1892
809.10 0.1891
809.20 0.189
809.30 0.189
809.40 0.1889
809.50 0.1888
809.60 0.1887
809.70 0.1886
809.80 0.1885
809.90 0.1885
810.00 0.1884
810.10 0.1883
810.20 0.1882
810.30 0.1881
810.40 0.188
810.50 0.188
810.60 0.1879
810.70 0.1878
810.80 0.1877
810.90 0.1876
811.00 0.1876
811.10 0.1875
811.20 0.1874
811.30 0.1873
811.40 0.1872
811.50 0.1871
811.60 0.1871
811.70 0.187
811.80 0.1869
811.90 0.1868
812.00 0.1867
812.10 0.1867
812.20 0.1866
812.30 0.1865
812.40 0.1864
812.50 0.1863
812.60 0.1862
812.70 0.1862
812.80 0.1861
812.90 0.186
813.00 0.1859
813.10 0.1858
813.20 0.1858
813.30 0.1857
813.40 0.1856
813.50 0.1855
813.60 0.1854
813.70 0.1854
813.80 0.1853
813.90 0.1852
814.00 0.1851
814.10 0.185
814.20 0.185
814.30 0.1849
814.40 0.1848
814.50 0.1847
814.60 0.1846
814.70 0.1846
814.80 0.1845
814.90 0.1844
815.00 0.1843
815.10 0.1842
815.20 0.1841
815.30 0.1841
815.40 0.184
815.50 0.1839
815.60 0.1838
815.70 0.1837
815.80 0.1837
815.90 0.1836
816.00 0.1835
816.10 0.1834
816.20 0.1833
816.30 0.1833
816.40 0.1832
816.50 0.1831
816.60 0.183
816.70 0.1829
816.80 0.1829
816.90 0.1828
817.00 0.1827
817.10 0.1826
817.20 0.1826
817.30 0.1825
817.40 0.1824
817.50 0.1823
817.60 0.1822
817.70 0.1822
817.80 0.1821
817.90 0.182
818.00 0.1819
818.10 0.1818
818.20 0.1818
818.30 0.1817
818.40 0.1816
818.50 0.1815
818.60 0.1814
818.70 0.1814
818.80 0.1813
818.90 0.1812
819.00 0.1811
819.10 0.181
819.20 0.181
819.30 0.1809
819.40 0.1808
819.50 0.1807
819.60 0.1807
819.70 0.1806
819.80 0.1805
819.90 0.1804
820.00 0.1803
820.10 0.1803
820.20 0.1802
820.30 0.1801
820.40 0.18
820.50 0.1799
820.60 0.1799
820.70 0.1798
820.80 0.1797
820.90 0.1796
821.00 0.1796
821.10 0.1795
821.20 0.1794
821.30 0.1793
821.40 0.1792
821.50 0.1792
821.60 0.1791
821.70 0.179
821.80 0.1789
821.90 0.1789
822.00 0.1788
822.10 0.1787
822.20 0.1786
822.30 0.1786
822.40 0.1785
822.50 0.1784
822.60 0.1783
822.70 0.1782
822.80 0.1782
822.90 0.1781
823.00 0.178
823.10 0.1779
823.20 0.1779
823.30 0.1778
823.40 0.1777
823.50 0.1776
823.60 0.1776
823.70 0.1775
823.80 0.1774
823.90 0.1773
824.00 0.1772
824.10 0.1772
824.20 0.1771
824.30 0.177
824.40 0.1769
824.50 0.1769
824.60 0.1768
824.70 0.1767
824.80 0.1766
824.90 0.1766
825.00 0.1765
825.10 0.1764
825.20 0.1763
825.30 0.1763
825.40 0.1762
825.50 0.1761
825.60 0.176
825.70 0.176
825.80 0.1759
825.90 0.1758
826.00 0.1757
826.10 0.1756
826.20 0.1756
826.30 0.1755
826.40 0.1754
826.50 0.1753
826.60 0.1753
826.70 0.1752
826.80 0.1751
826.90 0.175
827.00 0.175
827.10 0.1749
827.20 0.1748
827.30 0.1747
827.40 0.1747
827.50 0.1746
827.60 0.1745
827.70 0.1744
827.80 0.1744
827.90 0.1743
828.00 0.1742
828.10 0.1741
828.20 0.1741
828.30 0.174
828.40 0.1739
828.50 0.1738
828.60 0.1738
828.70 0.1737
828.80 0.1736
828.90 0.1735
829.00 0.1735
829.10 0.1734
829.20 0.1733
829.30 0.1733
829.40 0.1732
829.50 0.1731
829.60 0.173
829.70 0.173
829.80 0.1729
829.90 0.1728
830.00 0.1727
830.10 0.1727
830.20 0.1726
830.30 0.1725
830.40 0.1724
830.50 0.1724
830.60 0.1723
830.70 0.1722
830.80 0.1721
830.90 0.1721
831.00 0.172
831.10 0.1719
831.20 0.1718
831.30 0.1718
831.40 0.1717
831.50 0.1716
831.60 0.1716
831.70 0.1715
831.80 0.1714
831.90 0.1713
832.00 0.1713
832.10 0.1712
832.20 0.1711
832.30 0.171
832.40 0.171
832.50 0.1709
832.60 0.1708
832.70 0.1707
832.80 0.1707
832.90 0.1706
833.00 0.1705
833.10 0.1705
833.20 0.1704
833.30 0.1703
833.40 0.1702
833.50 0.1702
833.60 0.1701
833.70 0.17
833.80 0.1699
833.90 0.1699
834.00 0.1698
834.10 0.1697
834.20 0.1697
834.30 0.1696
834.40 0.1695
834.50 0.1694
834.60 0.1694
834.70 0.1693
834.80 0.1692
834.90 0.1692
835.00 0.1691
835.10 0.169
835.20 0.1689
835.30 0.1689
835.40 0.1688
835.50 0.1687
835.60 0.1686
835.70 0.1686
835.80 0.1685
835.90 0.1684
836.00 0.1684
836.10 0.1683
836.20 0.1682
836.30 0.1681
836.40 0.1681
836.50 0.168
836.60 0.1679
836.70 0.1679
836.80 0.1678
836.90 0.1677
837.00 0.1676
837.10 0.1676
837.20 0.1675
837.30 0.1674
837.40 0.1674
837.50 0.1673
837.60 0.1672
837.70 0.1671
837.80 0.1671
837.90 0.167
838.00 0.1669
838.10 0.1669
838.20 0.1668
838.30 0.1667
838.40 0.1666
838.50 0.1666
838.60 0.1665
838.70 0.1664
838.80 0.1664
838.90 0.1663
839.00 0.1662
839.10 0.1662
839.20 0.1661
839.30 0.166
839.40 0.1659
839.50 0.1659
839.60 0.1658
839.70 0.1657
839.80 0.1657
839.90 0.1656
840.00 0.1655
840.10 0.1654
840.20 0.1654
840.30 0.1653
840.40 0.1652
840.50 0.1652
840.60 0.1651
840.70 0.165
840.80 0.165
840.90 0.1649
841.00 0.1648
841.10 0.1647
841.20 0.1647
841.30 0.1646
841.40 0.1645
841.50 0.1645
841.60 0.1644
841.70 0.1643
841.80 0.1643
841.90 0.1642
842.00 0.1641
842.10 0.164
842.20 0.164
842.30 0.1639
842.40 0.1638
842.50 0.1638
842.60 0.1637
842.70 0.1636
842.80 0.1636
842.90 0.1635
843.00 0.1634
843.10 0.1633
843.20 0.1633
843.30 0.1632
843.40 0.1631
843.50 0.1631
843.60 0.163
843.70 0.1629
843.80 0.1629
843.90 0.1628
844.00 0.1627
844.10 0.1626
844.20 0.1626
844.30 0.1625
844.40 0.1624
844.50 0.1624
844.60 0.1623
844.70 0.1622
844.80 0.1622
844.90 0.1621
845.00 0.162
845.10 0.1619
845.20 0.1619
845.30 0.1618
845.40 0.1617
845.50 0.1617
845.60 0.1616
845.70 0.1615
845.80 0.1615
845.90 0.1614
846.00 0.1613
846.10 0.1612
846.20 0.1612
846.30 0.1611
846.40 0.161
846.50 0.161
846.60 0.1609
846.70 0.1608
846.80 0.1608
846.90 0.1607
847.00 0.1606
847.10 0.1606
847.20 0.1606
847.30 0.1605
847.40 0.1605
847.50 0.1605
847.60 0.1604
847.70 0.1604
847.80 0.1604
847.90 0.1603
848.00 0.1603
848.10 0.1603
848.20 0.1602
848.30 0.1602
848.40 0.1602
848.50 0.1602
848.60 0.1601
848.70 0.1601
848.80 0.1601
848.90 0.16
849.00 0.16
849.10 0.16
849.20 0.1599
849.30 0.1599
849.40 0.1599
849.50 0.1598
849.60 0.1598
849.70 0.1598
849.80 0.1597
849.90 0.1597
850.00 0.1597
850.10 0.1597
850.20 0.1596
850.30 0.1596
850.40 0.1596
850.50 0.1595
850.60 0.1595
850.70 0.1595
850.80 0.1594
850.90 0.1594
851.00 0.1594
851.10 0.1593
851.20 0.1593
851.30 0.1593
851.40 0.1592
851.50 0.1592
851.60 0.1592
851.70 0.1592
851.80 0.1591
851.90 0.1591
852.00 0.1591
852.10 0.159
852.20 0.159
852.30 0.1589
852.40 0.1589
852.50 0.1588
852.60 0.1588
852.70 0.1588
852.80 0.1587
852.90 0.1587
853.00 0.1586
853.10 0.1586
853.20 0.1586
853.30 0.1585
853.40 0.1585
853.50 0.1584
853.60 0.1584
853.70 0.1583
853.80 0.1583
853.90 0.1583
854.00 0.1582
854.10 0.1582
854.20 0.1581
854.30 0.1581
854.40 0.158
854.50 0.158
854.60 0.158
854.70 0.1579
854.80 0.1579
854.90 0.1578
855.00 0.1578
855.10 0.1578
855.20 0.1577
855.30 0.1577
855.40 0.1576
855.50 0.1576
855.60 0.1575
855.70 0.1575
855.80 0.1575
855.90 0.1574
856.00 0.1574
856.10 0.1573
856.20 0.1573
856.30 0.1573
856.40 0.1572
856.50 0.1572
856.60 0.1571
856.70 0.1571
856.80 0.157
856.90 0.157
857.00 0.157
857.10 0.1569
857.20 0.1569
857.30 0.1568
857.40 0.1568
857.50 0.1568
857.60 0.1567
857.70 0.1567
857.80 0.1567
857.90 0.1566
858.00 0.1566
858.10 0.1565
858.20 0.1565
858.30 0.1565
858.40 0.1564
858.50 0.1564
858.60 0.1563
858.70 0.1563
858.80 0.1563
858.90 0.1562
859.00 0.1562
859.10 0.1561
859.20 0.1561
859.30 0.1561
859.40 0.156
859.50 0.156
859.60 0.156
859.70 0.1559
859.80 0.1559
859.90 0.1558
860.00 0.1558
860.10 0.1558
860.20 0.1557
860.30 0.1557
860.40 0.1556
860.50 0.1556
860.60 0.1556
860.70 0.1555
860.80 0.1555
860.90 0.1555
861.00 0.1554
861.10 0.1554
861.20 0.1553
861.30 0.1553
861.40 0.1553
861.50 0.1552
861.60 0.1552
861.70 0.1551
861.80 0.1551
861.90 0.1551
862.00 0.155
862.10 0.1549
862.20 0.1548
862.30 0.1547
862.40 0.1546
862.50 0.1545
862.60 0.1544
862.70 0.1543
862.80 0.1542
862.90 0.1541
863.00 0.154
863.10 0.1539
863.20 0.1538
863.30 0.1537
863.40 0.1536
863.50 0.1535
863.60 0.1533
863.70 0.1532
863.80 0.1531
863.90 0.153
864.00 0.1529
864.10 0.1528
864.20 0.1527
864.30 0.1526
864.40 0.1525
864.50 0.1524
864.60 0.1523
864.70 0.1522
864.80 0.1521
864.90 0.152
865.00 0.1519
865.10 0.1518
865.20 0.1517
865.30 0.1516
865.40 0.1515
865.50 0.1514
865.60 0.1513
865.70 0.1512
865.80 0.1511
865.90 0.1509
866.00 0.1508
866.10 0.1507
866.20 0.1506
866.30 0.1505
866.40 0.1504
866.50 0.1503
866.60 0.1502
866.70 0.1501
866.80 0.15
866.90 0.1499
867.00 0.1498
867.10 0.1498
867.20 0.1498
867.30 0.1499
867.40 0.1499
867.50 0.1499
867.60 0.1499
867.70 0.1499
867.80 0.15
867.90 0.15
868.00 0.15
868.10 0.15
868.20 0.15
868.30 0.15
868.40 0.1501
868.50 0.1501
868.60 0.1501
868.70 0.1501
868.80 0.1501
868.90 0.1501
869.00 0.1502
869.10 0.1502
869.20 0.1502
869.30 0.1502
869.40 0.1502
869.50 0.1503
869.60 0.1503
869.70 0.1503
869.80 0.1503
869.90 0.1503
870.00 0.1503
870.10 0.1504
870.20 0.1504
870.30 0.1504
870.40 0.1504
870.50 0.1504
870.60 0.1504
870.70 0.1505
870.80 0.1505
870.90 0.1505
871.00 0.1505
871.10 0.1505
871.20 0.1506
871.30 0.1506
871.40 0.1506
871.50 0.1506
871.60 0.1506
871.70 0.1506
871.80 0.1507
871.90 0.1507
872.00 0.1507
872.10 0.1506
872.20 0.1504
872.30 0.1503
872.40 0.1502
872.50 0.15
872.60 0.1499
872.70 0.1498
872.80 0.1497
872.90 0.1495
873.00 0.1494
873.10 0.1493
873.20 0.1491
873.30 0.149
873.40 0.1489
873.50 0.1488
873.60 0.1486
873.70 0.1485
873.80 0.1484
873.90 0.1482
874.00 0.1481
874.10 0.148
874.20 0.1479
874.30 0.1477
874.40 0.1476
874.50 0.1475
874.60 0.1473
874.70 0.1472
874.80 0.1471
874.90 0.147
875.00 0.1468
875.10 0.1467
875.20 0.1466
875.30 0.1465
875.40 0.1463
875.50 0.1462
875.60 0.1461
875.70 0.1459
875.80 0.1458
875.90 0.1457
876.00 0.1456
876.10 0.1454
876.20 0.1453
876.30 0.1452
876.40 0.1451
876.50 0.1449
876.60 0.1448
876.70 0.1447
876.80 0.1445
876.90 0.1444
877.00 0.1443
877.10 0.1443
877.20 0.1443
877.30 0.1443
877.40 0.1444
877.50 0.1444
877.60 0.1444
877.70 0.1444
877.80 0.1444
877.90 0.1444
878.00 0.1445
878.10 0.1445
878.20 0.1445
878.30 0.1445
878.40 0.1445
878.50 0.1445
878.60 0.1445
878.70 0.1446
878.80 0.1446
878.90 0.1446
879.00 0.1446
879.10 0.1446
879.20 0.1446
879.30 0.1447
879.40 0.1447
879.50 0.1447
879.60 0.1447
879.70 0.1447
879.80 0.1447
879.90 0.1448
880.00 0.1448
880.10 0.1448
880.20 0.1448
880.30 0.1448
880.40 0.1448
880.50 0.1448
880.60 0.1449
880.70 0.1449
880.80 0.1449
880.90 0.1449
881.00 0.1449
881.10 0.1449
881.20 0.145
881.30 0.145
881.40 0.145
881.50 0.145
881.60 0.145
881.70 0.145
881.80 0.145
881.90 0.1451
882.00 0.1451
882.10 0.1447
882.20 0.1443
882.30 0.144
882.40 0.1436
882.50 0.1432
882.60 0.1429
882.70 0.1425
882.80 0.1421
882.90 0.1418
883.00 0.1414
883.10 0.141
883.20 0.1406
883.30 0.1403
883.40 0.1399
883.50 0.1395
883.60 0.1392
883.70 0.1388
883.80 0.1384
883.90 0.1381
884.00 0.1377
884.10 0.1373
884.20 0.137
884.30 0.1366
884.40 0.1362
884.50 0.1359
884.60 0.1355
884.70 0.1351
884.80 0.1348
884.90 0.1344
885.00 0.134
885.10 0.1337
885.20 0.1333
885.30 0.133
885.40 0.1326
885.50 0.1322
885.60 0.1319
885.70 0.1315
885.80 0.1311
885.90 0.1308
886.00 0.1304
886.10 0.13
886.20 0.1297
886.30 0.1293
886.40 0.129
886.50 0.1286
886.60 0.1282
886.70 0.1279
886.80 0.1275
886.90 0.1271
887.00 0.1268
887.10 0.127
887.20 0.1273
887.30 0.1275
887.40 0.1278
887.50 0.128
887.60 0.1283
887.70 0.1285
887.80 0.1288
887.90 0.129
888.00 0.1293
888.10 0.1295
888.20 0.1298
888.30 0.13
888.40 0.1303
888.50 0.1305
888.60 0.1308
888.70 0.131
888.80 0.1313
888.90 0.1315
889.00 0.1318
889.10 0.132
889.20 0.1323
889.30 0.1325
889.40 0.1328
889.50 0.133
889.60 0.1333
889.70 0.1335
889.80 0.1338
889.90 0.134
890.00 0.1343
890.10 0.1345
890.20 0.1348
890.30 0.135
890.40 0.1353
890.50 0.1355
890.60 0.1358
890.70 0.136
890.80 0.1363
890.90 0.1365
891.00 0.1368
891.10 0.137
891.20 0.1373
891.30 0.1375
891.40 0.1377
891.50 0.138
891.60 0.1382
891.70 0.1385
891.80 0.1387
891.90 0.139
892.00 0.1392
892.10 0.1391
892.20 0.139
892.30 0.1388
892.40 0.1387
892.50 0.1386
892.60 0.1384
892.70 0.1383
892.80 0.1382
892.90 0.1381
893.00 0.1379
893.10 0.1378
893.20 0.1377
893.30 0.1375
893.40 0.1374
893.50 0.1373
893.60 0.1372
893.70 0.137
893.80 0.1369
893.90 0.1368
894.00 0.1366
894.10 0.1365
894.20 0.1364
894.30 0.1362
894.40 0.1361
894.50 0.136
894.60 0.1359
894.70 0.1357
894.80 0.1356
894.90 0.1355
895.00 0.1353
895.10 0.1352
895.20 0.1351
895.30 0.135
895.40 0.1348
895.50 0.1347
895.60 0.1346
895.70 0.1344
895.80 0.1343
895.90 0.1342
896.00 0.1341
896.10 0.1339
896.20 0.1338
896.30 0.1337
896.40 0.1336
896.50 0.1334
896.60 0.1333
896.70 0.1332
896.80 0.133
896.90 0.1329
897.00 0.1328
897.10 0.1324
897.20 0.132
897.30 0.1316
897.40 0.1312
897.50 0.1308
897.60 0.1304
897.70 0.13
897.80 0.1296
897.90 0.1292
898.00 0.1288
898.10 0.1284
898.20 0.128
898.30 0.1276
898.40 0.1273
898.50 0.1269
898.60 0.1265
898.70 0.1261
898.80 0.1257
898.90 0.1253
899.00 0.1249
899.10 0.1245
899.20 0.1241
899.30 0.1237
899.40 0.1233
899.50 0.1229
899.60 0.1225
899.70 0.1221
899.80 0.1217
899.90 0.1214
900.00 0.121
900.10 0.1206
900.20 0.1202
900.30 0.1198
900.40 0.1194
900.50 0.119
900.60 0.1186
900.70 0.1182
900.80 0.1178
900.90 0.1175
901.00 0.1171
901.10 0.1167
901.20 0.1163
901.30 0.1159
901.40 0.1155
901.50 0.1151
901.60 0.1147
901.70 0.1143
901.80 0.1139
901.90 0.1136
902.00 0.1132
902.10 0.1135
902.20 0.1138
902.30 0.1141
902.40 0.1144
902.50 0.1147
902.60 0.115
902.70 0.1153
902.80 0.1156
902.90 0.1159
903.00 0.1163
903.10 0.1166
903.20 0.1169
903.30 0.1172
903.40 0.1175
903.50 0.1178
903.60 0.1181
903.70 0.1184
903.80 0.1187
903.90 0.119
904.00 0.1193
904.10 0.1196
904.20 0.1199
904.30 0.1202
904.40 0.1205
904.50 0.1208
904.60 0.1212
904.70 0.1215
904.80 0.1218
904.90 0.1221
905.00 0.1224
905.10 0.1227
905.20 0.123
905.30 0.1233
905.40 0.1236
905.50 0.1239
905.60 0.1242
905.70 0.1245
905.80 0.1248
905.90 0.1251
906.00 0.1254
906.10 0.1257
906.20 0.126
906.30 0.1263
906.40 0.1266
906.50 0.1269
906.60 0.1272
906.70 0.1275
906.80 0.1278
906.90 0.1281
907.00 0.1284
907.10 0.1285
907.20 0.1285
907.30 0.1285
907.40 0.1286
907.50 0.1286
907.60 0.1286
907.70 0.1287
907.80 0.1287
907.90 0.1287
908.00 0.1288
908.10 0.1288
908.20 0.1288
908.30 0.1289
908.40 0.1289
908.50 0.1289
908.60 0.1289
908.70 0.129
908.80 0.129
908.90 0.129
909.00 0.1291
909.10 0.1291
909.20 0.1291
909.30 0.1292
909.40 0.1292
909.50 0.1292
909.60 0.1293
909.70 0.1293
909.80 0.1293
909.90 0.1294
910.00 0.1294
910.10 0.1294
910.20 0.1295
910.30 0.1295
910.40 0.1295
910.50 0.1295
910.60 0.1296
910.70 0.1296
910.80 0.1296
910.90 0.1297
911.00 0.1297
911.10 0.1297
911.20 0.1298
911.30 0.1298
911.40 0.1298
911.50 0.1299
911.60 0.1299
911.70 0.1299
911.80 0.13
911.90 0.13
912.00 0.13
912.10 0.1299
912.20 0.1297
912.30 0.1295
912.40 0.1294
912.50 0.1292
912.60 0.1291
912.70 0.1289
912.80 0.1288
912.90 0.1286
913.00 0.1284
913.10 0.1283
913.20 0.1281
913.30 0.128
913.40 0.1278
913.50 0.1277
913.60 0.1275
913.70 0.1273
913.80 0.1272
913.90 0.127
914.00 0.1269
914.10 0.1267
914.20 0.1266
914.30 0.1264
914.40 0.1262
914.50 0.1261
914.60 0.1259
914.70 0.1258
914.80 0.1256
914.90 0.1255
915.00 0.1253
915.10 0.1252
915.20 0.125
915.30 0.1248
915.40 0.1247
915.50 0.1245
915.60 0.1244
915.70 0.1242
915.80 0.1241
915.90 0.1239
916.00 0.1238
916.10 0.1236
916.20 0.1234
916.30 0.1233
916.40 0.1231
916.50 0.123
916.60 0.1228
916.70 0.1227
916.80 0.1225
916.90 0.1224
917.00 0.1222
917.10 0.1218
917.20 0.1213
917.30 0.1209
917.40 0.1204
917.50 0.12
917.60 0.1195
917.70 0.1191
917.80 0.1186
917.90 0.1182
918.00 0.1177
918.10 0.1173
918.20 0.1168
918.30 0.1164
918.40 0.1159
918.50 0.1155
918.60 0.1151
918.70 0.1146
918.80 0.1142
918.90 0.1137
919.00 0.1133
919.10 0.1128
919.20 0.1124
919.30 0.1119
919.40 0.1115
919.50 0.1111
919.60 0.1106
919.70 0.1102
919.80 0.1097
919.90 0.1093
920.00 0.1088
920.10 0.1084
920.20 0.108
920.30 0.1075
920.40 0.1071
920.50 0.1066
920.60 0.1062
920.70 0.1057
920.80 0.1053
920.90 0.1049
921.00 0.1044
921.10 0.104
921.20 0.1035
921.30 0.1031
921.40 0.1027
921.50 0.1022
921.60 0.1018
921.70 0.1013
921.80 0.1009
921.90 0.1005
922.00 0.1
922.10 0.1003
922.20 0.1006
922.30 0.1009
922.40 0.1012
922.50 0.1015
922.60 0.1018
922.70 0.1021
922.80 0.1024
922.90 0.1027
923.00 0.1029
923.10 0.1032
923.20 0.1035
923.30 0.1038
923.40 0.1041
923.50 0.1044
923.60 0.1047
923.70 0.105
923.80 0.1053
923.90 0.1056
924.00 0.1058
924.10 0.1061
924.20 0.1064
924.30 0.1067
924.40 0.107
924.50 0.1073
924.60 0.1076
924.70 0.1079
924.80 0.1082
924.90 0.1084
925.00 0.1087
925.10 0.109
925.20 0.1093
925.30 0.1096
925.40 0.1099
925.50 0.1102
925.60 0.1105
925.70 0.1107
925.80 0.111
925.90 0.1113
926.00 0.1116
926.10 0.1119
926.20 0.1122
926.30 0.1125
926.40 0.1128
926.50 0.113
926.60 0.1133
926.70 0.1136
926.80 0.1139
926.90 0.1142
927.00 0.1145
927.10 0.1146
927.20 0.1147
927.30 0.1149
927.40 0.115
927.50 0.1151
927.60 0.1153
927.70 0.1154
927.80 0.1155
927.90 0.1156
928.00 0.1158
928.10 0.1159
928.20 0.116
928.30 0.1162
928.40 0.1163
928.50 0.1164
928.60 0.1166
928.70 0.1167
928.80 0.1168
928.90 0.117
929.00 0.1171
929.10 0.1172
929.20 0.1173
929.30 0.1175
929.40 0.1176
929.50 0.1177
929.60 0.1179
929.70 0.118
929.80 0.1181
929.90 0.1183
930.00 0.1184
930.10 0.1185
930.20 0.1186
930.30 0.1188
930.40 0.1189
930.50 0.119
930.60 0.1192
930.70 0.1193
930.80 0.1194
930.90 0.1196
931.00 0.1197
931.10 0.1198
931.20 0.1199
931.30 0.1201
931.40 0.1202
931.50 0.1203
931.60 0.1205
931.70 0.1206
931.80 0.1207
931.90 0.1208
932.00 0.121
932.10 0.121
932.20 0.121
932.30 0.121
932.40 0.121
932.50 0.121
932.60 0.121
932.70 0.1211
932.80 0.1211
932.90 0.1211
933.00 0.1211
933.10 0.1211
933.20 0.1211
933.30 0.1211
933.40 0.1211
933.50 0.1211
933.60 0.1211
933.70 0.1212
933.80 0.1212
933.90 0.1212
934.00 0.1212
934.10 0.1212
934.20 0.1212
934.30 0.1212
934.40 0.1212
934.50 0.1212
934.60 0.1212
934.70 0.1211
934.80 0.1211
934.90 0.1211
935.00 0.1211
935.10 0.121
935.20 0.121
935.30 0.121
935.40 0.121
935.50 0.121
935.60 0.1209
935.70 0.1209
935.80 0.1209
935.90 0.1209
936.00 0.1209
936.10 0.1208
936.20 0.1208
936.30 0.1208
936.40 0.1208
936.50 0.1207
936.60 0.1207
936.70 0.1207
936.80 0.1207
936.90 0.1207
937.00 0.1206
937.10 0.1206
937.20 0.1206
937.30 0.1205
937.40 0.1205
937.50 0.1204
937.60 0.1204
937.70 0.1204
937.80 0.1203
937.90 0.1203
938.00 0.1202
938.10 0.1202
938.20 0.1202
938.30 0.1201
938.40 0.1201
938.50 0.12
938.60 0.12
938.70 0.1199
938.80 0.1199
938.90 0.1198
939.00 0.1198
939.10 0.1197
939.20 0.1197
939.30 0.1196
939.40 0.1196
939.50 0.1195
939.60 0.1195
939.70 0.1194
939.80 0.1194
939.90 0.1193
940.00 0.1193
940.10 0.1192
940.20 0.1192
940.30 0.1191
940.40 0.119
940.50 0.119
940.60 0.1189
940.70 0.1188
940.80 0.1188
940.90 0.1187
941.00 0.1186
941.10 0.1186
941.20 0.1185
941.30 0.1184
941.40 0.1184
941.50 0.1183
941.60 0.1182
941.70 0.1182
941.80 0.1181
941.90 0.1181
942.00 0.118
942.10 0.1179
942.20 0.1178
942.30 0.1177
942.40 0.1177
942.50 0.1176
942.60 0.1175
942.70 0.1174
942.80 0.1173
942.90 0.1172
943.00 0.1171
943.10 0.117
943.20 0.1169
943.30 0.1168
943.40 0.1167
943.50 0.1167
943.60 0.1166
943.70 0.1165
943.80 0.1164
943.90 0.1163
944.00 0.1162
944.10 0.1161
944.20 0.116
944.30 0.1159
944.40 0.1158
944.50 0.1157
944.60 0.1156
944.70 0.1155
944.80 0.1153
944.90 0.1152
945.00 0.1151
945.10 0.115
945.20 0.1149
945.30 0.1148
945.40 0.1146
945.50 0.1144
945.60 0.1143
945.70 0.1141
945.80 0.114
945.90 0.1138
946.00 0.1137
946.10 0.1135
946.20 0.1134
946.30 0.1132
946.40 0.1131
946.50 0.1129
946.60 0.1127
946.70 0.1126
946.80 0.1124
946.90 0.1123
947.00 0.1121
947.10 0.1119
947.20 0.1118
947.30 0.1116
947.40 0.1113
947.50 0.1111
947.60 0.1108
947.70 0.1106
947.80 0.1103
947.90 0.1101
948.00 0.1099
948.10 0.1096
948.20 0.1094
948.30 0.1091
948.40 0.1089
948.50 0.1086
948.60 0.1084
948.70 0.1082
948.80 0.1079
948.90 0.1077
949.00 0.1074
949.10 0.1072
949.20 0.107
949.30 0.1067
949.40 0.1063
949.50 0.106
949.60 0.1056
949.70 0.1052
949.80 0.1049
949.90 0.1045
950.00 0.1041
950.10 0.1038
950.20 0.1034
950.30 0.1031
950.40 0.1027
950.50 0.1023
950.60 0.102
950.70 0.1016
950.80 0.1012
950.90 0.1009
951.00 0.1005
951.10 0.1001
951.20 0.09977
951.30 0.09941
951.40 0.09894
951.50 0.09848
951.60 0.09802
951.70 0.09756
951.80 0.0971
951.90 0.09664
952.00 0.09618
952.10 0.09567
952.20 0.09516
952.30 0.09465
952.40 0.09414
952.50 0.09363
952.60 0.09312
952.70 0.09261
952.80 0.0921
952.90 0.09155
953.00 0.091
953.10 0.09045
953.20 0.0899
953.30 0.08935
953.40 0.0888
953.50 0.08826
953.60 0.08769
953.70 0.08712
953.80 0.08656
953.90 0.08599
954.00 0.0855
954.10 0.085
954.20 0.0848
954.30 0.08581
954.40 0.08474
954.50 0.08489
954.60 0.08533
954.70 0.08577
954.80 0.08627
954.90 0.08677
955.00 0.08728
955.10 0.08778
955.20 0.08826
955.30 0.08874
955.40 0.08923
955.50 0.08971
955.60 0.09019
955.70 0.09067
955.80 0.09115
955.90 0.09157
956.00 0.09199
956.10 0.09242
956.20 0.09284
956.30 0.09326
956.40 0.09368
956.50 0.0941
956.60 0.09452
956.70 0.09494
956.80 0.09536
956.90 0.09578
957.00 0.0962
957.10 0.09657
957.20 0.09693
957.30 0.09729
957.40 0.09758
957.50 0.09786
957.60 0.09814
957.70 0.09842
957.80 0.0987
957.90 0.09898
958.00 0.09926
958.10 0.09953
958.20 0.09981
958.30 0.1001
958.40 0.1004
958.50 0.1007
958.60 0.1009
958.70 0.1012
958.80 0.1015
958.90 0.1018
959.00 0.102
959.10 0.1023
959.20 0.1026
959.30 0.1029
959.40 0.103
959.50 0.1032
959.60 0.1033
959.70 0.1035
959.80 0.1037
959.90 0.1038
960.00 0.104
960.10 0.1041
960.20 0.1043
960.30 0.1044
960.40 0.1046
960.50 0.1047
960.60 0.1049
960.70 0.105
960.80 0.1052
960.90 0.1053
961.00 0.1055
961.10 0.1056
961.20 0.1058
961.30 0.106
961.40 0.106
961.50 0.1061
961.60 0.1062
961.70 0.1063
961.80 0.1064
961.90 0.1065
962.00 0.1066
962.10 0.1067
962.20 0.1067
962.30 0.1068
962.40 0.1068
962.50 0.1069
962.60 0.107
962.70 0.107
962.80 0.1071
962.90 0.1071
963.00 0.1072
963.10 0.1072
963.20 0.1073
963.30 0.1074
963.40 0.1074
963.50 0.1074
963.60 0.1075
963.70 0.1075
963.80 0.1075
963.90 0.1076
964.00 0.1076
964.10 0.1076
964.20 0.1076
964.30 0.1077
964.40 0.1077
964.50 0.1077
964.60 0.1077
964.70 0.1077
964.80 0.1077
964.90 0.1077
965.00 0.1077
965.10 0.1077
965.20 0.1077
965.30 0.1078
965.40 0.1078
965.50 0.1078
965.60 0.1078
965.70 0.1078
965.80 0.1078
965.90 0.1078
966.00 0.1078
966.10 0.1078
966.20 0.1078
966.30 0.1078
966.40 0.1078
966.50 0.1078
966.60 0.1078
966.70 0.1078
966.80 0.1078
966.90 0.1078
967.00 0.1078
967.10 0.1078
967.20 0.1078
967.30 0.1077
967.40 0.1077
967.50 0.1077
967.60 0.1077
967.70 0.1077
967.80 0.1077
967.90 0.1076
968.00 0.1076
968.10 0.1076
968.20 0.1076
968.30 0.1076
968.40 0.1076
968.50 0.1075
968.60 0.1075
968.70 0.1075
968.80 0.1075
968.90 0.1074
969.00 0.1074
969.10 0.1074
969.20 0.1074
969.30 0.1073
969.40 0.1073
969.50 0.1073
969.60 0.1073
969.70 0.1072
969.80 0.1072
969.90 0.1072
970.00 0.1072
970.10 0.1072
970.20 0.1071
970.30 0.1071
970.40 0.1071
970.50 0.107
970.60 0.107
970.70 0.107
970.80 0.107
970.90 0.1069
971.00 0.1069
971.10 0.1069
971.20 0.1068
971.30 0.1068
971.40 0.1068
971.50 0.1068
971.60 0.1067
971.70 0.1067
971.80 0.1067
971.90 0.1066
972.00 0.1066
972.10 0.1066
972.20 0.1065
972.30 0.1065
972.40 0.1065
972.50 0.1064
972.60 0.1064
972.70 0.1064
972.80 0.1063
972.90 0.1063
973.00 0.1063
973.10 0.1062
973.20 0.1062
973.30 0.1062
973.40 0.1061
973.50 0.1061
973.60 0.1061
973.70 0.106
973.80 0.106
973.90 0.106
974.00 0.1059
974.10 0.1059
974.20 0.1059
974.30 0.1058
974.40 0.1058
974.50 0.1058
974.60 0.1057
974.70 0.1057
974.80 0.1056
974.90 0.1056
975.00 0.1056
975.10 0.1055
975.20 0.1055
975.30 0.1055
975.40 0.1054
975.50 0.1054
975.60 0.1053
975.70 0.1053
975.80 0.1053
975.90 0.1052
976.00 0.1052
976.10 0.1052
976.20 0.1051
976.30 0.1051
976.40 0.1051
976.50 0.105
976.60 0.105
976.70 0.1049
976.80 0.1049
976.90 0.1049
977.00 0.1048
977.10 0.1048
977.20 0.1048
977.30 0.1047
977.40 0.1047
977.50 0.1046
977.60 0.1046
977.70 0.1046
977.80 0.1045
977.90 0.1045
978.00 0.1044
978.10 0.1044
978.20 0.1044
978.30 0.1043
978.40 0.1043
978.50 0.1042
978.60 0.1042
978.70 0.1042
978.80 0.1041
978.90 0.1041
979.00 0.104
979.10 0.104
979.20 0.104
979.30 0.1039
979.40 0.1039
979.50 0.1038
979.60 0.1038
979.70 0.1038
979.80 0.1037
979.90 0.1037
980.00 0.1037
980.10 0.1036
980.20 0.1036
980.30 0.1035
980.40 0.1035
980.50 0.1035
980.60 0.1034
980.70 0.1034
980.80 0.1033
980.90 0.1033
981.00 0.1033
981.10 0.1032
981.20 0.1032
981.30 0.1031
981.40 0.1031
981.50 0.1031
981.60 0.103
981.70 0.103
981.80 0.1029
981.90 0.1029
982.00 0.1029
982.10 0.1028
982.20 0.1028
982.30 0.1027
982.40 0.1027
982.50 0.1027
982.60 0.1026
982.70 0.1026
982.80 0.1025
982.90 0.1025
983.00 0.1025
983.10 0.1024
983.20 0.1024
983.30 0.1023
983.40 0.1023
983.50 0.1022
983.60 0.1022
983.70 0.1022
983.80 0.1021
983.90 0.1021
984.00 0.102
984.10 0.102
984.20 0.1019
984.30 0.1019
984.40 0.1019
984.50 0.1018
984.60 0.1018
984.70 0.1017
984.80 0.1017
984.90 0.1016
985.00 0.1016
985.10 0.1016
985.20 0.1015
985.30 0.1015
985.40 0.1014
985.50 0.1014
985.60 0.1013
985.70 0.1013
985.80 0.1012
985.90 0.1012
986.00 0.1012
986.10 0.1011
986.20 0.1011
986.30 0.101
986.40 0.101
986.50 0.1009
986.60 0.1009
986.70 0.1008
986.80 0.1008
986.90 0.1008
987.00 0.1007
987.10 0.1007
987.20 0.1006
987.30 0.1006
987.40 0.1005
987.50 0.1005
987.60 0.1004
987.70 0.1004
987.80 0.1003
987.90 0.1003
988.00 0.1002
988.10 0.1002
988.20 0.1001
988.30 0.1001
988.40 0.1
988.50 0.09999
988.60 0.09994
988.70 0.09989
988.80 0.09984
988.90 0.09978
989.00 0.09973
989.10 0.09968
989.20 0.09962
989.30 0.09957
989.40 0.09952
989.50 0.09946
989.60 0.09941
989.70 0.09936
989.80 0.0993
989.90 0.09925
990.00 0.0992
990.10 0.09914
990.20 0.09909
990.30 0.09904
990.40 0.09898
990.50 0.09893
990.60 0.09888
990.70 0.09882
990.80 0.09876
990.90 0.09869
991.00 0.09863
991.10 0.09857
991.20 0.09851
991.30 0.09845
991.40 0.09839
991.50 0.09832
991.60 0.09826
991.70 0.0982
991.80 0.09814
991.90 0.09808
992.00 0.09802
992.10 0.09795
992.20 0.09788
992.30 0.09781
992.40 0.09774
992.50 0.09767
992.60 0.0976
992.70 0.09752
992.80 0.09744
992.90 0.09736
993.00 0.09727
993.10 0.09719
993.20 0.09711
993.30 0.09703
993.40 0.09695
993.50 0.09687
993.60 0.09679
993.70 0.09671
993.80 0.09663
993.90 0.09655
994.00 0.09647
994.10 0.09639
994.20 0.09631
994.30 0.09623
994.40 0.09615
994.50 0.09607
994.60 0.09599
994.70 0.09589
994.80 0.09579
994.90 0.09568
995.00 0.09558
995.10 0.09548
995.20 0.09538
995.30 0.09527
995.40 0.09517
995.50 0.09507
995.60 0.09497
995.70 0.09485
995.80 0.09472
995.90 0.09459
996.00 0.09446
996.10 0.09433
996.20 0.0942
996.30 0.09408
996.40 0.09395
996.50 0.09382
996.60 0.09369
996.70 0.09356
996.80 0.09344
996.90 0.09331
997.00 0.09318
997.10 0.09303
997.20 0.09287
997.30 0.09272
997.40 0.09256
997.50 0.09241
997.60 0.09226
997.70 0.09207
997.80 0.09186
997.90 0.09166
998.00 0.09146
998.10 0.09126
998.20 0.09106
998.30 0.09086
998.40 0.09066
998.50 0.09046
998.60 0.09025
998.70 0.09005
998.80 0.08985
998.90 0.08965
999.00 0.08945
999.10 0.08925
999.20 0.08905
999.30 0.08885
999.40 0.08865
999.50 0.08845
999.60 0.08825
999.70 0.08798
999.80 0.08768
999.90 0.08738
1000.00 0.08709
1000.10 0.08679
1000.20 0.08649
1000.30 0.0862
1000.40 0.0859
1000.50 0.08561
1000.60 0.08531
1000.70 0.08501
1000.80 0.08472
1000.90 0.08442
1001.00 0.08413
1001.10 0.08383
1001.20 0.08354
1001.30 0.08324
1001.40 0.08295
1001.50 0.08265
1001.60 0.08236
1001.70 0.08201
1001.80 0.08165
1001.90 0.08129
1002.00 0.08093
1002.10 0.08052
1002.20 0.08012
1002.30 0.07971
1002.40 0.0793
1002.50 0.0789
1002.60 0.07849
1002.70 0.07809
1002.80 0.07768
1002.90 0.07728
1003.00 0.07687
1003.10 0.07647
1003.20 0.07601
1003.30 0.07553
1003.40 0.07506
1003.50 0.07458
1003.60 0.07411
1003.70 0.07363
1003.80 0.07315
1003.90 0.07258
1004.00 0.07198
1004.10 0.07138
1004.20 0.07078
1004.30 0.07003
1004.40 0.06922
1004.50 0.06839
1004.60 0.06827
1004.70 0.06806
1004.80 0.06875
1004.90 0.06952
1005.00 0.07028
1005.10 0.07088
1005.20 0.07143
1005.30 0.07198
1005.40 0.07253
1005.50 0.07298
1005.60 0.0734
1005.70 0.07382
1005.80 0.07425
1005.90 0.07467
1006.00 0.07509
1006.10 0.07551
1006.20 0.07588
1006.30 0.07623
1006.40 0.07659
1006.50 0.07694
1006.60 0.0773
1006.70 0.07765
1006.80 0.078
1006.90 0.07836
1007.00 0.07871
1007.10 0.07901
1007.20 0.07932
1007.30 0.07963
1007.40 0.07993
1007.50 0.08024
1007.60 0.08054
1007.70 0.08079
1007.80 0.08101
1007.90 0.08124
1008.00 0.08147
1008.10 0.0817
1008.20 0.08193
1008.30 0.08216
1008.40 0.08238
1008.50 0.08261
1008.60 0.08284
1008.70 0.08307
1008.80 0.08329
1008.90 0.08352
1009.00 0.08375
1009.10 0.08398
1009.20 0.0842
1009.30 0.08443
1009.40 0.08466
1009.50 0.08488
1009.60 0.08511
1009.70 0.08526
1009.80 0.08539
1009.90 0.08552
1010.00 0.08565
1010.10 0.08578
1010.20 0.08591
1010.30 0.08604
1010.40 0.08617
1010.50 0.0863
1010.60 0.08642
1010.70 0.08655
1010.80 0.08668
1010.90 0.08681
1011.00 0.08694
1011.10 0.08707
1011.20 0.0872
1011.30 0.08733
1011.40 0.08745
1011.50 0.08758
1011.60 0.08771
1011.70 0.08781
1011.80 0.0879
1011.90 0.08799
1012.00 0.08807
1012.10 0.08813
1012.20 0.08819
1012.30 0.08824
1012.40 0.0883
1012.50 0.08836
1012.60 0.08841
1012.70 0.08847
1012.80 0.08852
1012.90 0.08858
1013.00 0.08864
1013.10 0.08869
1013.20 0.08875
1013.30 0.0888
1013.40 0.08886
1013.50 0.08892
1013.60 0.08897
1013.70 0.08901
1013.80 0.08904
1013.90 0.08907
1014.00 0.0891
1014.10 0.08913
1014.20 0.08916
1014.30 0.08919
1014.40 0.08922
1014.50 0.08925
1014.60 0.08928
1014.70 0.0893
1014.80 0.08931
1014.90 0.08932
1015.00 0.08933
1015.10 0.08934
1015.20 0.08935
1015.30 0.08936
1015.40 0.08937
1015.50 0.08938
1015.60 0.08939
1015.70 0.0894
1015.80 0.08941
1015.90 0.08942
1016.00 0.08943
1016.10 0.08944
1016.20 0.08945
1016.30 0.08946
1016.40 0.08947
1016.50 0.08947
1016.60 0.08948
1016.70 0.08948
1016.80 0.08948
1016.90 0.08948
1017.00 0.08947
1017.10 0.08947
1017.20 0.08946
1017.30 0.08945
1017.40 0.08944
1017.50 0.08943
1017.60 0.08942
1017.70 0.08941
1017.80 0.0894
1017.90 0.0894
1018.00 0.08939
1018.10 0.08938
1018.20 0.08937
1018.30 0.08936
1018.40 0.08935
1018.50 0.08934
1018.60 0.08933
1018.70 0.08932
1018.80 0.0893
1018.90 0.08929
1019.00 0.08927
1019.10 0.08925
1019.20 0.08924
1019.30 0.08922
1019.40 0.0892
1019.50 0.08919
1019.60 0.08917
1019.70 0.08915
1019.80 0.08914
1019.90 0.08912
1020.00 0.0891
1020.10 0.08909
1020.20 0.08907
1020.30 0.08905
1020.40 0.08904
1020.50 0.08902
1020.60 0.089
1020.70 0.08898
1020.80 0.08896
1020.90 0.08894
1021.00 0.08892
1021.10 0.08889
1021.20 0.08887
1021.30 0.08885
1021.40 0.08883
1021.50 0.08881
1021.60 0.08878
1021.70 0.08876
1021.80 0.08874
1021.90 0.08872
1022.00 0.0887
1022.10 0.08867
1022.20 0.08864
1022.30 0.08862
1022.40 0.08859
1022.50 0.08857
1022.60 0.08854
1022.70 0.08852
1022.80 0.08849
1022.90 0.08847
1023.00 0.08844
1023.10 0.08842
1023.20 0.08839
1023.30 0.08837
1023.40 0.08834
1023.50 0.08832
1023.60 0.08829
1023.70 0.08827
1023.80 0.08824
1023.90 0.08822
1024.00 0.08819
1024.10 0.08817
1024.20 0.08814
1024.30 0.08812
1024.40 0.08809
1024.50 0.08807
1024.60 0.08804
1024.70 0.08802
1024.80 0.08799
1024.90 0.08796
1025.00 0.08793
1025.10 0.08791
1025.20 0.08788
1025.30 0.08785
1025.40 0.08783
1025.50 0.0878
1025.60 0.08777
1025.70 0.08774
1025.80 0.08772
1025.90 0.08769
1026.00 0.08766
1026.10 0.08764
1026.20 0.08761
1026.30 0.08758
1026.40 0.08755
1026.50 0.08753
1026.60 0.0875
1026.70 0.08747
1026.80 0.08744
1026.90 0.08742
1027.00 0.08739
1027.10 0.08736
1027.20 0.08733
1027.30 0.0873
1027.40 0.08727
1027.50 0.08725
1027.60 0.08722
1027.70 0.08719
1027.80 0.08716
1027.90 0.08713
1028.00 0.0871
1028.10 0.08707
1028.20 0.08704
1028.30 0.08701
1028.40 0.08699
1028.50 0.08696
1028.60 0.08693
1028.70 0.0869
1028.80 0.08687
1028.90 0.08684
1029.00 0.08681
1029.10 0.08678
1029.20 0.08676
1029.30 0.08673
1029.40 0.0867
1029.50 0.08667
1029.60 0.08664
1029.70 0.08661
1029.80 0.08658
1029.90 0.08655
1030.00 0.08653
1030.10 0.0865
1030.20 0.08647
1030.30 0.08644
1030.40 0.08641
1030.50 0.08638
1030.60 0.08635
1030.70 0.08632
1030.80 0.0863
1030.90 0.08627
1031.00 0.08624
1031.10 0.08621
1031.20 0.08618
1031.30 0.08615
1031.40 0.08612
1031.50 0.0861
1031.60 0.08607
1031.70 0.08604
1031.80 0.08601
1031.90 0.08598
1032.00 0.08595
1032.10 0.08592
1032.20 0.08589
1032.30 0.08586
1032.40 0.08583
1032.50 0.08581
1032.60 0.08578
1032.70 0.08575
1032.80 0.08572
1032.90 0.08569
1033.00 0.08566
1033.10 0.08563
1033.20 0.0856
1033.30 0.08557
1033.40 0.08554
1033.50 0.08551
1033.60 0.08548
1033.70 0.08545
1033.80 0.08542
1033.90 0.08539
1034.00 0.08536
1034.10 0.08533
1034.20 0.0853
1034.30 0.08527
1034.40 0.08525
1034.50 0.08522
1034.60 0.08519
1034.70 0.08516
1034.80 0.08513
1034.90 0.0851
1035.00 0.08507
1035.10 0.08504
1035.20 0.08501
1035.30 0.08498
1035.40 0.08495
1035.50 0.08492
1035.60 0.08489
1035.70 0.08486
1035.80 0.08484
1035.90 0.08481
1036.00 0.08478
1036.10 0.08475
1036.20 0.08472
1036.30 0.08469
1036.40 0.08466
1036.50 0.08463
1036.60 0.0846
1036.70 0.08457
1036.80 0.08454
1036.90 0.08451
1037.00 0.08449
1037.10 0.08446
1037.20 0.08443
1037.30 0.0844
1037.40 0.08437
1037.50 0.08434
1037.60 0.08431
1037.70 0.08428
1037.80 0.08425
1037.90 0.08422
1038.00 0.08419
1038.10 0.08416
1038.20 0.08413
1038.30 0.0841
1038.40 0.08407
1038.50 0.08404
1038.60 0.08401
1038.70 0.08399
1038.80 0.08396
1038.90 0.08393
1039.00 0.0839
1039.10 0.08387
1039.20 0.08384
1039.30 0.08381
1039.40 0.08378
1039.50 0.08375
1039.60 0.08372
1039.70 0.08369
1039.80 0.08366
1039.90 0.08363
1040.00 0.0836
1040.10 0.08357
1040.20 0.08355
1040.30 0.08352
1040.40 0.08349
1040.50 0.08346
1040.60 0.08343
1040.70 0.0834
1040.80 0.08337
1040.90 0.08334
1041.00 0.08331
1041.10 0.08328
1041.20 0.08325
1041.30 0.08322
1041.40 0.0832
1041.50 0.08317
1041.60 0.08314
1041.70 0.08311
1041.80 0.08308
1041.90 0.08305
1042.00 0.08302
1042.10 0.08299
1042.20 0.08296
1042.30 0.08293
1042.40 0.0829
1042.50 0.08288
1042.60 0.08285
1042.70 0.08282
1042.80 0.08279
1042.90 0.08276
1043.00 0.08273
1043.10 0.0827
1043.20 0.08267
1043.30 0.08264
1043.40 0.08261
1043.50 0.08258
1043.60 0.08255
1043.70 0.08253
1043.80 0.0825
1043.90 0.08247
1044.00 0.08244
1044.10 0.08241
1044.20 0.08238
1044.30 0.08235
1044.40 0.08232
1044.50 0.08229
1044.60 0.08226
1044.70 0.08224
1044.80 0.08221
1044.90 0.08218
1045.00 0.08215
1045.10 0.08212
1045.20 0.08209
1045.30 0.08206
1045.40 0.08203
1045.50 0.082
1045.60 0.08197
1045.70 0.08195
1045.80 0.08192
1045.90 0.08189
1046.00 0.08186
1046.10 0.08183
1046.20 0.0818
1046.30 0.08177
1046.40 0.08174
1046.50 0.08172
1046.60 0.08169
1046.70 0.08166
1046.80 0.08163
1046.90 0.0816
1047.00 0.08157
1047.10 0.08154
1047.20 0.08151
1047.30 0.08148
1047.40 0.08146
1047.50 0.08143
1047.60 0.0814
1047.70 0.08137
1047.80 0.08134
1047.90 0.08131
1048.00 0.08128
1048.10 0.08125
1048.20 0.08123
1048.30 0.0812
1048.40 0.08117
1048.50 0.08114
1048.60 0.08111
1048.70 0.08108
1048.80 0.08105
1048.90 0.08103
1049.00 0.081
1049.10 0.08097
1049.20 0.08094
1049.30 0.08091
1049.40 0.08088
1049.50 0.08085
1049.60 0.08082
1049.70 0.0808
1049.80 0.08077
1049.90 0.08074
1050.00 0.08071
1050.10 0.08068
1050.20 0.08065
1050.30 0.08063
1050.40 0.0806
1050.50 0.08057
1050.60 0.08054
1050.70 0.08051
1050.80 0.08048
1050.90 0.08045
1051.00 0.08043
1051.10 0.0804
1051.20 0.08037
1051.30 0.08034
1051.40 0.08031
1051.50 0.08028
1051.60 0.08026
1051.70 0.08023
1051.80 0.0802
1051.90 0.08017
1052.00 0.08014
1052.10 0.08011
1052.20 0.08008
1052.30 0.08006
1052.40 0.08003
1052.50 0.08
1052.60 0.07997
1052.70 0.07994
1052.80 0.07991
1052.90 0.07989
1053.00 0.07986
1053.10 0.07983
1053.20 0.0798
1053.30 0.07977
1053.40 0.07974
1053.50 0.07972
1053.60 0.07969
1053.70 0.07966
1053.80 0.07963
1053.90 0.0796
1054.00 0.07957
1054.10 0.07955
1054.20 0.07952
1054.30 0.07949
1054.40 0.07946
1054.50 0.07943
1054.60 0.0794
1054.70 0.07938
1054.80 0.07935
1054.90 0.07932
1055.00 0.07929
1055.10 0.07926
1055.20 0.07924
1055.30 0.07921
1055.40 0.07918
1055.50 0.07915
1055.60 0.07912
1055.70 0.07909
1055.80 0.07907
1055.90 0.07904
1056.00 0.07901
1056.10 0.07898
1056.20 0.07895
1056.30 0.07893
1056.40 0.0789
1056.50 0.07887
1056.60 0.07884
1056.70 0.07881
1056.80 0.07879
1056.90 0.07876
1057.00 0.07873
1057.10 0.0787
1057.20 0.07867
1057.30 0.07864
1057.40 0.07862
1057.50 0.07859
1057.60 0.07856
1057.70 0.07853
1057.80 0.0785
1057.90 0.07848
1058.00 0.07845
1058.10 0.07842
1058.20 0.07839
1058.30 0.07836
1058.40 0.07833
1058.50 0.07831
1058.60 0.07828
1058.70 0.07825
1058.80 0.07822
1058.90 0.07819
1059.00 0.07817
1059.10 0.07814
1059.20 0.07811
1059.30 0.07808
1059.40 0.07805
1059.50 0.07803
1059.60 0.078
1059.70 0.07797
1059.80 0.07794
1059.90 0.07791
1060.00 0.07789
1060.10 0.07786
1060.20 0.07783
1060.30 0.0778
1060.40 0.07777
1060.50 0.07775
1060.60 0.07772
1060.70 0.07769
1060.80 0.07766
1060.90 0.07763
1061.00 0.07761
1061.10 0.07758
1061.20 0.07755
1061.30 0.07752
1061.40 0.0775
1061.50 0.07747
1061.60 0.07744
1061.70 0.07741
1061.80 0.07738
1061.90 0.07736
1062.00 0.07733
1062.10 0.0773
1062.20 0.07727
1062.30 0.07724
1062.40 0.07722
1062.50 0.07719
1062.60 0.07716
1062.70 0.07713
1062.80 0.0771
1062.90 0.07707
1063.00 0.07705
1063.10 0.07702
1063.20 0.07699
1063.30 0.07696
1063.40 0.07693
1063.50 0.07691
1063.60 0.07688
1063.70 0.07685
1063.80 0.07682
1063.90 0.07679
1064.00 0.07677
1064.10 0.07674
1064.20 0.07671
1064.30 0.07668
1064.40 0.07665
1064.50 0.07663
1064.60 0.0766
1064.70 0.07657
1064.80 0.07654
1064.90 0.07651
1065.00 0.07649
1065.10 0.07646
1065.20 0.07643
1065.30 0.0764
1065.40 0.07637
1065.50 0.07635
1065.60 0.07632
1065.70 0.07629
1065.80 0.07626
1065.90 0.07623
1066.00 0.07621
1066.10 0.07618
1066.20 0.07615
1066.30 0.07612
1066.40 0.0761
1066.50 0.07607
1066.60 0.07604
1066.70 0.07601
1066.80 0.07598
1066.90 0.07596
1067.00 0.07593
1067.10 0.0759
1067.20 0.07587
1067.30 0.07584
1067.40 0.07581
1067.50 0.07578
1067.60 0.07576
1067.70 0.07573
1067.80 0.0757
1067.90 0.07567
1068.00 0.07564
1068.10 0.07561
1068.20 0.07558
1068.30 0.07555
1068.40 0.07553
1068.50 0.0755
1068.60 0.07547
1068.70 0.07544
1068.80 0.07541
1068.90 0.07538
1069.00 0.07535
1069.10 0.07532
1069.20 0.0753
1069.30 0.07527
1069.40 0.07524
1069.50 0.07521
1069.60 0.07518
1069.70 0.07515
1069.80 0.07512
1069.90 0.0751
1070.00 0.07507
1070.10 0.07504
1070.20 0.07501
1070.30 0.07498
1070.40 0.07495
1070.50 0.07492
1070.60 0.0749
1070.70 0.07487
1070.80 0.07484
1070.90 0.07481
1071.00 0.07478
1071.10 0.07475
1071.20 0.07472
1071.30 0.0747
1071.40 0.07467
1071.50 0.07464
1071.60 0.07461
1071.70 0.07458
1071.80 0.07455
1071.90 0.07453
1072.00 0.0745
1072.10 0.07447
1072.20 0.07444
1072.30 0.07441
1072.40 0.07438
1072.50 0.07435
1072.60 0.07432
1072.70 0.07429
1072.80 0.07426
1072.90 0.07423
1073.00 0.0742
1073.10 0.07417
1073.20 0.07414
1073.30 0.07411
1073.40 0.07408
1073.50 0.07405
1073.60 0.07402
1073.70 0.07399
1073.80 0.07395
1073.90 0.07392
1074.00 0.07389
1074.10 0.07386
1074.20 0.07383
1074.30 0.0738
1074.40 0.07376
1074.50 0.07373
1074.60 0.0737
1074.70 0.07367
1074.80 0.07364
1074.90 0.07361
1075.00 0.07357
1075.10 0.07354
1075.20 0.07351
1075.30 0.07348
1075.40 0.07345
1075.50 0.07342
1075.60 0.07338
1075.70 0.07335
1075.80 0.07332
1075.90 0.07329
1076.00 0.07326
1076.10 0.07323
1076.20 0.0732
1076.30 0.07316
1076.40 0.07313
1076.50 0.0731
1076.60 0.07307
1076.70 0.07304
1076.80 0.07301
1076.90 0.07298
1077.00 0.07294
1077.10 0.07291
1077.20 0.07288
1077.30 0.07284
1077.40 0.07281
1077.50 0.07277
1077.60 0.07274
1077.70 0.0727
1077.80 0.07266
1077.90 0.07263
1078.00 0.07259
1078.10 0.07256
1078.20 0.07252
1078.30 0.07248
1078.40 0.07245
1078.50 0.07241
1078.60 0.07237
1078.70 0.07234
1078.80 0.0723
1078.90 0.07227
1079.00 0.07223
1079.10 0.07219
1079.20 0.07216
1079.30 0.07212
1079.40 0.07208
1079.50 0.07205
1079.60 0.072
1079.70 0.07196
1079.80 0.07192
1079.90 0.07188
1080.00 0.07183
1080.10 0.07179
1080.20 0.07175
1080.30 0.0717
1080.40 0.07166
1080.50 0.07162
1080.60 0.07158
1080.70 0.07153
1080.80 0.07149
1080.90 0.07145
1081.00 0.07141
1081.10 0.07136
1081.20 0.07132
1081.30 0.07128
1081.40 0.07124
1081.50 0.07119
1081.60 0.07114
1081.70 0.0711
1081.80 0.07105
1081.90 0.071
1082.00 0.07095
1082.10 0.0709
1082.20 0.07084
1082.30 0.07079
1082.40 0.07073
1082.50 0.07068
1082.60 0.07062
1082.70 0.07057
1082.80 0.07051
1082.90 0.07046
1083.00 0.0704
1083.10 0.07035
1083.20 0.07029
1083.30 0.07024
1083.40 0.07018
1083.50 0.07012
1083.60 0.07006
1083.70 0.06999
1083.80 0.06992
1083.90 0.06986
1084.00 0.06979
1084.10 0.06972
1084.20 0.06966
1084.30 0.06959
1084.40 0.06952
1084.50 0.06945
1084.60 0.06936
1084.70 0.06927
1084.80 0.06918
1084.90 0.06909
1085.00 0.069
1085.10 0.06891
1085.20 0.06882
1085.30 0.06873
1085.40 0.06864
1085.50 0.06855
1085.60 0.06846
1085.70 0.06837
1085.80 0.06829
1085.90 0.0682
1086.00 0.06811
1086.10 0.06802
1086.20 0.06793
1086.30 0.06784
1086.40 0.06775
1086.50 0.06765
1086.60 0.06754
1086.70 0.06744
1086.80 0.06733
1086.90 0.06722
1087.00 0.06711
1087.10 0.06697
1087.20 0.06683
1087.30 0.06668
1087.40 0.06654
1087.50 0.0664
1087.60 0.06626
1087.70 0.06612
1087.80 0.06598
1087.90 0.06584
1088.00 0.0657
1088.10 0.06556
1088.20 0.06542
1088.30 0.06528
1088.40 0.06513
1088.50 0.06498
1088.60 0.06478
1088.70 0.06458
1088.80 0.06438
1088.90 0.06418
1089.00 0.06398
1089.10 0.06378
1089.20 0.06358
1089.30 0.06339
1089.40 0.06319
1089.50 0.06299
1089.60 0.06279
1089.70 0.06259
1089.80 0.06239
1089.90 0.0622
1090.00 0.062
1090.10 0.0618
1090.20 0.0616
1090.30 0.0614
1090.40 0.06121
1090.50 0.06099
1090.60 0.06072
1090.70 0.06045
1090.80 0.06018
1090.90 0.05991
1091.00 0.05964
1091.10 0.05937
1091.20 0.0591
1091.30 0.05883
1091.40 0.05856
1091.50 0.05829
1091.60 0.05802
1091.70 0.05775
1091.80 0.05748
1091.90 0.05721
1092.00 0.05693
1092.10 0.05659
1092.20 0.05625
1092.30 0.0559
1092.40 0.05556
1092.50 0.05522
1092.60 0.05488
1092.70 0.05449
1092.80 0.054
1092.90 0.05351
1093.00 0.05302
1093.10 0.05242
1093.20 0.05157
1093.30 0.05068
1093.40 0.04947
1093.50 0.04928
1093.60 0.0502
1093.70 0.05119
1093.80 0.05201
1093.90 0.05271
1094.00 0.05316
1094.10 0.05361
1094.20 0.05407
1094.30 0.05447
1094.40 0.05478
1094.50 0.05508
1094.60 0.05538
1094.70 0.05568
1094.80 0.05599
1094.90 0.05629
1095.00 0.05657
1095.10 0.0568
1095.20 0.05703
1095.30 0.05725
1095.40 0.05748
1095.50 0.05771
1095.60 0.05794
1095.70 0.05817
1095.80 0.05839
1095.90 0.05862
1096.00 0.05885
1096.10 0.05908
1096.20 0.0593
1096.30 0.05953
1096.40 0.05976
1096.50 0.05997
1096.60 0.06015
1096.70 0.06034
1096.80 0.06052
1096.90 0.0607
1097.00 0.06088
1097.10 0.06102
1097.20 0.06116
1097.30 0.06131
1097.40 0.06145
1097.50 0.06159
1097.60 0.06173
1097.70 0.06187
1097.80 0.06201
1097.90 0.06215
1098.00 0.06229
1098.10 0.06243
1098.20 0.06257
1098.30 0.06271
1098.40 0.06285
1098.50 0.06298
1098.60 0.06306
1098.70 0.06314
1098.80 0.06323
1098.90 0.06331
1099.00 0.0634
1099.10 0.06348
1099.20 0.06356
1099.30 0.06365
1099.40 0.06373
1099.50 0.06382
1099.60 0.0639
1099.70 0.06398
1099.80 0.06407
1099.90 0.06415
1100.00 0.06423
1100.10 0.06432
1100.20 0.0644
1100.30 0.06448
1100.40 0.06457
1100.50 0.06464
1100.60 0.06468
1100.70 0.06472
1100.80 0.06477
1100.90 0.06481
1101.00 0.06485
1101.10 0.0649
1101.20 0.06494
1101.30 0.06498
1101.40 0.06503
1101.50 0.06507
1101.60 0.06511
1101.70 0.06516
1101.80 0.0652
1101.90 0.06524
1102.00 0.06529
1102.10 0.06531
1102.20 0.06534
1102.30 0.06536
1102.40 0.06539
1102.50 0.06541
1102.60 0.06543
1102.70 0.06544
1102.80 0.06546
1102.90 0.06548
1103.00 0.0655
1103.10 0.06552
1103.20 0.06553
1103.30 0.06555
1103.40 0.06557
1103.50 0.06558
1103.60 0.06559
1103.70 0.06559
1103.80 0.0656
1103.90 0.0656
1104.00 0.06561
1104.10 0.06561
1104.20 0.06562
1104.30 0.06562
1104.40 0.06563
1104.50 0.06563
1104.60 0.06564
1104.70 0.06564
1104.80 0.06565
1104.90 0.06565
1105.00 0.06566
1105.10 0.06566
1105.20 0.06567
1105.30 0.06567
1105.40 0.06568
1105.50 0.06568
1105.60 0.06567
1105.70 0.06567
1105.80 0.06566
1105.90 0.06566
1106.00 0.06565
1106.10 0.06565
1106.20 0.06564
1106.30 0.06564
1106.40 0.06563
1106.50 0.06563
1106.60 0.06562
1106.70 0.06562
1106.80 0.06561
1106.90 0.06561
1107.00 0.0656
1107.10 0.06559
1107.20 0.06558
1107.30 0.06557
1107.40 0.06557
1107.50 0.06556
1107.60 0.06554
1107.70 0.06553
1107.80 0.06552
1107.90 0.06551
1108.00 0.0655
1108.10 0.06548
1108.20 0.06547
1108.30 0.06546
1108.40 0.06545
1108.50 0.06544
1108.60 0.06542
1108.70 0.06541
1108.80 0.0654
1108.90 0.06539
1109.00 0.06538
1109.10 0.06537
1109.20 0.06535
1109.30 0.06534
1109.40 0.06533
1109.50 0.06532
1109.60 0.0653
1109.70 0.06529
1109.80 0.06527
1109.90 0.06525
1110.00 0.06524
1110.10 0.06522
1110.20 0.06521
1110.30 0.06519
1110.40 0.06518
1110.50 0.06516
1110.60 0.06515
1110.70 0.06513
1110.80 0.06511
1110.90 0.0651
1111.00 0.06508
1111.10 0.06507
1111.20 0.06505
1111.30 0.06504
1111.40 0.06502
1111.50 0.06501
1111.60 0.06499
1111.70 0.06498
1111.80 0.06496
1111.90 0.06494
1112.00 0.06493
1112.10 0.06491
1112.20 0.06489
1112.30 0.06488
1112.40 0.06486
1112.50 0.06484
1112.60 0.06483
1112.70 0.06481
1112.80 0.06479
1112.90 0.06477
1113.00 0.06476
1113.10 0.06474
1113.20 0.06472
1113.30 0.0647
1113.40 0.06469
1113.50 0.06467
1113.60 0.06465
1113.70 0.06463
1113.80 0.06461
1113.90 0.06459
1114.00 0.06458
1114.10 0.06456
1114.20 0.06454
1114.30 0.06452
1114.40 0.0645
1114.50 0.06448
1114.60 0.06446
1114.70 0.06444
1114.80 0.06443
1114.90 0.06441
1115.00 0.06439
1115.10 0.06437
1115.20 0.06435
1115.30 0.06433
1115.40 0.06431
1115.50 0.0643
1115.60 0.06428
1115.70 0.06426
1115.80 0.06424
1115.90 0.06422
1116.00 0.0642
1116.10 0.06418
1116.20 0.06417
1116.30 0.06415
1116.40 0.06413
1116.50 0.06411
1116.60 0.06409
1116.70 0.06407
1116.80 0.06405
1116.90 0.06404
1117.00 0.06402
1117.10 0.064
1117.20 0.06398
1117.30 0.06396
1117.40 0.06394
1117.50 0.06392
1117.60 0.0639
1117.70 0.06388
1117.80 0.06386
1117.90 0.06384
1118.00 0.06382
1118.10 0.0638
1118.20 0.06378
1118.30 0.06376
1118.40 0.06374
1118.50 0.06372
1118.60 0.0637
1118.70 0.06368
1118.80 0.06366
1118.90 0.06364
1119.00 0.06362
1119.10 0.0636
1119.20 0.06359
1119.30 0.06357
1119.40 0.06355
1119.50 0.06353
1119.60 0.06351
1119.70 0.06349
1119.80 0.06347
1119.90 0.06345
1120.00 0.06343
1120.10 0.06341
1120.20 0.06339
1120.30 0.06337
1120.40 0.06335
1120.50 0.06333
1120.60 0.06331
1120.70 0.06329
1120.80 0.06327
1120.90 0.06325
1121.00 0.06323
1121.10 0.06321
1121.20 0.06319
1121.30 0.06318
1121.40 0.06316
1121.50 0.06314
1121.60 0.06312
1121.70 0.0631
1121.80 0.06308
1121.90 0.06306
1122.00 0.06304
1122.10 0.06302
1122.20 0.063
1122.30 0.06298
1122.40 0.06296
1122.50 0.06294
1122.60 0.06292
1122.70 0.0629
1122.80 0.06288
1122.90 0.06286
1123.00 0.06284
1123.10 0.06282
1123.20 0.0628
1123.30 0.06278
1123.40 0.06276
1123.50 0.06274
1123.60 0.06272
1123.70 0.0627
1123.80 0.06268
1123.90 0.06266
1124.00 0.06264
1124.10 0.06262
1124.20 0.0626
1124.30 0.06258
1124.40 0.06256
1124.50 0.06254
1124.60 0.06252
1124.70 0.0625
1124.80 0.06248
1124.90 0.06246
1125.00 0.06244
1125.10 0.06242
1125.20 0.0624
1125.30 0.06238
1125.40 0.06236
1125.50 0.06234
1125.60 0.06232
1125.70 0.0623
1125.80 0.06228
1125.90 0.06226
1126.00 0.06224
1126.10 0.06222
1126.20 0.0622
1126.30 0.06218
1126.40 0.06216
1126.50 0.06214
1126.60 0.06212
1126.70 0.0621
1126.80 0.06208
1126.90 0.06206
1127.00 0.06204
1127.10 0.06202
1127.20 0.062
1127.30 0.06198
1127.40 0.06196
1127.50 0.06194
1127.60 0.06192
1127.70 0.0619
1127.80 0.06188
1127.90 0.06186
1128.00 0.06184
1128.10 0.06182
1128.20 0.0618
1128.30 0.06178
1128.40 0.06176
1128.50 0.06174
1128.60 0.06172
1128.70 0.0617
1128.80 0.06169
1128.90 0.06167
1129.00 0.06165
1129.10 0.06163
1129.20 0.06161
1129.30 0.06159
1129.40 0.06157
1129.50 0.06155
1129.60 0.06153
1129.70 0.06151
1129.80 0.06149
1129.90 0.06147
1130.00 0.06145
1130.10 0.06143
1130.20 0.06141
1130.30 0.06139
1130.40 0.06137
1130.50 0.06135
1130.60 0.06133
1130.70 0.06131
1130.80 0.06129
1130.90 0.06127
1131.00 0.06125
1131.10 0.06123
1131.20 0.06121
1131.30 0.06119
1131.40 0.06117
1131.50 0.06115
1131.60 0.06113
1131.70 0.06111
1131.80 0.06109
1131.90 0.06107
1132.00 0.06105
1132.10 0.06103
1132.20 0.06101
1132.30 0.06099
1132.40 0.06097
1132.50 0.06095
1132.60 0.06093
1132.70 0.06091
1132.80 0.06089
1132.90 0.06087
1133.00 0.06085
1133.10 0.06083
1133.20 0.06082
1133.30 0.0608
1133.40 0.06078
1133.50 0.06076
1133.60 0.06074
1133.70 0.06072
1133.80 0.0607
1133.90 0.06068
1134.00 0.06066
1134.10 0.06064
1134.20 0.06062
1134.30 0.0606
1134.40 0.06058
1134.50 0.06056
1134.60 0.06054
1134.70 0.06052
1134.80 0.0605
1134.90 0.06048
1135.00 0.06046
1135.10 0.06044
1135.20 0.06042
1135.30 0.0604
1135.40 0.06038
1135.50 0.06036
1135.60 0.06034
1135.70 0.06032
1135.80 0.06031
1135.90 0.06029
1136.00 0.06027
1136.10 0.06025
1136.20 0.06023
1136.30 0.06021
1136.40 0.06019
1136.50 0.06017
1136.60 0.06015
1136.70 0.06013
1136.80 0.06011
1136.90 0.06009
1137.00 0.06007
1137.10 0.06005
1137.20 0.06003
1137.30 0.06001
1137.40 0.05999
1137.50 0.05997
1137.60 0.05995
1137.70 0.05994
1137.80 0.05992
1137.90 0.0599
1138.00 0.05988
1138.10 0.05986
1138.20 0.05984
1138.30 0.05982
1138.40 0.0598
1138.50 0.05978
1138.60 0.05976
1138.70 0.05974
1138.80 0.05972
1138.90 0.0597
1139.00 0.05968
1139.10 0.05966
1139.20 0.05964
1139.30 0.05963
1139.40 0.05961
1139.50 0.05959
1139.60 0.05957
1139.70 0.05955
1139.80 0.05953
1139.90 0.05951
1140.00 0.05949
1140.10 0.05947
1140.20 0.05945
1140.30 0.05943
1140.40 0.05941
1140.50 0.05939
1140.60 0.05937
1140.70 0.05935
1140.80 0.05934
1140.90 0.05932
1141.00 0.0593
1141.10 0.05928
1141.20 0.05926
1141.30 0.05924
1141.40 0.05922
1141.50 0.0592
1141.60 0.05918
1141.70 0.05916
1141.80 0.05914
1141.90 0.05912
1142.00 0.0591
1142.10 0.05909
1142.20 0.05907
1142.30 0.05905
1142.40 0.05903
1142.50 0.05901
1142.60 0.05899
1142.70 0.05897
1142.80 0.05895
1142.90 0.05893
1143.00 0.05891
1143.10 0.05889
1143.20 0.05888
1143.30 0.05886
1143.40 0.05884
1143.50 0.05882
1143.60 0.0588
1143.70 0.05878
1143.80 0.05876
1143.90 0.05874
1144.00 0.05872
1144.10 0.0587
1144.20 0.05869
1144.30 0.05867
1144.40 0.05865
1144.50 0.05863
1144.60 0.05861
1144.70 0.05859
1144.80 0.05857
1144.90 0.05855
1145.00 0.05853
1145.10 0.05851
1145.20 0.0585
1145.30 0.05848
1145.40 0.05846
1145.50 0.05844
1145.60 0.05842
1145.70 0.0584
1145.80 0.05838
1145.90 0.05836
1146.00 0.05834
1146.10 0.05833
1146.20 0.05831
1146.30 0.05829
1146.40 0.05827
1146.50 0.05825
1146.60 0.05823
1146.70 0.05821
1146.80 0.05819
1146.90 0.05817
1147.00 0.05816
1147.10 0.05814
1147.20 0.05812
1147.30 0.0581
1147.40 0.05808
1147.50 0.05806
1147.60 0.05804
1147.70 0.05802
1147.80 0.05801
1147.90 0.05799
1148.00 0.05797
1148.10 0.05795
1148.20 0.05793
1148.30 0.05791
1148.40 0.05789
1148.50 0.05787
1148.60 0.05786
1148.70 0.05784
1148.80 0.05782
1148.90 0.0578
1149.00 0.05778
1149.10 0.05776
1149.20 0.05774
1149.30 0.05773
1149.40 0.05771
1149.50 0.05769
1149.60 0.05767
1149.70 0.05765
1149.80 0.05763
1149.90 0.05761
1150.00 0.0576
1150.10 0.05758
1150.20 0.05756
1150.30 0.05754
1150.40 0.05752
1150.50 0.0575
1150.60 0.05748
1150.70 0.05747
1150.80 0.05745
1150.90 0.05743
1151.00 0.05741
1151.10 0.05739
1151.20 0.05737
1151.30 0.05735
1151.40 0.05734
1151.50 0.05732
1151.60 0.0573
1151.70 0.05728
1151.80 0.05726
1151.90 0.05724
1152.00 0.05722
1152.10 0.05721
1152.20 0.05719
1152.30 0.05717
1152.40 0.05715
1152.50 0.05713
1152.60 0.05711
1152.70 0.0571
1152.80 0.05708
1152.90 0.05706
1153.00 0.05704
1153.10 0.05702
1153.20 0.057
1153.30 0.05699
1153.40 0.05697
1153.50 0.05695
1153.60 0.05693
1153.70 0.05691
1153.80 0.05689
1153.90 0.05688
1154.00 0.05686
1154.10 0.05684
1154.20 0.05682
1154.30 0.0568
1154.40 0.05678
1154.50 0.05677
1154.60 0.05675
1154.70 0.05673
1154.80 0.05671
1154.90 0.05669
1155.00 0.05667
1155.10 0.05666
1155.20 0.05664
1155.30 0.05662
1155.40 0.0566
1155.50 0.05658
1155.60 0.05656
1155.70 0.05655
1155.80 0.05653
1155.90 0.05651
1156.00 0.05649
1156.10 0.05647
1156.20 0.05646
1156.30 0.05644
1156.40 0.05642
1156.50 0.0564
1156.60 0.05638
1156.70 0.05636
1156.80 0.05635
1156.90 0.05633
1157.00 0.05631
1157.10 0.05629
1157.20 0.05627
1157.30 0.05626
1157.40 0.05624
1157.50 0.05622
1157.60 0.0562
1157.70 0.05618
1157.80 0.05617
1157.90 0.05615
1158.00 0.05613
1158.10 0.05611
1158.20 0.05609
1158.30 0.05608
1158.40 0.05606
1158.50 0.05604
1158.60 0.05602
1158.70 0.056
1158.80 0.05599
1158.90 0.05597
1159.00 0.05595
1159.10 0.05593
1159.20 0.05591
1159.30 0.0559
1159.40 0.05588
1159.50 0.05586
1159.60 0.05584
1159.70 0.05582
1159.80 0.05581
1159.90 0.05579
1160.00 0.05577
1160.10 0.05575
1160.20 0.05573
1160.30 0.05572
1160.40 0.0557
1160.50 0.05568
1160.60 0.05566
1160.70 0.05564
1160.80 0.05563
1160.90 0.05561
1161.00 0.05559
1161.10 0.05557
1161.20 0.05556
1161.30 0.05554
1161.40 0.05552
1161.50 0.0555
1161.60 0.05548
1161.70 0.05547
1161.80 0.05545
1161.90 0.05543
1162.00 0.05541
1162.10 0.05539
1162.20 0.05538
1162.30 0.05536
1162.40 0.05534
1162.50 0.05532
1162.60 0.05531
1162.70 0.05529
1162.80 0.05527
1162.90 0.05525
1163.00 0.05524
1163.10 0.05522
1163.20 0.0552
1163.30 0.05518
1163.40 0.05516
1163.50 0.05515
1163.60 0.05513
1163.70 0.05511
1163.80 0.05509
1163.90 0.05508
1164.00 0.05506
1164.10 0.05504
1164.20 0.05502
1164.30 0.05501
1164.40 0.05499
1164.50 0.05497
1164.60 0.05495
1164.70 0.05494
1164.80 0.05492
1164.90 0.0549
1165.00 0.05488
1165.10 0.05486
1165.20 0.05485
1165.30 0.05483
1165.40 0.05481
1165.50 0.05479
1165.60 0.05478
1165.70 0.05476
1165.80 0.05474
1165.90 0.05472
1166.00 0.05471
1166.10 0.05469
1166.20 0.05467
1166.30 0.05465
1166.40 0.05464
1166.50 0.05462
1166.60 0.0546
1166.70 0.05458
1166.80 0.05457
1166.90 0.05455
1167.00 0.05453
1167.10 0.05451
1167.20 0.0545
1167.30 0.05448
1167.40 0.05446
1167.50 0.05444
1167.60 0.05443
1167.70 0.05441
1167.80 0.05439
1167.90 0.05438
1168.00 0.05436
1168.10 0.05434
1168.20 0.05432
1168.30 0.05431
1168.40 0.05429
1168.50 0.05427
1168.60 0.05425
1168.70 0.05424
1168.80 0.05422
1168.90 0.0542
1169.00 0.05418
1169.10 0.05417
1169.20 0.05415
1169.30 0.05413
1169.40 0.05412
1169.50 0.0541
1169.60 0.05408
1169.70 0.05406
1169.80 0.05405
1169.90 0.05403
1170.00 0.05401
1170.10 0.054
1170.20 0.05398
1170.30 0.05396
1170.40 0.05394
1170.50 0.05393
1170.60 0.05391
1170.70 0.05389
1170.80 0.05387
1170.90 0.05386
1171.00 0.05384
1171.10 0.05382
1171.20 0.05381
1171.30 0.05379
1171.40 0.05377
1171.50 0.05375
1171.60 0.05374
1171.70 0.05372
1171.80 0.0537
1171.90 0.05369
1172.00 0.05367
1172.10 0.05365
1172.20 0.05363
1172.30 0.05362
1172.40 0.0536
1172.50 0.05358
1172.60 0.05357
1172.70 0.05355
1172.80 0.05353
1172.90 0.05352
1173.00 0.0535
1173.10 0.05348
1173.20 0.05346
1173.30 0.05345
1173.40 0.05343
1173.50 0.05341
1173.60 0.0534
1173.70 0.05338
1173.80 0.05336
1173.90 0.05335
1174.00 0.05333
1174.10 0.05331
1174.20 0.05329
1174.30 0.05328
1174.40 0.05326
1174.50 0.05324
1174.60 0.05323
1174.70 0.05321
1174.80 0.05319
1174.90 0.05318
1175.00 0.05316
1175.10 0.05314
1175.20 0.05313
1175.30 0.05311
1175.40 0.05309
1175.50 0.05307
1175.60 0.05306
1175.70 0.05304
1175.80 0.05302
1175.90 0.05301
1176.00 0.05299
1176.10 0.05297
1176.20 0.05296
1176.30 0.05294
1176.40 0.05292
1176.50 0.05291
1176.60 0.05289
1176.70 0.05287
1176.80 0.05286
1176.90 0.05284
1177.00 0.05282
1177.10 0.05281
1177.20 0.05279
1177.30 0.05277
1177.40 0.05276
1177.50 0.05274
1177.60 0.05272
1177.70 0.05271
1177.80 0.05269
1177.90 0.05267
1178.00 0.05266
1178.10 0.05264
1178.20 0.05262
1178.30 0.05261
1178.40 0.05259
1178.50 0.05257
1178.60 0.05256
1178.70 0.05254
1178.80 0.05252
1178.90 0.05251
1179.00 0.05249
1179.10 0.05247
1179.20 0.05246
1179.30 0.05244
1179.40 0.05242
1179.50 0.05241
1179.60 0.05239
1179.70 0.05237
1179.80 0.05236
1179.90 0.05234
1180.00 0.05232
1180.10 0.05231
1180.20 0.05229
1180.30 0.05227
1180.40 0.05226
1180.50 0.05224
1180.60 0.05222
1180.70 0.05221
1180.80 0.05219
1180.90 0.05217
1181.00 0.05216
1181.10 0.05214
1181.20 0.05213
1181.30 0.05211
1181.40 0.05209
1181.50 0.05208
1181.60 0.05206
1181.70 0.05204
1181.80 0.05203
1181.90 0.05201
1182.00 0.05199
1182.10 0.05198
1182.20 0.05196
1182.30 0.05194
1182.40 0.05193
1182.50 0.05191
1182.60 0.05189
1182.70 0.05188
1182.80 0.05186
1182.90 0.05185
1183.00 0.05183
1183.10 0.05181
1183.20 0.0518
1183.30 0.05178
1183.40 0.05176
1183.50 0.05175
1183.60 0.05173
1183.70 0.05171
1183.80 0.0517
1183.90 0.05168
1184.00 0.05167
1184.10 0.05165
1184.20 0.05163
1184.30 0.05162
1184.40 0.0516
1184.50 0.05158
1184.60 0.05157
1184.70 0.05155
1184.80 0.05154
1184.90 0.05152
1185.00 0.0515
1185.10 0.05149
1185.20 0.05147
1185.30 0.05145
1185.40 0.05144
1185.50 0.05142
1185.60 0.05141
1185.70 0.05139
1185.80 0.05137
1185.90 0.05136
1186.00 0.05134
1186.10 0.05132
1186.20 0.05131
1186.30 0.05129
1186.40 0.05128
1186.50 0.05126
1186.60 0.05124
1186.70 0.05123
1186.80 0.05121
1186.90 0.05119
1187.00 0.05118
1187.10 0.05116
1187.20 0.05115
1187.30 0.05113
1187.40 0.05111
1187.50 0.0511
1187.60 0.05108
1187.70 0.05107
1187.80 0.05105
1187.90 0.05103
1188.00 0.05102
1188.10 0.051
1188.20 0.05099
1188.30 0.05097
1188.40 0.05095
1188.50 0.05094
1188.60 0.05092
1188.70 0.05091
1188.80 0.05089
1188.90 0.05087
1189.00 0.05086
1189.10 0.05084
1189.20 0.05083
1189.30 0.05081
1189.40 0.05079
1189.50 0.05078
1189.60 0.05076
1189.70 0.05075
1189.80 0.05073
1189.90 0.05071
1190.00 0.0507
1190.10 0.05068
1190.20 0.05067
1190.30 0.05065
1190.40 0.05063
1190.50 0.05062
1190.60 0.0506
1190.70 0.05059
1190.80 0.05057
1190.90 0.05055
1191.00 0.05054
1191.10 0.05052
1191.20 0.05051
1191.30 0.05049
1191.40 0.05048
1191.50 0.05046
1191.60 0.05044
1191.70 0.05043
1191.80 0.05041
1191.90 0.0504
1192.00 0.05038
1192.10 0.05036
1192.20 0.05035
1192.30 0.05033
1192.40 0.05032
1192.50 0.0503
1192.60 0.05029
1192.70 0.05027
1192.80 0.05025
1192.90 0.05024
1193.00 0.05022
1193.10 0.05021
1193.20 0.05019
1193.30 0.05018
1193.40 0.05016
1193.50 0.05014
1193.60 0.05013
1193.70 0.05011
1193.80 0.0501
1193.90 0.05008
1194.00 0.05007
1194.10 0.05005
1194.20 0.05003
1194.30 0.05002
1194.40 0.05
1194.50 0.04999
1194.60 0.04997
1194.70 0.04996
1194.80 0.04994
1194.90 0.04992
1195.00 0.04991
1195.10 0.04989
1195.20 0.04988
1195.30 0.04986
1195.40 0.04985
1195.50 0.04983
1195.60 0.04981
1195.70 0.0498
1195.80 0.04978
1195.90 0.04977
1196.00 0.04975
1196.10 0.04974
1196.20 0.04972
1196.30 0.04971
1196.40 0.04969
1196.50 0.04967
1196.60 0.04966
1196.70 0.04964
1196.80 0.04963
1196.90 0.04961
1197.00 0.0496
1197.10 0.04958
1197.20 0.04957
1197.30 0.04955
1197.40 0.04953
1197.50 0.04952
1197.60 0.0495
1197.70 0.04949
1197.80 0.04947
1197.90 0.04946
1198.00 0.04944
1198.10 0.04943
1198.20 0.04941
1198.30 0.0494
1198.40 0.04938
1198.50 0.04936
1198.60 0.04935
1198.70 0.04933
1198.80 0.04932
1198.90 0.0493
1199.00 0.04929
1199.10 0.04927
1199.20 0.04926
1199.30 0.04924
1199.40 0.04923
1199.50 0.04921
1199.60 0.0492
1199.70 0.04918
1199.80 0.04916
1199.90 0.04915
1200.00 0
