# Version 2.1 - nm, norm@500 to 1, cut digits, bergeron_1750_70.dat_1750
# Wavelength(nm)  Flambda(ergs/cm^s/s/nm)
300.00 0.01393
300.10 0.01399
300.20 0.01405
300.30 0.01412
300.40 0.01418
300.50 0.01424
300.60 0.01431
300.70 0.01437
300.80 0.01443
300.90 0.0145
301.00 0.01456
301.10 0.01463
301.20 0.01469
301.30 0.01475
301.40 0.01481
301.50 0.01488
301.60 0.01494
301.70 0.015
301.80 0.01507
301.90 0.01513
302.00 0.01519
302.10 0.01526
302.20 0.01533
302.30 0.0154
302.40 0.01547
302.50 0.01553
302.60 0.0156
302.70 0.01567
302.80 0.01574
302.90 0.01581
303.00 0.01587
303.10 0.01594
303.20 0.01601
303.30 0.01608
303.40 0.01614
303.50 0.01621
303.60 0.01628
303.70 0.01635
303.80 0.01641
303.90 0.01648
304.00 0.01655
304.10 0.01662
304.20 0.01669
304.30 0.01676
304.40 0.01684
304.50 0.01691
304.60 0.01698
304.70 0.01706
304.80 0.01713
304.90 0.0172
305.00 0.01727
305.10 0.01734
305.20 0.01742
305.30 0.01749
305.40 0.01756
305.50 0.01763
305.60 0.0177
305.70 0.01778
305.80 0.01785
305.90 0.01792
306.00 0.01799
306.10 0.01807
306.20 0.01814
306.30 0.01822
306.40 0.0183
306.50 0.01838
306.60 0.01845
306.70 0.01853
306.80 0.01861
306.90 0.01869
307.00 0.01876
307.10 0.01884
307.20 0.01892
307.30 0.01899
307.40 0.01907
307.50 0.01915
307.60 0.01922
307.70 0.0193
307.80 0.01937
307.90 0.01945
308.00 0.01953
308.10 0.01961
308.20 0.01969
308.30 0.01977
308.40 0.01986
308.50 0.01994
308.60 0.02002
308.70 0.0201
308.80 0.02019
308.90 0.02027
309.00 0.02035
309.10 0.02043
309.20 0.02051
309.30 0.02059
309.40 0.02068
309.50 0.02076
309.60 0.02084
309.70 0.02092
309.80 0.021
309.90 0.02108
310.00 0.02117
310.10 0.02125
310.20 0.02134
310.30 0.02143
310.40 0.02151
310.50 0.0216
310.60 0.02169
310.70 0.02178
310.80 0.02187
310.90 0.02195
311.00 0.02204
311.10 0.02213
311.20 0.02221
311.30 0.0223
311.40 0.02239
311.50 0.02247
311.60 0.02256
311.70 0.02265
311.80 0.02273
311.90 0.02282
312.00 0.02291
312.10 0.02299
312.20 0.02308
312.30 0.02317
312.40 0.02327
312.50 0.02336
312.60 0.02345
312.70 0.02355
312.80 0.02364
312.90 0.02373
313.00 0.02382
313.10 0.02392
313.20 0.02401
313.30 0.0241
313.40 0.02419
313.50 0.02429
313.60 0.02438
313.70 0.02447
313.80 0.02456
313.90 0.02465
314.00 0.02475
314.10 0.02484
314.20 0.02494
314.30 0.02504
314.40 0.02514
314.50 0.02524
314.60 0.02534
314.70 0.02543
314.80 0.02553
314.90 0.02563
315.00 0.02573
315.10 0.02583
315.20 0.02592
315.30 0.02602
315.40 0.02612
315.50 0.02622
315.60 0.02631
315.70 0.02641
315.80 0.02651
315.90 0.02661
316.00 0.02671
316.10 0.02681
316.20 0.02691
316.30 0.02701
316.40 0.02712
316.50 0.02722
316.60 0.02733
316.70 0.02743
316.80 0.02753
316.90 0.02764
317.00 0.02774
317.10 0.02785
317.20 0.02795
317.30 0.02805
317.40 0.02816
317.50 0.02826
317.60 0.02836
317.70 0.02846
317.80 0.02857
317.90 0.02867
318.00 0.02878
318.10 0.02888
318.20 0.02899
318.30 0.0291
318.40 0.02921
318.50 0.02932
318.60 0.02943
318.70 0.02954
318.80 0.02965
318.90 0.02976
319.00 0.02987
319.10 0.02998
319.20 0.03009
319.30 0.0302
319.40 0.03031
319.50 0.03042
319.60 0.03053
319.70 0.03064
319.80 0.03075
319.90 0.03085
320.00 0.03097
320.10 0.03108
320.20 0.0312
320.30 0.03131
320.40 0.03143
320.50 0.03155
320.60 0.03166
320.70 0.03178
320.80 0.0319
320.90 0.03201
321.00 0.03213
321.10 0.03224
321.20 0.03236
321.30 0.03247
321.40 0.03259
321.50 0.0327
321.60 0.03282
321.70 0.03293
321.80 0.03305
321.90 0.03316
322.00 0.03328
322.10 0.0334
322.20 0.03353
322.30 0.03365
322.40 0.03377
322.50 0.0339
322.60 0.03402
322.70 0.03414
322.80 0.03426
322.90 0.03439
323.00 0.03451
323.10 0.03463
323.20 0.03475
323.30 0.03487
323.40 0.035
323.50 0.03512
323.60 0.03524
323.70 0.03536
323.80 0.03548
323.90 0.0356
324.00 0.03572
324.10 0.03585
324.20 0.03598
324.30 0.03611
324.40 0.03624
324.50 0.03637
324.60 0.0365
324.70 0.03663
324.80 0.03676
324.90 0.03689
325.00 0.03702
325.10 0.03715
325.20 0.03728
325.30 0.03741
325.40 0.03753
325.50 0.03766
325.60 0.03779
325.70 0.03792
325.80 0.03804
325.90 0.03818
326.00 0.03831
326.10 0.03844
326.20 0.03857
326.30 0.03871
326.40 0.03885
326.50 0.03898
326.60 0.03912
326.70 0.03926
326.80 0.03939
326.90 0.03953
327.00 0.03966
327.10 0.0398
327.20 0.03994
327.30 0.04007
327.40 0.04021
327.50 0.04034
327.60 0.04048
327.70 0.04061
327.80 0.04074
327.90 0.04088
328.00 0.04102
328.10 0.04116
328.20 0.0413
328.30 0.04145
328.40 0.04159
328.50 0.04173
328.60 0.04188
328.70 0.04202
328.80 0.04216
328.90 0.04231
329.00 0.04245
329.10 0.04259
329.20 0.04274
329.30 0.04288
329.40 0.04302
329.50 0.04316
329.60 0.0433
329.70 0.04344
329.80 0.04359
329.90 0.04373
330.00 0.04387
330.10 0.04402
330.20 0.04417
330.30 0.04432
330.40 0.04447
330.50 0.04463
330.60 0.04478
330.70 0.04493
330.80 0.04508
330.90 0.04523
331.00 0.04538
331.10 0.04553
331.20 0.04568
331.30 0.04583
331.40 0.04598
331.50 0.04612
331.60 0.04627
331.70 0.04642
331.80 0.04657
331.90 0.04672
332.00 0.04687
332.10 0.04703
332.20 0.04719
332.30 0.04734
332.40 0.0475
332.50 0.04766
332.60 0.04782
332.70 0.04798
332.80 0.04814
332.90 0.04829
333.00 0.04845
333.10 0.04861
333.20 0.04877
333.30 0.04892
333.40 0.04908
333.50 0.04924
333.60 0.04939
333.70 0.04955
333.80 0.04971
333.90 0.04986
334.00 0.05002
334.10 0.05018
334.20 0.05035
334.30 0.05052
334.40 0.05068
334.50 0.05085
334.60 0.05102
334.70 0.05118
334.80 0.05135
334.90 0.05151
335.00 0.05168
335.10 0.05184
335.20 0.05201
335.30 0.05217
335.40 0.05234
335.50 0.0525
335.60 0.05267
335.70 0.05283
335.80 0.05299
335.90 0.05316
336.00 0.05332
336.10 0.0535
336.20 0.05367
336.30 0.05385
336.40 0.05402
336.50 0.0542
336.60 0.05437
336.70 0.05454
336.80 0.05472
336.90 0.05489
337.00 0.05506
337.10 0.05524
337.20 0.05541
337.30 0.05558
337.40 0.05575
337.50 0.05593
337.60 0.0561
337.70 0.05627
337.80 0.05644
337.90 0.05661
338.00 0.05678
338.10 0.05697
338.20 0.05715
338.30 0.05733
338.40 0.05752
338.50 0.0577
338.60 0.05788
338.70 0.05806
338.80 0.05824
338.90 0.05843
339.00 0.05861
339.10 0.05879
339.20 0.05897
339.30 0.05915
339.40 0.05933
339.50 0.05951
339.60 0.05969
339.70 0.05987
339.80 0.06005
339.90 0.06023
340.00 0.06041
340.10 0.0606
340.20 0.06079
340.30 0.06098
340.40 0.06117
340.50 0.06136
340.60 0.06155
340.70 0.06174
340.80 0.06193
340.90 0.06212
341.00 0.06231
341.10 0.0625
341.20 0.06269
341.30 0.06288
341.40 0.06307
341.50 0.06326
341.60 0.06344
341.70 0.06363
341.80 0.06382
341.90 0.06401
342.00 0.06419
342.10 0.06439
342.20 0.06459
342.30 0.06479
342.40 0.06499
342.50 0.06519
342.60 0.06539
342.70 0.06559
342.80 0.06579
342.90 0.06599
343.00 0.06618
343.10 0.06638
343.20 0.06658
343.30 0.06678
343.40 0.06697
343.50 0.06717
343.60 0.06737
343.70 0.06756
343.80 0.06776
343.90 0.06795
344.00 0.06815
344.10 0.06836
344.20 0.06857
344.30 0.06878
344.40 0.06898
344.50 0.06919
344.60 0.0694
344.70 0.06961
344.80 0.06981
344.90 0.07002
345.00 0.07023
345.10 0.07043
345.20 0.07064
345.30 0.07085
345.40 0.07105
345.50 0.07126
345.60 0.07146
345.70 0.07167
345.80 0.07187
345.90 0.07208
346.00 0.07228
346.10 0.0725
346.20 0.07272
346.30 0.07293
346.40 0.07315
346.50 0.07337
346.60 0.07358
346.70 0.0738
346.80 0.07402
346.90 0.07423
347.00 0.07445
347.10 0.07466
347.20 0.07488
347.30 0.07509
347.40 0.07531
347.50 0.07552
347.60 0.07573
347.70 0.07595
347.80 0.07616
347.90 0.07637
348.00 0.07659
348.10 0.07681
348.20 0.07704
348.30 0.07727
348.40 0.07749
348.50 0.07772
348.60 0.07794
348.70 0.07817
348.80 0.0784
348.90 0.07862
349.00 0.07884
349.10 0.07907
349.20 0.07929
349.30 0.07952
349.40 0.07974
349.50 0.07996
349.60 0.08019
349.70 0.08041
349.80 0.08063
349.90 0.08085
350.00 0.08107
350.10 0.08131
350.20 0.08155
350.30 0.08178
350.40 0.08202
350.50 0.08225
350.60 0.08249
350.70 0.08272
350.80 0.08296
350.90 0.08319
351.00 0.08342
351.10 0.08366
351.20 0.08389
351.30 0.08412
351.40 0.08436
351.50 0.08459
351.60 0.08482
351.70 0.08505
351.80 0.08528
351.90 0.08552
352.00 0.08575
352.10 0.08599
352.20 0.08624
352.30 0.08648
352.40 0.08673
352.50 0.08697
352.60 0.08722
352.70 0.08746
352.80 0.0877
352.90 0.08795
353.00 0.08819
353.10 0.08843
353.20 0.08867
353.30 0.08892
353.40 0.08916
353.50 0.0894
353.60 0.08964
353.70 0.08988
353.80 0.09012
353.90 0.09036
354.00 0.0906
354.10 0.09086
354.20 0.09111
354.30 0.09137
354.40 0.09162
354.50 0.09187
354.60 0.09213
354.70 0.09238
354.80 0.09263
354.90 0.09289
355.00 0.09314
355.10 0.09339
355.20 0.09364
355.30 0.0939
355.40 0.09415
355.50 0.0944
355.60 0.09465
355.70 0.0949
355.80 0.09515
355.90 0.0954
356.00 0.09565
356.10 0.09591
356.20 0.09618
356.30 0.09644
356.40 0.09671
356.50 0.09697
356.60 0.09723
356.70 0.0975
356.80 0.09776
356.90 0.09802
357.00 0.09828
357.10 0.09854
357.20 0.09881
357.30 0.09907
357.40 0.09933
357.50 0.09959
357.60 0.09985
357.70 0.1001
357.80 0.1004
357.90 0.1006
358.00 0.1009
358.10 0.1012
358.20 0.1014
358.30 0.1017
358.40 0.102
358.50 0.1023
358.60 0.1025
358.70 0.1028
358.80 0.1031
358.90 0.1033
359.00 0.1036
359.10 0.1039
359.20 0.1042
359.30 0.1044
359.40 0.1047
359.50 0.105
359.60 0.1052
359.70 0.1055
359.80 0.1058
359.90 0.1061
360.00 0.1063
360.10 0.1066
360.20 0.1069
360.30 0.1072
360.40 0.1075
360.50 0.1077
360.60 0.108
360.70 0.1083
360.80 0.1086
360.90 0.1089
361.00 0.1092
361.10 0.1094
361.20 0.1097
361.30 0.11
361.40 0.1103
361.50 0.1106
361.60 0.1108
361.70 0.1111
361.80 0.1114
361.90 0.1117
362.00 0.112
362.10 0.1122
362.20 0.1125
362.30 0.1128
362.40 0.1131
362.50 0.1134
362.60 0.1137
362.70 0.114
362.80 0.1143
362.90 0.1146
363.00 0.1148
363.10 0.1151
363.20 0.1154
363.30 0.1157
363.40 0.116
363.50 0.1163
363.60 0.1166
363.70 0.1169
363.80 0.1172
363.90 0.1175
364.00 0.1178
364.10 0.1181
364.20 0.1184
364.30 0.1187
364.40 0.119
364.50 0.1193
364.60 0.1196
364.70 0.1199
364.80 0.1202
364.90 0.1205
365.00 0.1208
365.10 0.1211
365.20 0.1214
365.30 0.1217
365.40 0.122
365.50 0.1223
365.60 0.1226
365.70 0.1229
365.80 0.1232
365.90 0.1235
366.00 0.1238
366.10 0.1241
366.20 0.1245
366.30 0.1248
366.40 0.1251
366.50 0.1254
366.60 0.1257
366.70 0.126
366.80 0.1263
366.90 0.1267
367.00 0.127
367.10 0.1273
367.20 0.1276
367.30 0.1279
367.40 0.1282
367.50 0.1285
367.60 0.1288
367.70 0.1291
367.80 0.1295
367.90 0.1298
368.00 0.1301
368.10 0.1304
368.20 0.1307
368.30 0.1311
368.40 0.1314
368.50 0.1317
368.60 0.132
368.70 0.1324
368.80 0.1327
368.90 0.133
369.00 0.1333
369.10 0.1336
369.20 0.134
369.30 0.1343
369.40 0.1346
369.50 0.1349
369.60 0.1353
369.70 0.1356
369.80 0.1359
369.90 0.1362
370.00 0.1365
370.10 0.1369
370.20 0.1372
370.30 0.1375
370.40 0.1379
370.50 0.1382
370.60 0.1385
370.70 0.1389
370.80 0.1392
370.90 0.1395
371.00 0.1399
371.10 0.1402
371.20 0.1405
371.30 0.1409
371.40 0.1412
371.50 0.1415
371.60 0.1419
371.70 0.1422
371.80 0.1425
371.90 0.1429
372.00 0.1432
372.10 0.1435
372.20 0.1439
372.30 0.1442
372.40 0.1446
372.50 0.1449
372.60 0.1453
372.70 0.1456
372.80 0.146
372.90 0.1463
373.00 0.1467
373.10 0.147
373.20 0.1473
373.30 0.1477
373.40 0.148
373.50 0.1484
373.60 0.1487
373.70 0.1491
373.80 0.1494
373.90 0.1497
374.00 0.1501
374.10 0.1504
374.20 0.1508
374.30 0.1511
374.40 0.1515
374.50 0.1519
374.60 0.1522
374.70 0.1526
374.80 0.1529
374.90 0.1533
375.00 0.1536
375.10 0.154
375.20 0.1543
375.30 0.1547
375.40 0.1551
375.50 0.1554
375.60 0.1558
375.70 0.1561
375.80 0.1565
375.90 0.1568
376.00 0.1572
376.10 0.1575
376.20 0.1579
376.30 0.1583
376.40 0.1586
376.50 0.159
376.60 0.1593
376.70 0.1597
376.80 0.1601
376.90 0.1604
377.00 0.1608
377.10 0.1612
377.20 0.1615
377.30 0.1619
377.40 0.1623
377.50 0.1626
377.60 0.163
377.70 0.1634
377.80 0.1637
377.90 0.1641
378.00 0.1645
378.10 0.1649
378.20 0.1652
378.30 0.1656
378.40 0.166
378.50 0.1663
378.60 0.1667
378.70 0.1671
378.80 0.1675
378.90 0.1678
379.00 0.1682
379.10 0.1686
379.20 0.169
379.30 0.1694
379.40 0.1697
379.50 0.1701
379.60 0.1705
379.70 0.1709
379.80 0.1712
379.90 0.1716
380.00 0.172
380.10 0.1724
380.20 0.1728
380.30 0.1732
380.40 0.1735
380.50 0.1739
380.60 0.1743
380.70 0.1747
380.80 0.1751
380.90 0.1755
381.00 0.1758
381.10 0.1762
381.20 0.1766
381.30 0.177
381.40 0.1774
381.50 0.1778
381.60 0.1782
381.70 0.1786
381.80 0.179
381.90 0.1794
382.00 0.1797
382.10 0.1801
382.20 0.1805
382.30 0.1809
382.40 0.1813
382.50 0.1817
382.60 0.1821
382.70 0.1825
382.80 0.1829
382.90 0.1833
383.00 0.1837
383.10 0.1841
383.20 0.1845
383.30 0.1849
383.40 0.1853
383.50 0.1857
383.60 0.1861
383.70 0.1865
383.80 0.1869
383.90 0.1873
384.00 0.1877
384.10 0.1881
384.20 0.1885
384.30 0.1889
384.40 0.1893
384.50 0.1897
384.60 0.1901
384.70 0.1906
384.80 0.191
384.90 0.1914
385.00 0.1918
385.10 0.1922
385.20 0.1926
385.30 0.193
385.40 0.1934
385.50 0.1938
385.60 0.1943
385.70 0.1947
385.80 0.1951
385.90 0.1955
386.00 0.1959
386.10 0.1963
386.20 0.1967
386.30 0.1972
386.40 0.1976
386.50 0.198
386.60 0.1984
386.70 0.1988
386.80 0.1992
386.90 0.1997
387.00 0.2001
387.10 0.2005
387.20 0.2009
387.30 0.2013
387.40 0.2018
387.50 0.2022
387.60 0.2026
387.70 0.203
387.80 0.2035
387.90 0.2039
388.00 0.2043
388.10 0.2047
388.20 0.2052
388.30 0.2056
388.40 0.206
388.50 0.2065
388.60 0.2069
388.70 0.2073
388.80 0.2077
388.90 0.2082
389.00 0.2086
389.10 0.209
389.20 0.2095
389.30 0.2099
389.40 0.2103
389.50 0.2108
389.60 0.2112
389.70 0.2116
389.80 0.2121
389.90 0.2125
390.00 0.213
390.10 0.2134
390.20 0.2138
390.30 0.2143
390.40 0.2147
390.50 0.2152
390.60 0.2156
390.70 0.216
390.80 0.2165
390.90 0.2169
391.00 0.2174
391.10 0.2178
391.20 0.2182
391.30 0.2187
391.40 0.2191
391.50 0.2196
391.60 0.22
391.70 0.2205
391.80 0.2209
391.90 0.2214
392.00 0.2218
392.10 0.2223
392.20 0.2227
392.30 0.2232
392.40 0.2236
392.50 0.2241
392.60 0.2245
392.70 0.225
392.80 0.2254
392.90 0.2259
393.00 0.2263
393.10 0.2268
393.20 0.2272
393.30 0.2277
393.40 0.2282
393.50 0.2286
393.60 0.2291
393.70 0.2295
393.80 0.23
393.90 0.2304
394.00 0.2309
394.10 0.2314
394.20 0.2318
394.30 0.2323
394.40 0.2327
394.50 0.2332
394.60 0.2337
394.70 0.2341
394.80 0.2346
394.90 0.2351
395.00 0.2355
395.10 0.236
395.20 0.2365
395.30 0.2369
395.40 0.2374
395.50 0.2379
395.60 0.2383
395.70 0.2388
395.80 0.2393
395.90 0.2397
396.00 0.2402
396.10 0.2407
396.20 0.2412
396.30 0.2416
396.40 0.2421
396.50 0.2426
396.60 0.243
396.70 0.2435
396.80 0.244
396.90 0.2445
397.00 0.245
397.10 0.2454
397.20 0.2459
397.30 0.2464
397.40 0.2469
397.50 0.2473
397.60 0.2478
397.70 0.2483
397.80 0.2488
397.90 0.2493
398.00 0.2497
398.10 0.2502
398.20 0.2507
398.30 0.2512
398.40 0.2517
398.50 0.2522
398.60 0.2527
398.70 0.2531
398.80 0.2536
398.90 0.2541
399.00 0.2546
399.10 0.2551
399.20 0.2556
399.30 0.2561
399.40 0.2566
399.50 0.2571
399.60 0.2575
399.70 0.258
399.80 0.2585
399.90 0.259
400.00 0.2595
400.10 0.26
400.20 0.2605
400.30 0.261
400.40 0.2615
400.50 0.262
400.60 0.2625
400.70 0.263
400.80 0.2635
400.90 0.264
401.00 0.2645
401.10 0.265
401.20 0.2655
401.30 0.266
401.40 0.2665
401.50 0.267
401.60 0.2675
401.70 0.268
401.80 0.2685
401.90 0.269
402.00 0.2695
402.10 0.27
402.20 0.2705
402.30 0.271
402.40 0.2715
402.50 0.272
402.60 0.2725
402.70 0.273
402.80 0.2736
402.90 0.2741
403.00 0.2746
403.10 0.2751
403.20 0.2756
403.30 0.2761
403.40 0.2766
403.50 0.2771
403.60 0.2776
403.70 0.2782
403.80 0.2787
403.90 0.2792
404.00 0.2797
404.10 0.2802
404.20 0.2807
404.30 0.2813
404.40 0.2818
404.50 0.2823
404.60 0.2828
404.70 0.2833
404.80 0.2839
404.90 0.2844
405.00 0.2849
405.10 0.2854
405.20 0.2859
405.30 0.2865
405.40 0.287
405.50 0.2875
405.60 0.2881
405.70 0.2886
405.80 0.2891
405.90 0.2896
406.00 0.2902
406.10 0.2907
406.20 0.2912
406.30 0.2917
406.40 0.2923
406.50 0.2928
406.60 0.2933
406.70 0.2939
406.80 0.2944
406.90 0.2949
407.00 0.2955
407.10 0.296
407.20 0.2965
407.30 0.2971
407.40 0.2976
407.50 0.2981
407.60 0.2987
407.70 0.2992
407.80 0.2997
407.90 0.3003
408.00 0.3008
408.10 0.3014
408.20 0.3019
408.30 0.3024
408.40 0.303
408.50 0.3035
408.60 0.3041
408.70 0.3046
408.80 0.3051
408.90 0.3057
409.00 0.3062
409.10 0.3068
409.20 0.3073
409.30 0.3079
409.40 0.3084
409.50 0.309
409.60 0.3095
409.70 0.3101
409.80 0.3106
409.90 0.3112
410.00 0.3117
410.10 0.3122
410.20 0.3128
410.30 0.3134
410.40 0.3139
410.50 0.3145
410.60 0.315
410.70 0.3156
410.80 0.3161
410.90 0.3167
411.00 0.3172
411.10 0.3178
411.20 0.3183
411.30 0.3189
411.40 0.3195
411.50 0.32
411.60 0.3206
411.70 0.3211
411.80 0.3217
411.90 0.3222
412.00 0.3228
412.10 0.3234
412.20 0.3239
412.30 0.3245
412.40 0.3251
412.50 0.3256
412.60 0.3262
412.70 0.3268
412.80 0.3273
412.90 0.3279
413.00 0.3285
413.10 0.329
413.20 0.3296
413.30 0.3302
413.40 0.3307
413.50 0.3313
413.60 0.3319
413.70 0.3324
413.80 0.333
413.90 0.3336
414.00 0.3341
414.10 0.3347
414.20 0.3353
414.30 0.3359
414.40 0.3364
414.50 0.337
414.60 0.3376
414.70 0.3382
414.80 0.3387
414.90 0.3393
415.00 0.3399
415.10 0.3405
415.20 0.3411
415.30 0.3416
415.40 0.3422
415.50 0.3428
415.60 0.3434
415.70 0.344
415.80 0.3445
415.90 0.3451
416.00 0.3457
416.10 0.3463
416.20 0.3469
416.30 0.3475
416.40 0.348
416.50 0.3486
416.60 0.3492
416.70 0.3498
416.80 0.3504
416.90 0.351
417.00 0.3516
417.10 0.3522
417.20 0.3527
417.30 0.3533
417.40 0.3539
417.50 0.3545
417.60 0.3551
417.70 0.3557
417.80 0.3563
417.90 0.3569
418.00 0.3575
418.10 0.3581
418.20 0.3587
418.30 0.3593
418.40 0.3599
418.50 0.3605
418.60 0.361
418.70 0.3617
418.80 0.3623
418.90 0.3629
419.00 0.3635
419.10 0.3641
419.20 0.3647
419.30 0.3653
419.40 0.3659
419.50 0.3664
419.60 0.3671
419.70 0.3677
419.80 0.3683
419.90 0.3689
420.00 0.3695
420.10 0.3701
420.20 0.3707
420.30 0.3713
420.40 0.3719
420.50 0.3725
420.60 0.3731
420.70 0.3737
420.80 0.3743
420.90 0.375
421.00 0.3756
421.10 0.3762
421.20 0.3768
421.30 0.3774
421.40 0.378
421.50 0.3786
421.60 0.3792
421.70 0.3798
421.80 0.3805
421.90 0.3811
422.00 0.3817
422.10 0.3823
422.20 0.3829
422.30 0.3835
422.40 0.3842
422.50 0.3848
422.60 0.3854
422.70 0.386
422.80 0.3866
422.90 0.3873
423.00 0.3879
423.10 0.3885
423.20 0.3891
423.30 0.3897
423.40 0.3904
423.50 0.391
423.60 0.3916
423.70 0.3922
423.80 0.3929
423.90 0.3935
424.00 0.3941
424.10 0.3947
424.20 0.3954
424.30 0.396
424.40 0.3966
424.50 0.3973
424.60 0.3979
424.70 0.3985
424.80 0.3992
424.90 0.3998
425.00 0.4004
425.10 0.401
425.20 0.4017
425.30 0.4023
425.40 0.4029
425.50 0.4036
425.60 0.4042
425.70 0.4049
425.80 0.4055
425.90 0.4061
426.00 0.4068
426.10 0.4074
426.20 0.408
426.30 0.4087
426.40 0.4093
426.50 0.41
426.60 0.4106
426.70 0.4112
426.80 0.4119
426.90 0.4125
427.00 0.4132
427.10 0.4138
427.20 0.4144
427.30 0.4151
427.40 0.4157
427.50 0.4164
427.60 0.417
427.70 0.4177
427.80 0.4183
427.90 0.419
428.00 0.4196
428.10 0.4203
428.20 0.4209
428.30 0.4216
428.40 0.4222
428.50 0.4229
428.60 0.4235
428.70 0.4242
428.80 0.4248
428.90 0.4255
429.00 0.4261
429.10 0.4268
429.20 0.4274
429.30 0.4281
429.40 0.4287
429.50 0.4294
429.60 0.4301
429.70 0.4307
429.80 0.4314
429.90 0.432
430.00 0.4327
430.10 0.4333
430.20 0.434
430.30 0.4347
430.40 0.4353
430.50 0.436
430.60 0.4366
430.70 0.4373
430.80 0.438
430.90 0.4386
431.00 0.4393
431.10 0.44
431.20 0.4406
431.30 0.4413
431.40 0.442
431.50 0.4426
431.60 0.4433
431.70 0.444
431.80 0.4446
431.90 0.4453
432.00 0.446
432.10 0.4466
432.20 0.4473
432.30 0.448
432.40 0.4486
432.50 0.4493
432.60 0.45
432.70 0.4507
432.80 0.4513
432.90 0.452
433.00 0.4527
433.10 0.4534
433.20 0.454
433.30 0.4547
433.40 0.4554
433.50 0.4561
433.60 0.4567
433.70 0.4574
433.80 0.4581
433.90 0.4588
434.00 0.4594
434.10 0.4601
434.20 0.4608
434.30 0.4615
434.40 0.4622
434.50 0.4628
434.60 0.4635
434.70 0.4642
434.80 0.4649
434.90 0.4656
435.00 0.4663
435.10 0.4669
435.20 0.4676
435.30 0.4683
435.40 0.469
435.50 0.4697
435.60 0.4704
435.70 0.4711
435.80 0.4717
435.90 0.4724
436.00 0.4731
436.10 0.4738
436.20 0.4745
436.30 0.4752
436.40 0.4759
436.50 0.4766
436.60 0.4773
436.70 0.478
436.80 0.4787
436.90 0.4793
437.00 0.48
437.10 0.4807
437.20 0.4814
437.30 0.4821
437.40 0.4828
437.50 0.4835
437.60 0.4842
437.70 0.4849
437.80 0.4856
437.90 0.4863
438.00 0.487
438.10 0.4877
438.20 0.4884
438.30 0.4891
438.40 0.4898
438.50 0.4905
438.60 0.4912
438.70 0.4919
438.80 0.4926
438.90 0.4933
439.00 0.494
439.10 0.4947
439.20 0.4954
439.30 0.4962
439.40 0.4969
439.50 0.4976
439.60 0.4983
439.70 0.499
439.80 0.4997
439.90 0.5004
440.00 0.5011
440.10 0.5018
440.20 0.5025
440.30 0.5032
440.40 0.5039
440.50 0.5047
440.60 0.5054
440.70 0.5061
440.80 0.5068
440.90 0.5075
441.00 0.5082
441.10 0.5089
441.20 0.5097
441.30 0.5104
441.40 0.5111
441.50 0.5118
441.60 0.5125
441.70 0.5132
441.80 0.5139
441.90 0.5147
442.00 0.5154
442.10 0.5161
442.20 0.5168
442.30 0.5175
442.40 0.5183
442.50 0.519
442.60 0.5197
442.70 0.5204
442.80 0.5212
442.90 0.5219
443.00 0.5226
443.10 0.5233
443.20 0.524
443.30 0.5248
443.40 0.5255
443.50 0.5262
443.60 0.527
443.70 0.5277
443.80 0.5284
443.90 0.5291
444.00 0.5299
444.10 0.5306
444.20 0.5313
444.30 0.5321
444.40 0.5328
444.50 0.5335
444.60 0.5342
444.70 0.535
444.80 0.5357
444.90 0.5364
445.00 0.5372
445.10 0.5379
445.20 0.5386
445.30 0.5394
445.40 0.5401
445.50 0.5409
445.60 0.5416
445.70 0.5423
445.80 0.5431
445.90 0.5438
446.00 0.5445
446.10 0.5453
446.20 0.546
446.30 0.5468
446.40 0.5475
446.50 0.5482
446.60 0.549
446.70 0.5497
446.80 0.5504
446.90 0.5512
447.00 0.5519
447.10 0.5527
447.20 0.5534
447.30 0.5542
447.40 0.5549
447.50 0.5557
447.60 0.5564
447.70 0.5571
447.80 0.5579
447.90 0.5586
448.00 0.5594
448.10 0.5601
448.20 0.5609
448.30 0.5616
448.40 0.5624
448.50 0.5631
448.60 0.5639
448.70 0.5646
448.80 0.5654
448.90 0.5661
449.00 0.5669
449.10 0.5676
449.20 0.5684
449.30 0.5691
449.40 0.5699
449.50 0.5707
449.60 0.5714
449.70 0.5722
449.80 0.5729
449.90 0.5737
450.00 0.5744
450.10 0.5752
450.20 0.576
450.30 0.5767
450.40 0.5775
450.50 0.5782
450.60 0.579
450.70 0.5797
450.80 0.5805
450.90 0.5813
451.00 0.582
451.10 0.5828
451.20 0.5836
451.30 0.5843
451.40 0.5851
451.50 0.5858
451.60 0.5866
451.70 0.5874
451.80 0.5881
451.90 0.5889
452.00 0.5897
452.10 0.5904
452.20 0.5912
452.30 0.592
452.40 0.5927
452.50 0.5935
452.60 0.5943
452.70 0.595
452.80 0.5958
452.90 0.5966
453.00 0.5974
453.10 0.5981
453.20 0.5989
453.30 0.5997
453.40 0.6004
453.50 0.6012
453.60 0.602
453.70 0.6028
453.80 0.6035
453.90 0.6043
454.00 0.6051
454.10 0.6059
454.20 0.6066
454.30 0.6074
454.40 0.6082
454.50 0.609
454.60 0.6097
454.70 0.6105
454.80 0.6113
454.90 0.6121
455.00 0.6129
455.10 0.6136
455.20 0.6144
455.30 0.6152
455.40 0.616
455.50 0.6167
455.60 0.6175
455.70 0.6183
455.80 0.6191
455.90 0.6199
456.00 0.6207
456.10 0.6214
456.20 0.6222
456.30 0.623
456.40 0.6238
456.50 0.6246
456.60 0.6254
456.70 0.6261
456.80 0.6269
456.90 0.6277
457.00 0.6285
457.10 0.6293
457.20 0.6301
457.30 0.6309
457.40 0.6316
457.50 0.6324
457.60 0.6332
457.70 0.634
457.80 0.6348
457.90 0.6356
458.00 0.6364
458.10 0.6372
458.20 0.638
458.30 0.6388
458.40 0.6396
458.50 0.6404
458.60 0.6412
458.70 0.642
458.80 0.6428
458.90 0.6436
459.00 0.6444
459.10 0.6451
459.20 0.6459
459.30 0.6467
459.40 0.6475
459.50 0.6483
459.60 0.6491
459.70 0.6499
459.80 0.6507
459.90 0.6515
460.00 0.6523
460.10 0.6531
460.20 0.6539
460.30 0.6547
460.40 0.6555
460.50 0.6563
460.60 0.6571
460.70 0.6579
460.80 0.6587
460.90 0.6595
461.00 0.6603
461.10 0.6612
461.20 0.662
461.30 0.6628
461.40 0.6636
461.50 0.6644
461.60 0.6652
461.70 0.666
461.80 0.6668
461.90 0.6676
462.00 0.6684
462.10 0.6692
462.20 0.67
462.30 0.6708
462.40 0.6717
462.50 0.6725
462.60 0.6733
462.70 0.6741
462.80 0.6749
462.90 0.6757
463.00 0.6765
463.10 0.6773
463.20 0.6781
463.30 0.679
463.40 0.6798
463.50 0.6806
463.60 0.6814
463.70 0.6822
463.80 0.683
463.90 0.6838
464.00 0.6847
464.10 0.6855
464.20 0.6863
464.30 0.6871
464.40 0.6879
464.50 0.6888
464.60 0.6896
464.70 0.6904
464.80 0.6912
464.90 0.692
465.00 0.6928
465.10 0.6937
465.20 0.6945
465.30 0.6953
465.40 0.6961
465.50 0.697
465.60 0.6978
465.70 0.6986
465.80 0.6994
465.90 0.7002
466.00 0.7011
466.10 0.7019
466.20 0.7027
466.30 0.7035
466.40 0.7044
466.50 0.7052
466.60 0.706
466.70 0.7069
466.80 0.7077
466.90 0.7085
467.00 0.7093
467.10 0.7102
467.20 0.711
467.30 0.7118
467.40 0.7126
467.50 0.7135
467.60 0.7143
467.70 0.7151
467.80 0.716
467.90 0.7168
468.00 0.7176
468.10 0.7184
468.20 0.7193
468.30 0.7201
468.40 0.721
468.50 0.7218
468.60 0.7226
468.70 0.7235
468.80 0.7243
468.90 0.7251
469.00 0.726
469.10 0.7268
469.20 0.7276
469.30 0.7285
469.40 0.7293
469.50 0.7302
469.60 0.731
469.70 0.7318
469.80 0.7327
469.90 0.7335
470.00 0.7343
470.10 0.7352
470.20 0.736
470.30 0.7369
470.40 0.7377
470.50 0.7385
470.60 0.7394
470.70 0.7402
470.80 0.7411
470.90 0.7419
471.00 0.7428
471.10 0.7436
471.20 0.7444
471.30 0.7453
471.40 0.7461
471.50 0.747
471.60 0.7478
471.70 0.7487
471.80 0.7495
471.90 0.7504
472.00 0.7512
472.10 0.752
472.20 0.7529
472.30 0.7537
472.40 0.7546
472.50 0.7554
472.60 0.7563
472.70 0.7571
472.80 0.758
472.90 0.7588
473.00 0.7597
473.10 0.7605
473.20 0.7614
473.30 0.7622
473.40 0.7631
473.50 0.7639
473.60 0.7648
473.70 0.7656
473.80 0.7665
473.90 0.7673
474.00 0.7682
474.10 0.769
474.20 0.7699
474.30 0.7707
474.40 0.7716
474.50 0.7725
474.60 0.7733
474.70 0.7742
474.80 0.775
474.90 0.7759
475.00 0.7767
475.10 0.7776
475.20 0.7785
475.30 0.7793
475.40 0.7802
475.50 0.781
475.60 0.7819
475.70 0.7828
475.80 0.7836
475.90 0.7845
476.00 0.7853
476.10 0.7862
476.20 0.787
476.30 0.7879
476.40 0.7888
476.50 0.7896
476.60 0.7905
476.70 0.7914
476.80 0.7922
476.90 0.7931
477.00 0.7939
477.10 0.7948
477.20 0.7957
477.30 0.7965
477.40 0.7974
477.50 0.7983
477.60 0.7991
477.70 0.8
477.80 0.8009
477.90 0.8017
478.00 0.8026
478.10 0.8035
478.20 0.8043
478.30 0.8052
478.40 0.8061
478.50 0.8069
478.60 0.8078
478.70 0.8087
478.80 0.8095
478.90 0.8104
479.00 0.8113
479.10 0.8121
479.20 0.813
479.30 0.8139
479.40 0.8148
479.50 0.8156
479.60 0.8165
479.70 0.8174
479.80 0.8182
479.90 0.8191
480.00 0.82
480.10 0.8209
480.20 0.8217
480.30 0.8226
480.40 0.8235
480.50 0.8244
480.60 0.8252
480.70 0.8261
480.80 0.827
480.90 0.8279
481.00 0.8287
481.10 0.8296
481.20 0.8305
481.30 0.8314
481.40 0.8322
481.50 0.8331
481.60 0.834
481.70 0.8349
481.80 0.8358
481.90 0.8366
482.00 0.8375
482.10 0.8384
482.20 0.8393
482.30 0.8402
482.40 0.841
482.50 0.8419
482.60 0.8428
482.70 0.8437
482.80 0.8446
482.90 0.8454
483.00 0.8463
483.10 0.8472
483.20 0.8481
483.30 0.849
483.40 0.8499
483.50 0.8507
483.60 0.8516
483.70 0.8525
483.80 0.8534
483.90 0.8543
484.00 0.8551
484.10 0.856
484.20 0.8569
484.30 0.8578
484.40 0.8587
484.50 0.8596
484.60 0.8605
484.70 0.8613
484.80 0.8622
484.90 0.8631
485.00 0.864
485.10 0.8649
485.20 0.8658
485.30 0.8667
485.40 0.8676
485.50 0.8685
485.60 0.8693
485.70 0.8702
485.80 0.8711
485.90 0.872
486.00 0.8729
486.10 0.8738
486.20 0.8747
486.30 0.8756
486.40 0.8765
486.50 0.8774
486.60 0.8782
486.70 0.8791
486.80 0.88
486.90 0.8809
487.00 0.8818
487.10 0.8827
487.20 0.8836
487.30 0.8845
487.40 0.8854
487.50 0.8863
487.60 0.8872
487.70 0.8881
487.80 0.889
487.90 0.8899
488.00 0.8908
488.10 0.8917
488.20 0.8926
488.30 0.8935
488.40 0.8944
488.50 0.8953
488.60 0.8962
488.70 0.8971
488.80 0.898
488.90 0.8989
489.00 0.8997
489.10 0.9006
489.20 0.9015
489.30 0.9024
489.40 0.9033
489.50 0.9042
489.60 0.9051
489.70 0.906
489.80 0.9069
489.90 0.9078
490.00 0.9087
490.10 0.9096
490.20 0.9105
490.30 0.9114
490.40 0.9124
490.50 0.9133
490.60 0.9142
490.70 0.9151
490.80 0.916
490.90 0.9169
491.00 0.9178
491.10 0.9187
491.20 0.9196
491.30 0.9205
491.40 0.9214
491.50 0.9223
491.60 0.9232
491.70 0.9241
491.80 0.925
491.90 0.9259
492.00 0.9268
492.10 0.9277
492.20 0.9286
492.30 0.9295
492.40 0.9304
492.50 0.9314
492.60 0.9323
492.70 0.9332
492.80 0.9341
492.90 0.935
493.00 0.9359
493.10 0.9368
493.20 0.9377
493.30 0.9386
493.40 0.9395
493.50 0.9404
493.60 0.9413
493.70 0.9423
493.80 0.9432
493.90 0.9441
494.00 0.945
494.10 0.9459
494.20 0.9468
494.30 0.9477
494.40 0.9486
494.50 0.9495
494.60 0.9505
494.70 0.9514
494.80 0.9523
494.90 0.9532
495.00 0.9541
495.10 0.955
495.20 0.9559
495.30 0.9568
495.40 0.9578
495.50 0.9587
495.60 0.9596
495.70 0.9605
495.80 0.9614
495.90 0.9623
496.00 0.9632
496.10 0.9641
496.20 0.9651
496.30 0.966
496.40 0.9669
496.50 0.9678
496.60 0.9687
496.70 0.9697
496.80 0.9706
496.90 0.9715
497.00 0.9724
497.10 0.9733
497.20 0.9742
497.30 0.9751
497.40 0.9761
497.50 0.977
497.60 0.9779
497.70 0.9788
497.80 0.9797
497.90 0.9807
498.00 0.9816
498.10 0.9825
498.20 0.9834
498.30 0.9843
498.40 0.9853
498.50 0.9862
498.60 0.9871
498.70 0.988
498.80 0.9889
498.90 0.9899
499.00 0.9908
499.10 0.9917
499.20 0.9926
499.30 0.9935
499.40 0.9945
499.50 0.9954
499.60 0.9963
499.70 0.9972
499.80 0.9982
499.90 0.9991
500.00 1
500.10 1.001
500.20 1.002
500.30 1.003
500.40 1.004
500.50 1.005
500.60 1.006
500.70 1.006
500.80 1.007
500.90 1.008
501.00 1.009
501.10 1.01
501.20 1.011
501.30 1.012
501.40 1.013
501.50 1.014
501.60 1.015
501.70 1.016
501.80 1.017
501.90 1.018
502.00 1.018
502.10 1.019
502.20 1.02
502.30 1.021
502.40 1.022
502.50 1.023
502.60 1.024
502.70 1.025
502.80 1.026
502.90 1.027
503.00 1.028
503.10 1.029
503.20 1.03
503.30 1.031
503.40 1.031
503.50 1.032
503.60 1.033
503.70 1.034
503.80 1.035
503.90 1.036
504.00 1.037
504.10 1.038
504.20 1.039
504.30 1.04
504.40 1.041
504.50 1.042
504.60 1.043
504.70 1.044
504.80 1.044
504.90 1.045
505.00 1.046
505.10 1.047
505.20 1.048
505.30 1.049
505.40 1.05
505.50 1.051
505.60 1.052
505.70 1.053
505.80 1.054
505.90 1.055
506.00 1.056
506.10 1.057
506.20 1.058
506.30 1.058
506.40 1.059
506.50 1.06
506.60 1.061
506.70 1.062
506.80 1.063
506.90 1.064
507.00 1.065
507.10 1.066
507.20 1.067
507.30 1.068
507.40 1.069
507.50 1.07
507.60 1.071
507.70 1.072
507.80 1.072
507.90 1.073
508.00 1.074
508.10 1.075
508.20 1.076
508.30 1.077
508.40 1.078
508.50 1.079
508.60 1.08
508.70 1.081
508.80 1.082
508.90 1.083
509.00 1.084
509.10 1.085
509.20 1.086
509.30 1.086
509.40 1.087
509.50 1.088
509.60 1.089
509.70 1.09
509.80 1.091
509.90 1.092
510.00 1.093
510.10 1.094
510.20 1.095
510.30 1.096
510.40 1.097
510.50 1.098
510.60 1.099
510.70 1.1
510.80 1.101
510.90 1.101
511.00 1.102
511.10 1.103
511.20 1.104
511.30 1.105
511.40 1.106
511.50 1.107
511.60 1.108
511.70 1.109
511.80 1.11
511.90 1.111
512.00 1.112
512.10 1.113
512.20 1.114
512.30 1.115
512.40 1.116
512.50 1.117
512.60 1.117
512.70 1.118
512.80 1.119
512.90 1.12
513.00 1.121
513.10 1.122
513.20 1.123
513.30 1.124
513.40 1.125
513.50 1.126
513.60 1.127
513.70 1.128
513.80 1.129
513.90 1.13
514.00 1.131
514.10 1.132
514.20 1.132
514.30 1.133
514.40 1.134
514.50 1.135
514.60 1.136
514.70 1.137
514.80 1.138
514.90 1.139
515.00 1.14
515.10 1.141
515.20 1.142
515.30 1.143
515.40 1.144
515.50 1.145
515.60 1.146
515.70 1.147
515.80 1.148
515.90 1.149
516.00 1.149
516.10 1.15
516.20 1.151
516.30 1.152
516.40 1.153
516.50 1.154
516.60 1.155
516.70 1.156
516.80 1.157
516.90 1.158
517.00 1.159
517.10 1.16
517.20 1.161
517.30 1.162
517.40 1.163
517.50 1.164
517.60 1.165
517.70 1.165
517.80 1.166
517.90 1.167
518.00 1.168
518.10 1.169
518.20 1.17
518.30 1.171
518.40 1.172
518.50 1.173
518.60 1.174
518.70 1.175
518.80 1.176
518.90 1.177
519.00 1.178
519.10 1.179
519.20 1.18
519.30 1.181
519.40 1.182
519.50 1.182
519.60 1.183
519.70 1.184
519.80 1.185
519.90 1.186
520.00 1.187
520.10 1.188
520.20 1.189
520.30 1.19
520.40 1.191
520.50 1.192
520.60 1.193
520.70 1.194
520.80 1.195
520.90 1.196
521.00 1.197
521.10 1.198
521.20 1.198
521.30 1.199
521.40 1.2
521.50 1.201
521.60 1.202
521.70 1.203
521.80 1.204
521.90 1.205
522.00 1.206
522.10 1.207
522.20 1.208
522.30 1.209
522.40 1.21
522.50 1.211
522.60 1.212
522.70 1.213
522.80 1.214
522.90 1.215
523.00 1.215
523.10 1.216
523.20 1.217
523.30 1.218
523.40 1.219
523.50 1.22
523.60 1.221
523.70 1.222
523.80 1.223
523.90 1.224
524.00 1.225
524.10 1.226
524.20 1.227
524.30 1.228
524.40 1.229
524.50 1.23
524.60 1.231
524.70 1.232
524.80 1.232
524.90 1.233
525.00 1.234
525.10 1.235
525.20 1.236
525.30 1.237
525.40 1.238
525.50 1.239
525.60 1.24
525.70 1.241
525.80 1.242
525.90 1.243
526.00 1.244
526.10 1.245
526.20 1.246
526.30 1.247
526.40 1.248
526.50 1.249
526.60 1.249
526.70 1.25
526.80 1.251
526.90 1.252
527.00 1.253
527.10 1.254
527.20 1.255
527.30 1.256
527.40 1.257
527.50 1.258
527.60 1.259
527.70 1.26
527.80 1.261
527.90 1.262
528.00 1.263
528.10 1.264
528.20 1.264
528.30 1.265
528.40 1.266
528.50 1.267
528.60 1.268
528.70 1.269
528.80 1.27
528.90 1.271
529.00 1.272
529.10 1.273
529.20 1.274
529.30 1.275
529.40 1.276
529.50 1.277
529.60 1.278
529.70 1.279
529.80 1.28
529.90 1.28
530.00 1.281
530.10 1.282
530.20 1.283
530.30 1.284
530.40 1.285
530.50 1.286
530.60 1.287
530.70 1.288
530.80 1.289
530.90 1.29
531.00 1.291
531.10 1.292
531.20 1.293
531.30 1.294
531.40 1.295
531.50 1.295
531.60 1.296
531.70 1.297
531.80 1.298
531.90 1.299
532.00 1.3
532.10 1.301
532.20 1.302
532.30 1.303
532.40 1.304
532.50 1.305
532.60 1.306
532.70 1.307
532.80 1.308
532.90 1.309
533.00 1.31
533.10 1.311
533.20 1.311
533.30 1.312
533.40 1.313
533.50 1.314
533.60 1.315
533.70 1.316
533.80 1.317
533.90 1.318
534.00 1.319
534.10 1.32
534.20 1.321
534.30 1.322
534.40 1.323
534.50 1.324
534.60 1.325
534.70 1.325
534.80 1.326
534.90 1.327
535.00 1.328
535.10 1.329
535.20 1.33
535.30 1.331
535.40 1.332
535.50 1.333
535.60 1.334
535.70 1.335
535.80 1.336
535.90 1.337
536.00 1.338
536.10 1.338
536.20 1.339
536.30 1.34
536.40 1.341
536.50 1.342
536.60 1.343
536.70 1.344
536.80 1.345
536.90 1.346
537.00 1.347
537.10 1.348
537.20 1.349
537.30 1.35
537.40 1.351
537.50 1.352
537.60 1.352
537.70 1.353
537.80 1.354
537.90 1.355
538.00 1.356
538.10 1.357
538.20 1.358
538.30 1.359
538.40 1.36
538.50 1.361
538.60 1.362
538.70 1.363
538.80 1.364
538.90 1.365
539.00 1.365
539.10 1.366
539.20 1.367
539.30 1.368
539.40 1.369
539.50 1.37
539.60 1.371
539.70 1.372
539.80 1.373
539.90 1.374
540.00 1.375
540.10 1.376
540.20 1.377
540.30 1.377
540.40 1.378
540.50 1.379
540.60 1.38
540.70 1.381
540.80 1.382
540.90 1.383
541.00 1.384
541.10 1.385
541.20 1.386
541.30 1.387
541.40 1.388
541.50 1.388
541.60 1.389
541.70 1.39
541.80 1.391
541.90 1.392
542.00 1.393
542.10 1.394
542.20 1.395
542.30 1.396
542.40 1.397
542.50 1.398
542.60 1.399
542.70 1.399
542.80 1.4
542.90 1.401
543.00 1.402
543.10 1.403
543.20 1.404
543.30 1.405
543.40 1.406
543.50 1.407
543.60 1.408
543.70 1.409
543.80 1.409
543.90 1.41
544.00 1.411
544.10 1.412
544.20 1.413
544.30 1.414
544.40 1.415
544.50 1.416
544.60 1.417
544.70 1.418
544.80 1.419
544.90 1.419
545.00 1.42
545.10 1.421
545.20 1.422
545.30 1.423
545.40 1.424
545.50 1.425
545.60 1.426
545.70 1.427
545.80 1.428
545.90 1.428
546.00 1.429
546.10 1.43
546.20 1.431
546.30 1.432
546.40 1.433
546.50 1.434
546.60 1.435
546.70 1.436
546.80 1.437
546.90 1.437
547.00 1.438
547.10 1.439
547.20 1.44
547.30 1.441
547.40 1.442
547.50 1.443
547.60 1.444
547.70 1.445
547.80 1.446
547.90 1.446
548.00 1.447
548.10 1.448
548.20 1.449
548.30 1.45
548.40 1.451
548.50 1.452
548.60 1.453
548.70 1.454
548.80 1.454
548.90 1.455
549.00 1.456
549.10 1.457
549.20 1.458
549.30 1.459
549.40 1.46
549.50 1.461
549.60 1.462
549.70 1.463
549.80 1.463
549.90 1.464
550.00 1.465
550.10 1.466
550.20 1.467
550.30 1.468
550.40 1.469
550.50 1.47
550.60 1.47
550.70 1.471
550.80 1.472
550.90 1.473
551.00 1.474
551.10 1.475
551.20 1.476
551.30 1.477
551.40 1.477
551.50 1.478
551.60 1.479
551.70 1.48
551.80 1.481
551.90 1.482
552.00 1.483
552.10 1.484
552.20 1.485
552.30 1.485
552.40 1.486
552.50 1.487
552.60 1.488
552.70 1.489
552.80 1.49
552.90 1.491
553.00 1.491
553.10 1.492
553.20 1.493
553.30 1.494
553.40 1.495
553.50 1.496
553.60 1.497
553.70 1.498
553.80 1.498
553.90 1.499
554.00 1.5
554.10 1.501
554.20 1.502
554.30 1.503
554.40 1.504
554.50 1.504
554.60 1.505
554.70 1.506
554.80 1.507
554.90 1.508
555.00 1.509
555.10 1.51
555.20 1.51
555.30 1.511
555.40 1.512
555.50 1.513
555.60 1.514
555.70 1.515
555.80 1.516
555.90 1.516
556.00 1.517
556.10 1.518
556.20 1.519
556.30 1.52
556.40 1.521
556.50 1.521
556.60 1.522
556.70 1.523
556.80 1.524
556.90 1.525
557.00 1.526
557.10 1.527
557.20 1.527
557.30 1.528
557.40 1.529
557.50 1.53
557.60 1.531
557.70 1.532
557.80 1.532
557.90 1.533
558.00 1.534
558.10 1.535
558.20 1.536
558.30 1.537
558.40 1.537
558.50 1.538
558.60 1.539
558.70 1.54
558.80 1.541
558.90 1.542
559.00 1.542
559.10 1.543
559.20 1.544
559.30 1.545
559.40 1.546
559.50 1.547
559.60 1.547
559.70 1.548
559.80 1.549
559.90 1.55
560.00 1.551
560.10 1.552
560.20 1.552
560.30 1.553
560.40 1.554
560.50 1.555
560.60 1.556
560.70 1.557
560.80 1.557
560.90 1.558
561.00 1.559
561.10 1.56
561.20 1.561
561.30 1.561
561.40 1.562
561.50 1.563
561.60 1.564
561.70 1.565
561.80 1.566
561.90 1.566
562.00 1.567
562.10 1.568
562.20 1.569
562.30 1.57
562.40 1.57
562.50 1.571
562.60 1.572
562.70 1.573
562.80 1.574
562.90 1.574
563.00 1.575
563.10 1.576
563.20 1.577
563.30 1.578
563.40 1.578
563.50 1.579
563.60 1.58
563.70 1.581
563.80 1.582
563.90 1.582
564.00 1.583
564.10 1.584
564.20 1.585
564.30 1.586
564.40 1.586
564.50 1.587
564.60 1.588
564.70 1.589
564.80 1.589
564.90 1.59
565.00 1.591
565.10 1.592
565.20 1.593
565.30 1.593
565.40 1.594
565.50 1.595
565.60 1.596
565.70 1.597
565.80 1.597
565.90 1.598
566.00 1.599
566.10 1.6
566.20 1.6
566.30 1.601
566.40 1.602
566.50 1.603
566.60 1.603
566.70 1.604
566.80 1.605
566.90 1.606
567.00 1.607
567.10 1.607
567.20 1.608
567.30 1.609
567.40 1.61
567.50 1.61
567.60 1.611
567.70 1.612
567.80 1.613
567.90 1.613
568.00 1.614
568.10 1.615
568.20 1.616
568.30 1.616
568.40 1.617
568.50 1.618
568.60 1.619
568.70 1.619
568.80 1.62
568.90 1.621
569.00 1.622
569.10 1.622
569.20 1.623
569.30 1.624
569.40 1.624
569.50 1.625
569.60 1.626
569.70 1.627
569.80 1.627
569.90 1.628
570.00 1.629
570.10 1.63
570.20 1.63
570.30 1.631
570.40 1.632
570.50 1.632
570.60 1.633
570.70 1.634
570.80 1.635
570.90 1.635
571.00 1.636
571.10 1.637
571.20 1.638
571.30 1.638
571.40 1.639
571.50 1.64
571.60 1.64
571.70 1.641
571.80 1.642
571.90 1.642
572.00 1.643
572.10 1.644
572.20 1.645
572.30 1.645
572.40 1.646
572.50 1.647
572.60 1.647
572.70 1.648
572.80 1.649
572.90 1.649
573.00 1.65
573.10 1.651
573.20 1.652
573.30 1.652
573.40 1.653
573.50 1.654
573.60 1.654
573.70 1.655
573.80 1.656
573.90 1.656
574.00 1.657
574.10 1.658
574.20 1.658
574.30 1.659
574.40 1.66
574.50 1.66
574.60 1.661
574.70 1.662
574.80 1.662
574.90 1.663
575.00 1.664
575.10 1.664
575.20 1.665
575.30 1.666
575.40 1.666
575.50 1.667
575.60 1.668
575.70 1.668
575.80 1.669
575.90 1.67
576.00 1.67
576.10 1.671
576.20 1.672
576.30 1.672
576.40 1.673
576.50 1.674
576.60 1.674
576.70 1.675
576.80 1.676
576.90 1.676
577.00 1.677
577.10 1.678
577.20 1.678
577.30 1.679
577.40 1.68
577.50 1.68
577.60 1.681
577.70 1.681
577.80 1.682
577.90 1.683
578.00 1.683
578.10 1.684
578.20 1.685
578.30 1.685
578.40 1.686
578.50 1.687
578.60 1.687
578.70 1.688
578.80 1.688
578.90 1.689
579.00 1.69
579.10 1.69
579.20 1.691
579.30 1.692
579.40 1.692
579.50 1.693
579.60 1.693
579.70 1.694
579.80 1.695
579.90 1.695
580.00 1.696
580.10 1.697
580.20 1.697
580.30 1.698
580.40 1.698
580.50 1.699
580.60 1.7
580.70 1.7
580.80 1.701
580.90 1.701
581.00 1.702
581.10 1.703
581.20 1.703
581.30 1.704
581.40 1.704
581.50 1.705
581.60 1.706
581.70 1.706
581.80 1.707
581.90 1.707
582.00 1.708
582.10 1.709
582.20 1.709
582.30 1.71
582.40 1.71
582.50 1.711
582.60 1.711
582.70 1.712
582.80 1.713
582.90 1.713
583.00 1.714
583.10 1.714
583.20 1.715
583.30 1.716
583.40 1.716
583.50 1.717
583.60 1.717
583.70 1.718
583.80 1.718
583.90 1.719
584.00 1.719
584.10 1.72
584.20 1.721
584.30 1.721
584.40 1.722
584.50 1.722
584.60 1.723
584.70 1.723
584.80 1.724
584.90 1.724
585.00 1.725
585.10 1.725
585.20 1.726
585.30 1.726
585.40 1.727
585.50 1.728
585.60 1.728
585.70 1.729
585.80 1.729
585.90 1.73
586.00 1.73
586.10 1.731
586.20 1.731
586.30 1.732
586.40 1.732
586.50 1.733
586.60 1.733
586.70 1.734
586.80 1.734
586.90 1.735
587.00 1.735
587.10 1.736
587.20 1.736
587.30 1.737
587.40 1.737
587.50 1.738
587.60 1.738
587.70 1.738
587.80 1.739
587.90 1.739
588.00 1.74
588.10 1.74
588.20 1.741
588.30 1.741
588.40 1.742
588.50 1.742
588.60 1.743
588.70 1.743
588.80 1.744
588.90 1.744
589.00 1.744
589.10 1.745
589.20 1.745
589.30 1.746
589.40 1.746
589.50 1.747
589.60 1.747
589.70 1.747
589.80 1.748
589.90 1.748
590.00 1.749
590.10 1.749
590.20 1.75
590.30 1.75
590.40 1.75
590.50 1.751
590.60 1.751
590.70 1.752
590.80 1.752
590.90 1.752
591.00 1.753
591.10 1.753
591.20 1.754
591.30 1.754
591.40 1.755
591.50 1.755
591.60 1.755
591.70 1.756
591.80 1.756
591.90 1.757
592.00 1.757
592.10 1.757
592.20 1.758
592.30 1.758
592.40 1.758
592.50 1.759
592.60 1.759
592.70 1.76
592.80 1.76
592.90 1.76
593.00 1.761
593.10 1.761
593.20 1.761
593.30 1.762
593.40 1.762
593.50 1.762
593.60 1.763
593.70 1.763
593.80 1.764
593.90 1.764
594.00 1.764
594.10 1.765
594.20 1.765
594.30 1.765
594.40 1.766
594.50 1.766
594.60 1.766
594.70 1.767
594.80 1.767
594.90 1.767
595.00 1.768
595.10 1.768
595.20 1.768
595.30 1.769
595.40 1.769
595.50 1.769
595.60 1.77
595.70 1.77
595.80 1.77
595.90 1.771
596.00 1.771
596.10 1.771
596.20 1.772
596.30 1.772
596.40 1.772
596.50 1.772
596.60 1.773
596.70 1.773
596.80 1.773
596.90 1.774
597.00 1.774
597.10 1.774
597.20 1.775
597.30 1.775
597.40 1.775
597.50 1.775
597.60 1.776
597.70 1.776
597.80 1.776
597.90 1.776
598.00 1.777
598.10 1.777
598.20 1.777
598.30 1.778
598.40 1.778
598.50 1.778
598.60 1.778
598.70 1.779
598.80 1.779
598.90 1.779
599.00 1.779
599.10 1.78
599.20 1.78
599.30 1.78
599.40 1.78
599.50 1.781
599.60 1.781
599.70 1.781
599.80 1.781
599.90 1.781
600.00 1.782
600.10 1.782
600.20 1.782
600.30 1.782
600.40 1.782
600.50 1.783
600.60 1.783
600.70 1.783
600.80 1.783
600.90 1.783
601.00 1.784
601.10 1.784
601.20 1.784
601.30 1.784
601.40 1.784
601.50 1.785
601.60 1.785
601.70 1.785
601.80 1.785
601.90 1.785
602.00 1.786
602.10 1.786
602.20 1.786
602.30 1.786
602.40 1.786
602.50 1.786
602.60 1.786
602.70 1.787
602.80 1.787
602.90 1.787
603.00 1.787
603.10 1.787
603.20 1.787
603.30 1.787
603.40 1.788
603.50 1.788
603.60 1.788
603.70 1.788
603.80 1.788
603.90 1.788
604.00 1.788
604.10 1.788
604.20 1.789
604.30 1.789
604.40 1.789
604.50 1.789
604.60 1.789
604.70 1.789
604.80 1.789
604.90 1.789
605.00 1.789
605.10 1.789
605.20 1.789
605.30 1.789
605.40 1.79
605.50 1.79
605.60 1.79
605.70 1.79
605.80 1.79
605.90 1.79
606.00 1.79
606.10 1.79
606.20 1.79
606.30 1.79
606.40 1.79
606.50 1.79
606.60 1.79
606.70 1.79
606.80 1.79
606.90 1.79
607.00 1.79
607.10 1.79
607.20 1.79
607.30 1.79
607.40 1.79
607.50 1.79
607.60 1.79
607.70 1.79
607.80 1.791
607.90 1.791
608.00 1.791
608.10 1.791
608.20 1.791
608.30 1.791
608.40 1.79
608.50 1.79
608.60 1.79
608.70 1.79
608.80 1.79
608.90 1.79
609.00 1.79
609.10 1.79
609.20 1.79
609.30 1.79
609.40 1.79
609.50 1.79
609.60 1.79
609.70 1.79
609.80 1.79
609.90 1.79
610.00 1.79
610.10 1.79
610.20 1.79
610.30 1.79
610.40 1.79
610.50 1.79
610.60 1.789
610.70 1.789
610.80 1.789
610.90 1.789
611.00 1.789
611.10 1.789
611.20 1.789
611.30 1.789
611.40 1.789
611.50 1.789
611.60 1.789
611.70 1.788
611.80 1.788
611.90 1.788
612.00 1.788
612.10 1.788
612.20 1.788
612.30 1.788
612.40 1.788
612.50 1.787
612.60 1.787
612.70 1.787
612.80 1.787
612.90 1.787
613.00 1.787
613.10 1.786
613.20 1.786
613.30 1.786
613.40 1.786
613.50 1.786
613.60 1.786
613.70 1.785
613.80 1.785
613.90 1.785
614.00 1.785
614.10 1.785
614.20 1.784
614.30 1.784
614.40 1.784
614.50 1.784
614.60 1.784
614.70 1.783
614.80 1.783
614.90 1.783
615.00 1.783
615.10 1.783
615.20 1.782
615.30 1.782
615.40 1.782
615.50 1.781
615.60 1.781
615.70 1.781
615.80 1.781
615.90 1.78
616.00 1.78
616.10 1.78
616.20 1.78
616.30 1.779
616.40 1.779
616.50 1.779
616.60 1.778
616.70 1.778
616.80 1.778
616.90 1.778
617.00 1.777
617.10 1.777
617.20 1.777
617.30 1.776
617.40 1.776
617.50 1.776
617.60 1.775
617.70 1.775
617.80 1.775
617.90 1.774
618.00 1.774
618.10 1.774
618.20 1.773
618.30 1.773
618.40 1.773
618.50 1.772
618.60 1.772
618.70 1.772
618.80 1.771
618.90 1.771
619.00 1.771
619.10 1.77
619.20 1.77
619.30 1.769
619.40 1.769
619.50 1.769
619.60 1.768
619.70 1.768
619.80 1.767
619.90 1.767
620.00 1.767
620.10 1.766
620.20 1.766
620.30 1.765
620.40 1.765
620.50 1.765
620.60 1.764
620.70 1.764
620.80 1.763
620.90 1.763
621.00 1.762
621.10 1.762
621.20 1.762
621.30 1.761
621.40 1.761
621.50 1.76
621.60 1.76
621.70 1.759
621.80 1.759
621.90 1.758
622.00 1.758
622.10 1.757
622.20 1.757
622.30 1.757
622.40 1.756
622.50 1.756
622.60 1.755
622.70 1.755
622.80 1.754
622.90 1.754
623.00 1.753
623.10 1.753
623.20 1.752
623.30 1.752
623.40 1.751
623.50 1.751
623.60 1.75
623.70 1.75
623.80 1.749
623.90 1.749
624.00 1.748
624.10 1.748
624.20 1.747
624.30 1.746
624.40 1.746
624.50 1.745
624.60 1.745
624.70 1.744
624.80 1.744
624.90 1.743
625.00 1.743
625.10 1.742
625.20 1.741
625.30 1.741
625.40 1.74
625.50 1.74
625.60 1.739
625.70 1.738
625.80 1.738
625.90 1.737
626.00 1.737
626.10 1.736
626.20 1.735
626.30 1.735
626.40 1.734
626.50 1.733
626.60 1.733
626.70 1.732
626.80 1.731
626.90 1.731
627.00 1.73
627.10 1.73
627.20 1.729
627.30 1.728
627.40 1.728
627.50 1.727
627.60 1.726
627.70 1.726
627.80 1.725
627.90 1.724
628.00 1.724
628.10 1.723
628.20 1.722
628.30 1.721
628.40 1.721
628.50 1.72
628.60 1.719
628.70 1.719
628.80 1.718
628.90 1.717
629.00 1.717
629.10 1.716
629.20 1.715
629.30 1.714
629.40 1.714
629.50 1.713
629.60 1.712
629.70 1.711
629.80 1.711
629.90 1.71
630.00 1.709
630.10 1.708
630.20 1.708
630.30 1.707
630.40 1.706
630.50 1.705
630.60 1.705
630.70 1.704
630.80 1.703
630.90 1.702
631.00 1.701
631.10 1.701
631.20 1.7
631.30 1.699
631.40 1.698
631.50 1.697
631.60 1.697
631.70 1.696
631.80 1.695
631.90 1.694
632.00 1.693
632.10 1.693
632.20 1.692
632.30 1.691
632.40 1.69
632.50 1.689
632.60 1.688
632.70 1.687
632.80 1.687
632.90 1.686
633.00 1.685
633.10 1.684
633.20 1.683
633.30 1.682
633.40 1.681
633.50 1.681
633.60 1.68
633.70 1.679
633.80 1.678
633.90 1.677
634.00 1.676
634.10 1.675
634.20 1.674
634.30 1.673
634.40 1.672
634.50 1.671
634.60 1.671
634.70 1.67
634.80 1.669
634.90 1.668
635.00 1.667
635.10 1.666
635.20 1.665
635.30 1.664
635.40 1.663
635.50 1.662
635.60 1.661
635.70 1.66
635.80 1.659
635.90 1.658
636.00 1.657
636.10 1.656
636.20 1.655
636.30 1.654
636.40 1.653
636.50 1.652
636.60 1.651
636.70 1.65
636.80 1.649
636.90 1.648
637.00 1.647
637.10 1.646
637.20 1.645
637.30 1.644
637.40 1.643
637.50 1.642
637.60 1.641
637.70 1.64
637.80 1.639
637.90 1.638
638.00 1.637
638.10 1.636
638.20 1.635
638.30 1.634
638.40 1.633
638.50 1.632
638.60 1.631
638.70 1.63
638.80 1.629
638.90 1.628
639.00 1.627
639.10 1.626
639.20 1.624
639.30 1.623
639.40 1.622
639.50 1.621
639.60 1.62
639.70 1.619
639.80 1.618
639.90 1.617
640.00 1.616
640.10 1.614
640.20 1.613
640.30 1.612
640.40 1.611
640.50 1.61
640.60 1.609
640.70 1.608
640.80 1.607
640.90 1.605
641.00 1.604
641.10 1.603
641.20 1.602
641.30 1.601
641.40 1.6
641.50 1.598
641.60 1.597
641.70 1.596
641.80 1.595
641.90 1.594
642.00 1.592
642.10 1.591
642.20 1.59
642.30 1.589
642.40 1.588
642.50 1.586
642.60 1.585
642.70 1.584
642.80 1.582
642.90 1.581
643.00 1.58
643.10 1.579
643.20 1.577
643.30 1.576
643.40 1.575
643.50 1.574
643.60 1.572
643.70 1.571
643.80 1.57
643.90 1.569
644.00 1.567
644.10 1.566
644.20 1.565
644.30 1.564
644.40 1.562
644.50 1.561
644.60 1.56
644.70 1.558
644.80 1.557
644.90 1.556
645.00 1.554
645.10 1.553
645.20 1.552
645.30 1.551
645.40 1.549
645.50 1.548
645.60 1.547
645.70 1.545
645.80 1.544
645.90 1.543
646.00 1.541
646.10 1.54
646.20 1.539
646.30 1.537
646.40 1.536
646.50 1.535
646.60 1.533
646.70 1.532
646.80 1.531
646.90 1.529
647.00 1.528
647.10 1.527
647.20 1.525
647.30 1.524
647.40 1.523
647.50 1.521
647.60 1.52
647.70 1.518
647.80 1.517
647.90 1.516
648.00 1.514
648.10 1.513
648.20 1.512
648.30 1.51
648.40 1.509
648.50 1.507
648.60 1.506
648.70 1.505
648.80 1.503
648.90 1.502
649.00 1.5
649.10 1.499
649.20 1.497
649.30 1.496
649.40 1.495
649.50 1.493
649.60 1.492
649.70 1.49
649.80 1.489
649.90 1.487
650.00 1.486
650.10 1.485
650.20 1.483
650.30 1.482
650.40 1.48
650.50 1.479
650.60 1.477
650.70 1.476
650.80 1.474
650.90 1.473
651.00 1.471
651.10 1.47
651.20 1.469
651.30 1.467
651.40 1.466
651.50 1.464
651.60 1.463
651.70 1.461
651.80 1.46
651.90 1.458
652.00 1.457
652.10 1.455
652.20 1.454
652.30 1.452
652.40 1.451
652.50 1.449
652.60 1.447
652.70 1.446
652.80 1.444
652.90 1.443
653.00 1.441
653.10 1.44
653.20 1.438
653.30 1.437
653.40 1.435
653.50 1.434
653.60 1.432
653.70 1.431
653.80 1.429
653.90 1.428
654.00 1.426
654.10 1.424
654.20 1.423
654.30 1.421
654.40 1.42
654.50 1.418
654.60 1.417
654.70 1.415
654.80 1.414
654.90 1.412
655.00 1.41
655.10 1.409
655.20 1.407
655.30 1.406
655.40 1.404
655.50 1.403
655.60 1.401
655.70 1.399
655.80 1.398
655.90 1.396
656.00 1.395
656.10 1.393
656.20 1.391
656.30 1.39
656.40 1.388
656.50 1.387
656.60 1.385
656.70 1.383
656.80 1.382
656.90 1.38
657.00 1.379
657.10 1.377
657.20 1.375
657.30 1.374
657.40 1.372
657.50 1.37
657.60 1.369
657.70 1.367
657.80 1.366
657.90 1.364
658.00 1.362
658.10 1.361
658.20 1.359
658.30 1.357
658.40 1.356
658.50 1.354
658.60 1.353
658.70 1.351
658.80 1.349
658.90 1.348
659.00 1.346
659.10 1.344
659.20 1.343
659.30 1.341
659.40 1.339
659.50 1.338
659.60 1.336
659.70 1.334
659.80 1.333
659.90 1.331
660.00 1.329
660.10 1.328
660.20 1.326
660.30 1.324
660.40 1.323
660.50 1.321
660.60 1.319
660.70 1.317
660.80 1.316
660.90 1.314
661.00 1.312
661.10 1.311
661.20 1.309
661.30 1.307
661.40 1.306
661.50 1.304
661.60 1.302
661.70 1.301
661.80 1.299
661.90 1.297
662.00 1.295
662.10 1.294
662.20 1.292
662.30 1.29
662.40 1.289
662.50 1.287
662.60 1.285
662.70 1.283
662.80 1.282
662.90 1.28
663.00 1.278
663.10 1.277
663.20 1.275
663.30 1.273
663.40 1.271
663.50 1.27
663.60 1.268
663.70 1.266
663.80 1.264
663.90 1.263
664.00 1.261
664.10 1.259
664.20 1.257
664.30 1.256
664.40 1.254
664.50 1.252
664.60 1.25
664.70 1.249
664.80 1.247
664.90 1.245
665.00 1.243
665.10 1.242
665.20 1.24
665.30 1.238
665.40 1.236
665.50 1.235
665.60 1.233
665.70 1.231
665.80 1.229
665.90 1.228
666.00 1.226
666.10 1.224
666.20 1.222
666.30 1.221
666.40 1.219
666.50 1.217
666.60 1.215
666.70 1.213
666.80 1.212
666.90 1.21
667.00 1.208
667.10 1.206
667.20 1.205
667.30 1.203
667.40 1.201
667.50 1.199
667.60 1.197
667.70 1.196
667.80 1.194
667.90 1.192
668.00 1.19
668.10 1.188
668.20 1.187
668.30 1.185
668.40 1.183
668.50 1.181
668.60 1.179
668.70 1.178
668.80 1.176
668.90 1.174
669.00 1.172
669.10 1.17
669.20 1.169
669.30 1.167
669.40 1.165
669.50 1.163
669.60 1.161
669.70 1.16
669.80 1.158
669.90 1.156
670.00 1.154
670.10 1.152
670.20 1.151
670.30 1.149
670.40 1.147
670.50 1.145
670.60 1.143
670.70 1.141
670.80 1.14
670.90 1.138
671.00 1.136
671.10 1.134
671.20 1.132
671.30 1.131
671.40 1.129
671.50 1.127
671.60 1.125
671.70 1.123
671.80 1.121
671.90 1.12
672.00 1.118
672.10 1.116
672.20 1.114
672.30 1.112
672.40 1.11
672.50 1.109
672.60 1.107
672.70 1.105
672.80 1.103
672.90 1.101
673.00 1.099
673.10 1.098
673.20 1.096
673.30 1.094
673.40 1.092
673.50 1.09
673.60 1.088
673.70 1.087
673.80 1.085
673.90 1.083
674.00 1.081
674.10 1.079
674.20 1.077
674.30 1.076
674.40 1.074
674.50 1.072
674.60 1.07
674.70 1.068
674.80 1.066
674.90 1.064
675.00 1.063
675.10 1.061
675.20 1.059
675.30 1.057
675.40 1.055
675.50 1.053
675.60 1.052
675.70 1.05
675.80 1.048
675.90 1.046
676.00 1.044
676.10 1.042
676.20 1.04
676.30 1.039
676.40 1.037
676.50 1.035
676.60 1.033
676.70 1.031
676.80 1.029
676.90 1.027
677.00 1.026
677.10 1.024
677.20 1.022
677.30 1.02
677.40 1.018
677.50 1.016
677.60 1.015
677.70 1.013
677.80 1.011
677.90 1.009
678.00 1.007
678.10 1.005
678.20 1.004
678.30 1.002
678.40 0.9998
678.50 0.998
678.60 0.9961
678.70 0.9943
678.80 0.9924
678.90 0.9905
679.00 0.9887
679.10 0.9869
679.20 0.985
679.30 0.9832
679.40 0.9813
679.50 0.9795
679.60 0.9776
679.70 0.9758
679.80 0.9739
679.90 0.9721
680.00 0.9702
680.10 0.9684
680.20 0.9665
680.30 0.9647
680.40 0.9628
680.50 0.961
680.60 0.9591
680.70 0.9573
680.80 0.9554
680.90 0.9536
681.00 0.9517
681.10 0.9499
681.20 0.948
681.30 0.9462
681.40 0.9443
681.50 0.9425
681.60 0.9406
681.70 0.9388
681.80 0.9369
681.90 0.9351
682.00 0.9332
682.10 0.9314
682.20 0.9295
682.30 0.9277
682.40 0.9258
682.50 0.924
682.60 0.9221
682.70 0.9203
682.80 0.9184
682.90 0.9166
683.00 0.9148
683.10 0.9129
683.20 0.9111
683.30 0.9092
683.40 0.9074
683.50 0.9055
683.60 0.9037
683.70 0.9019
683.80 0.9
683.90 0.8982
684.00 0.8963
684.10 0.8945
684.20 0.8927
684.30 0.8908
684.40 0.889
684.50 0.8871
684.60 0.8853
684.70 0.8835
684.80 0.8816
684.90 0.8798
685.00 0.8779
685.10 0.8761
685.20 0.8743
685.30 0.8724
685.40 0.8706
685.50 0.8688
685.60 0.867
685.70 0.8652
685.80 0.8633
685.90 0.8615
686.00 0.8597
686.10 0.8579
686.20 0.8561
686.30 0.8542
686.40 0.8524
686.50 0.8506
686.60 0.8488
686.70 0.847
686.80 0.8451
686.90 0.8433
687.00 0.8415
687.10 0.8397
687.20 0.8379
687.30 0.8361
687.40 0.8343
687.50 0.8325
687.60 0.8306
687.70 0.8288
687.80 0.827
687.90 0.8252
688.00 0.8234
688.10 0.8216
688.20 0.8198
688.30 0.818
688.40 0.8162
688.50 0.8144
688.60 0.8126
688.70 0.8108
688.80 0.809
688.90 0.8072
689.00 0.8054
689.10 0.8036
689.20 0.8018
689.30 0.8
689.40 0.7983
689.50 0.7965
689.60 0.7947
689.70 0.793
689.80 0.7912
689.90 0.7894
690.00 0.7876
690.10 0.7859
690.20 0.7841
690.30 0.7823
690.40 0.7806
690.50 0.7788
690.60 0.7771
690.70 0.7753
690.80 0.7735
690.90 0.7718
691.00 0.77
691.10 0.7683
691.20 0.7665
691.30 0.7647
691.40 0.763
691.50 0.7612
691.60 0.7595
691.70 0.7577
691.80 0.756
691.90 0.7542
692.00 0.7525
692.10 0.7507
692.20 0.749
692.30 0.7472
692.40 0.7455
692.50 0.7437
692.60 0.742
692.70 0.7403
692.80 0.7385
692.90 0.7368
693.00 0.735
693.10 0.7333
693.20 0.7316
693.30 0.7298
693.40 0.7281
693.50 0.7264
693.60 0.7246
693.70 0.7229
693.80 0.7212
693.90 0.7194
694.00 0.7177
694.10 0.716
694.20 0.7143
694.30 0.7125
694.40 0.7108
694.50 0.7091
694.60 0.7074
694.70 0.7056
694.80 0.7039
694.90 0.7022
695.00 0.7005
695.10 0.6988
695.20 0.6971
695.30 0.6955
695.40 0.6938
695.50 0.6922
695.60 0.6905
695.70 0.6889
695.80 0.6872
695.90 0.6855
696.00 0.6839
696.10 0.6822
696.20 0.6806
696.30 0.6789
696.40 0.6773
696.50 0.6756
696.60 0.674
696.70 0.6723
696.80 0.6707
696.90 0.6691
697.00 0.6674
697.10 0.6658
697.20 0.6641
697.30 0.6625
697.40 0.6608
697.50 0.6592
697.60 0.6576
697.70 0.6559
697.80 0.6543
697.90 0.6527
698.00 0.651
698.10 0.6494
698.20 0.6478
698.30 0.6461
698.40 0.6445
698.50 0.6429
698.60 0.6412
698.70 0.6396
698.80 0.638
698.90 0.6364
699.00 0.6347
699.10 0.6331
699.20 0.6315
699.30 0.6299
699.40 0.6282
699.50 0.6266
699.60 0.625
699.70 0.6234
699.80 0.6218
699.90 0.6201
700.00 0.6185
700.10 0.617
700.20 0.6155
700.30 0.6139
700.40 0.6124
700.50 0.6109
700.60 0.6093
700.70 0.6078
700.80 0.6063
700.90 0.6047
701.00 0.6032
701.10 0.6017
701.20 0.6002
701.30 0.5986
701.40 0.5971
701.50 0.5956
701.60 0.5941
701.70 0.5926
701.80 0.591
701.90 0.5895
702.00 0.588
702.10 0.5865
702.20 0.585
702.30 0.5834
702.40 0.5819
702.50 0.5804
702.60 0.5789
702.70 0.5774
702.80 0.5759
702.90 0.5744
703.00 0.5729
703.10 0.5714
703.20 0.5698
703.30 0.5683
703.40 0.5668
703.50 0.5653
703.60 0.5638
703.70 0.5623
703.80 0.5608
703.90 0.5593
704.00 0.5578
704.10 0.5563
704.20 0.5548
704.30 0.5533
704.40 0.5518
704.50 0.5503
704.60 0.5488
704.70 0.5473
704.80 0.5458
704.90 0.5443
705.00 0.5428
705.10 0.5415
705.20 0.5401
705.30 0.5387
705.40 0.5373
705.50 0.5359
705.60 0.5346
705.70 0.5332
705.80 0.5318
705.90 0.5304
706.00 0.529
706.10 0.5277
706.20 0.5263
706.30 0.5249
706.40 0.5236
706.50 0.5222
706.60 0.5208
706.70 0.5194
706.80 0.5181
706.90 0.5167
707.00 0.5153
707.10 0.514
707.20 0.5126
707.30 0.5112
707.40 0.5099
707.50 0.5085
707.60 0.5071
707.70 0.5058
707.80 0.5044
707.90 0.5031
708.00 0.5017
708.10 0.5003
708.20 0.499
708.30 0.4976
708.40 0.4963
708.50 0.4949
708.60 0.4936
708.70 0.4922
708.80 0.4908
708.90 0.4895
709.00 0.4881
709.10 0.4868
709.20 0.4854
709.30 0.4841
709.40 0.4827
709.50 0.4814
709.60 0.48
709.70 0.4787
709.80 0.4773
709.90 0.476
710.00 0.4746
710.10 0.4734
710.20 0.4722
710.30 0.471
710.40 0.4697
710.50 0.4685
710.60 0.4673
710.70 0.4661
710.80 0.4648
710.90 0.4636
711.00 0.4624
711.10 0.4612
711.20 0.46
711.30 0.4587
711.40 0.4575
711.50 0.4563
711.60 0.4551
711.70 0.4539
711.80 0.4527
711.90 0.4514
712.00 0.4502
712.10 0.449
712.20 0.4478
712.30 0.4466
712.40 0.4454
712.50 0.4442
712.60 0.443
712.70 0.4418
712.80 0.4405
712.90 0.4393
713.00 0.4381
713.10 0.4369
713.20 0.4357
713.30 0.4345
713.40 0.4333
713.50 0.4321
713.60 0.4309
713.70 0.4297
713.80 0.4285
713.90 0.4273
714.00 0.4261
714.10 0.4249
714.20 0.4237
714.30 0.4225
714.40 0.4213
714.50 0.4201
714.60 0.4189
714.70 0.4177
714.80 0.4165
714.90 0.4153
715.00 0.4141
715.10 0.413
715.20 0.412
715.30 0.4109
715.40 0.4098
715.50 0.4088
715.60 0.4077
715.70 0.4066
715.80 0.4056
715.90 0.4045
716.00 0.4034
716.10 0.4024
716.20 0.4013
716.30 0.4003
716.40 0.3992
716.50 0.3981
716.60 0.3971
716.70 0.396
716.80 0.395
716.90 0.3939
717.00 0.3928
717.10 0.3918
717.20 0.3907
717.30 0.3897
717.40 0.3886
717.50 0.3876
717.60 0.3865
717.70 0.3854
717.80 0.3844
717.90 0.3833
718.00 0.3823
718.10 0.3812
718.20 0.3802
718.30 0.3791
718.40 0.3781
718.50 0.377
718.60 0.376
718.70 0.3749
718.80 0.3739
718.90 0.3728
719.00 0.3718
719.10 0.3707
719.20 0.3697
719.30 0.3687
719.40 0.3676
719.50 0.3666
719.60 0.3655
719.70 0.3645
719.80 0.3634
719.90 0.3624
720.00 0.3614
720.10 0.3604
720.20 0.3595
720.30 0.3586
720.40 0.3577
720.50 0.3568
720.60 0.3559
720.70 0.355
720.80 0.3541
720.90 0.3532
721.00 0.3523
721.10 0.3514
721.20 0.3505
721.30 0.3496
721.40 0.3487
721.50 0.3477
721.60 0.3468
721.70 0.3459
721.80 0.345
721.90 0.3441
722.00 0.3432
722.10 0.3423
722.20 0.3414
722.30 0.3405
722.40 0.3396
722.50 0.3387
722.60 0.3378
722.70 0.3369
722.80 0.336
722.90 0.3351
723.00 0.3342
723.10 0.3333
723.20 0.3325
723.30 0.3316
723.40 0.3307
723.50 0.3298
723.60 0.3289
723.70 0.328
723.80 0.3271
723.90 0.3262
724.00 0.3253
724.10 0.3244
724.20 0.3235
724.30 0.3226
724.40 0.3217
724.50 0.3208
724.60 0.32
724.70 0.3191
724.80 0.3182
724.90 0.3173
725.00 0.3164
725.10 0.3156
725.20 0.3149
725.30 0.3141
725.40 0.3134
725.50 0.3126
725.60 0.3118
725.70 0.3111
725.80 0.3103
725.90 0.3095
726.00 0.3088
726.10 0.308
726.20 0.3073
726.30 0.3065
726.40 0.3058
726.50 0.305
726.60 0.3042
726.70 0.3035
726.80 0.3027
726.90 0.302
727.00 0.3012
727.10 0.3005
727.20 0.2997
727.30 0.2989
727.40 0.2982
727.50 0.2974
727.60 0.2967
727.70 0.2959
727.80 0.2952
727.90 0.2944
728.00 0.2937
728.10 0.2929
728.20 0.2922
728.30 0.2914
728.40 0.2907
728.50 0.2899
728.60 0.2892
728.70 0.2884
728.80 0.2877
728.90 0.2869
729.00 0.2862
729.10 0.2854
729.20 0.2847
729.30 0.2839
729.40 0.2832
729.50 0.2824
729.60 0.2817
729.70 0.2809
729.80 0.2802
729.90 0.2795
730.00 0.2787
730.10 0.2782
730.20 0.2776
730.30 0.2771
730.40 0.2765
730.50 0.276
730.60 0.2754
730.70 0.2749
730.80 0.2743
730.90 0.2738
731.00 0.2733
731.10 0.2727
731.20 0.2722
731.30 0.2716
731.40 0.2711
731.50 0.2705
731.60 0.27
731.70 0.2695
731.80 0.2689
731.90 0.2684
732.00 0.2678
732.10 0.2673
732.20 0.2668
732.30 0.2662
732.40 0.2657
732.50 0.2651
732.60 0.2646
732.70 0.2641
732.80 0.2635
732.90 0.263
733.00 0.2625
733.10 0.2619
733.20 0.2614
733.30 0.2608
733.40 0.2603
733.50 0.2598
733.60 0.2592
733.70 0.2587
733.80 0.2582
733.90 0.2576
734.00 0.2571
734.10 0.2566
734.20 0.256
734.30 0.2555
734.40 0.255
734.50 0.2544
734.60 0.2539
734.70 0.2534
734.80 0.2528
734.90 0.2523
735.00 0.2518
735.10 0.2512
735.20 0.2507
735.30 0.2502
735.40 0.2496
735.50 0.2491
735.60 0.2486
735.70 0.248
735.80 0.2475
735.90 0.247
736.00 0.2465
736.10 0.2459
736.20 0.2454
736.30 0.2449
736.40 0.2443
736.50 0.2438
736.60 0.2433
736.70 0.2428
736.80 0.2422
736.90 0.2417
737.00 0.2412
737.10 0.2407
737.20 0.2401
737.30 0.2396
737.40 0.2391
737.50 0.2386
737.60 0.238
737.70 0.2375
737.80 0.237
737.90 0.2365
738.00 0.2359
738.10 0.2354
738.20 0.2349
738.30 0.2344
738.40 0.2338
738.50 0.2333
738.60 0.2328
738.70 0.2323
738.80 0.2318
738.90 0.2312
739.00 0.2307
739.10 0.2302
739.20 0.2297
739.30 0.2291
739.40 0.2286
739.50 0.2281
739.60 0.2276
739.70 0.2271
739.80 0.2266
739.90 0.226
740.00 0.2255
740.10 0.2252
740.20 0.2249
740.30 0.2245
740.40 0.2242
740.50 0.2239
740.60 0.2236
740.70 0.2233
740.80 0.2229
740.90 0.2226
741.00 0.2223
741.10 0.222
741.20 0.2217
741.30 0.2213
741.40 0.221
741.50 0.2207
741.60 0.2204
741.70 0.2201
741.80 0.2197
741.90 0.2194
742.00 0.2191
742.10 0.2188
742.20 0.2185
742.30 0.2181
742.40 0.2178
742.50 0.2175
742.60 0.2172
742.70 0.2169
742.80 0.2166
742.90 0.2162
743.00 0.2159
743.10 0.2156
743.20 0.2153
743.30 0.215
743.40 0.2147
743.50 0.2143
743.60 0.214
743.70 0.2137
743.80 0.2134
743.90 0.2131
744.00 0.2128
744.10 0.2124
744.20 0.2121
744.30 0.2118
744.40 0.2115
744.50 0.2112
744.60 0.2109
744.70 0.2105
744.80 0.2102
744.90 0.2099
745.00 0.2096
745.10 0.2093
745.20 0.209
745.30 0.2087
745.40 0.2084
745.50 0.208
745.60 0.2077
745.70 0.2074
745.80 0.2071
745.90 0.2068
746.00 0.2065
746.10 0.2062
746.20 0.2058
746.30 0.2055
746.40 0.2052
746.50 0.2049
746.60 0.2046
746.70 0.2043
746.80 0.204
746.90 0.2037
747.00 0.2034
747.10 0.203
747.20 0.2027
747.30 0.2024
747.40 0.2021
747.50 0.2018
747.60 0.2015
747.70 0.2012
747.80 0.2009
747.90 0.2006
748.00 0.2003
748.10 0.1999
748.20 0.1996
748.30 0.1993
748.40 0.199
748.50 0.1987
748.60 0.1984
748.70 0.1981
748.80 0.1978
748.90 0.1975
749.00 0.1972
749.10 0.1969
749.20 0.1966
749.30 0.1962
749.40 0.1959
749.50 0.1956
749.60 0.1953
749.70 0.195
749.80 0.1947
749.90 0.1944
750.00 0.1941
750.10 0.1939
750.20 0.1937
750.30 0.1935
750.40 0.1933
750.50 0.1931
750.60 0.1929
750.70 0.1928
750.80 0.1926
750.90 0.1924
751.00 0.1922
751.10 0.192
751.20 0.1918
751.30 0.1916
751.40 0.1914
751.50 0.1912
751.60 0.191
751.70 0.1908
751.80 0.1906
751.90 0.1905
752.00 0.1903
752.10 0.1901
752.20 0.1899
752.30 0.1897
752.40 0.1895
752.50 0.1893
752.60 0.1891
752.70 0.1889
752.80 0.1887
752.90 0.1885
753.00 0.1884
753.10 0.1882
753.20 0.188
753.30 0.1878
753.40 0.1876
753.50 0.1874
753.60 0.1872
753.70 0.187
753.80 0.1868
753.90 0.1867
754.00 0.1865
754.10 0.1863
754.20 0.1861
754.30 0.1859
754.40 0.1857
754.50 0.1855
754.60 0.1853
754.70 0.1851
754.80 0.185
754.90 0.1848
755.00 0.1846
755.10 0.1844
755.20 0.1842
755.30 0.184
755.40 0.1838
755.50 0.1836
755.60 0.1835
755.70 0.1833
755.80 0.1831
755.90 0.1829
756.00 0.1827
756.10 0.1825
756.20 0.1823
756.30 0.1821
756.40 0.182
756.50 0.1818
756.60 0.1816
756.70 0.1814
756.80 0.1812
756.90 0.181
757.00 0.1808
757.10 0.1806
757.20 0.1805
757.30 0.1803
757.40 0.1801
757.50 0.1799
757.60 0.1797
757.70 0.1795
757.80 0.1793
757.90 0.1792
758.00 0.179
758.10 0.1788
758.20 0.1786
758.30 0.1784
758.40 0.1782
758.50 0.1781
758.60 0.1779
758.70 0.1777
758.80 0.1775
758.90 0.1773
759.00 0.1771
759.10 0.1769
759.20 0.1768
759.30 0.1766
759.40 0.1764
759.50 0.1762
759.60 0.176
759.70 0.1758
759.80 0.1757
759.90 0.1755
760.00 0.1753
760.10 0.1752
760.20 0.1751
760.30 0.1749
760.40 0.1748
760.50 0.1747
760.60 0.1746
760.70 0.1745
760.80 0.1743
760.90 0.1742
761.00 0.1741
761.10 0.174
761.20 0.1739
761.30 0.1737
761.40 0.1736
761.50 0.1735
761.60 0.1734
761.70 0.1733
761.80 0.1732
761.90 0.173
762.00 0.1729
762.10 0.1728
762.20 0.1727
762.30 0.1726
762.40 0.1724
762.50 0.1723
762.60 0.1722
762.70 0.1721
762.80 0.172
762.90 0.1719
763.00 0.1717
763.10 0.1716
763.20 0.1715
763.30 0.1714
763.40 0.1713
763.50 0.1712
763.60 0.171
763.70 0.1709
763.80 0.1708
763.90 0.1707
764.00 0.1706
764.10 0.1705
764.20 0.1703
764.30 0.1702
764.40 0.1701
764.50 0.17
764.60 0.1699
764.70 0.1698
764.80 0.1696
764.90 0.1695
765.00 0.1694
765.10 0.1693
765.20 0.1692
765.30 0.1691
765.40 0.1689
765.50 0.1688
765.60 0.1687
765.70 0.1686
765.80 0.1685
765.90 0.1684
766.00 0.1682
766.10 0.1681
766.20 0.168
766.30 0.1679
766.40 0.1678
766.50 0.1677
766.60 0.1676
766.70 0.1674
766.80 0.1673
766.90 0.1672
767.00 0.1671
767.10 0.167
767.20 0.1669
767.30 0.1667
767.40 0.1666
767.50 0.1665
767.60 0.1664
767.70 0.1663
767.80 0.1662
767.90 0.1661
768.00 0.1659
768.10 0.1658
768.20 0.1657
768.30 0.1656
768.40 0.1655
768.50 0.1654
768.60 0.1653
768.70 0.1651
768.80 0.165
768.90 0.1649
769.00 0.1648
769.10 0.1647
769.20 0.1646
769.30 0.1645
769.40 0.1643
769.50 0.1642
769.60 0.1641
769.70 0.164
769.80 0.1639
769.90 0.1638
770.00 0.1637
770.10 0.1636
770.20 0.1635
770.30 0.1635
770.40 0.1634
770.50 0.1634
770.60 0.1633
770.70 0.1633
770.80 0.1632
770.90 0.1631
771.00 0.1631
771.10 0.163
771.20 0.163
771.30 0.1629
771.40 0.1628
771.50 0.1628
771.60 0.1627
771.70 0.1627
771.80 0.1626
771.90 0.1626
772.00 0.1625
772.10 0.1624
772.20 0.1624
772.30 0.1623
772.40 0.1623
772.50 0.1622
772.60 0.1622
772.70 0.1621
772.80 0.162
772.90 0.162
773.00 0.1619
773.10 0.1619
773.20 0.1618
773.30 0.1618
773.40 0.1617
773.50 0.1616
773.60 0.1616
773.70 0.1615
773.80 0.1615
773.90 0.1614
774.00 0.1614
774.10 0.1613
774.20 0.1612
774.30 0.1612
774.40 0.1611
774.50 0.1611
774.60 0.161
774.70 0.161
774.80 0.1609
774.90 0.1608
775.00 0.1608
775.10 0.1607
775.20 0.1607
775.30 0.1606
775.40 0.1606
775.50 0.1605
775.60 0.1604
775.70 0.1604
775.80 0.1603
775.90 0.1603
776.00 0.1602
776.10 0.1602
776.20 0.1601
776.30 0.16
776.40 0.16
776.50 0.1599
776.60 0.1599
776.70 0.1598
776.80 0.1598
776.90 0.1597
777.00 0.1597
777.10 0.1596
777.20 0.1595
777.30 0.1595
777.40 0.1594
777.50 0.1594
777.60 0.1593
777.70 0.1593
777.80 0.1592
777.90 0.1591
778.00 0.1591
778.10 0.159
778.20 0.159
778.30 0.1589
778.40 0.1589
778.50 0.1588
778.60 0.1588
778.70 0.1587
778.80 0.1586
778.90 0.1586
779.00 0.1585
779.10 0.1585
779.20 0.1584
779.30 0.1584
779.40 0.1583
779.50 0.1582
779.60 0.1582
779.70 0.1581
779.80 0.1581
779.90 0.158
780.00 0.158
780.10 0.158
780.20 0.158
780.30 0.1581
780.40 0.1581
780.50 0.1582
780.60 0.1582
780.70 0.1582
780.80 0.1583
780.90 0.1583
781.00 0.1583
781.10 0.1584
781.20 0.1584
781.30 0.1584
781.40 0.1585
781.50 0.1585
781.60 0.1586
781.70 0.1586
781.80 0.1586
781.90 0.1587
782.00 0.1587
782.10 0.1587
782.20 0.1588
782.30 0.1588
782.40 0.1589
782.50 0.1589
782.60 0.1589
782.70 0.159
782.80 0.159
782.90 0.159
783.00 0.1591
783.10 0.1591
783.20 0.1591
783.30 0.1592
783.40 0.1592
783.50 0.1592
783.60 0.1593
783.70 0.1593
783.80 0.1594
783.90 0.1594
784.00 0.1594
784.10 0.1595
784.20 0.1595
784.30 0.1595
784.40 0.1596
784.50 0.1596
784.60 0.1596
784.70 0.1597
784.80 0.1597
784.90 0.1598
785.00 0.1598
785.10 0.1598
785.20 0.1599
785.30 0.1599
785.40 0.1599
785.50 0.16
785.60 0.16
785.70 0.16
785.80 0.1601
785.90 0.1601
786.00 0.1601
786.10 0.1602
786.20 0.1602
786.30 0.1603
786.40 0.1603
786.50 0.1603
786.60 0.1604
786.70 0.1604
786.80 0.1604
786.90 0.1605
787.00 0.1605
787.10 0.1605
787.20 0.1606
787.30 0.1606
787.40 0.1606
787.50 0.1607
787.60 0.1607
787.70 0.1607
787.80 0.1608
787.90 0.1608
788.00 0.1609
788.10 0.1609
788.20 0.1609
788.30 0.161
788.40 0.161
788.50 0.161
788.60 0.1611
788.70 0.1611
788.80 0.1611
788.90 0.1612
789.00 0.1612
789.10 0.1612
789.20 0.1613
789.30 0.1613
789.40 0.1613
789.50 0.1614
789.60 0.1614
789.70 0.1614
789.80 0.1615
789.90 0.1615
790.00 0.1615
790.10 0.1616
790.20 0.1617
790.30 0.1618
790.40 0.1619
790.50 0.162
790.60 0.1621
790.70 0.1622
790.80 0.1622
790.90 0.1623
791.00 0.1624
791.10 0.1625
791.20 0.1626
791.30 0.1627
791.40 0.1628
791.50 0.1628
791.60 0.1629
791.70 0.163
791.80 0.1631
791.90 0.1632
792.00 0.1633
792.10 0.1634
792.20 0.1634
792.30 0.1635
792.40 0.1636
792.50 0.1637
792.60 0.1638
792.70 0.1639
792.80 0.164
792.90 0.164
793.00 0.1641
793.10 0.1642
793.20 0.1643
793.30 0.1644
793.40 0.1645
793.50 0.1646
793.60 0.1646
793.70 0.1647
793.80 0.1648
793.90 0.1649
794.00 0.165
794.10 0.1651
794.20 0.1651
794.30 0.1652
794.40 0.1653
794.50 0.1654
794.60 0.1655
794.70 0.1656
794.80 0.1657
794.90 0.1657
795.00 0.1658
795.10 0.1659
795.20 0.166
795.30 0.1661
795.40 0.1662
795.50 0.1662
795.60 0.1663
795.70 0.1664
795.80 0.1665
795.90 0.1666
796.00 0.1667
796.10 0.1667
796.20 0.1668
796.30 0.1669
796.40 0.167
796.50 0.1671
796.60 0.1672
796.70 0.1672
796.80 0.1673
796.90 0.1674
797.00 0.1675
797.10 0.1676
797.20 0.1677
797.30 0.1677
797.40 0.1678
797.50 0.1679
797.60 0.168
797.70 0.1681
797.80 0.1682
797.90 0.1682
798.00 0.1683
798.10 0.1684
798.20 0.1685
798.30 0.1686
798.40 0.1687
798.50 0.1687
798.60 0.1688
798.70 0.1689
798.80 0.169
798.90 0.1691
799.00 0.1692
799.10 0.1692
799.20 0.1693
799.30 0.1694
799.40 0.1695
799.50 0.1696
799.60 0.1696
799.70 0.1697
799.80 0.1698
799.90 0.1699
800.00 0.17
800.10 0.17
800.20 0.1701
800.30 0.1701
800.40 0.1702
800.50 0.1702
800.60 0.1703
800.70 0.1703
800.80 0.1703
800.90 0.1704
801.00 0.1704
801.10 0.1705
801.20 0.1705
801.30 0.1706
801.40 0.1706
801.50 0.1707
801.60 0.1707
801.70 0.1708
801.80 0.1708
801.90 0.1708
802.00 0.1709
802.10 0.1709
802.20 0.171
802.30 0.171
802.40 0.1711
802.50 0.1711
802.60 0.1712
802.70 0.1712
802.80 0.1713
802.90 0.1713
803.00 0.1713
803.10 0.1714
803.20 0.1714
803.30 0.1715
803.40 0.1715
803.50 0.1716
803.60 0.1716
803.70 0.1717
803.80 0.1717
803.90 0.1718
804.00 0.1718
804.10 0.1718
804.20 0.1719
804.30 0.1719
804.40 0.172
804.50 0.172
804.60 0.1721
804.70 0.1721
804.80 0.1722
804.90 0.1722
805.00 0.1723
805.10 0.1723
805.20 0.1723
805.30 0.1724
805.40 0.1724
805.50 0.1725
805.60 0.1725
805.70 0.1726
805.80 0.1726
805.90 0.1727
806.00 0.1727
806.10 0.1727
806.20 0.1728
806.30 0.1728
806.40 0.1729
806.50 0.1729
806.60 0.173
806.70 0.173
806.80 0.1731
806.90 0.1731
807.00 0.1731
807.10 0.1732
807.20 0.1732
807.30 0.1733
807.40 0.1733
807.50 0.1734
807.60 0.1734
807.70 0.1735
807.80 0.1735
807.90 0.1735
808.00 0.1736
808.10 0.1736
808.20 0.1737
808.30 0.1737
808.40 0.1738
808.50 0.1738
808.60 0.1738
808.70 0.1739
808.80 0.1739
808.90 0.174
809.00 0.174
809.10 0.1741
809.20 0.1741
809.30 0.1742
809.40 0.1742
809.50 0.1742
809.60 0.1743
809.70 0.1743
809.80 0.1744
809.90 0.1744
810.00 0.1745
810.10 0.1745
810.20 0.1745
810.30 0.1745
810.40 0.1745
810.50 0.1745
810.60 0.1746
810.70 0.1746
810.80 0.1746
810.90 0.1746
811.00 0.1746
811.10 0.1746
811.20 0.1746
811.30 0.1747
811.40 0.1747
811.50 0.1747
811.60 0.1747
811.70 0.1747
811.80 0.1747
811.90 0.1747
812.00 0.1748
812.10 0.1748
812.20 0.1748
812.30 0.1748
812.40 0.1748
812.50 0.1748
812.60 0.1748
812.70 0.1749
812.80 0.1749
812.90 0.1749
813.00 0.1749
813.10 0.1749
813.20 0.1749
813.30 0.175
813.40 0.175
813.50 0.175
813.60 0.175
813.70 0.175
813.80 0.175
813.90 0.175
814.00 0.1751
814.10 0.1751
814.20 0.1751
814.30 0.1751
814.40 0.1751
814.50 0.1751
814.60 0.1751
814.70 0.1752
814.80 0.1752
814.90 0.1752
815.00 0.1752
815.10 0.1752
815.20 0.1752
815.30 0.1752
815.40 0.1753
815.50 0.1753
815.60 0.1753
815.70 0.1753
815.80 0.1753
815.90 0.1753
816.00 0.1753
816.10 0.1754
816.20 0.1754
816.30 0.1754
816.40 0.1754
816.50 0.1754
816.60 0.1754
816.70 0.1754
816.80 0.1755
816.90 0.1755
817.00 0.1755
817.10 0.1755
817.20 0.1755
817.30 0.1755
817.40 0.1755
817.50 0.1756
817.60 0.1756
817.70 0.1756
817.80 0.1756
817.90 0.1756
818.00 0.1756
818.10 0.1756
818.20 0.1757
818.30 0.1757
818.40 0.1757
818.50 0.1757
818.60 0.1757
818.70 0.1757
818.80 0.1757
818.90 0.1757
819.00 0.1758
819.10 0.1758
819.20 0.1758
819.30 0.1758
819.40 0.1758
819.50 0.1758
819.60 0.1758
819.70 0.1759
819.80 0.1759
819.90 0.1759
820.00 0.1759
820.10 0.1759
820.20 0.176
820.30 0.176
820.40 0.176
820.50 0.1761
820.60 0.1761
820.70 0.1761
820.80 0.1762
820.90 0.1762
821.00 0.1763
821.10 0.1763
821.20 0.1763
821.30 0.1764
821.40 0.1764
821.50 0.1764
821.60 0.1765
821.70 0.1765
821.80 0.1766
821.90 0.1766
822.00 0.1766
822.10 0.1767
822.20 0.1767
822.30 0.1768
822.40 0.1769
822.50 0.1769
822.60 0.177
822.70 0.177
822.80 0.1771
822.90 0.1771
823.00 0.1772
823.10 0.1772
823.20 0.1773
823.30 0.1773
823.40 0.1774
823.50 0.1775
823.60 0.1775
823.70 0.1776
823.80 0.1776
823.90 0.1777
824.00 0.1777
824.10 0.1778
824.20 0.1778
824.30 0.1779
824.40 0.1779
824.50 0.178
824.60 0.1781
824.70 0.1781
824.80 0.1782
824.90 0.1782
825.00 0.1783
825.10 0.1783
825.20 0.1784
825.30 0.1784
825.40 0.1785
825.50 0.1785
825.60 0.1786
825.70 0.1786
825.80 0.1787
825.90 0.1788
826.00 0.1788
826.10 0.1789
826.20 0.1789
826.30 0.179
826.40 0.179
826.50 0.1791
826.60 0.1791
826.70 0.1792
826.80 0.1792
826.90 0.1793
827.00 0.1793
827.10 0.1794
827.20 0.1795
827.30 0.1795
827.40 0.1796
827.50 0.1797
827.60 0.1797
827.70 0.1798
827.80 0.1799
827.90 0.1799
828.00 0.18
828.10 0.1801
828.20 0.1801
828.30 0.1802
828.40 0.1802
828.50 0.1803
828.60 0.1804
828.70 0.1804
828.80 0.1805
828.90 0.1806
829.00 0.1806
829.10 0.1807
829.20 0.1808
829.30 0.1808
829.40 0.1809
829.50 0.181
829.60 0.181
829.70 0.1811
829.80 0.1811
829.90 0.1812
830.00 0.1813
830.10 0.1813
830.20 0.1814
830.30 0.1815
830.40 0.1815
830.50 0.1816
830.60 0.1817
830.70 0.1817
830.80 0.1818
830.90 0.1819
831.00 0.1819
831.10 0.182
831.20 0.182
831.30 0.1821
831.40 0.1822
831.50 0.1822
831.60 0.1823
831.70 0.1824
831.80 0.1824
831.90 0.1825
832.00 0.1825
832.10 0.1826
832.20 0.1826
832.30 0.1827
832.40 0.1827
832.50 0.1828
832.60 0.1828
832.70 0.1829
832.80 0.1829
832.90 0.183
833.00 0.183
833.10 0.1831
833.20 0.1831
833.30 0.1832
833.40 0.1832
833.50 0.1833
833.60 0.1833
833.70 0.1834
833.80 0.1834
833.90 0.1835
834.00 0.1835
834.10 0.1836
834.20 0.1836
834.30 0.1836
834.40 0.1837
834.50 0.1837
834.60 0.1838
834.70 0.1838
834.80 0.1839
834.90 0.1839
835.00 0.184
835.10 0.184
835.20 0.1841
835.30 0.1841
835.40 0.1842
835.50 0.1842
835.60 0.1843
835.70 0.1843
835.80 0.1844
835.90 0.1844
836.00 0.1845
836.10 0.1845
836.20 0.1845
836.30 0.1846
836.40 0.1846
836.50 0.1847
836.60 0.1847
836.70 0.1848
836.80 0.1848
836.90 0.1849
837.00 0.1849
837.10 0.185
837.20 0.185
837.30 0.185
837.40 0.1851
837.50 0.1851
837.60 0.1851
837.70 0.1852
837.80 0.1852
837.90 0.1852
838.00 0.1853
838.10 0.1853
838.20 0.1854
838.30 0.1854
838.40 0.1854
838.50 0.1855
838.60 0.1855
838.70 0.1855
838.80 0.1856
838.90 0.1856
839.00 0.1856
839.10 0.1857
839.20 0.1857
839.30 0.1857
839.40 0.1858
839.50 0.1858
839.60 0.1859
839.70 0.1859
839.80 0.1859
839.90 0.186
840.00 0.186
840.10 0.186
840.20 0.1861
840.30 0.1861
840.40 0.1861
840.50 0.1862
840.60 0.1862
840.70 0.1862
840.80 0.1863
840.90 0.1863
841.00 0.1863
841.10 0.1864
841.20 0.1864
841.30 0.1865
841.40 0.1865
841.50 0.1865
841.60 0.1866
841.70 0.1866
841.80 0.1866
841.90 0.1867
842.00 0.1867
842.10 0.1867
842.20 0.1867
842.30 0.1868
842.40 0.1868
842.50 0.1868
842.60 0.1868
842.70 0.1869
842.80 0.1869
842.90 0.1869
843.00 0.1869
843.10 0.187
843.20 0.187
843.30 0.187
843.40 0.187
843.50 0.1871
843.60 0.1871
843.70 0.1871
843.80 0.1871
843.90 0.1872
844.00 0.1872
844.10 0.1872
844.20 0.1872
844.30 0.1873
844.40 0.1873
844.50 0.1873
844.60 0.1873
844.70 0.1874
844.80 0.1874
844.90 0.1874
845.00 0.1874
845.10 0.1874
845.20 0.1875
845.30 0.1875
845.40 0.1875
845.50 0.1875
845.60 0.1876
845.70 0.1876
845.80 0.1876
845.90 0.1876
846.00 0.1877
846.10 0.1877
846.20 0.1877
846.30 0.1877
846.40 0.1878
846.50 0.1878
846.60 0.1878
846.70 0.1878
846.80 0.1879
846.90 0.1879
847.00 0.1879
847.10 0.1879
847.20 0.1879
847.30 0.188
847.40 0.188
847.50 0.188
847.60 0.1881
847.70 0.1881
847.80 0.1881
847.90 0.1881
848.00 0.1882
848.10 0.1882
848.20 0.1882
848.30 0.1882
848.40 0.1883
848.50 0.1883
848.60 0.1883
848.70 0.1883
848.80 0.1884
848.90 0.1884
849.00 0.1884
849.10 0.1884
849.20 0.1885
849.30 0.1885
849.40 0.1885
849.50 0.1885
849.60 0.1886
849.70 0.1886
849.80 0.1886
849.90 0.1886
850.00 0.1887
850.10 0.1887
850.20 0.1887
850.30 0.1887
850.40 0.1888
850.50 0.1888
850.60 0.1888
850.70 0.1888
850.80 0.1889
850.90 0.1889
851.00 0.1889
851.10 0.1889
851.20 0.189
851.30 0.189
851.40 0.189
851.50 0.189
851.60 0.1891
851.70 0.1891
851.80 0.1891
851.90 0.1891
852.00 0.1891
852.10 0.1892
852.20 0.1892
852.30 0.1892
852.40 0.1893
852.50 0.1893
852.60 0.1893
852.70 0.1894
852.80 0.1894
852.90 0.1894
853.00 0.1894
853.10 0.1895
853.20 0.1895
853.30 0.1895
853.40 0.1896
853.50 0.1896
853.60 0.1896
853.70 0.1896
853.80 0.1897
853.90 0.1897
854.00 0.1897
854.10 0.1898
854.20 0.1898
854.30 0.1898
854.40 0.1898
854.50 0.1899
854.60 0.1899
854.70 0.1899
854.80 0.19
854.90 0.19
855.00 0.19
855.10 0.1901
855.20 0.1901
855.30 0.1901
855.40 0.1901
855.50 0.1902
855.60 0.1902
855.70 0.1902
855.80 0.1903
855.90 0.1903
856.00 0.1903
856.10 0.1903
856.20 0.1904
856.30 0.1904
856.40 0.1904
856.50 0.1905
856.60 0.1905
856.70 0.1905
856.80 0.1905
856.90 0.1906
857.00 0.1906
857.10 0.1906
857.20 0.1907
857.30 0.1907
857.40 0.1907
857.50 0.1908
857.60 0.1908
857.70 0.1908
857.80 0.1909
857.90 0.1909
858.00 0.1909
858.10 0.191
858.20 0.191
858.30 0.191
858.40 0.1911
858.50 0.1911
858.60 0.1911
858.70 0.1912
858.80 0.1912
858.90 0.1912
859.00 0.1913
859.10 0.1913
859.20 0.1913
859.30 0.1914
859.40 0.1914
859.50 0.1914
859.60 0.1915
859.70 0.1915
859.80 0.1915
859.90 0.1916
860.00 0.1916
860.10 0.1916
860.20 0.1917
860.30 0.1917
860.40 0.1917
860.50 0.1918
860.60 0.1918
860.70 0.1918
860.80 0.1919
860.90 0.1919
861.00 0.1919
861.10 0.192
861.20 0.192
861.30 0.192
861.40 0.1921
861.50 0.1921
861.60 0.1921
861.70 0.1922
861.80 0.1922
861.90 0.1922
862.00 0.1923
862.10 0.1923
862.20 0.1923
862.30 0.1924
862.40 0.1924
862.50 0.1925
862.60 0.1925
862.70 0.1926
862.80 0.1926
862.90 0.1926
863.00 0.1927
863.10 0.1927
863.20 0.1928
863.30 0.1928
863.40 0.1929
863.50 0.1929
863.60 0.1929
863.70 0.193
863.80 0.193
863.90 0.1931
864.00 0.1931
864.10 0.1931
864.20 0.1932
864.30 0.1932
864.40 0.1933
864.50 0.1933
864.60 0.1934
864.70 0.1934
864.80 0.1934
864.90 0.1935
865.00 0.1935
865.10 0.1936
865.20 0.1936
865.30 0.1937
865.40 0.1937
865.50 0.1937
865.60 0.1938
865.70 0.1938
865.80 0.1939
865.90 0.1939
866.00 0.194
866.10 0.194
866.20 0.194
866.30 0.1941
866.40 0.1941
866.50 0.1942
866.60 0.1942
866.70 0.1942
866.80 0.1943
866.90 0.1943
867.00 0.1944
867.10 0.1944
867.20 0.1944
867.30 0.1945
867.40 0.1945
867.50 0.1945
867.60 0.1945
867.70 0.1946
867.80 0.1946
867.90 0.1946
868.00 0.1947
868.10 0.1947
868.20 0.1947
868.30 0.1947
868.40 0.1948
868.50 0.1948
868.60 0.1948
868.70 0.1949
868.80 0.1949
868.90 0.1949
869.00 0.1949
869.10 0.195
869.20 0.195
869.30 0.195
869.40 0.1951
869.50 0.1951
869.60 0.1951
869.70 0.1951
869.80 0.1952
869.90 0.1952
870.00 0.1952
870.10 0.1952
870.20 0.1953
870.30 0.1953
870.40 0.1953
870.50 0.1954
870.60 0.1954
870.70 0.1954
870.80 0.1954
870.90 0.1955
871.00 0.1955
871.10 0.1955
871.20 0.1956
871.30 0.1956
871.40 0.1956
871.50 0.1956
871.60 0.1957
871.70 0.1957
871.80 0.1957
871.90 0.1958
872.00 0.1958
872.10 0.1958
872.20 0.1958
872.30 0.1958
872.40 0.1958
872.50 0.1959
872.60 0.1959
872.70 0.1959
872.80 0.1959
872.90 0.1959
873.00 0.1959
873.10 0.196
873.20 0.196
873.30 0.196
873.40 0.196
873.50 0.196
873.60 0.196
873.70 0.196
873.80 0.1961
873.90 0.1961
874.00 0.1961
874.10 0.1961
874.20 0.1961
874.30 0.1961
874.40 0.1962
874.50 0.1962
874.60 0.1962
874.70 0.1962
874.80 0.1962
874.90 0.1962
875.00 0.1962
875.10 0.1963
875.20 0.1963
875.30 0.1963
875.40 0.1963
875.50 0.1963
875.60 0.1963
875.70 0.1964
875.80 0.1964
875.90 0.1964
876.00 0.1964
876.10 0.1964
876.20 0.1964
876.30 0.1964
876.40 0.1965
876.50 0.1965
876.60 0.1965
876.70 0.1965
876.80 0.1965
876.90 0.1965
877.00 0.1965
877.10 0.1965
877.20 0.1965
877.30 0.1965
877.40 0.1965
877.50 0.1964
877.60 0.1964
877.70 0.1964
877.80 0.1964
877.90 0.1964
878.00 0.1963
878.10 0.1963
878.20 0.1963
878.30 0.1963
878.40 0.1963
878.50 0.1962
878.60 0.1962
878.70 0.1962
878.80 0.1962
878.90 0.1962
879.00 0.1961
879.10 0.1961
879.20 0.1961
879.30 0.1961
879.40 0.1961
879.50 0.196
879.60 0.196
879.70 0.196
879.80 0.196
879.90 0.196
880.00 0.1959
880.10 0.1959
880.20 0.1959
880.30 0.1959
880.40 0.1959
880.50 0.1958
880.60 0.1958
880.70 0.1958
880.80 0.1958
880.90 0.1958
881.00 0.1957
881.10 0.1957
881.20 0.1957
881.30 0.1957
881.40 0.1957
881.50 0.1956
881.60 0.1956
881.70 0.1956
881.80 0.1956
881.90 0.1956
882.00 0.1956
882.10 0.1955
882.20 0.1955
882.30 0.1954
882.40 0.1954
882.50 0.1953
882.60 0.1953
882.70 0.1952
882.80 0.1952
882.90 0.1951
883.00 0.1951
883.10 0.1951
883.20 0.195
883.30 0.195
883.40 0.1949
883.50 0.1949
883.60 0.1948
883.70 0.1948
883.80 0.1947
883.90 0.1947
884.00 0.1947
884.10 0.1946
884.20 0.1946
884.30 0.1945
884.40 0.1945
884.50 0.1944
884.60 0.1944
884.70 0.1943
884.80 0.1943
884.90 0.1942
885.00 0.1942
885.10 0.1942
885.20 0.1941
885.30 0.1941
885.40 0.194
885.50 0.194
885.60 0.1939
885.70 0.1939
885.80 0.1938
885.90 0.1938
886.00 0.1938
886.10 0.1937
886.20 0.1937
886.30 0.1936
886.40 0.1936
886.50 0.1935
886.60 0.1935
886.70 0.1934
886.80 0.1934
886.90 0.1934
887.00 0.1933
887.10 0.1932
887.20 0.1932
887.30 0.1931
887.40 0.193
887.50 0.193
887.60 0.1929
887.70 0.1928
887.80 0.1928
887.90 0.1927
888.00 0.1926
888.10 0.1926
888.20 0.1925
888.30 0.1924
888.40 0.1924
888.50 0.1923
888.60 0.1922
888.70 0.1921
888.80 0.1921
888.90 0.192
889.00 0.1919
889.10 0.1919
889.20 0.1918
889.30 0.1917
889.40 0.1917
889.50 0.1916
889.60 0.1915
889.70 0.1915
889.80 0.1914
889.90 0.1913
890.00 0.1913
890.10 0.1912
890.20 0.1911
890.30 0.1911
890.40 0.191
890.50 0.1909
890.60 0.1909
890.70 0.1908
890.80 0.1907
890.90 0.1906
891.00 0.1906
891.10 0.1905
891.20 0.1904
891.30 0.1904
891.40 0.1903
891.50 0.1902
891.60 0.1902
891.70 0.1901
891.80 0.19
891.90 0.19
892.00 0.1899
892.10 0.1898
892.20 0.1897
892.30 0.1897
892.40 0.1896
892.50 0.1895
892.60 0.1894
892.70 0.1893
892.80 0.1893
892.90 0.1892
893.00 0.1891
893.10 0.189
893.20 0.1889
893.30 0.1889
893.40 0.1888
893.50 0.1887
893.60 0.1886
893.70 0.1885
893.80 0.1885
893.90 0.1884
894.00 0.1883
894.10 0.1882
894.20 0.1882
894.30 0.1881
894.40 0.188
894.50 0.1879
894.60 0.1878
894.70 0.1878
894.80 0.1877
894.90 0.1876
895.00 0.1875
895.10 0.1874
895.20 0.1874
895.30 0.1873
895.40 0.1872
895.50 0.1871
895.60 0.187
895.70 0.187
895.80 0.1869
895.90 0.1868
896.00 0.1867
896.10 0.1866
896.20 0.1866
896.30 0.1865
896.40 0.1864
896.50 0.1863
896.60 0.1863
896.70 0.1862
896.80 0.1861
896.90 0.186
897.00 0.1859
897.10 0.1858
897.20 0.1857
897.30 0.1857
897.40 0.1856
897.50 0.1855
897.60 0.1854
897.70 0.1853
897.80 0.1852
897.90 0.1851
898.00 0.185
898.10 0.1849
898.20 0.1848
898.30 0.1847
898.40 0.1846
898.50 0.1845
898.60 0.1844
898.70 0.1843
898.80 0.1842
898.90 0.1841
899.00 0.184
899.10 0.1839
899.20 0.1839
899.30 0.1838
899.40 0.1837
899.50 0.1836
899.60 0.1835
899.70 0.1834
899.80 0.1833
899.90 0.1832
900.00 0.1831
900.10 0.183
900.20 0.1829
900.30 0.1828
900.40 0.1827
900.50 0.1826
900.60 0.1825
900.70 0.1824
900.80 0.1823
900.90 0.1823
901.00 0.1822
901.10 0.1821
901.20 0.182
901.30 0.1819
901.40 0.1818
901.50 0.1817
901.60 0.1816
901.70 0.1815
901.80 0.1814
901.90 0.1813
902.00 0.1812
902.10 0.1811
902.20 0.181
902.30 0.1809
902.40 0.1808
902.50 0.1807
902.60 0.1806
902.70 0.1805
902.80 0.1804
902.90 0.1803
903.00 0.1801
903.10 0.18
903.20 0.1799
903.30 0.1798
903.40 0.1797
903.50 0.1796
903.60 0.1795
903.70 0.1794
903.80 0.1793
903.90 0.1792
904.00 0.1791
904.10 0.179
904.20 0.1789
904.30 0.1787
904.40 0.1786
904.50 0.1785
904.60 0.1784
904.70 0.1783
904.80 0.1782
904.90 0.1781
905.00 0.178
905.10 0.1779
905.20 0.1778
905.30 0.1777
905.40 0.1776
905.50 0.1775
905.60 0.1774
905.70 0.1773
905.80 0.1771
905.90 0.177
906.00 0.1769
906.10 0.1768
906.20 0.1767
906.30 0.1766
906.40 0.1765
906.50 0.1764
906.60 0.1763
906.70 0.1762
906.80 0.1761
906.90 0.176
907.00 0.1759
907.10 0.1757
907.20 0.1756
907.30 0.1755
907.40 0.1754
907.50 0.1752
907.60 0.1751
907.70 0.175
907.80 0.1749
907.90 0.1747
908.00 0.1746
908.10 0.1745
908.20 0.1744
908.30 0.1742
908.40 0.1741
908.50 0.174
908.60 0.1739
908.70 0.1737
908.80 0.1736
908.90 0.1735
909.00 0.1734
909.10 0.1733
909.20 0.1731
909.30 0.173
909.40 0.1729
909.50 0.1728
909.60 0.1726
909.70 0.1725
909.80 0.1724
909.90 0.1723
910.00 0.1721
910.10 0.172
910.20 0.1719
910.30 0.1718
910.40 0.1716
910.50 0.1715
910.60 0.1714
910.70 0.1713
910.80 0.1712
910.90 0.171
911.00 0.1709
911.10 0.1708
911.20 0.1707
911.30 0.1705
911.40 0.1704
911.50 0.1703
911.60 0.1702
911.70 0.17
911.80 0.1699
911.90 0.1698
912.00 0.1697
912.10 0.1695
912.20 0.1694
912.30 0.1693
912.40 0.1691
912.50 0.169
912.60 0.1688
912.70 0.1687
912.80 0.1686
912.90 0.1684
913.00 0.1683
913.10 0.1682
913.20 0.168
913.30 0.1679
913.40 0.1677
913.50 0.1676
913.60 0.1675
913.70 0.1673
913.80 0.1672
913.90 0.1671
914.00 0.1669
914.10 0.1668
914.20 0.1666
914.30 0.1665
914.40 0.1664
914.50 0.1662
914.60 0.1661
914.70 0.166
914.80 0.1658
914.90 0.1657
915.00 0.1655
915.10 0.1654
915.20 0.1653
915.30 0.1651
915.40 0.165
915.50 0.1649
915.60 0.1647
915.70 0.1646
915.80 0.1645
915.90 0.1643
916.00 0.1642
916.10 0.164
916.20 0.1639
916.30 0.1638
916.40 0.1636
916.50 0.1635
916.60 0.1634
916.70 0.1632
916.80 0.1631
916.90 0.163
917.00 0.1628
917.10 0.1627
917.20 0.1625
917.30 0.1624
917.40 0.1622
917.50 0.1621
917.60 0.1619
917.70 0.1618
917.80 0.1616
917.90 0.1615
918.00 0.1613
918.10 0.1612
918.20 0.161
918.30 0.1609
918.40 0.1607
918.50 0.1606
918.60 0.1604
918.70 0.1603
918.80 0.1601
918.90 0.16
919.00 0.1598
919.10 0.1597
919.20 0.1595
919.30 0.1594
919.40 0.1592
919.50 0.1591
919.60 0.1589
919.70 0.1588
919.80 0.1586
919.90 0.1585
920.00 0.1583
920.10 0.1582
920.20 0.158
920.30 0.1579
920.40 0.1577
920.50 0.1576
920.60 0.1574
920.70 0.1573
920.80 0.1571
920.90 0.157
921.00 0.1568
921.10 0.1567
921.20 0.1565
921.30 0.1564
921.40 0.1562
921.50 0.1561
921.60 0.1559
921.70 0.1558
921.80 0.1556
921.90 0.1555
922.00 0.1553
922.10 0.1552
922.20 0.155
922.30 0.1549
922.40 0.1547
922.50 0.1545
922.60 0.1544
922.70 0.1542
922.80 0.1541
922.90 0.1539
923.00 0.1537
923.10 0.1536
923.20 0.1534
923.30 0.1533
923.40 0.1531
923.50 0.153
923.60 0.1528
923.70 0.1526
923.80 0.1525
923.90 0.1523
924.00 0.1522
924.10 0.152
924.20 0.1518
924.30 0.1517
924.40 0.1515
924.50 0.1514
924.60 0.1512
924.70 0.1511
924.80 0.1509
924.90 0.1507
925.00 0.1506
925.10 0.1504
925.20 0.1503
925.30 0.1501
925.40 0.1499
925.50 0.1498
925.60 0.1496
925.70 0.1495
925.80 0.1493
925.90 0.1492
926.00 0.149
926.10 0.1488
926.20 0.1487
926.30 0.1485
926.40 0.1484
926.50 0.1482
926.60 0.1481
926.70 0.1479
926.80 0.1477
926.90 0.1476
927.00 0.1474
927.10 0.1473
927.20 0.1471
927.30 0.1469
927.40 0.1468
927.50 0.1466
927.60 0.1464
927.70 0.1463
927.80 0.1461
927.90 0.1459
928.00 0.1458
928.10 0.1456
928.20 0.1454
928.30 0.1453
928.40 0.1451
928.50 0.1449
928.60 0.1448
928.70 0.1446
928.80 0.1444
928.90 0.1443
929.00 0.1441
929.10 0.1439
929.20 0.1438
929.30 0.1436
929.40 0.1434
929.50 0.1433
929.60 0.1431
929.70 0.1429
929.80 0.1428
929.90 0.1426
930.00 0.1424
930.10 0.1423
930.20 0.1421
930.30 0.1419
930.40 0.1418
930.50 0.1416
930.60 0.1414
930.70 0.1413
930.80 0.1411
930.90 0.141
931.00 0.1408
931.10 0.1406
931.20 0.1405
931.30 0.1403
931.40 0.1401
931.50 0.14
931.60 0.1398
931.70 0.1396
931.80 0.1395
931.90 0.1393
932.00 0.1391
932.10 0.139
932.20 0.1388
932.30 0.1386
932.40 0.1385
932.50 0.1383
932.60 0.1381
932.70 0.138
932.80 0.1378
932.90 0.1376
933.00 0.1375
933.10 0.1373
933.20 0.1371
933.30 0.137
933.40 0.1368
933.50 0.1366
933.60 0.1365
933.70 0.1363
933.80 0.1361
933.90 0.136
934.00 0.1358
934.10 0.1356
934.20 0.1355
934.30 0.1353
934.40 0.1351
934.50 0.135
934.60 0.1348
934.70 0.1346
934.80 0.1345
934.90 0.1343
935.00 0.1341
935.10 0.134
935.20 0.1338
935.30 0.1336
935.40 0.1335
935.50 0.1333
935.60 0.1331
935.70 0.133
935.80 0.1328
935.90 0.1326
936.00 0.1325
936.10 0.1323
936.20 0.1321
936.30 0.132
936.40 0.1318
936.50 0.1316
936.60 0.1315
936.70 0.1313
936.80 0.1311
936.90 0.131
937.00 0.1308
937.10 0.1306
937.20 0.1305
937.30 0.1303
937.40 0.1301
937.50 0.13
937.60 0.1298
937.70 0.1296
937.80 0.1295
937.90 0.1293
938.00 0.1291
938.10 0.129
938.20 0.1288
938.30 0.1286
938.40 0.1284
938.50 0.1283
938.60 0.1281
938.70 0.1279
938.80 0.1278
938.90 0.1276
939.00 0.1274
939.10 0.1273
939.20 0.1271
939.30 0.1269
939.40 0.1267
939.50 0.1266
939.60 0.1264
939.70 0.1262
939.80 0.1261
939.90 0.1259
940.00 0.1257
940.10 0.1256
940.20 0.1254
940.30 0.1252
940.40 0.1251
940.50 0.1249
940.60 0.1247
940.70 0.1246
940.80 0.1244
940.90 0.1242
941.00 0.1241
941.10 0.1239
941.20 0.1237
941.30 0.1236
941.40 0.1234
941.50 0.1232
941.60 0.1231
941.70 0.1229
941.80 0.1227
941.90 0.1226
942.00 0.1224
942.10 0.1222
942.20 0.1221
942.30 0.1219
942.40 0.1217
942.50 0.1216
942.60 0.1214
942.70 0.1212
942.80 0.1211
942.90 0.1209
943.00 0.1207
943.10 0.1206
943.20 0.1204
943.30 0.1203
943.40 0.1201
943.50 0.1199
943.60 0.1198
943.70 0.1196
943.80 0.1194
943.90 0.1193
944.00 0.1191
944.10 0.1189
944.20 0.1188
944.30 0.1186
944.40 0.1184
944.50 0.1183
944.60 0.1181
944.70 0.118
944.80 0.1178
944.90 0.1176
945.00 0.1175
945.10 0.1173
945.20 0.1171
945.30 0.117
945.40 0.1168
945.50 0.1167
945.60 0.1165
945.70 0.1163
945.80 0.1162
945.90 0.116
946.00 0.1158
946.10 0.1157
946.20 0.1155
946.30 0.1153
946.40 0.1152
946.50 0.115
946.60 0.1149
946.70 0.1147
946.80 0.1145
946.90 0.1144
947.00 0.1142
947.10 0.1141
947.20 0.1139
947.30 0.1137
947.40 0.1136
947.50 0.1134
947.60 0.1132
947.70 0.1131
947.80 0.1129
947.90 0.1128
948.00 0.1126
948.10 0.1124
948.20 0.1123
948.30 0.1121
948.40 0.112
948.50 0.1118
948.60 0.1116
948.70 0.1115
948.80 0.1113
948.90 0.1112
949.00 0.111
949.10 0.1108
949.20 0.1107
949.30 0.1105
949.40 0.1104
949.50 0.1102
949.60 0.11
949.70 0.1099
949.80 0.1097
949.90 0.1096
950.00 0.1094
950.10 0.1092
950.20 0.1091
950.30 0.1089
950.40 0.1088
950.50 0.1086
950.60 0.1084
950.70 0.1083
950.80 0.1081
950.90 0.108
951.00 0.1078
951.10 0.1077
951.20 0.1075
951.30 0.1073
951.40 0.1072
951.50 0.107
951.60 0.1069
951.70 0.1067
951.80 0.1065
951.90 0.1064
952.00 0.1062
952.10 0.1061
952.20 0.1059
952.30 0.1058
952.40 0.1056
952.50 0.1054
952.60 0.1053
952.70 0.1051
952.80 0.105
952.90 0.1048
953.00 0.1047
953.10 0.1045
953.20 0.1043
953.30 0.1042
953.40 0.104
953.50 0.1039
953.60 0.1037
953.70 0.1036
953.80 0.1034
953.90 0.1032
954.00 0.1031
954.10 0.1029
954.20 0.1028
954.30 0.1026
954.40 0.1025
954.50 0.1023
954.60 0.1022
954.70 0.102
954.80 0.1018
954.90 0.1017
955.00 0.1015
955.10 0.1014
955.20 0.1012
955.30 0.1011
955.40 0.1009
955.50 0.1008
955.60 0.1006
955.70 0.1005
955.80 0.1003
955.90 0.1001
956.00 0.09999
956.10 0.09983
956.20 0.09967
956.30 0.09952
956.40 0.09936
956.50 0.09921
956.60 0.09905
956.70 0.09889
956.80 0.09874
956.90 0.09858
957.00 0.09843
957.10 0.09827
957.20 0.09812
957.30 0.09797
957.40 0.09781
957.50 0.09766
957.60 0.09751
957.70 0.09736
957.80 0.09721
957.90 0.09706
958.00 0.0969
958.10 0.09675
958.20 0.0966
958.30 0.09645
958.40 0.0963
958.50 0.09615
958.60 0.09599
958.70 0.09584
958.80 0.09569
958.90 0.09554
959.00 0.09539
959.10 0.09524
959.20 0.09509
959.30 0.09494
959.40 0.09479
959.50 0.09464
959.60 0.09449
959.70 0.09434
959.80 0.09419
959.90 0.09404
960.00 0.09389
960.10 0.09374
960.20 0.09359
960.30 0.09344
960.40 0.09329
960.50 0.09314
960.60 0.09299
960.70 0.09284
960.80 0.09269
960.90 0.09255
961.00 0.0924
961.10 0.09225
961.20 0.0921
961.30 0.09195
961.40 0.0918
961.50 0.09166
961.60 0.09151
961.70 0.09136
961.80 0.09121
961.90 0.09107
962.00 0.09092
962.10 0.09077
962.20 0.09063
962.30 0.09048
962.40 0.09033
962.50 0.09018
962.60 0.09004
962.70 0.08989
962.80 0.08975
962.90 0.0896
963.00 0.08945
963.10 0.08931
963.20 0.08916
963.30 0.08901
963.40 0.08887
963.50 0.08872
963.60 0.08858
963.70 0.08843
963.80 0.08829
963.90 0.08814
964.00 0.088
964.10 0.08785
964.20 0.08771
964.30 0.08756
964.40 0.08741
964.50 0.08727
964.60 0.08712
964.70 0.08697
964.80 0.08682
964.90 0.08668
965.00 0.08653
965.10 0.08638
965.20 0.08623
965.30 0.08609
965.40 0.08594
965.50 0.08579
965.60 0.08565
965.70 0.0855
965.80 0.08535
965.90 0.08521
966.00 0.08506
966.10 0.08491
966.20 0.08476
966.30 0.08462
966.40 0.08448
966.50 0.08434
966.60 0.08419
966.70 0.08405
966.80 0.08391
966.90 0.08377
967.00 0.08363
967.10 0.08349
967.20 0.08335
967.30 0.08321
967.40 0.08307
967.50 0.08293
967.60 0.08279
967.70 0.08265
967.80 0.08251
967.90 0.08237
968.00 0.08223
968.10 0.08209
968.20 0.08195
968.30 0.08181
968.40 0.08167
968.50 0.08154
968.60 0.0814
968.70 0.08126
968.80 0.08113
968.90 0.08099
969.00 0.08085
969.10 0.08071
969.20 0.08058
969.30 0.08044
969.40 0.0803
969.50 0.08017
969.60 0.08003
969.70 0.07989
969.80 0.07976
969.90 0.07962
970.00 0.07948
970.10 0.07935
970.20 0.07921
970.30 0.07907
970.40 0.07894
970.50 0.0788
970.60 0.07867
970.70 0.07854
970.80 0.0784
970.90 0.07827
971.00 0.07813
971.10 0.078
971.20 0.07787
971.30 0.07773
971.40 0.0776
971.50 0.07747
971.60 0.07733
971.70 0.0772
971.80 0.07706
971.90 0.07693
972.00 0.0768
972.10 0.07667
972.20 0.07654
972.30 0.0764
972.40 0.07627
972.50 0.07614
972.60 0.07601
972.70 0.07588
972.80 0.07575
972.90 0.07562
973.00 0.07549
973.10 0.07536
973.20 0.07522
973.30 0.07509
973.40 0.07496
973.50 0.07483
973.60 0.0747
973.70 0.07457
973.80 0.07444
973.90 0.07431
974.00 0.07418
974.10 0.07405
974.20 0.07392
974.30 0.07379
974.40 0.07366
974.50 0.07353
974.60 0.0734
974.70 0.07327
974.80 0.07315
974.90 0.07302
975.00 0.07289
975.10 0.07276
975.20 0.07263
975.30 0.0725
975.40 0.07238
975.50 0.07225
975.60 0.07212
975.70 0.07199
975.80 0.07186
975.90 0.07173
976.00 0.07161
976.10 0.07148
976.20 0.07135
976.30 0.07122
976.40 0.0711
976.50 0.07097
976.60 0.07084
976.70 0.07071
976.80 0.07058
976.90 0.07046
977.00 0.07033
977.10 0.07021
977.20 0.07009
977.30 0.06997
977.40 0.06985
977.50 0.06973
977.60 0.0696
977.70 0.06948
977.80 0.06936
977.90 0.06924
978.00 0.06912
978.10 0.069
978.20 0.06888
978.30 0.06876
978.40 0.06864
978.50 0.06852
978.60 0.0684
978.70 0.06828
978.80 0.06816
978.90 0.06804
979.00 0.06792
979.10 0.0678
979.20 0.06768
979.30 0.06756
979.40 0.06744
979.50 0.06732
979.60 0.0672
979.70 0.06708
979.80 0.06696
979.90 0.06684
980.00 0.06672
980.10 0.0666
980.20 0.06648
980.30 0.06636
980.40 0.06624
980.50 0.06612
980.60 0.06601
980.70 0.06589
980.80 0.06577
980.90 0.06565
981.00 0.06553
981.10 0.06541
981.20 0.06529
981.30 0.06517
981.40 0.06505
981.50 0.06493
981.60 0.06482
981.70 0.0647
981.80 0.06458
981.90 0.06446
982.00 0.06434
982.10 0.06423
982.20 0.06411
982.30 0.064
982.40 0.06389
982.50 0.06377
982.60 0.06366
982.70 0.06354
982.80 0.06343
982.90 0.06332
983.00 0.0632
983.10 0.06309
983.20 0.06298
983.30 0.06286
983.40 0.06275
983.50 0.06264
983.60 0.06252
983.70 0.06241
983.80 0.0623
983.90 0.06219
984.00 0.06207
984.10 0.06196
984.20 0.06185
984.30 0.06173
984.40 0.06162
984.50 0.06151
984.60 0.0614
984.70 0.06129
984.80 0.06118
984.90 0.06108
985.00 0.06097
985.10 0.06087
985.20 0.06076
985.30 0.06066
985.40 0.06055
985.50 0.06044
985.60 0.06034
985.70 0.06023
985.80 0.06013
985.90 0.06002
986.00 0.05992
986.10 0.05981
986.20 0.05971
986.30 0.0596
986.40 0.0595
986.50 0.05939
986.60 0.05929
986.70 0.05919
986.80 0.05908
986.90 0.05898
987.00 0.05887
987.10 0.05876
987.20 0.05865
987.30 0.05854
987.40 0.05843
987.50 0.05833
987.60 0.05822
987.70 0.05811
987.80 0.058
987.90 0.05789
988.00 0.05778
988.10 0.05767
988.20 0.05756
988.30 0.05745
988.40 0.05735
988.50 0.05724
988.60 0.05713
988.70 0.05702
988.80 0.05691
988.90 0.0568
989.00 0.05669
989.10 0.05659
989.20 0.05648
989.30 0.05637
989.40 0.05626
989.50 0.05615
989.60 0.05605
989.70 0.05594
989.80 0.05583
989.90 0.05572
990.00 0.05561
990.10 0.05551
990.20 0.0554
990.30 0.05529
990.40 0.05518
990.50 0.05508
990.60 0.05497
990.70 0.05486
990.80 0.05475
990.90 0.05465
991.00 0.05454
991.10 0.05443
991.20 0.05433
991.30 0.05422
991.40 0.05411
991.50 0.05401
991.60 0.0539
991.70 0.05379
991.80 0.05369
991.90 0.05358
992.00 0.05347
992.10 0.05337
992.20 0.05326
992.30 0.05315
992.40 0.05305
992.50 0.05294
992.60 0.05284
992.70 0.05273
992.80 0.05262
992.90 0.05252
993.00 0.05241
993.10 0.05231
993.20 0.0522
993.30 0.0521
993.40 0.05199
993.50 0.05189
993.60 0.05178
993.70 0.05168
993.80 0.05157
993.90 0.05147
994.00 0.05136
994.10 0.05125
994.20 0.05115
994.30 0.05104
994.40 0.05094
994.50 0.05083
994.60 0.05073
994.70 0.05061
994.80 0.05047
994.90 0.05034
995.00 0.05021
995.10 0.05008
995.20 0.04995
995.30 0.04982
995.40 0.04969
995.50 0.04956
995.60 0.04943
995.70 0.04933
995.80 0.04922
995.90 0.04912
996.00 0.04902
996.10 0.04892
996.20 0.04882
996.30 0.04872
996.40 0.04862
996.50 0.04852
996.60 0.04842
996.70 0.04832
996.80 0.04822
996.90 0.04812
997.00 0.04802
997.10 0.04792
997.20 0.04782
997.30 0.04773
997.40 0.04763
997.50 0.04753
997.60 0.04743
997.70 0.04734
997.80 0.04724
997.90 0.04715
998.00 0.04705
998.10 0.04696
998.20 0.04686
998.30 0.04677
998.40 0.04667
998.50 0.04658
998.60 0.04649
998.70 0.04639
998.80 0.0463
998.90 0.0462
999.00 0.04611
999.10 0.04601
999.20 0.04592
999.30 0.04582
999.40 0.04573
999.50 0.04564
999.60 0.04554
999.70 0.04545
999.80 0.04536
999.90 0.04527
1000.00 0.04518
1000.10 0.04509
1000.20 0.045
1000.30 0.04491
1000.40 0.04482
1000.50 0.04473
1000.60 0.04464
1000.70 0.04455
1000.80 0.04446
1000.90 0.04438
1001.00 0.04429
1001.10 0.0442
1001.20 0.04411
1001.30 0.04402
1001.40 0.04393
1001.50 0.04384
1001.60 0.04375
1001.70 0.04366
1001.80 0.04358
1001.90 0.04349
1002.00 0.0434
1002.10 0.04332
1002.20 0.04323
1002.30 0.04315
1002.40 0.04306
1002.50 0.04298
1002.60 0.04289
1002.70 0.04281
1002.80 0.04272
1002.90 0.04264
1003.00 0.04255
1003.10 0.04247
1003.20 0.04238
1003.30 0.0423
1003.40 0.04222
1003.50 0.04213
1003.60 0.04205
1003.70 0.04197
1003.80 0.04188
1003.90 0.0418
1004.00 0.04172
1004.10 0.04164
1004.20 0.04156
1004.30 0.04148
1004.40 0.0414
1004.50 0.04132
1004.60 0.04123
1004.70 0.04115
1004.80 0.04107
1004.90 0.04096
1005.00 0.04085
1005.10 0.04077
1005.20 0.04069
1005.30 0.04061
1005.40 0.04053
1005.50 0.04045
1005.60 0.04037
1005.70 0.04029
1005.80 0.04022
1005.90 0.04014
1006.00 0.04006
1006.10 0.03999
1006.20 0.03991
1006.30 0.03983
1006.40 0.03976
1006.50 0.03968
1006.60 0.03961
1006.70 0.03953
1006.80 0.03945
1006.90 0.03938
1007.00 0.0393
1007.10 0.03923
1007.20 0.03916
1007.30 0.03908
1007.40 0.03901
1007.50 0.03893
1007.60 0.03886
1007.70 0.03879
1007.80 0.03872
1007.90 0.03865
1008.00 0.03858
1008.10 0.03851
1008.20 0.03844
1008.30 0.03837
1008.40 0.0383
1008.50 0.03822
1008.60 0.03815
1008.70 0.03808
1008.80 0.03801
1008.90 0.03794
1009.00 0.03787
1009.10 0.0378
1009.20 0.03773
1009.30 0.03766
1009.40 0.03759
1009.50 0.03752
1009.60 0.03745
1009.70 0.03738
1009.80 0.03732
1009.90 0.03725
1010.00 0.03718
1010.10 0.03712
1010.20 0.03705
1010.30 0.03699
1010.40 0.03692
1010.50 0.03685
1010.60 0.03679
1010.70 0.03672
1010.80 0.03666
1010.90 0.03659
1011.00 0.03652
1011.10 0.03646
1011.20 0.03639
1011.30 0.03633
1011.40 0.03626
1011.50 0.03619
1011.60 0.03613
1011.70 0.03606
1011.80 0.036
1011.90 0.03594
1012.00 0.03588
1012.10 0.03582
1012.20 0.03575
1012.30 0.03569
1012.40 0.03563
1012.50 0.03557
1012.60 0.03551
1012.70 0.03545
1012.80 0.03539
1012.90 0.03532
1013.00 0.03526
1013.10 0.0352
1013.20 0.03514
1013.30 0.03508
1013.40 0.03502
1013.50 0.03496
1013.60 0.03489
1013.70 0.03484
1013.80 0.03478
1013.90 0.03472
1014.00 0.03466
1014.10 0.0346
1014.20 0.03454
1014.30 0.03449
1014.40 0.03443
1014.50 0.03437
1014.60 0.03431
1014.70 0.03426
1014.80 0.03421
1014.90 0.03416
1015.00 0.03411
1015.10 0.03406
1015.20 0.034
1015.30 0.03395
1015.40 0.0339
1015.50 0.03385
1015.60 0.0338
1015.70 0.03375
1015.80 0.0337
1015.90 0.03365
1016.00 0.0336
1016.10 0.03355
1016.20 0.0335
1016.30 0.03345
1016.40 0.0334
1016.50 0.03335
1016.60 0.0333
1016.70 0.03325
1016.80 0.03319
1016.90 0.03314
1017.00 0.03308
1017.10 0.03303
1017.20 0.03298
1017.30 0.03292
1017.40 0.03287
1017.50 0.03281
1017.60 0.03276
1017.70 0.03271
1017.80 0.03265
1017.90 0.0326
1018.00 0.03255
1018.10 0.03249
1018.20 0.03244
1018.30 0.03238
1018.40 0.03233
1018.50 0.03228
1018.60 0.03222
1018.70 0.03217
1018.80 0.03212
1018.90 0.03207
1019.00 0.03201
1019.10 0.03196
1019.20 0.03191
1019.30 0.03186
1019.40 0.03181
1019.50 0.03175
1019.60 0.0317
1019.70 0.03165
1019.80 0.0316
1019.90 0.03155
1020.00 0.0315
1020.10 0.03144
1020.20 0.03139
1020.30 0.03134
1020.40 0.03129
1020.50 0.03124
1020.60 0.03119
1020.70 0.03113
1020.80 0.03108
1020.90 0.03103
1021.00 0.03098
1021.10 0.03093
1021.20 0.03088
1021.30 0.03083
1021.40 0.03078
1021.50 0.03073
1021.60 0.03068
1021.70 0.03063
1021.80 0.03058
1021.90 0.03053
1022.00 0.03048
1022.10 0.03043
1022.20 0.03038
1022.30 0.03033
1022.40 0.03029
1022.50 0.03024
1022.60 0.03019
1022.70 0.03014
1022.80 0.03009
1022.90 0.03004
1023.00 0.02999
1023.10 0.02995
1023.20 0.0299
1023.30 0.02985
1023.40 0.0298
1023.50 0.02975
1023.60 0.0297
1023.70 0.02966
1023.80 0.02961
1023.90 0.02956
1024.00 0.02951
1024.10 0.02946
1024.20 0.02941
1024.30 0.02937
1024.40 0.02932
1024.50 0.02927
1024.60 0.02922
1024.70 0.02917
1024.80 0.02913
1024.90 0.02908
1025.00 0.02903
1025.10 0.02898
1025.20 0.02894
1025.30 0.02889
1025.40 0.02884
1025.50 0.02879
1025.60 0.02874
1025.70 0.0287
1025.80 0.02865
1025.90 0.0286
1026.00 0.02855
1026.10 0.02851
1026.20 0.02846
1026.30 0.02841
1026.40 0.02836
1026.50 0.02832
1026.60 0.02827
1026.70 0.02822
1026.80 0.02818
1026.90 0.02813
1027.00 0.02808
1027.10 0.02804
1027.20 0.028
1027.30 0.02795
1027.40 0.02791
1027.50 0.02787
1027.60 0.02782
1027.70 0.02778
1027.80 0.02774
1027.90 0.0277
1028.00 0.02765
1028.10 0.02761
1028.20 0.02757
1028.30 0.02753
1028.40 0.02749
1028.50 0.02744
1028.60 0.0274
1028.70 0.02736
1028.80 0.02732
1028.90 0.02727
1029.00 0.02723
1029.10 0.02719
1029.20 0.02715
1029.30 0.0271
1029.40 0.02706
1029.50 0.02702
1029.60 0.02698
1029.70 0.02694
1029.80 0.02689
1029.90 0.02685
1030.00 0.02681
1030.10 0.02677
1030.20 0.02672
1030.30 0.02668
1030.40 0.02664
1030.50 0.0266
1030.60 0.02656
1030.70 0.02651
1030.80 0.02647
1030.90 0.02643
1031.00 0.02639
1031.10 0.02635
1031.20 0.0263
1031.30 0.02626
1031.40 0.02622
1031.50 0.02618
1031.60 0.02614
1031.70 0.02609
1031.80 0.02605
1031.90 0.02601
1032.00 0.02597
1032.10 0.02593
1032.20 0.02589
1032.30 0.02585
1032.40 0.02582
1032.50 0.02578
1032.60 0.02574
1032.70 0.0257
1032.80 0.02566
1032.90 0.02563
1033.00 0.02559
1033.10 0.02555
1033.20 0.02551
1033.30 0.02547
1033.40 0.02543
1033.50 0.0254
1033.60 0.02536
1033.70 0.02532
1033.80 0.02528
1033.90 0.02524
1034.00 0.02521
1034.10 0.02517
1034.20 0.02513
1034.30 0.02509
1034.40 0.02506
1034.50 0.02502
1034.60 0.02498
1034.70 0.02494
1034.80 0.0249
1034.90 0.02487
1035.00 0.02483
1035.10 0.02479
1035.20 0.02475
1035.30 0.02472
1035.40 0.02468
1035.50 0.02464
1035.60 0.0246
1035.70 0.02456
1035.80 0.02453
1035.90 0.02449
1036.00 0.02445
1036.10 0.02441
1036.20 0.02438
1036.30 0.02434
1036.40 0.0243
1036.50 0.02426
1036.60 0.02423
1036.70 0.02419
1036.80 0.02415
1036.90 0.02411
1037.00 0.02408
1037.10 0.02404
1037.20 0.02401
1037.30 0.02398
1037.40 0.02394
1037.50 0.02391
1037.60 0.02388
1037.70 0.02385
1037.80 0.02381
1037.90 0.02378
1038.00 0.02375
1038.10 0.02371
1038.20 0.02368
1038.30 0.02365
1038.40 0.02362
1038.50 0.02358
1038.60 0.02355
1038.70 0.02352
1038.80 0.02348
1038.90 0.02345
1039.00 0.02342
1039.10 0.02339
1039.20 0.02335
1039.30 0.02332
1039.40 0.02329
1039.50 0.02326
1039.60 0.02322
1039.70 0.02319
1039.80 0.02316
1039.90 0.02313
1040.00 0.02309
1040.10 0.02306
1040.20 0.02303
1040.30 0.023
1040.40 0.02296
1040.50 0.02293
1040.60 0.0229
1040.70 0.02287
1040.80 0.02283
1040.90 0.0228
1041.00 0.02277
1041.10 0.02274
1041.20 0.0227
1041.30 0.02267
1041.40 0.02264
1041.50 0.02261
1041.60 0.02257
1041.70 0.02254
1041.80 0.02251
1041.90 0.02248
1042.00 0.02244
1042.10 0.02242
1042.20 0.02239
1042.30 0.02236
1042.40 0.02233
1042.50 0.0223
1042.60 0.02227
1042.70 0.02225
1042.80 0.02222
1042.90 0.02219
1043.00 0.02216
1043.10 0.02213
1043.20 0.0221
1043.30 0.02208
1043.40 0.02205
1043.50 0.02202
1043.60 0.02199
1043.70 0.02196
1043.80 0.02194
1043.90 0.02191
1044.00 0.02188
1044.10 0.02185
1044.20 0.02182
1044.30 0.02179
1044.40 0.02177
1044.50 0.02174
1044.60 0.02171
1044.70 0.02168
1044.80 0.02165
1044.90 0.02163
1045.00 0.0216
1045.10 0.02157
1045.20 0.02154
1045.30 0.02151
1045.40 0.02149
1045.50 0.02146
1045.60 0.02143
1045.70 0.0214
1045.80 0.02137
1045.90 0.02135
1046.00 0.02132
1046.10 0.02129
1046.20 0.02126
1046.30 0.02123
1046.40 0.02121
1046.50 0.02118
1046.60 0.02115
1046.70 0.02112
1046.80 0.02109
1046.90 0.02107
1047.00 0.02104
1047.10 0.02101
1047.20 0.02099
1047.30 0.02097
1047.40 0.02094
1047.50 0.02092
1047.60 0.02089
1047.70 0.02087
1047.80 0.02085
1047.90 0.02082
1048.00 0.0208
1048.10 0.02077
1048.20 0.02075
1048.30 0.02073
1048.40 0.0207
1048.50 0.02068
1048.60 0.02065
1048.70 0.02063
1048.80 0.02061
1048.90 0.02058
1049.00 0.02056
1049.10 0.02053
1049.20 0.02051
1049.30 0.02049
1049.40 0.02046
1049.50 0.02044
1049.60 0.02041
1049.70 0.02039
1049.80 0.02037
1049.90 0.02034
1050.00 0.02032
1050.10 0.02029
1050.20 0.02027
1050.30 0.02025
1050.40 0.02022
1050.50 0.0202
1050.60 0.02017
1050.70 0.02015
1050.80 0.02013
1050.90 0.0201
1051.00 0.02008
1051.10 0.02005
1051.20 0.02003
1051.30 0.02001
1051.40 0.01998
1051.50 0.01996
1051.60 0.01994
1051.70 0.01991
1051.80 0.01989
1051.90 0.01986
1052.00 0.01984
1052.10 0.01982
1052.20 0.0198
1052.30 0.01978
1052.40 0.01975
1052.50 0.01973
1052.60 0.01971
1052.70 0.01969
1052.80 0.01967
1052.90 0.01964
1053.00 0.01962
1053.10 0.0196
1053.20 0.01958
1053.30 0.01956
1053.40 0.01954
1053.50 0.01951
1053.60 0.01949
1053.70 0.01947
1053.80 0.01945
1053.90 0.01943
1054.00 0.01941
1054.10 0.01938
1054.20 0.01936
1054.30 0.01934
1054.40 0.01932
1054.50 0.0193
1054.60 0.01928
1054.70 0.01926
1054.80 0.01923
1054.90 0.01921
1055.00 0.01919
1055.10 0.01917
1055.20 0.01915
1055.30 0.01913
1055.40 0.0191
1055.50 0.01908
1055.60 0.01906
1055.70 0.01904
1055.80 0.01902
1055.90 0.019
1056.00 0.01898
1056.10 0.01895
1056.20 0.01893
1056.30 0.01891
1056.40 0.01889
1056.50 0.01887
1056.60 0.01885
1056.70 0.01883
1056.80 0.0188
1056.90 0.01878
1057.00 0.01876
1057.10 0.01874
1057.20 0.01872
1057.30 0.0187
1057.40 0.01868
1057.50 0.01866
1057.60 0.01865
1057.70 0.01863
1057.80 0.01861
1057.90 0.01859
1058.00 0.01857
1058.10 0.01855
1058.20 0.01853
1058.30 0.01851
1058.40 0.01849
1058.50 0.01847
1058.60 0.01845
1058.70 0.01843
1058.80 0.01842
1058.90 0.0184
1059.00 0.01838
1059.10 0.01836
1059.20 0.01834
1059.30 0.01832
1059.40 0.0183
1059.50 0.01828
1059.60 0.01826
1059.70 0.01824
1059.80 0.01822
1059.90 0.01821
1060.00 0.01819
1060.10 0.01817
1060.20 0.01815
1060.30 0.01813
1060.40 0.01811
1060.50 0.01809
1060.60 0.01807
1060.70 0.01805
1060.80 0.01803
1060.90 0.01801
1061.00 0.018
1061.10 0.01798
1061.20 0.01796
1061.30 0.01794
1061.40 0.01792
1061.50 0.0179
1061.60 0.01788
1061.70 0.01786
1061.80 0.01784
1061.90 0.01783
1062.00 0.01781
1062.10 0.01779
1062.20 0.01777
1062.30 0.01776
1062.40 0.01774
1062.50 0.01772
1062.60 0.01771
1062.70 0.01769
1062.80 0.01767
1062.90 0.01766
1063.00 0.01764
1063.10 0.01762
1063.20 0.01761
1063.30 0.01759
1063.40 0.01757
1063.50 0.01756
1063.60 0.01754
1063.70 0.01752
1063.80 0.01751
1063.90 0.01749
1064.00 0.01747
1064.10 0.01746
1064.20 0.01744
1064.30 0.01742
1064.40 0.01741
1064.50 0.01739
1064.60 0.01738
1064.70 0.01736
1064.80 0.01734
1064.90 0.01733
1065.00 0.01731
1065.10 0.01729
1065.20 0.01728
1065.30 0.01726
1065.40 0.01724
1065.50 0.01723
1065.60 0.01721
1065.70 0.01719
1065.80 0.01718
1065.90 0.01716
1066.00 0.01714
1066.10 0.01713
1066.20 0.01711
1066.30 0.0171
1066.40 0.01708
1066.50 0.01706
1066.60 0.01705
1066.70 0.01703
1066.80 0.01701
1066.90 0.017
1067.00 0.01698
1067.10 0.01697
1067.20 0.01695
1067.30 0.01693
1067.40 0.01692
1067.50 0.0169
1067.60 0.01689
1067.70 0.01687
1067.80 0.01686
1067.90 0.01684
1068.00 0.01683
1068.10 0.01681
1068.20 0.0168
1068.30 0.01678
1068.40 0.01677
1068.50 0.01675
1068.60 0.01674
1068.70 0.01672
1068.80 0.01671
1068.90 0.01669
1069.00 0.01668
1069.10 0.01666
1069.20 0.01665
1069.30 0.01663
1069.40 0.01662
1069.50 0.0166
1069.60 0.01659
1069.70 0.01657
1069.80 0.01656
1069.90 0.01654
1070.00 0.01653
1070.10 0.01651
1070.20 0.0165
1070.30 0.01648
1070.40 0.01647
1070.50 0.01645
1070.60 0.01644
1070.70 0.01642
1070.80 0.01641
1070.90 0.01639
1071.00 0.01638
1071.10 0.01636
1071.20 0.01635
1071.30 0.01633
1071.40 0.01632
1071.50 0.0163
1071.60 0.01629
1071.70 0.01627
1071.80 0.01626
1071.90 0.01624
1072.00 0.01623
1072.10 0.01622
1072.20 0.0162
1072.30 0.01619
1072.40 0.01618
1072.50 0.01617
1072.60 0.01616
1072.70 0.01614
1072.80 0.01613
1072.90 0.01612
1073.00 0.01611
1073.10 0.0161
1073.20 0.01608
1073.30 0.01607
1073.40 0.01606
1073.50 0.01605
1073.60 0.01604
1073.70 0.01603
1073.80 0.01602
1073.90 0.01601
1074.00 0.016
1074.10 0.01599
1074.20 0.01597
1074.30 0.01596
1074.40 0.01595
1074.50 0.01594
1074.60 0.01593
1074.70 0.01592
1074.80 0.01591
1074.90 0.0159
1075.00 0.01589
1075.10 0.01588
1075.20 0.01587
1075.30 0.01586
1075.40 0.01585
1075.50 0.01584
1075.60 0.01583
1075.70 0.01582
1075.80 0.01581
1075.90 0.0158
1076.00 0.01579
1076.10 0.01578
1076.20 0.01577
1076.30 0.01576
1076.40 0.01575
1076.50 0.01574
1076.60 0.01573
1076.70 0.01572
1076.80 0.01571
1076.90 0.0157
1077.00 0.01568
1077.10 0.01568
1077.20 0.01567
1077.30 0.01566
1077.40 0.01565
1077.50 0.01564
1077.60 0.01563
1077.70 0.01562
1077.80 0.01561
1077.90 0.01561
1078.00 0.0156
1078.10 0.01559
1078.20 0.01558
1078.30 0.01557
1078.40 0.01556
1078.50 0.01556
1078.60 0.01555
1078.70 0.01554
1078.80 0.01553
1078.90 0.01552
1079.00 0.01552
1079.10 0.01551
1079.20 0.0155
1079.30 0.01549
1079.40 0.01548
1079.50 0.01547
1079.60 0.01547
1079.70 0.01546
1079.80 0.01546
1079.90 0.01545
1080.00 0.01544
1080.10 0.01544
1080.20 0.01543
1080.30 0.01542
1080.40 0.01542
1080.50 0.01541
1080.60 0.01541
1080.70 0.0154
1080.80 0.01539
1080.90 0.01539
1081.00 0.01538
1081.10 0.01537
1081.20 0.01537
1081.30 0.01536
1081.40 0.01536
1081.50 0.01535
1081.60 0.01534
1081.70 0.01534
1081.80 0.01533
1081.90 0.01532
1082.00 0.01532
1082.10 0.01531
1082.20 0.01531
1082.30 0.0153
1082.40 0.01529
1082.50 0.01529
1082.60 0.01528
1082.70 0.01528
1082.80 0.01527
1082.90 0.01526
1083.00 0.01526
1083.10 0.01525
1083.20 0.01525
1083.30 0.01524
1083.40 0.01524
1083.50 0.01523
1083.60 0.01522
1083.70 0.01522
1083.80 0.01521
1083.90 0.01521
1084.00 0.0152
1084.10 0.0152
1084.20 0.01519
1084.30 0.01519
1084.40 0.01518
1084.50 0.01518
1084.60 0.01517
1084.70 0.01517
1084.80 0.01516
1084.90 0.01516
1085.00 0.01516
1085.10 0.01515
1085.20 0.01515
1085.30 0.01514
1085.40 0.01514
1085.50 0.01513
1085.60 0.01513
1085.70 0.01512
1085.80 0.01512
1085.90 0.01511
1086.00 0.01511
1086.10 0.01511
1086.20 0.0151
1086.30 0.0151
1086.40 0.01509
1086.50 0.01509
1086.60 0.01508
1086.70 0.01508
1086.80 0.01508
1086.90 0.01507
1087.00 0.01507
1087.10 0.01506
1087.20 0.01506
1087.30 0.01506
1087.40 0.01505
1087.50 0.01505
1087.60 0.01505
1087.70 0.01504
1087.80 0.01504
1087.90 0.01504
1088.00 0.01503
1088.10 0.01503
1088.20 0.01503
1088.30 0.01502
1088.40 0.01502
1088.50 0.01502
1088.60 0.01502
1088.70 0.01501
1088.80 0.01501
1088.90 0.01501
1089.00 0.015
1089.10 0.015
1089.20 0.015
1089.30 0.015
1089.40 0.01499
1089.50 0.01499
1089.60 0.01499
1089.70 0.01499
1089.80 0.01498
1089.90 0.01498
1090.00 0.01498
1090.10 0.01498
1090.20 0.01497
1090.30 0.01497
1090.40 0.01497
1090.50 0.01497
1090.60 0.01496
1090.70 0.01496
1090.80 0.01496
1090.90 0.01496
1091.00 0.01496
1091.10 0.01496
1091.20 0.01495
1091.30 0.01495
1091.40 0.01495
1091.50 0.01495
1091.60 0.01495
1091.70 0.01495
1091.80 0.01494
1091.90 0.01494
1092.00 0.01494
1092.10 0.01494
1092.20 0.01494
1092.30 0.01494
1092.40 0.01494
1092.50 0.01493
1092.60 0.01493
1092.70 0.01494
1092.80 0.01495
1092.90 0.01496
1093.00 0.01497
1093.10 0.01498
1093.20 0.01498
1093.30 0.01497
1093.40 0.01497
1093.50 0.01497
1093.60 0.01497
1093.70 0.01497
1093.80 0.01497
1093.90 0.01497
1094.00 0.01497
1094.10 0.01497
1094.20 0.01497
1094.30 0.01497
1094.40 0.01497
1094.50 0.01497
1094.60 0.01496
1094.70 0.01496
1094.80 0.01496
1094.90 0.01496
1095.00 0.01496
1095.10 0.01496
1095.20 0.01496
1095.30 0.01496
1095.40 0.01496
1095.50 0.01496
1095.60 0.01496
1095.70 0.01496
1095.80 0.01496
1095.90 0.01496
1096.00 0.01496
1096.10 0.01496
1096.20 0.01496
1096.30 0.01496
1096.40 0.01496
1096.50 0.01496
1096.60 0.01496
1096.70 0.01496
1096.80 0.01496
1096.90 0.01496
1097.00 0.01496
1097.10 0.01496
1097.20 0.01496
1097.30 0.01496
1097.40 0.01496
1097.50 0.01496
1097.60 0.01496
1097.70 0.01496
1097.80 0.01496
1097.90 0.01496
1098.00 0.01496
1098.10 0.01496
1098.20 0.01496
1098.30 0.01496
1098.40 0.01496
1098.50 0.01496
1098.60 0.01496
1098.70 0.01496
1098.80 0.01496
1098.90 0.01496
1099.00 0.01496
1099.10 0.01496
1099.20 0.01496
1099.30 0.01496
1099.40 0.01496
1099.50 0.01496
1099.60 0.01496
1099.70 0.01496
1099.80 0.01496
1099.90 0.01496
1100.00 0.01496
1100.10 0.01496
1100.20 0.01496
1100.30 0.01496
1100.40 0.01496
1100.50 0.01496
1100.60 0.01496
1100.70 0.01496
1100.80 0.01497
1100.90 0.01497
1101.00 0.01497
1101.10 0.01497
1101.20 0.01497
1101.30 0.01497
1101.40 0.01497
1101.50 0.01497
1101.60 0.01497
1101.70 0.01497
1101.80 0.01497
1101.90 0.01497
1102.00 0.01497
1102.10 0.01497
1102.20 0.01498
1102.30 0.01498
1102.40 0.01498
1102.50 0.01498
1102.60 0.01498
1102.70 0.01498
1102.80 0.01498
1102.90 0.01498
1103.00 0.01498
1103.10 0.01498
1103.20 0.01499
1103.30 0.01499
1103.40 0.01499
1103.50 0.01499
1103.60 0.01499
1103.70 0.01499
1103.80 0.01499
1103.90 0.01499
1104.00 0.01499
1104.10 0.01499
1104.20 0.015
1104.30 0.015
1104.40 0.015
1104.50 0.015
1104.60 0.015
1104.70 0.015
1104.80 0.015
1104.90 0.015
1105.00 0.015
1105.10 0.015
1105.20 0.015
1105.30 0.01501
1105.40 0.01501
1105.50 0.01501
1105.60 0.01501
1105.70 0.01501
1105.80 0.01501
1105.90 0.01501
1106.00 0.01502
1106.10 0.01502
1106.20 0.01502
1106.30 0.01502
1106.40 0.01502
1106.50 0.01502
1106.60 0.01503
1106.70 0.01503
1106.80 0.01503
1106.90 0.01503
1107.00 0.01503
1107.10 0.01504
1107.20 0.01504
1107.30 0.01504
1107.40 0.01504
1107.50 0.01504
1107.60 0.01505
1107.70 0.01505
1107.80 0.01505
1107.90 0.01505
1108.00 0.01505
1108.10 0.01506
1108.20 0.01506
1108.30 0.01506
1108.40 0.01506
1108.50 0.01507
1108.60 0.01507
1108.70 0.01507
1108.80 0.01507
1108.90 0.01507
1109.00 0.01508
1109.10 0.01508
1109.20 0.01508
1109.30 0.01508
1109.40 0.01509
1109.50 0.01509
1109.60 0.01509
1109.70 0.01509
1109.80 0.0151
1109.90 0.0151
1110.00 0.0151
1110.10 0.0151
1110.20 0.01511
1110.30 0.01511
1110.40 0.01511
1110.50 0.01512
1110.60 0.01512
1110.70 0.01512
1110.80 0.01512
1110.90 0.01513
1111.00 0.01513
1111.10 0.01513
1111.20 0.01513
1111.30 0.01514
1111.40 0.01514
1111.50 0.01514
1111.60 0.01515
1111.70 0.01515
1111.80 0.01515
1111.90 0.01515
1112.00 0.01516
1112.10 0.01516
1112.20 0.01516
1112.30 0.01517
1112.40 0.01517
1112.50 0.01517
1112.60 0.01518
1112.70 0.01518
1112.80 0.01518
1112.90 0.01519
1113.00 0.01519
1113.10 0.01519
1113.20 0.0152
1113.30 0.0152
1113.40 0.0152
1113.50 0.0152
1113.60 0.01521
1113.70 0.01521
1113.80 0.01522
1113.90 0.01522
1114.00 0.01522
1114.10 0.01523
1114.20 0.01523
1114.30 0.01524
1114.40 0.01524
1114.50 0.01524
1114.60 0.01525
1114.70 0.01525
1114.80 0.01525
1114.90 0.01526
1115.00 0.01526
1115.10 0.01527
1115.20 0.01527
1115.30 0.01527
1115.40 0.01528
1115.50 0.01528
1115.60 0.01529
1115.70 0.01529
1115.80 0.01529
1115.90 0.0153
1116.00 0.0153
1116.10 0.0153
1116.20 0.01531
1116.30 0.01531
1116.40 0.01532
1116.50 0.01532
1116.60 0.01532
1116.70 0.01533
1116.80 0.01533
1116.90 0.01533
1117.00 0.01534
1117.10 0.01534
1117.20 0.01535
1117.30 0.01535
1117.40 0.01536
1117.50 0.01536
1117.60 0.01537
1117.70 0.01537
1117.80 0.01537
1117.90 0.01538
1118.00 0.01538
1118.10 0.01539
1118.20 0.01539
1118.30 0.0154
1118.40 0.0154
1118.50 0.01541
1118.60 0.01541
1118.70 0.01542
1118.80 0.01542
1118.90 0.01542
1119.00 0.01543
1119.10 0.01543
1119.20 0.01544
1119.30 0.01544
1119.40 0.01545
1119.50 0.01545
1119.60 0.01546
1119.70 0.01546
1119.80 0.01547
1119.90 0.01547
1120.00 0.01547
1120.10 0.01548
1120.20 0.01548
1120.30 0.01549
1120.40 0.01549
1120.50 0.0155
1120.60 0.0155
1120.70 0.01551
1120.80 0.01551
1120.90 0.01551
1121.00 0.01552
1121.10 0.01552
1121.20 0.01553
1121.30 0.01553
1121.40 0.01554
1121.50 0.01554
1121.60 0.01555
1121.70 0.01555
1121.80 0.01555
1121.90 0.01556
1122.00 0.01556
1122.10 0.01557
1122.20 0.01558
1122.30 0.01559
1122.40 0.01559
1122.50 0.0156
1122.60 0.01561
1122.70 0.01562
1122.80 0.01562
1122.90 0.01563
1123.00 0.01564
1123.10 0.01564
1123.20 0.01565
1123.30 0.01566
1123.40 0.01567
1123.50 0.01567
1123.60 0.01568
1123.70 0.01569
1123.80 0.0157
1123.90 0.0157
1124.00 0.01571
1124.10 0.01572
1124.20 0.01572
1124.30 0.01573
1124.40 0.01574
1124.50 0.01575
1124.60 0.01575
1124.70 0.01576
1124.80 0.01577
1124.90 0.01578
1125.00 0.01578
1125.10 0.01579
1125.20 0.0158
1125.30 0.0158
1125.40 0.01581
1125.50 0.01582
1125.60 0.01583
1125.70 0.01583
1125.80 0.01584
1125.90 0.01585
1126.00 0.01586
1126.10 0.01586
1126.20 0.01587
1126.30 0.01588
1126.40 0.01588
1126.50 0.01589
1126.60 0.0159
1126.70 0.01591
1126.80 0.01591
1126.90 0.01592
1127.00 0.01593
1127.10 0.01594
1127.20 0.01595
1127.30 0.01596
1127.40 0.01597
1127.50 0.01598
1127.60 0.01599
1127.70 0.016
1127.80 0.01601
1127.90 0.01602
1128.00 0.01603
1128.10 0.01604
1128.20 0.01605
1128.30 0.01606
1128.40 0.01607
1128.50 0.01608
1128.60 0.01609
1128.70 0.0161
1128.80 0.01611
1128.90 0.01612
1129.00 0.01613
1129.10 0.01614
1129.20 0.01615
1129.30 0.01616
1129.40 0.01617
1129.50 0.01618
1129.60 0.01619
1129.70 0.0162
1129.80 0.01621
1129.90 0.01622
1130.00 0.01623
1130.10 0.01624
1130.20 0.01625
1130.30 0.01626
1130.40 0.01627
1130.50 0.01628
1130.60 0.0163
1130.70 0.01631
1130.80 0.01632
1130.90 0.01633
1131.00 0.01634
1131.10 0.01635
1131.20 0.01636
1131.30 0.01637
1131.40 0.01638
1131.50 0.01639
1131.60 0.0164
1131.70 0.01641
1131.80 0.01642
1131.90 0.01643
1132.00 0.01644
1132.10 0.01645
1132.20 0.01646
1132.30 0.01647
1132.40 0.01648
1132.50 0.01649
1132.60 0.0165
1132.70 0.01651
1132.80 0.01652
1132.90 0.01653
1133.00 0.01654
1133.10 0.01655
1133.20 0.01657
1133.30 0.01658
1133.40 0.01659
1133.50 0.0166
1133.60 0.01661
1133.70 0.01662
1133.80 0.01663
1133.90 0.01664
1134.00 0.01665
1134.10 0.01666
1134.20 0.01667
1134.30 0.01668
1134.40 0.01669
1134.50 0.0167
1134.60 0.01672
1134.70 0.01673
1134.80 0.01674
1134.90 0.01675
1135.00 0.01676
1135.10 0.01677
1135.20 0.01678
1135.30 0.01679
1135.40 0.0168
1135.50 0.01681
1135.60 0.01682
1135.70 0.01683
1135.80 0.01684
1135.90 0.01685
1136.00 0.01686
1136.10 0.01688
1136.20 0.01689
1136.30 0.0169
1136.40 0.01691
1136.50 0.01692
1136.60 0.01693
1136.70 0.01694
1136.80 0.01695
1136.90 0.01696
1137.00 0.01697
1137.10 0.01698
1137.20 0.01699
1137.30 0.01701
1137.40 0.01702
1137.50 0.01703
1137.60 0.01704
1137.70 0.01705
1137.80 0.01707
1137.90 0.01708
1138.00 0.01709
1138.10 0.0171
1138.20 0.01711
1138.30 0.01713
1138.40 0.01714
1138.50 0.01715
1138.60 0.01716
1138.70 0.01717
1138.80 0.01719
1138.90 0.0172
1139.00 0.01721
1139.10 0.01722
1139.20 0.01723
1139.30 0.01725
1139.40 0.01726
1139.50 0.01727
1139.60 0.01728
1139.70 0.01729
1139.80 0.0173
1139.90 0.01732
1140.00 0.01733
1140.10 0.01734
1140.20 0.01735
1140.30 0.01736
1140.40 0.01738
1140.50 0.01739
1140.60 0.0174
1140.70 0.01741
1140.80 0.01742
1140.90 0.01744
1141.00 0.01745
1141.10 0.01746
1141.20 0.01747
1141.30 0.01748
1141.40 0.01749
1141.50 0.01751
1141.60 0.01752
1141.70 0.01753
1141.80 0.01754
1141.90 0.01755
1142.00 0.01756
1142.10 0.01758
1142.20 0.01759
1142.30 0.01761
1142.40 0.01762
1142.50 0.01763
1142.60 0.01765
1142.70 0.01766
1142.80 0.01768
1142.90 0.01769
1143.00 0.0177
1143.10 0.01772
1143.20 0.01773
1143.30 0.01775
1143.40 0.01776
1143.50 0.01777
1143.60 0.01779
1143.70 0.0178
1143.80 0.01782
1143.90 0.01783
1144.00 0.01784
1144.10 0.01786
1144.20 0.01787
1144.30 0.01789
1144.40 0.0179
1144.50 0.01791
1144.60 0.01793
1144.70 0.01794
1144.80 0.01795
1144.90 0.01797
1145.00 0.01798
1145.10 0.018
1145.20 0.01801
1145.30 0.01802
1145.40 0.01804
1145.50 0.01805
1145.60 0.01807
1145.70 0.01808
1145.80 0.01809
1145.90 0.01811
1146.00 0.01812
1146.10 0.01813
1146.20 0.01815
1146.30 0.01816
1146.40 0.01818
1146.50 0.01819
1146.60 0.0182
1146.70 0.01822
1146.80 0.01823
1146.90 0.01824
1147.00 0.01826
1147.10 0.01827
1147.20 0.01828
1147.30 0.0183
1147.40 0.01831
1147.50 0.01832
1147.60 0.01833
1147.70 0.01835
1147.80 0.01836
1147.90 0.01837
1148.00 0.01838
1148.10 0.0184
1148.20 0.01841
1148.30 0.01842
1148.40 0.01843
1148.50 0.01845
1148.60 0.01846
1148.70 0.01847
1148.80 0.01848
1148.90 0.01849
1149.00 0.01851
1149.10 0.01852
1149.20 0.01853
1149.30 0.01854
1149.40 0.01856
1149.50 0.01857
1149.60 0.01858
1149.70 0.01859
1149.80 0.01861
1149.90 0.01862
1150.00 0.01863
1150.10 0.01864
1150.20 0.01866
1150.30 0.01867
1150.40 0.01868
1150.50 0.01869
1150.60 0.01871
1150.70 0.01872
1150.80 0.01873
1150.90 0.01874
1151.00 0.01875
1151.10 0.01877
1151.20 0.01878
1151.30 0.01879
1151.40 0.0188
1151.50 0.01882
1151.60 0.01883
1151.70 0.01884
1151.80 0.01885
1151.90 0.01887
1152.00 0.01888
1152.10 0.01889
1152.20 0.0189
1152.30 0.01892
1152.40 0.01893
1152.50 0.01894
1152.60 0.01896
1152.70 0.01897
1152.80 0.01898
1152.90 0.019
1153.00 0.01901
1153.10 0.01902
1153.20 0.01904
1153.30 0.01905
1153.40 0.01906
1153.50 0.01908
1153.60 0.01909
1153.70 0.0191
1153.80 0.01911
1153.90 0.01913
1154.00 0.01914
1154.10 0.01915
1154.20 0.01917
1154.30 0.01918
1154.40 0.01919
1154.50 0.01921
1154.60 0.01922
1154.70 0.01923
1154.80 0.01925
1154.90 0.01926
1155.00 0.01927
1155.10 0.01928
1155.20 0.0193
1155.30 0.01931
1155.40 0.01932
1155.50 0.01934
1155.60 0.01935
1155.70 0.01936
1155.80 0.01938
1155.90 0.01939
1156.00 0.0194
1156.10 0.01942
1156.20 0.01943
1156.30 0.01944
1156.40 0.01945
1156.50 0.01947
1156.60 0.01948
1156.70 0.01949
1156.80 0.01951
1156.90 0.01952
1157.00 0.01953
1157.10 0.01954
1157.20 0.01955
1157.30 0.01957
1157.40 0.01958
1157.50 0.01959
1157.60 0.0196
1157.70 0.01961
1157.80 0.01962
1157.90 0.01963
1158.00 0.01964
1158.10 0.01965
1158.20 0.01967
1158.30 0.01968
1158.40 0.01969
1158.50 0.0197
1158.60 0.01971
1158.70 0.01972
1158.80 0.01973
1158.90 0.01974
1159.00 0.01975
1159.10 0.01976
1159.20 0.01978
1159.30 0.01979
1159.40 0.0198
1159.50 0.01981
1159.60 0.01982
1159.70 0.01983
1159.80 0.01984
1159.90 0.01985
1160.00 0.01986
1160.10 0.01988
1160.20 0.01989
1160.30 0.0199
1160.40 0.01991
1160.50 0.01992
1160.60 0.01993
1160.70 0.01994
1160.80 0.01995
1160.90 0.01996
1161.00 0.01997
1161.10 0.01999
1161.20 0.02
1161.30 0.02001
1161.40 0.02002
1161.50 0.02003
1161.60 0.02004
1161.70 0.02005
1161.80 0.02006
1161.90 0.02007
1162.00 0.02008
1162.10 0.02009
1162.20 0.0201
1162.30 0.02011
1162.40 0.02012
1162.50 0.02013
1162.60 0.02014
1162.70 0.02015
1162.80 0.02016
1162.90 0.02017
1163.00 0.02018
1163.10 0.02019
1163.20 0.0202
1163.30 0.02021
1163.40 0.02022
1163.50 0.02023
1163.60 0.02024
1163.70 0.02025
1163.80 0.02026
1163.90 0.02027
1164.00 0.02028
1164.10 0.02029
1164.20 0.02029
1164.30 0.0203
1164.40 0.02031
1164.50 0.02032
1164.60 0.02033
1164.70 0.02034
1164.80 0.02035
1164.90 0.02036
1165.00 0.02037
1165.10 0.02038
1165.20 0.02039
1165.30 0.0204
1165.40 0.02041
1165.50 0.02042
1165.60 0.02043
1165.70 0.02044
1165.80 0.02045
1165.90 0.02046
1166.00 0.02047
1166.10 0.02048
1166.20 0.02049
1166.30 0.02049
1166.40 0.0205
1166.50 0.02051
1166.60 0.02052
1166.70 0.02053
1166.80 0.02054
1166.90 0.02055
1167.00 0.02056
1167.10 0.02057
1167.20 0.02058
1167.30 0.02059
1167.40 0.0206
1167.50 0.02061
1167.60 0.02062
1167.70 0.02063
1167.80 0.02064
1167.90 0.02065
1168.00 0.02066
1168.10 0.02067
1168.20 0.02068
1168.30 0.02068
1168.40 0.02069
1168.50 0.0207
1168.60 0.02071
1168.70 0.02072
1168.80 0.02073
1168.90 0.02074
1169.00 0.02075
1169.10 0.02076
1169.20 0.02077
1169.30 0.02078
1169.40 0.02079
1169.50 0.0208
1169.60 0.02081
1169.70 0.02082
1169.80 0.02083
1169.90 0.02084
1170.00 0.02085
1170.10 0.02086
1170.20 0.02086
1170.30 0.02087
1170.40 0.02088
1170.50 0.02089
1170.60 0.0209
1170.70 0.02091
1170.80 0.02092
1170.90 0.02093
1171.00 0.02094
1171.10 0.02095
1171.20 0.02096
1171.30 0.02097
1171.40 0.02098
1171.50 0.02099
1171.60 0.021
1171.70 0.02101
1171.80 0.02102
1171.90 0.02103
1172.00 0.02103
1172.10 0.02104
1172.20 0.02104
1172.30 0.02105
1172.40 0.02105
1172.50 0.02106
1172.60 0.02106
1172.70 0.02107
1172.80 0.02107
1172.90 0.02108
1173.00 0.02108
1173.10 0.02109
1173.20 0.02109
1173.30 0.0211
1173.40 0.0211
1173.50 0.02111
1173.60 0.02111
1173.70 0.02112
1173.80 0.02112
1173.90 0.02113
1174.00 0.02113
1174.10 0.02113
1174.20 0.02114
1174.30 0.02114
1174.40 0.02115
1174.50 0.02115
1174.60 0.02116
1174.70 0.02116
1174.80 0.02117
1174.90 0.02117
1175.00 0.02118
1175.10 0.02118
1175.20 0.02119
1175.30 0.02119
1175.40 0.0212
1175.50 0.0212
1175.60 0.02121
1175.70 0.02121
1175.80 0.02122
1175.90 0.02122
1176.00 0.02122
1176.10 0.02123
1176.20 0.02123
1176.30 0.02124
1176.40 0.02124
1176.50 0.02125
1176.60 0.02125
1176.70 0.02126
1176.80 0.02126
1176.90 0.02127
1177.00 0.02127
1177.10 0.02127
1177.20 0.02128
1177.30 0.02128
1177.40 0.02128
1177.50 0.02128
1177.60 0.02128
1177.70 0.02128
1177.80 0.02128
1177.90 0.02129
1178.00 0.02129
1178.10 0.02129
1178.20 0.02129
1178.30 0.02129
1178.40 0.02129
1178.50 0.02129
1178.60 0.0213
1178.70 0.0213
1178.80 0.0213
1178.90 0.0213
1179.00 0.0213
1179.10 0.0213
1179.20 0.0213
1179.30 0.02131
1179.40 0.02131
1179.50 0.02131
1179.60 0.02131
1179.70 0.02131
1179.80 0.02131
1179.90 0.02131
1180.00 0.02132
1180.10 0.02132
1180.20 0.02132
1180.30 0.02132
1180.40 0.02132
1180.50 0.02132
1180.60 0.02132
1180.70 0.02133
1180.80 0.02133
1180.90 0.02133
1181.00 0.02133
1181.10 0.02133
1181.20 0.02133
1181.30 0.02133
1181.40 0.02134
1181.50 0.02134
1181.60 0.02134
1181.70 0.02134
1181.80 0.02134
1181.90 0.02134
1182.00 0.02134
1182.10 0.02134
1182.20 0.02134
1182.30 0.02133
1182.40 0.02133
1182.50 0.02133
1182.60 0.02132
1182.70 0.02132
1182.80 0.02132
1182.90 0.02131
1183.00 0.02131
1183.10 0.02131
1183.20 0.0213
1183.30 0.0213
1183.40 0.0213
1183.50 0.02129
1183.60 0.02129
1183.70 0.02128
1183.80 0.02128
1183.90 0.02128
1184.00 0.02127
1184.10 0.02127
1184.20 0.02127
1184.30 0.02126
1184.40 0.02126
1184.50 0.02126
1184.60 0.02125
1184.70 0.02125
1184.80 0.02125
1184.90 0.02124
1185.00 0.02124
1185.10 0.02124
1185.20 0.02123
1185.30 0.02123
1185.40 0.02122
1185.50 0.02122
1185.60 0.02122
1185.70 0.02121
1185.80 0.02121
1185.90 0.02121
1186.00 0.0212
1186.10 0.0212
1186.20 0.0212
1186.30 0.02119
1186.40 0.02119
1186.50 0.02119
1186.60 0.02118
1186.70 0.02118
1186.80 0.02118
1186.90 0.02117
1187.00 0.02117
1187.10 0.02117
1187.20 0.02116
1187.30 0.02116
1187.40 0.02116
1187.50 0.02116
1187.60 0.02116
1187.70 0.02115
1187.80 0.02115
1187.90 0.02115
1188.00 0.02115
1188.10 0.02115
1188.20 0.02114
1188.30 0.02114
1188.40 0.02114
1188.50 0.02114
1188.60 0.02114
1188.70 0.02113
1188.80 0.02113
1188.90 0.02113
1189.00 0.02113
1189.10 0.02112
1189.20 0.02112
1189.30 0.02112
1189.40 0.02112
1189.50 0.02112
1189.60 0.02111
1189.70 0.02111
1189.80 0.02111
1189.90 0.02111
1190.00 0.02111
1190.10 0.0211
1190.20 0.0211
1190.30 0.0211
1190.40 0.0211
1190.50 0.0211
1190.60 0.02109
1190.70 0.02109
1190.80 0.02109
1190.90 0.02109
1191.00 0.02109
1191.10 0.02108
1191.20 0.02108
1191.30 0.02108
1191.40 0.02108
1191.50 0.02108
1191.60 0.02107
1191.70 0.02107
1191.80 0.02107
1191.90 0.02107
1192.00 0.02107
1192.10 0.02106
1192.20 0.02106
1192.30 0.02106
1192.40 0.02105
1192.50 0.02105
1192.60 0.02105
1192.70 0.02105
1192.80 0.02104
1192.90 0.02104
1193.00 0.02104
1193.10 0.02103
1193.20 0.02103
1193.30 0.02103
1193.40 0.02103
1193.50 0.02102
1193.60 0.02102
1193.70 0.02102
1193.80 0.02101
1193.90 0.02101
1194.00 0.02101
1194.10 0.02101
1194.20 0.021
1194.30 0.021
1194.40 0.021
1194.50 0.021
1194.60 0.02099
1194.70 0.02099
1194.80 0.02099
1194.90 0.02098
1195.00 0.02098
1195.10 0.02098
1195.20 0.02098
1195.30 0.02097
1195.40 0.02097
1195.50 0.02097
1195.60 0.02096
1195.70 0.02096
1195.80 0.02096
1195.90 0.02096
1196.00 0.02095
1196.10 0.02095
1196.20 0.02095
1196.30 0.02094
1196.40 0.02094
1196.50 0.02094
1196.60 0.02094
1196.70 0.02093
1196.80 0.02093
1196.90 0.02093
1197.00 0.02093
1197.10 0.02092
1197.20 0.02091
1197.30 0.02091
1197.40 0.0209
1197.50 0.0209
1197.60 0.02089
1197.70 0.02088
1197.80 0.02088
1197.90 0.02087
1198.00 0.02087
1198.10 0.02086
1198.20 0.02086
1198.30 0.02085
1198.40 0.02084
1198.50 0.02084
1198.60 0.02083
1198.70 0.02083
1198.80 0.02082
1198.90 0.02082
1199.00 0.02081
1199.10 0.0208
1199.20 0.0208
1199.30 0.02079
1199.40 0.02079
1199.50 0.02078
1199.60 0.02077
1199.70 0.02077
1199.80 0.02076
1199.90 0.02076
1200.00 0
