# Version 2.1 - nm, norm@500 to 1, cut digits, bergeron_90000_75.dat_90000
# Wavelength(nm)  Flambda(ergs/cm^s/s/nm)
300.00 6.755
300.10 6.746
300.20 6.738
300.30 6.729
300.40 6.721
300.50 6.713
300.60 6.704
300.70 6.696
300.80 6.688
300.90 6.679
301.00 6.671
301.10 6.663
301.20 6.654
301.30 6.646
301.40 6.638
301.50 6.63
301.60 6.621
301.70 6.613
301.80 6.605
301.90 6.597
302.00 6.589
302.10 6.58
302.20 6.572
302.30 6.564
302.40 6.556
302.50 6.548
302.60 6.54
302.70 6.532
302.80 6.524
302.90 6.516
303.00 6.507
303.10 6.499
303.20 6.491
303.30 6.483
303.40 6.475
303.50 6.467
303.60 6.459
303.70 6.451
303.80 6.443
303.90 6.435
304.00 6.428
304.10 6.42
304.20 6.412
304.30 6.404
304.40 6.396
304.50 6.388
304.60 6.38
304.70 6.372
304.80 6.365
304.90 6.357
305.00 6.349
305.10 6.341
305.20 6.333
305.30 6.326
305.40 6.318
305.50 6.31
305.60 6.302
305.70 6.295
305.80 6.287
305.90 6.279
306.00 6.271
306.10 6.264
306.20 6.256
306.30 6.248
306.40 6.241
306.50 6.233
306.60 6.226
306.70 6.218
306.80 6.21
306.90 6.203
307.00 6.195
307.10 6.188
307.20 6.18
307.30 6.172
307.40 6.165
307.50 6.157
307.60 6.15
307.70 6.142
307.80 6.135
307.90 6.127
308.00 6.12
308.10 6.113
308.20 6.105
308.30 6.098
308.40 6.09
308.50 6.083
308.60 6.075
308.70 6.068
308.80 6.061
308.90 6.053
309.00 6.046
309.10 6.039
309.20 6.031
309.30 6.024
309.40 6.017
309.50 6.009
309.60 6.002
309.70 5.995
309.80 5.988
309.90 5.98
310.00 5.973
310.10 5.966
310.20 5.959
310.30 5.952
310.40 5.944
310.50 5.937
310.60 5.93
310.70 5.923
310.80 5.916
310.90 5.909
311.00 5.901
311.10 5.894
311.20 5.887
311.30 5.88
311.40 5.873
311.50 5.866
311.60 5.859
311.70 5.852
311.80 5.845
311.90 5.838
312.00 5.831
312.10 5.824
312.20 5.817
312.30 5.81
312.40 5.803
312.50 5.796
312.60 5.789
312.70 5.782
312.80 5.775
312.90 5.768
313.00 5.761
313.10 5.754
313.20 5.747
313.30 5.74
313.40 5.733
313.50 5.727
313.60 5.72
313.70 5.713
313.80 5.706
313.90 5.699
314.00 5.692
314.10 5.686
314.20 5.679
314.30 5.672
314.40 5.665
314.50 5.659
314.60 5.652
314.70 5.645
314.80 5.638
314.90 5.632
315.00 5.625
315.10 5.618
315.20 5.611
315.30 5.605
315.40 5.598
315.50 5.591
315.60 5.585
315.70 5.578
315.80 5.572
315.90 5.565
316.00 5.558
316.10 5.552
316.20 5.545
316.30 5.539
316.40 5.532
316.50 5.525
316.60 5.519
316.70 5.512
316.80 5.506
316.90 5.499
317.00 5.493
317.10 5.486
317.20 5.48
317.30 5.473
317.40 5.467
317.50 5.46
317.60 5.454
317.70 5.447
317.80 5.441
317.90 5.434
318.00 5.428
318.10 5.422
318.20 5.415
318.30 5.409
318.40 5.403
318.50 5.396
318.60 5.39
318.70 5.383
318.80 5.377
318.90 5.371
319.00 5.364
319.10 5.358
319.20 5.352
319.30 5.345
319.40 5.339
319.50 5.333
319.60 5.327
319.70 5.32
319.80 5.314
319.90 5.308
320.00 5.302
320.10 5.295
320.20 5.289
320.30 5.283
320.40 5.277
320.50 5.271
320.60 5.264
320.70 5.258
320.80 5.252
320.90 5.246
321.00 5.24
321.10 5.234
321.20 5.228
321.30 5.221
321.40 5.215
321.50 5.209
321.60 5.203
321.70 5.197
321.80 5.191
321.90 5.185
322.00 5.179
322.10 5.173
322.20 5.167
322.30 5.161
322.40 5.155
322.50 5.149
322.60 5.143
322.70 5.137
322.80 5.131
322.90 5.125
323.00 5.119
323.10 5.113
323.20 5.107
323.30 5.101
323.40 5.095
323.50 5.089
323.60 5.083
323.70 5.077
323.80 5.071
323.90 5.066
324.00 5.06
324.10 5.054
324.20 5.048
324.30 5.042
324.40 5.036
324.50 5.03
324.60 5.025
324.70 5.019
324.80 5.013
324.90 5.007
325.00 5.001
325.10 4.996
325.20 4.99
325.30 4.984
325.40 4.978
325.50 4.973
325.60 4.967
325.70 4.961
325.80 4.955
325.90 4.95
326.00 4.944
326.10 4.938
326.20 4.933
326.30 4.927
326.40 4.921
326.50 4.916
326.60 4.91
326.70 4.904
326.80 4.899
326.90 4.893
327.00 4.887
327.10 4.882
327.20 4.876
327.30 4.87
327.40 4.865
327.50 4.859
327.60 4.854
327.70 4.848
327.80 4.843
327.90 4.837
328.00 4.831
328.10 4.826
328.20 4.82
328.30 4.815
328.40 4.809
328.50 4.804
328.60 4.798
328.70 4.793
328.80 4.787
328.90 4.782
329.00 4.776
329.10 4.771
329.20 4.766
329.30 4.76
329.40 4.755
329.50 4.749
329.60 4.744
329.70 4.738
329.80 4.733
329.90 4.728
330.00 4.722
330.10 4.717
330.20 4.711
330.30 4.706
330.40 4.701
330.50 4.695
330.60 4.69
330.70 4.685
330.80 4.679
330.90 4.674
331.00 4.669
331.10 4.664
331.20 4.658
331.30 4.653
331.40 4.648
331.50 4.642
331.60 4.637
331.70 4.632
331.80 4.627
331.90 4.621
332.00 4.616
332.10 4.611
332.20 4.606
332.30 4.6
332.40 4.595
332.50 4.59
332.60 4.585
332.70 4.58
332.80 4.574
332.90 4.569
333.00 4.564
333.10 4.559
333.20 4.554
333.30 4.549
333.40 4.544
333.50 4.538
333.60 4.533
333.70 4.528
333.80 4.523
333.90 4.518
334.00 4.513
334.10 4.508
334.20 4.503
334.30 4.498
334.40 4.493
334.50 4.487
334.60 4.482
334.70 4.477
334.80 4.472
334.90 4.467
335.00 4.462
335.10 4.457
335.20 4.452
335.30 4.447
335.40 4.442
335.50 4.437
335.60 4.432
335.70 4.427
335.80 4.422
335.90 4.417
336.00 4.412
336.10 4.407
336.20 4.403
336.30 4.398
336.40 4.393
336.50 4.388
336.60 4.383
336.70 4.378
336.80 4.373
336.90 4.368
337.00 4.363
337.10 4.359
337.20 4.354
337.30 4.349
337.40 4.344
337.50 4.339
337.60 4.334
337.70 4.329
337.80 4.325
337.90 4.32
338.00 4.315
338.10 4.31
338.20 4.305
338.30 4.301
338.40 4.296
338.50 4.291
338.60 4.286
338.70 4.281
338.80 4.277
338.90 4.272
339.00 4.267
339.10 4.262
339.20 4.258
339.30 4.253
339.40 4.248
339.50 4.244
339.60 4.239
339.70 4.234
339.80 4.229
339.90 4.225
340.00 4.22
340.10 4.215
340.20 4.211
340.30 4.206
340.40 4.201
340.50 4.197
340.60 4.192
340.70 4.187
340.80 4.183
340.90 4.178
341.00 4.174
341.10 4.169
341.20 4.164
341.30 4.16
341.40 4.155
341.50 4.151
341.60 4.146
341.70 4.141
341.80 4.137
341.90 4.132
342.00 4.128
342.10 4.123
342.20 4.119
342.30 4.114
342.40 4.11
342.50 4.105
342.60 4.101
342.70 4.096
342.80 4.092
342.90 4.087
343.00 4.083
343.10 4.078
343.20 4.074
343.30 4.069
343.40 4.065
343.50 4.06
343.60 4.056
343.70 4.051
343.80 4.047
343.90 4.042
344.00 4.038
344.10 4.034
344.20 4.029
344.30 4.025
344.40 4.02
344.50 4.016
344.60 4.012
344.70 4.007
344.80 4.003
344.90 3.998
345.00 3.994
345.10 3.99
345.20 3.985
345.30 3.981
345.40 3.977
345.50 3.972
345.60 3.968
345.70 3.964
345.80 3.959
345.90 3.955
346.00 3.951
346.10 3.946
346.20 3.942
346.30 3.938
346.40 3.934
346.50 3.929
346.60 3.925
346.70 3.921
346.80 3.916
346.90 3.912
347.00 3.908
347.10 3.904
347.20 3.899
347.30 3.895
347.40 3.891
347.50 3.887
347.60 3.883
347.70 3.878
347.80 3.874
347.90 3.87
348.00 3.866
348.10 3.861
348.20 3.857
348.30 3.853
348.40 3.849
348.50 3.845
348.60 3.841
348.70 3.837
348.80 3.832
348.90 3.828
349.00 3.824
349.10 3.82
349.20 3.816
349.30 3.812
349.40 3.808
349.50 3.803
349.60 3.799
349.70 3.795
349.80 3.791
349.90 3.787
350.00 3.783
350.10 3.779
350.20 3.775
350.30 3.771
350.40 3.767
350.50 3.763
350.60 3.759
350.70 3.755
350.80 3.751
350.90 3.747
351.00 3.743
351.10 3.739
351.20 3.734
351.30 3.73
351.40 3.726
351.50 3.722
351.60 3.718
351.70 3.714
351.80 3.71
351.90 3.706
352.00 3.702
352.10 3.699
352.20 3.695
352.30 3.691
352.40 3.687
352.50 3.683
352.60 3.679
352.70 3.675
352.80 3.671
352.90 3.667
353.00 3.663
353.10 3.659
353.20 3.655
353.30 3.651
353.40 3.647
353.50 3.644
353.60 3.64
353.70 3.636
353.80 3.632
353.90 3.628
354.00 3.624
354.10 3.62
354.20 3.616
354.30 3.613
354.40 3.609
354.50 3.605
354.60 3.601
354.70 3.597
354.80 3.593
354.90 3.59
355.00 3.586
355.10 3.582
355.20 3.578
355.30 3.574
355.40 3.571
355.50 3.567
355.60 3.563
355.70 3.559
355.80 3.555
355.90 3.552
356.00 3.548
356.10 3.544
356.20 3.54
356.30 3.537
356.40 3.533
356.50 3.529
356.60 3.525
356.70 3.522
356.80 3.518
356.90 3.514
357.00 3.511
357.10 3.507
357.20 3.503
357.30 3.499
357.40 3.496
357.50 3.492
357.60 3.488
357.70 3.485
357.80 3.481
357.90 3.477
358.00 3.474
358.10 3.47
358.20 3.466
358.30 3.463
358.40 3.459
358.50 3.455
358.60 3.452
358.70 3.448
358.80 3.444
358.90 3.441
359.00 3.437
359.10 3.434
359.20 3.43
359.30 3.426
359.40 3.423
359.50 3.419
359.60 3.416
359.70 3.412
359.80 3.408
359.90 3.405
360.00 3.401
360.10 3.398
360.20 3.394
360.30 3.391
360.40 3.387
360.50 3.383
360.60 3.38
360.70 3.376
360.80 3.373
360.90 3.369
361.00 3.366
361.10 3.362
361.20 3.359
361.30 3.355
361.40 3.352
361.50 3.348
361.60 3.345
361.70 3.341
361.80 3.338
361.90 3.334
362.00 3.331
362.10 3.327
362.20 3.324
362.30 3.32
362.40 3.317
362.50 3.313
362.60 3.31
362.70 3.307
362.80 3.303
362.90 3.3
363.00 3.296
363.10 3.293
363.20 3.289
363.30 3.286
363.40 3.283
363.50 3.279
363.60 3.276
363.70 3.272
363.80 3.269
363.90 3.266
364.00 3.262
364.10 3.259
364.20 3.255
364.30 3.252
364.40 3.249
364.50 3.245
364.60 3.242
364.70 3.239
364.80 3.235
364.90 3.232
365.00 3.229
365.10 3.225
365.20 3.222
365.30 3.219
365.40 3.215
365.50 3.212
365.60 3.209
365.70 3.205
365.80 3.202
365.90 3.199
366.00 3.195
366.10 3.192
366.20 3.189
366.30 3.185
366.40 3.182
366.50 3.179
366.60 3.175
366.70 3.172
366.80 3.169
366.90 3.165
367.00 3.162
367.10 3.159
367.20 3.155
367.30 3.152
367.40 3.149
367.50 3.145
367.60 3.142
367.70 3.139
367.80 3.136
367.90 3.132
368.00 3.129
368.10 3.126
368.20 3.123
368.30 3.119
368.40 3.116
368.50 3.113
368.60 3.109
368.70 3.106
368.80 3.103
368.90 3.1
369.00 3.097
369.10 3.093
369.20 3.09
369.30 3.087
369.40 3.084
369.50 3.08
369.60 3.077
369.70 3.074
369.80 3.071
369.90 3.068
370.00 3.064
370.10 3.061
370.20 3.058
370.30 3.055
370.40 3.052
370.50 3.048
370.60 3.045
370.70 3.042
370.80 3.039
370.90 3.036
371.00 3.033
371.10 3.03
371.20 3.026
371.30 3.023
371.40 3.02
371.50 3.017
371.60 3.014
371.70 3.011
371.80 3.008
371.90 3.005
372.00 3.001
372.10 2.998
372.20 2.995
372.30 2.992
372.40 2.989
372.50 2.986
372.60 2.983
372.70 2.98
372.80 2.977
372.90 2.974
373.00 2.971
373.10 2.968
373.20 2.965
373.30 2.962
373.40 2.959
373.50 2.956
373.60 2.953
373.70 2.95
373.80 2.947
373.90 2.944
374.00 2.941
374.10 2.938
374.20 2.935
374.30 2.932
374.40 2.929
374.50 2.926
374.60 2.923
374.70 2.92
374.80 2.917
374.90 2.914
375.00 2.911
375.10 2.908
375.20 2.905
375.30 2.902
375.40 2.899
375.50 2.896
375.60 2.893
375.70 2.89
375.80 2.887
375.90 2.884
376.00 2.881
376.10 2.879
376.20 2.876
376.30 2.873
376.40 2.87
376.50 2.867
376.60 2.864
376.70 2.861
376.80 2.859
376.90 2.856
377.00 2.853
377.10 2.85
377.20 2.847
377.30 2.844
377.40 2.842
377.50 2.839
377.60 2.836
377.70 2.833
377.80 2.831
377.90 2.828
378.00 2.825
378.10 2.822
378.20 2.82
378.30 2.817
378.40 2.814
378.50 2.811
378.60 2.808
378.70 2.806
378.80 2.803
378.90 2.8
379.00 2.797
379.10 2.795
379.20 2.792
379.30 2.789
379.40 2.787
379.50 2.784
379.60 2.781
379.70 2.778
379.80 2.776
379.90 2.773
380.00 2.77
380.10 2.768
380.20 2.765
380.30 2.763
380.40 2.76
380.50 2.758
380.60 2.755
380.70 2.753
380.80 2.75
380.90 2.748
381.00 2.745
381.10 2.743
381.20 2.74
381.30 2.737
381.40 2.735
381.50 2.732
381.60 2.729
381.70 2.727
381.80 2.724
381.90 2.721
382.00 2.718
382.10 2.716
382.20 2.713
382.30 2.71
382.40 2.707
382.50 2.704
382.60 2.701
382.70 2.699
382.80 2.696
382.90 2.693
383.00 2.69
383.10 2.687
383.20 2.684
383.30 2.681
383.40 2.679
383.50 2.676
383.60 2.674
383.70 2.672
383.80 2.669
383.90 2.667
384.00 2.665
384.10 2.663
384.20 2.661
384.30 2.659
384.40 2.657
384.50 2.655
384.60 2.653
384.70 2.651
384.80 2.649
384.90 2.647
385.00 2.645
385.10 2.643
385.20 2.641
385.30 2.638
385.40 2.636
385.50 2.634
385.60 2.631
385.70 2.629
385.80 2.626
385.90 2.623
386.00 2.621
386.10 2.618
386.20 2.615
386.30 2.613
386.40 2.61
386.50 2.607
386.60 2.604
386.70 2.601
386.80 2.598
386.90 2.594
387.00 2.591
387.10 2.588
387.20 2.585
387.30 2.581
387.40 2.578
387.50 2.574
387.60 2.571
387.70 2.567
387.80 2.564
387.90 2.56
388.00 2.556
388.10 2.553
388.20 2.549
388.30 2.545
388.40 2.542
388.50 2.538
388.60 2.535
388.70 2.532
388.80 2.53
388.90 2.527
389.00 2.525
389.10 2.523
389.20 2.522
389.30 2.521
389.40 2.52
389.50 2.519
389.60 2.518
389.70 2.517
389.80 2.516
389.90 2.516
390.00 2.515
390.10 2.514
390.20 2.513
390.30 2.512
390.40 2.511
390.50 2.51
390.60 2.509
390.70 2.508
390.80 2.507
390.90 2.505
391.00 2.504
391.10 2.503
391.20 2.501
391.30 2.5
391.40 2.498
391.50 2.497
391.60 2.495
391.70 2.493
391.80 2.491
391.90 2.489
392.00 2.487
392.10 2.485
392.20 2.483
392.30 2.481
392.40 2.479
392.50 2.477
392.60 2.474
392.70 2.472
392.80 2.469
392.90 2.467
393.00 2.464
393.10 2.462
393.20 2.459
393.30 2.456
393.40 2.453
393.50 2.45
393.60 2.447
393.70 2.444
393.80 2.44
393.90 2.437
394.00 2.433
394.10 2.43
394.20 2.426
394.30 2.423
394.40 2.419
394.50 2.415
394.60 2.411
394.70 2.407
394.80 2.402
394.90 2.398
395.00 2.394
395.10 2.389
395.20 2.384
395.30 2.379
395.40 2.375
395.50 2.37
395.60 2.364
395.70 2.359
395.80 2.354
395.90 2.349
396.00 2.343
396.10 2.338
396.20 2.332
396.30 2.326
396.40 2.321
396.50 2.315
396.60 2.309
396.70 2.304
396.80 2.298
396.90 2.293
397.00 2.289
397.10 2.289
397.20 2.29
397.30 2.291
397.40 2.292
397.50 2.294
397.60 2.295
397.70 2.297
397.80 2.298
397.90 2.3
398.00 2.301
398.10 2.302
398.20 2.304
398.30 2.305
398.40 2.306
398.50 2.307
398.60 2.307
398.70 2.308
398.80 2.309
398.90 2.309
399.00 2.31
399.10 2.31
399.20 2.31
399.30 2.31
399.40 2.31
399.50 2.31
399.60 2.31
399.70 2.309
399.80 2.309
399.90 2.308
400.00 2.308
400.10 2.307
400.20 2.307
400.30 2.306
400.40 2.305
400.50 2.304
400.60 2.303
400.70 2.302
400.80 2.301
400.90 2.3
401.00 2.298
401.10 2.297
401.20 2.296
401.30 2.295
401.40 2.293
401.50 2.292
401.60 2.29
401.70 2.289
401.80 2.287
401.90 2.285
402.00 2.284
402.10 2.282
402.20 2.28
402.30 2.279
402.40 2.277
402.50 2.275
402.60 2.273
402.70 2.271
402.80 2.269
402.90 2.267
403.00 2.265
403.10 2.263
403.20 2.261
403.30 2.259
403.40 2.257
403.50 2.255
403.60 2.253
403.70 2.251
403.80 2.248
403.90 2.246
404.00 2.244
404.10 2.241
404.20 2.239
404.30 2.237
404.40 2.234
404.50 2.232
404.60 2.229
404.70 2.227
404.80 2.224
404.90 2.222
405.00 2.219
405.10 2.217
405.20 2.214
405.30 2.211
405.40 2.208
405.50 2.205
405.60 2.202
405.70 2.2
405.80 2.196
405.90 2.193
406.00 2.19
406.10 2.187
406.20 2.184
406.30 2.18
406.40 2.177
406.50 2.173
406.60 2.17
406.70 2.166
406.80 2.162
406.90 2.159
407.00 2.155
407.10 2.15
407.20 2.146
407.30 2.142
407.40 2.137
407.50 2.133
407.60 2.128
407.70 2.123
407.80 2.118
407.90 2.113
408.00 2.108
408.10 2.102
408.20 2.097
408.30 2.091
408.40 2.085
408.50 2.078
408.60 2.072
408.70 2.065
408.80 2.059
408.90 2.051
409.00 2.044
409.10 2.037
409.20 2.029
409.30 2.022
409.40 2.014
409.50 2.006
409.60 1.998
409.70 1.99
409.80 1.982
409.90 1.975
410.00 1.971
410.10 1.97
410.20 1.971
410.30 1.966
410.40 1.965
410.50 1.967
410.60 1.971
410.70 1.975
410.80 1.98
410.90 1.984
411.00 1.988
411.10 1.993
411.20 1.996
411.30 2
411.40 2.004
411.50 2.007
411.60 2.01
411.70 2.013
411.80 2.016
411.90 2.018
412.00 2.021
412.10 2.023
412.20 2.025
412.30 2.026
412.40 2.028
412.50 2.029
412.60 2.031
412.70 2.032
412.80 2.032
412.90 2.033
413.00 2.034
413.10 2.034
413.20 2.035
413.30 2.035
413.40 2.035
413.50 2.035
413.60 2.035
413.70 2.035
413.80 2.034
413.90 2.034
414.00 2.034
414.10 2.033
414.20 2.032
414.30 2.032
414.40 2.031
414.50 2.03
414.60 2.03
414.70 2.029
414.80 2.028
414.90 2.027
415.00 2.026
415.10 2.025
415.20 2.024
415.30 2.022
415.40 2.021
415.50 2.02
415.60 2.019
415.70 2.017
415.80 2.016
415.90 2.015
416.00 2.014
416.10 2.012
416.20 2.011
416.30 2.009
416.40 2.008
416.50 2.006
416.60 2.005
416.70 2.003
416.80 2.002
416.90 2
417.00 1.999
417.10 1.997
417.20 1.996
417.30 1.994
417.40 1.993
417.50 1.991
417.60 1.99
417.70 1.988
417.80 1.986
417.90 1.985
418.00 1.983
418.10 1.981
418.20 1.98
418.30 1.978
418.40 1.977
418.50 1.975
418.60 1.973
418.70 1.972
418.80 1.97
418.90 1.968
419.00 1.967
419.10 1.965
419.20 1.963
419.30 1.962
419.40 1.96
419.50 1.958
419.60 1.956
419.70 1.955
419.80 1.953
419.90 1.951
420.00 1.95
420.10 1.948
420.20 1.946
420.30 1.944
420.40 1.943
420.50 1.941
420.60 1.939
420.70 1.938
420.80 1.936
420.90 1.934
421.00 1.932
421.10 1.931
421.20 1.929
421.30 1.927
421.40 1.926
421.50 1.924
421.60 1.922
421.70 1.92
421.80 1.919
421.90 1.917
422.00 1.915
422.10 1.913
422.20 1.912
422.30 1.91
422.40 1.908
422.50 1.906
422.60 1.905
422.70 1.903
422.80 1.901
422.90 1.899
423.00 1.898
423.10 1.896
423.20 1.894
423.30 1.893
423.40 1.891
423.50 1.889
423.60 1.887
423.70 1.886
423.80 1.884
423.90 1.882
424.00 1.88
424.10 1.878
424.20 1.877
424.30 1.875
424.40 1.873
424.50 1.871
424.60 1.87
424.70 1.868
424.80 1.866
424.90 1.864
425.00 1.863
425.10 1.861
425.20 1.859
425.30 1.857
425.40 1.855
425.50 1.854
425.60 1.852
425.70 1.85
425.80 1.848
425.90 1.846
426.00 1.845
426.10 1.843
426.20 1.841
426.30 1.839
426.40 1.837
426.50 1.835
426.60 1.834
426.70 1.832
426.80 1.83
426.90 1.828
427.00 1.826
427.10 1.824
427.20 1.822
427.30 1.82
427.40 1.818
427.50 1.817
427.60 1.815
427.70 1.813
427.80 1.811
427.90 1.809
428.00 1.807
428.10 1.805
428.20 1.802
428.30 1.8
428.40 1.798
428.50 1.796
428.60 1.794
428.70 1.792
428.80 1.79
428.90 1.787
429.00 1.785
429.10 1.783
429.20 1.781
429.30 1.778
429.40 1.776
429.50 1.773
429.60 1.771
429.70 1.768
429.80 1.766
429.90 1.763
430.00 1.76
430.10 1.757
430.20 1.755
430.30 1.752
430.40 1.749
430.50 1.745
430.60 1.742
430.70 1.739
430.80 1.736
430.90 1.732
431.00 1.728
431.10 1.725
431.20 1.721
431.30 1.717
431.40 1.713
431.50 1.708
431.60 1.704
431.70 1.699
431.80 1.694
431.90 1.689
432.00 1.684
432.10 1.679
432.20 1.673
432.30 1.667
432.40 1.661
432.50 1.654
432.60 1.648
432.70 1.641
432.80 1.634
432.90 1.627
433.00 1.619
433.10 1.611
433.20 1.603
433.30 1.595
433.40 1.587
433.50 1.579
433.60 1.571
433.70 1.563
433.80 1.555
433.90 1.547
434.00 1.54
434.10 1.539
434.20 1.543
434.30 1.549
434.40 1.554
434.50 1.559
434.60 1.565
434.70 1.57
434.80 1.576
434.90 1.581
435.00 1.586
435.10 1.591
435.20 1.596
435.30 1.6
435.40 1.604
435.50 1.608
435.60 1.612
435.70 1.615
435.80 1.618
435.90 1.621
436.00 1.624
436.10 1.626
436.20 1.629
436.30 1.631
436.40 1.632
436.50 1.634
436.60 1.635
436.70 1.637
436.80 1.638
436.90 1.639
437.00 1.64
437.10 1.64
437.20 1.641
437.30 1.641
437.40 1.641
437.50 1.642
437.60 1.642
437.70 1.642
437.80 1.642
437.90 1.641
438.00 1.641
438.10 1.641
438.20 1.641
438.30 1.64
438.40 1.64
438.50 1.639
438.60 1.639
438.70 1.638
438.80 1.637
438.90 1.636
439.00 1.636
439.10 1.635
439.20 1.634
439.30 1.633
439.40 1.632
439.50 1.631
439.60 1.63
439.70 1.629
439.80 1.629
439.90 1.627
440.00 1.626
440.10 1.625
440.20 1.624
440.30 1.623
440.40 1.622
440.50 1.621
440.60 1.62
440.70 1.619
440.80 1.618
440.90 1.616
441.00 1.615
441.10 1.614
441.20 1.613
441.30 1.612
441.40 1.611
441.50 1.609
441.60 1.608
441.70 1.607
441.80 1.606
441.90 1.604
442.00 1.603
442.10 1.602
442.20 1.601
442.30 1.599
442.40 1.598
442.50 1.597
442.60 1.596
442.70 1.594
442.80 1.593
442.90 1.592
443.00 1.591
443.10 1.589
443.20 1.588
443.30 1.587
443.40 1.585
443.50 1.584
443.60 1.583
443.70 1.582
443.80 1.58
443.90 1.579
444.00 1.578
444.10 1.576
444.20 1.575
444.30 1.574
444.40 1.573
444.50 1.571
444.60 1.57
444.70 1.569
444.80 1.567
444.90 1.566
445.00 1.565
445.10 1.563
445.20 1.562
445.30 1.561
445.40 1.559
445.50 1.558
445.60 1.557
445.70 1.556
445.80 1.554
445.90 1.553
446.00 1.552
446.10 1.55
446.20 1.549
446.30 1.548
446.40 1.546
446.50 1.545
446.60 1.544
446.70 1.543
446.80 1.541
446.90 1.54
447.00 1.539
447.10 1.537
447.20 1.536
447.30 1.535
447.40 1.534
447.50 1.532
447.60 1.531
447.70 1.53
447.80 1.528
447.90 1.527
448.00 1.526
448.10 1.524
448.20 1.523
448.30 1.522
448.40 1.521
448.50 1.519
448.60 1.518
448.70 1.517
448.80 1.515
448.90 1.514
449.00 1.513
449.10 1.512
449.20 1.51
449.30 1.509
449.40 1.508
449.50 1.507
449.60 1.505
449.70 1.504
449.80 1.503
449.90 1.501
450.00 1.5
450.10 1.499
450.20 1.498
450.30 1.496
450.40 1.495
450.50 1.494
450.60 1.493
450.70 1.491
450.80 1.49
450.90 1.489
451.00 1.488
451.10 1.486
451.20 1.485
451.30 1.484
451.40 1.483
451.50 1.481
451.60 1.48
451.70 1.479
451.80 1.477
451.90 1.476
452.00 1.475
452.10 1.474
452.20 1.473
452.30 1.471
452.40 1.47
452.50 1.469
452.60 1.468
452.70 1.466
452.80 1.465
452.90 1.464
453.00 1.463
453.10 1.461
453.20 1.46
453.30 1.459
453.40 1.458
453.50 1.456
453.60 1.455
453.70 1.454
453.80 1.453
453.90 1.452
454.00 1.45
454.10 1.449
454.20 1.448
454.30 1.447
454.40 1.445
454.50 1.444
454.60 1.443
454.70 1.442
454.80 1.441
454.90 1.439
455.00 1.438
455.10 1.437
455.20 1.436
455.30 1.434
455.40 1.433
455.50 1.432
455.60 1.431
455.70 1.43
455.80 1.428
455.90 1.427
456.00 1.426
456.10 1.425
456.20 1.424
456.30 1.422
456.40 1.421
456.50 1.42
456.60 1.419
456.70 1.418
456.80 1.416
456.90 1.415
457.00 1.414
457.10 1.413
457.20 1.412
457.30 1.411
457.40 1.409
457.50 1.408
457.60 1.407
457.70 1.406
457.80 1.405
457.90 1.403
458.00 1.402
458.10 1.401
458.20 1.4
458.30 1.399
458.40 1.398
458.50 1.396
458.60 1.395
458.70 1.394
458.80 1.393
458.90 1.392
459.00 1.391
459.10 1.389
459.20 1.388
459.30 1.387
459.40 1.386
459.50 1.385
459.60 1.384
459.70 1.382
459.80 1.381
459.90 1.38
460.00 1.379
460.10 1.378
460.20 1.377
460.30 1.376
460.40 1.374
460.50 1.373
460.60 1.372
460.70 1.371
460.80 1.37
460.90 1.369
461.00 1.368
461.10 1.366
461.20 1.365
461.30 1.364
461.40 1.363
461.50 1.362
461.60 1.361
461.70 1.36
461.80 1.358
461.90 1.357
462.00 1.356
462.10 1.355
462.20 1.354
462.30 1.353
462.40 1.352
462.50 1.35
462.60 1.349
462.70 1.348
462.80 1.347
462.90 1.346
463.00 1.345
463.10 1.344
463.20 1.343
463.30 1.342
463.40 1.34
463.50 1.339
463.60 1.338
463.70 1.337
463.80 1.336
463.90 1.335
464.00 1.334
464.10 1.333
464.20 1.332
464.30 1.33
464.40 1.329
464.50 1.328
464.60 1.327
464.70 1.326
464.80 1.325
464.90 1.324
465.00 1.323
465.10 1.322
465.20 1.321
465.30 1.319
465.40 1.318
465.50 1.317
465.60 1.316
465.70 1.315
465.80 1.314
465.90 1.313
466.00 1.312
466.10 1.311
466.20 1.31
466.30 1.309
466.40 1.307
466.50 1.306
466.60 1.305
466.70 1.304
466.80 1.303
466.90 1.302
467.00 1.301
467.10 1.3
467.20 1.299
467.30 1.298
467.40 1.297
467.50 1.296
467.60 1.294
467.70 1.293
467.80 1.292
467.90 1.291
468.00 1.29
468.10 1.289
468.20 1.288
468.30 1.287
468.40 1.286
468.50 1.285
468.60 1.284
468.70 1.283
468.80 1.282
468.90 1.281
469.00 1.28
469.10 1.278
469.20 1.277
469.30 1.276
469.40 1.275
469.50 1.274
469.60 1.273
469.70 1.272
469.80 1.271
469.90 1.27
470.00 1.269
470.10 1.268
470.20 1.267
470.30 1.266
470.40 1.265
470.50 1.264
470.60 1.263
470.70 1.262
470.80 1.261
470.90 1.26
471.00 1.259
471.10 1.257
471.20 1.256
471.30 1.255
471.40 1.254
471.50 1.253
471.60 1.252
471.70 1.251
471.80 1.25
471.90 1.249
472.00 1.248
472.10 1.247
472.20 1.246
472.30 1.245
472.40 1.244
472.50 1.243
472.60 1.242
472.70 1.241
472.80 1.24
472.90 1.239
473.00 1.238
473.10 1.237
473.20 1.236
473.30 1.235
473.40 1.234
473.50 1.233
473.60 1.232
473.70 1.231
473.80 1.23
473.90 1.229
474.00 1.227
474.10 1.226
474.20 1.225
474.30 1.224
474.40 1.223
474.50 1.222
474.60 1.221
474.70 1.22
474.80 1.219
474.90 1.218
475.00 1.217
475.10 1.216
475.20 1.215
475.30 1.214
475.40 1.213
475.50 1.212
475.60 1.211
475.70 1.21
475.80 1.209
475.90 1.208
476.00 1.207
476.10 1.206
476.20 1.205
476.30 1.204
476.40 1.203
476.50 1.202
476.60 1.201
476.70 1.2
476.80 1.199
476.90 1.198
477.00 1.197
477.10 1.196
477.20 1.194
477.30 1.193
477.40 1.192
477.50 1.191
477.60 1.19
477.70 1.189
477.80 1.188
477.90 1.187
478.00 1.186
478.10 1.185
478.20 1.184
478.30 1.183
478.40 1.182
478.50 1.181
478.60 1.18
478.70 1.178
478.80 1.177
478.90 1.176
479.00 1.175
479.10 1.174
479.20 1.173
479.30 1.172
479.40 1.171
479.50 1.169
479.60 1.168
479.70 1.167
479.80 1.166
479.90 1.165
480.00 1.164
480.10 1.163
480.20 1.161
480.30 1.16
480.40 1.159
480.50 1.157
480.60 1.156
480.70 1.155
480.80 1.154
480.90 1.152
481.00 1.151
481.10 1.15
481.20 1.148
481.30 1.147
481.40 1.145
481.50 1.144
481.60 1.142
481.70 1.141
481.80 1.139
481.90 1.138
482.00 1.136
482.10 1.135
482.20 1.133
482.30 1.131
482.40 1.129
482.50 1.127
482.60 1.125
482.70 1.123
482.80 1.122
482.90 1.12
483.00 1.118
483.10 1.116
483.20 1.113
483.30 1.11
483.40 1.108
483.50 1.105
483.60 1.102
483.70 1.099
483.80 1.097
483.90 1.094
484.00 1.091
484.10 1.088
484.20 1.085
484.30 1.081
484.40 1.077
484.50 1.074
484.60 1.07
484.70 1.066
484.80 1.061
484.90 1.056
485.00 1.052
485.10 1.047
485.20 1.042
485.30 1.037
485.40 1.032
485.50 1.026
485.60 1.021
485.70 1.015
485.80 1.008
485.90 1.002
486.00 0.9961
486.10 1.005
486.20 0.9981
486.30 0.9948
486.40 0.9998
486.50 1.005
486.60 1.01
486.70 1.014
486.80 1.018
486.90 1.022
487.00 1.025
487.10 1.029
487.20 1.032
487.30 1.035
487.40 1.038
487.50 1.041
487.60 1.044
487.70 1.046
487.80 1.048
487.90 1.05
488.00 1.052
488.10 1.054
488.20 1.055
488.30 1.056
488.40 1.057
488.50 1.058
488.60 1.059
488.70 1.06
488.80 1.061
488.90 1.062
489.00 1.063
489.10 1.064
489.20 1.065
489.30 1.065
489.40 1.065
489.50 1.065
489.60 1.065
489.70 1.065
489.80 1.065
489.90 1.066
490.00 1.066
490.10 1.066
490.20 1.066
490.30 1.065
490.40 1.065
490.50 1.065
490.60 1.064
490.70 1.064
490.80 1.064
490.90 1.063
491.00 1.063
491.10 1.063
491.20 1.062
491.30 1.062
491.40 1.061
491.50 1.061
491.60 1.06
491.70 1.06
491.80 1.059
491.90 1.059
492.00 1.058
492.10 1.058
492.20 1.057
492.30 1.056
492.40 1.056
492.50 1.055
492.60 1.055
492.70 1.054
492.80 1.053
492.90 1.053
493.00 1.052
493.10 1.051
493.20 1.051
493.30 1.05
493.40 1.049
493.50 1.049
493.60 1.048
493.70 1.047
493.80 1.046
493.90 1.046
494.00 1.045
494.10 1.044
494.20 1.044
494.30 1.043
494.40 1.042
494.50 1.041
494.60 1.041
494.70 1.04
494.80 1.039
494.90 1.039
495.00 1.038
495.10 1.037
495.20 1.036
495.30 1.036
495.40 1.035
495.50 1.034
495.60 1.033
495.70 1.033
495.80 1.032
495.90 1.031
496.00 1.03
496.10 1.03
496.20 1.029
496.30 1.028
496.40 1.027
496.50 1.027
496.60 1.026
496.70 1.025
496.80 1.024
496.90 1.024
497.00 1.023
497.10 1.022
497.20 1.021
497.30 1.02
497.40 1.02
497.50 1.019
497.60 1.018
497.70 1.017
497.80 1.017
497.90 1.016
498.00 1.015
498.10 1.014
498.20 1.014
498.30 1.013
498.40 1.012
498.50 1.011
498.60 1.011
498.70 1.01
498.80 1.009
498.90 1.008
499.00 1.008
499.10 1.007
499.20 1.006
499.30 1.005
499.40 1.005
499.50 1.004
499.60 1.003
499.70 1.002
499.80 1.002
499.90 1.001
500.00 1
500.10 0.9992
500.20 0.9985
500.30 0.9977
500.40 0.997
500.50 0.9962
500.60 0.9955
500.70 0.9947
500.80 0.994
500.90 0.9932
501.00 0.9925
501.10 0.9917
501.20 0.991
501.30 0.9902
501.40 0.9895
501.50 0.9887
501.60 0.988
501.70 0.9872
501.80 0.9865
501.90 0.9857
502.00 0.985
502.10 0.9842
502.20 0.9835
502.30 0.9827
502.40 0.982
502.50 0.9812
502.60 0.9805
502.70 0.9797
502.80 0.979
502.90 0.9783
503.00 0.9775
503.10 0.9768
503.20 0.976
503.30 0.9753
503.40 0.9746
503.50 0.9738
503.60 0.9731
503.70 0.9723
503.80 0.9716
503.90 0.9709
504.00 0.9701
504.10 0.9694
504.20 0.9687
504.30 0.9679
504.40 0.9672
504.50 0.9665
504.60 0.9657
504.70 0.965
504.80 0.9643
504.90 0.9635
505.00 0.9628
505.10 0.9621
505.20 0.9613
505.30 0.9606
505.40 0.9599
505.50 0.9592
505.60 0.9584
505.70 0.9577
505.80 0.957
505.90 0.9563
506.00 0.9555
506.10 0.9548
506.20 0.9541
506.30 0.9534
506.40 0.9526
506.50 0.9519
506.60 0.9512
506.70 0.9505
506.80 0.9498
506.90 0.949
507.00 0.9483
507.10 0.9476
507.20 0.9469
507.30 0.9462
507.40 0.9455
507.50 0.9447
507.60 0.944
507.70 0.9433
507.80 0.9426
507.90 0.9419
508.00 0.9412
508.10 0.9405
508.20 0.9398
508.30 0.939
508.40 0.9383
508.50 0.9376
508.60 0.9369
508.70 0.9362
508.80 0.9355
508.90 0.9348
509.00 0.9341
509.10 0.9334
509.20 0.9327
509.30 0.932
509.40 0.9313
509.50 0.9306
509.60 0.9299
509.70 0.9292
509.80 0.9285
509.90 0.9278
510.00 0.9271
510.10 0.9264
510.20 0.9257
510.30 0.925
510.40 0.9243
510.50 0.9236
510.60 0.9229
510.70 0.9222
510.80 0.9215
510.90 0.9208
511.00 0.9201
511.10 0.9194
511.20 0.9187
511.30 0.9181
511.40 0.9174
511.50 0.9167
511.60 0.916
511.70 0.9153
511.80 0.9146
511.90 0.9139
512.00 0.9132
512.10 0.9125
512.20 0.9119
512.30 0.9112
512.40 0.9105
512.50 0.9098
512.60 0.9091
512.70 0.9084
512.80 0.9078
512.90 0.9071
513.00 0.9064
513.10 0.9057
513.20 0.905
513.30 0.9044
513.40 0.9037
513.50 0.903
513.60 0.9023
513.70 0.9017
513.80 0.901
513.90 0.9003
514.00 0.8996
514.10 0.899
514.20 0.8983
514.30 0.8976
514.40 0.8969
514.50 0.8963
514.60 0.8956
514.70 0.8949
514.80 0.8943
514.90 0.8936
515.00 0.8929
515.10 0.8923
515.20 0.8916
515.30 0.8909
515.40 0.8903
515.50 0.8896
515.60 0.8889
515.70 0.8883
515.80 0.8876
515.90 0.8869
516.00 0.8863
516.10 0.8856
516.20 0.885
516.30 0.8843
516.40 0.8836
516.50 0.883
516.60 0.8823
516.70 0.8817
516.80 0.881
516.90 0.8804
517.00 0.8797
517.10 0.879
517.20 0.8784
517.30 0.8777
517.40 0.8771
517.50 0.8764
517.60 0.8758
517.70 0.8751
517.80 0.8745
517.90 0.8738
518.00 0.8732
518.10 0.8725
518.20 0.8719
518.30 0.8712
518.40 0.8706
518.50 0.8699
518.60 0.8693
518.70 0.8686
518.80 0.868
518.90 0.8674
519.00 0.8667
519.10 0.8661
519.20 0.8654
519.30 0.8648
519.40 0.8641
519.50 0.8635
519.60 0.8629
519.70 0.8622
519.80 0.8616
519.90 0.8609
520.00 0.8603
520.10 0.8597
520.20 0.859
520.30 0.8584
520.40 0.8578
520.50 0.8571
520.60 0.8565
520.70 0.8559
520.80 0.8552
520.90 0.8546
521.00 0.854
521.10 0.8533
521.20 0.8527
521.30 0.8521
521.40 0.8514
521.50 0.8508
521.60 0.8502
521.70 0.8496
521.80 0.8489
521.90 0.8483
522.00 0.8477
522.10 0.847
522.20 0.8464
522.30 0.8458
522.40 0.8452
522.50 0.8446
522.60 0.8439
522.70 0.8433
522.80 0.8427
522.90 0.8421
523.00 0.8414
523.10 0.8408
523.20 0.8402
523.30 0.8396
523.40 0.839
523.50 0.8383
523.60 0.8377
523.70 0.8371
523.80 0.8365
523.90 0.8359
524.00 0.8353
524.10 0.8347
524.20 0.834
524.30 0.8334
524.40 0.8328
524.50 0.8322
524.60 0.8316
524.70 0.831
524.80 0.8304
524.90 0.8298
525.00 0.8292
525.10 0.8285
525.20 0.8279
525.30 0.8273
525.40 0.8267
525.50 0.8261
525.60 0.8255
525.70 0.8249
525.80 0.8243
525.90 0.8237
526.00 0.8231
526.10 0.8225
526.20 0.8219
526.30 0.8213
526.40 0.8207
526.50 0.8201
526.60 0.8195
526.70 0.8189
526.80 0.8183
526.90 0.8177
527.00 0.8171
527.10 0.8165
527.20 0.8159
527.30 0.8153
527.40 0.8147
527.50 0.8141
527.60 0.8135
527.70 0.8129
527.80 0.8123
527.90 0.8117
528.00 0.8111
528.10 0.8105
528.20 0.8099
528.30 0.8094
528.40 0.8088
528.50 0.8082
528.60 0.8076
528.70 0.807
528.80 0.8064
528.90 0.8058
529.00 0.8052
529.10 0.8047
529.20 0.8041
529.30 0.8035
529.40 0.8029
529.50 0.8023
529.60 0.8017
529.70 0.8011
529.80 0.8006
529.90 0.8
530.00 0.7994
530.10 0.7988
530.20 0.7982
530.30 0.7976
530.40 0.7971
530.50 0.7965
530.60 0.7959
530.70 0.7953
530.80 0.7948
530.90 0.7942
531.00 0.7936
531.10 0.793
531.20 0.7924
531.30 0.7919
531.40 0.7913
531.50 0.7907
531.60 0.7902
531.70 0.7896
531.80 0.789
531.90 0.7884
532.00 0.7879
532.10 0.7873
532.20 0.7867
532.30 0.7862
532.40 0.7856
532.50 0.785
532.60 0.7844
532.70 0.7839
532.80 0.7833
532.90 0.7827
533.00 0.7822
533.10 0.7816
533.20 0.781
533.30 0.7805
533.40 0.7799
533.50 0.7794
533.60 0.7788
533.70 0.7782
533.80 0.7777
533.90 0.7771
534.00 0.7765
534.10 0.776
534.20 0.7754
534.30 0.7749
534.40 0.7743
534.50 0.7737
534.60 0.7732
534.70 0.7726
534.80 0.7721
534.90 0.7715
535.00 0.771
535.10 0.7704
535.20 0.7698
535.30 0.7693
535.40 0.7687
535.50 0.7682
535.60 0.7676
535.70 0.7671
535.80 0.7665
535.90 0.766
536.00 0.7654
536.10 0.7649
536.20 0.7643
536.30 0.7638
536.40 0.7632
536.50 0.7627
536.60 0.7621
536.70 0.7616
536.80 0.761
536.90 0.7605
537.00 0.7599
537.10 0.7594
537.20 0.7588
537.30 0.7583
537.40 0.7578
537.50 0.7572
537.60 0.7567
537.70 0.7561
537.80 0.7556
537.90 0.755
538.00 0.7545
538.10 0.754
538.20 0.7534
538.30 0.7529
538.40 0.7523
538.50 0.7518
538.60 0.7513
538.70 0.7507
538.80 0.7502
538.90 0.7496
539.00 0.7491
539.10 0.7486
539.20 0.748
539.30 0.7475
539.40 0.747
539.50 0.7464
539.60 0.7459
539.70 0.7454
539.80 0.7448
539.90 0.7443
540.00 0.7438
540.10 0.7432
540.20 0.7427
540.30 0.7422
540.40 0.7417
540.50 0.7411
540.60 0.7406
540.70 0.7401
540.80 0.7395
540.90 0.739
541.00 0.7385
541.10 0.738
541.20 0.7374
541.30 0.7369
541.40 0.7364
541.50 0.7359
541.60 0.7353
541.70 0.7348
541.80 0.7343
541.90 0.7338
542.00 0.7332
542.10 0.7327
542.20 0.7322
542.30 0.7317
542.40 0.7312
542.50 0.7306
542.60 0.7301
542.70 0.7296
542.80 0.7291
542.90 0.7286
543.00 0.728
543.10 0.7275
543.20 0.727
543.30 0.7265
543.40 0.726
543.50 0.7255
543.60 0.7249
543.70 0.7244
543.80 0.7239
543.90 0.7234
544.00 0.7229
544.10 0.7224
544.20 0.7219
544.30 0.7213
544.40 0.7208
544.50 0.7203
544.60 0.7198
544.70 0.7193
544.80 0.7188
544.90 0.7183
545.00 0.7178
545.10 0.7173
545.20 0.7168
545.30 0.7163
545.40 0.7158
545.50 0.7152
545.60 0.7147
545.70 0.7142
545.80 0.7137
545.90 0.7132
546.00 0.7127
546.10 0.7122
546.20 0.7117
546.30 0.7112
546.40 0.7107
546.50 0.7102
546.60 0.7097
546.70 0.7092
546.80 0.7087
546.90 0.7082
547.00 0.7077
547.10 0.7072
547.20 0.7067
547.30 0.7062
547.40 0.7057
547.50 0.7052
547.60 0.7047
547.70 0.7042
547.80 0.7037
547.90 0.7032
548.00 0.7027
548.10 0.7022
548.20 0.7017
548.30 0.7012
548.40 0.7008
548.50 0.7003
548.60 0.6998
548.70 0.6993
548.80 0.6988
548.90 0.6983
549.00 0.6978
549.10 0.6973
549.20 0.6968
549.30 0.6963
549.40 0.6958
549.50 0.6954
549.60 0.6949
549.70 0.6944
549.80 0.6939
549.90 0.6934
550.00 0.6929
550.10 0.6924
550.20 0.6919
550.30 0.6915
550.40 0.691
550.50 0.6905
550.60 0.69
550.70 0.6895
550.80 0.689
550.90 0.6886
551.00 0.6881
551.10 0.6876
551.20 0.6871
551.30 0.6866
551.40 0.6862
551.50 0.6857
551.60 0.6852
551.70 0.6847
551.80 0.6842
551.90 0.6838
552.00 0.6833
552.10 0.6828
552.20 0.6823
552.30 0.6818
552.40 0.6814
552.50 0.6809
552.60 0.6804
552.70 0.6799
552.80 0.6795
552.90 0.679
553.00 0.6785
553.10 0.678
553.20 0.6776
553.30 0.6771
553.40 0.6766
553.50 0.6762
553.60 0.6757
553.70 0.6752
553.80 0.6747
553.90 0.6743
554.00 0.6738
554.10 0.6733
554.20 0.6729
554.30 0.6724
554.40 0.6719
554.50 0.6715
554.60 0.671
554.70 0.6705
554.80 0.6701
554.90 0.6696
555.00 0.6691
555.10 0.6687
555.20 0.6682
555.30 0.6677
555.40 0.6673
555.50 0.6668
555.60 0.6663
555.70 0.6659
555.80 0.6654
555.90 0.6649
556.00 0.6645
556.10 0.664
556.20 0.6636
556.30 0.6631
556.40 0.6626
556.50 0.6622
556.60 0.6617
556.70 0.6613
556.80 0.6608
556.90 0.6603
557.00 0.6599
557.10 0.6594
557.20 0.659
557.30 0.6585
557.40 0.6581
557.50 0.6576
557.60 0.6572
557.70 0.6567
557.80 0.6562
557.90 0.6558
558.00 0.6553
558.10 0.6549
558.20 0.6544
558.30 0.654
558.40 0.6535
558.50 0.6531
558.60 0.6526
558.70 0.6522
558.80 0.6517
558.90 0.6513
559.00 0.6508
559.10 0.6504
559.20 0.6499
559.30 0.6495
559.40 0.649
559.50 0.6486
559.60 0.6481
559.70 0.6477
559.80 0.6472
559.90 0.6468
560.00 0.6463
560.10 0.6459
560.20 0.6455
560.30 0.645
560.40 0.6446
560.50 0.6441
560.60 0.6437
560.70 0.6432
560.80 0.6428
560.90 0.6423
561.00 0.6419
561.10 0.6415
561.20 0.641
561.30 0.6406
561.40 0.6401
561.50 0.6397
561.60 0.6393
561.70 0.6388
561.80 0.6384
561.90 0.6379
562.00 0.6375
562.10 0.6371
562.20 0.6366
562.30 0.6362
562.40 0.6358
562.50 0.6353
562.60 0.6349
562.70 0.6344
562.80 0.634
562.90 0.6336
563.00 0.6331
563.10 0.6327
563.20 0.6323
563.30 0.6318
563.40 0.6314
563.50 0.631
563.60 0.6305
563.70 0.6301
563.80 0.6297
563.90 0.6292
564.00 0.6288
564.10 0.6284
564.20 0.6279
564.30 0.6275
564.40 0.6271
564.50 0.6267
564.60 0.6262
564.70 0.6258
564.80 0.6254
564.90 0.625
565.00 0.6245
565.10 0.6241
565.20 0.6237
565.30 0.6232
565.40 0.6228
565.50 0.6224
565.60 0.622
565.70 0.6215
565.80 0.6211
565.90 0.6207
566.00 0.6203
566.10 0.6198
566.20 0.6194
566.30 0.619
566.40 0.6186
566.50 0.6182
566.60 0.6177
566.70 0.6173
566.80 0.6169
566.90 0.6165
567.00 0.6161
567.10 0.6156
567.20 0.6152
567.30 0.6148
567.40 0.6144
567.50 0.614
567.60 0.6135
567.70 0.6131
567.80 0.6127
567.90 0.6123
568.00 0.6119
568.10 0.6115
568.20 0.611
568.30 0.6106
568.40 0.6102
568.50 0.6098
568.60 0.6094
568.70 0.609
568.80 0.6086
568.90 0.6081
569.00 0.6077
569.10 0.6073
569.20 0.6069
569.30 0.6065
569.40 0.6061
569.50 0.6057
569.60 0.6053
569.70 0.6048
569.80 0.6044
569.90 0.604
570.00 0.6036
570.10 0.6032
570.20 0.6028
570.30 0.6024
570.40 0.602
570.50 0.6016
570.60 0.6012
570.70 0.6008
570.80 0.6004
570.90 0.6
571.00 0.5995
571.10 0.5991
571.20 0.5987
571.30 0.5983
571.40 0.5979
571.50 0.5975
571.60 0.5971
571.70 0.5967
571.80 0.5963
571.90 0.5959
572.00 0.5955
572.10 0.5951
572.20 0.5947
572.30 0.5943
572.40 0.5939
572.50 0.5935
572.60 0.5931
572.70 0.5927
572.80 0.5923
572.90 0.5919
573.00 0.5915
573.10 0.5911
573.20 0.5907
573.30 0.5903
573.40 0.5899
573.50 0.5895
573.60 0.5891
573.70 0.5887
573.80 0.5883
573.90 0.5879
574.00 0.5875
574.10 0.5871
574.20 0.5867
574.30 0.5863
574.40 0.5859
574.50 0.5856
574.60 0.5852
574.70 0.5848
574.80 0.5844
574.90 0.584
575.00 0.5836
575.10 0.5832
575.20 0.5828
575.30 0.5824
575.40 0.582
575.50 0.5816
575.60 0.5812
575.70 0.5808
575.80 0.5805
575.90 0.5801
576.00 0.5797
576.10 0.5793
576.20 0.5789
576.30 0.5785
576.40 0.5781
576.50 0.5777
576.60 0.5774
576.70 0.577
576.80 0.5766
576.90 0.5762
577.00 0.5758
577.10 0.5754
577.20 0.575
577.30 0.5747
577.40 0.5743
577.50 0.5739
577.60 0.5735
577.70 0.5731
577.80 0.5727
577.90 0.5723
578.00 0.572
578.10 0.5716
578.20 0.5712
578.30 0.5708
578.40 0.5704
578.50 0.5701
578.60 0.5697
578.70 0.5693
578.80 0.5689
578.90 0.5685
579.00 0.5682
579.10 0.5678
579.20 0.5674
579.30 0.567
579.40 0.5666
579.50 0.5663
579.60 0.5659
579.70 0.5655
579.80 0.5651
579.90 0.5648
580.00 0.5644
580.10 0.564
580.20 0.5636
580.30 0.5633
580.40 0.5629
580.50 0.5625
580.60 0.5621
580.70 0.5618
580.80 0.5614
580.90 0.561
581.00 0.5606
581.10 0.5603
581.20 0.5599
581.30 0.5595
581.40 0.5591
581.50 0.5588
581.60 0.5584
581.70 0.558
581.80 0.5577
581.90 0.5573
582.00 0.5569
582.10 0.5565
582.20 0.5562
582.30 0.5558
582.40 0.5554
582.50 0.5551
582.60 0.5547
582.70 0.5543
582.80 0.554
582.90 0.5536
583.00 0.5532
583.10 0.5529
583.20 0.5525
583.30 0.5521
583.40 0.5518
583.50 0.5514
583.60 0.551
583.70 0.5507
583.80 0.5503
583.90 0.5499
584.00 0.5496
584.10 0.5492
584.20 0.5489
584.30 0.5485
584.40 0.5481
584.50 0.5478
584.60 0.5474
584.70 0.547
584.80 0.5467
584.90 0.5463
585.00 0.546
585.10 0.5456
585.20 0.5452
585.30 0.5449
585.40 0.5445
585.50 0.5442
585.60 0.5438
585.70 0.5434
585.80 0.5431
585.90 0.5427
586.00 0.5424
586.10 0.542
586.20 0.5416
586.30 0.5413
586.40 0.5409
586.50 0.5406
586.60 0.5402
586.70 0.5399
586.80 0.5395
586.90 0.5392
587.00 0.5388
587.10 0.5384
587.20 0.5381
587.30 0.5377
587.40 0.5374
587.50 0.537
587.60 0.5367
587.70 0.5363
587.80 0.536
587.90 0.5356
588.00 0.5353
588.10 0.5349
588.20 0.5346
588.30 0.5342
588.40 0.5339
588.50 0.5335
588.60 0.5332
588.70 0.5328
588.80 0.5325
588.90 0.5321
589.00 0.5318
589.10 0.5314
589.20 0.5311
589.30 0.5307
589.40 0.5304
589.50 0.53
589.60 0.5297
589.70 0.5293
589.80 0.529
589.90 0.5286
590.00 0.5283
590.10 0.5279
590.20 0.5276
590.30 0.5272
590.40 0.5269
590.50 0.5266
590.60 0.5262
590.70 0.5259
590.80 0.5255
590.90 0.5252
591.00 0.5248
591.10 0.5245
591.20 0.5241
591.30 0.5238
591.40 0.5235
591.50 0.5231
591.60 0.5228
591.70 0.5224
591.80 0.5221
591.90 0.5218
592.00 0.5214
592.10 0.5211
592.20 0.5207
592.30 0.5204
592.40 0.5201
592.50 0.5197
592.60 0.5194
592.70 0.519
592.80 0.5187
592.90 0.5184
593.00 0.518
593.10 0.5177
593.20 0.5173
593.30 0.517
593.40 0.5167
593.50 0.5163
593.60 0.516
593.70 0.5157
593.80 0.5153
593.90 0.515
594.00 0.5147
594.10 0.5143
594.20 0.514
594.30 0.5137
594.40 0.5133
594.50 0.513
594.60 0.5127
594.70 0.5123
594.80 0.512
594.90 0.5117
595.00 0.5113
595.10 0.511
595.20 0.5107
595.30 0.5103
595.40 0.51
595.50 0.5097
595.60 0.5093
595.70 0.509
595.80 0.5087
595.90 0.5083
596.00 0.508
596.10 0.5077
596.20 0.5073
596.30 0.507
596.40 0.5067
596.50 0.5064
596.60 0.506
596.70 0.5057
596.80 0.5054
596.90 0.5051
597.00 0.5047
597.10 0.5044
597.20 0.5041
597.30 0.5037
597.40 0.5034
597.50 0.5031
597.60 0.5028
597.70 0.5024
597.80 0.5021
597.90 0.5018
598.00 0.5015
598.10 0.5011
598.20 0.5008
598.30 0.5005
598.40 0.5002
598.50 0.4998
598.60 0.4995
598.70 0.4992
598.80 0.4989
598.90 0.4986
599.00 0.4982
599.10 0.4979
599.20 0.4976
599.30 0.4973
599.40 0.497
599.50 0.4966
599.60 0.4963
599.70 0.496
599.80 0.4957
599.90 0.4954
600.00 0.495
600.10 0.4947
600.20 0.4944
600.30 0.4941
600.40 0.4938
600.50 0.4934
600.60 0.4931
600.70 0.4928
600.80 0.4925
600.90 0.4922
601.00 0.4919
601.10 0.4915
601.20 0.4912
601.30 0.4909
601.40 0.4906
601.50 0.4903
601.60 0.49
601.70 0.4896
601.80 0.4893
601.90 0.489
602.00 0.4887
602.10 0.4884
602.20 0.4881
602.30 0.4878
602.40 0.4874
602.50 0.4871
602.60 0.4868
602.70 0.4865
602.80 0.4862
602.90 0.4859
603.00 0.4856
603.10 0.4853
603.20 0.4849
603.30 0.4846
603.40 0.4843
603.50 0.484
603.60 0.4837
603.70 0.4834
603.80 0.4831
603.90 0.4828
604.00 0.4825
604.10 0.4822
604.20 0.4818
604.30 0.4815
604.40 0.4812
604.50 0.4809
604.60 0.4806
604.70 0.4803
604.80 0.48
604.90 0.4797
605.00 0.4794
605.10 0.4791
605.20 0.4788
605.30 0.4785
605.40 0.4782
605.50 0.4779
605.60 0.4776
605.70 0.4772
605.80 0.4769
605.90 0.4766
606.00 0.4763
606.10 0.476
606.20 0.4757
606.30 0.4754
606.40 0.4751
606.50 0.4748
606.60 0.4745
606.70 0.4742
606.80 0.4739
606.90 0.4736
607.00 0.4733
607.10 0.473
607.20 0.4727
607.30 0.4724
607.40 0.4721
607.50 0.4718
607.60 0.4715
607.70 0.4712
607.80 0.4709
607.90 0.4706
608.00 0.4703
608.10 0.47
608.20 0.4697
608.30 0.4694
608.40 0.4691
608.50 0.4688
608.60 0.4685
608.70 0.4682
608.80 0.4679
608.90 0.4676
609.00 0.4673
609.10 0.467
609.20 0.4667
609.30 0.4664
609.40 0.4661
609.50 0.4658
609.60 0.4655
609.70 0.4652
609.80 0.4649
609.90 0.4647
610.00 0.4644
610.10 0.4641
610.20 0.4638
610.30 0.4635
610.40 0.4632
610.50 0.4629
610.60 0.4626
610.70 0.4623
610.80 0.462
610.90 0.4617
611.00 0.4614
611.10 0.4611
611.20 0.4608
611.30 0.4605
611.40 0.4603
611.50 0.46
611.60 0.4597
611.70 0.4594
611.80 0.4591
611.90 0.4588
612.00 0.4585
612.10 0.4582
612.20 0.4579
612.30 0.4576
612.40 0.4574
612.50 0.4571
612.60 0.4568
612.70 0.4565
612.80 0.4562
612.90 0.4559
613.00 0.4556
613.10 0.4553
613.20 0.455
613.30 0.4548
613.40 0.4545
613.50 0.4542
613.60 0.4539
613.70 0.4536
613.80 0.4533
613.90 0.453
614.00 0.4528
614.10 0.4525
614.20 0.4522
614.30 0.4519
614.40 0.4516
614.50 0.4513
614.60 0.451
614.70 0.4508
614.80 0.4505
614.90 0.4502
615.00 0.4499
615.10 0.4496
615.20 0.4493
615.30 0.4491
615.40 0.4488
615.50 0.4485
615.60 0.4482
615.70 0.4479
615.80 0.4477
615.90 0.4474
616.00 0.4471
616.10 0.4468
616.20 0.4465
616.30 0.4462
616.40 0.446
616.50 0.4457
616.60 0.4454
616.70 0.4451
616.80 0.4448
616.90 0.4446
617.00 0.4443
617.10 0.444
617.20 0.4437
617.30 0.4435
617.40 0.4432
617.50 0.4429
617.60 0.4426
617.70 0.4423
617.80 0.4421
617.90 0.4418
618.00 0.4415
618.10 0.4412
618.20 0.441
618.30 0.4407
618.40 0.4404
618.50 0.4401
618.60 0.4399
618.70 0.4396
618.80 0.4393
618.90 0.439
619.00 0.4388
619.10 0.4385
619.20 0.4382
619.30 0.4379
619.40 0.4377
619.50 0.4374
619.60 0.4371
619.70 0.4368
619.80 0.4366
619.90 0.4363
620.00 0.436
620.10 0.4357
620.20 0.4355
620.30 0.4352
620.40 0.4349
620.50 0.4347
620.60 0.4344
620.70 0.4341
620.80 0.4338
620.90 0.4336
621.00 0.4333
621.10 0.433
621.20 0.4328
621.30 0.4325
621.40 0.4322
621.50 0.432
621.60 0.4317
621.70 0.4314
621.80 0.4312
621.90 0.4309
622.00 0.4306
622.10 0.4303
622.20 0.4301
622.30 0.4298
622.40 0.4295
622.50 0.4293
622.60 0.429
622.70 0.4287
622.80 0.4285
622.90 0.4282
623.00 0.4279
623.10 0.4277
623.20 0.4274
623.30 0.4271
623.40 0.4269
623.50 0.4266
623.60 0.4263
623.70 0.4261
623.80 0.4258
623.90 0.4256
624.00 0.4253
624.10 0.425
624.20 0.4248
624.30 0.4245
624.40 0.4242
624.50 0.424
624.60 0.4237
624.70 0.4234
624.80 0.4232
624.90 0.4229
625.00 0.4227
625.10 0.4224
625.20 0.4221
625.30 0.4219
625.40 0.4216
625.50 0.4214
625.60 0.4211
625.70 0.4208
625.80 0.4206
625.90 0.4203
626.00 0.42
626.10 0.4198
626.20 0.4195
626.30 0.4193
626.40 0.419
626.50 0.4188
626.60 0.4185
626.70 0.4182
626.80 0.418
626.90 0.4177
627.00 0.4175
627.10 0.4172
627.20 0.4169
627.30 0.4167
627.40 0.4164
627.50 0.4162
627.60 0.4159
627.70 0.4157
627.80 0.4154
627.90 0.4151
628.00 0.4149
628.10 0.4146
628.20 0.4144
628.30 0.4141
628.40 0.4139
628.50 0.4136
628.60 0.4134
628.70 0.4131
628.80 0.4128
628.90 0.4126
629.00 0.4123
629.10 0.4121
629.20 0.4118
629.30 0.4116
629.40 0.4113
629.50 0.4111
629.60 0.4108
629.70 0.4106
629.80 0.4103
629.90 0.41
630.00 0.4098
630.10 0.4095
630.20 0.4093
630.30 0.409
630.40 0.4088
630.50 0.4085
630.60 0.4083
630.70 0.408
630.80 0.4078
630.90 0.4075
631.00 0.4073
631.10 0.407
631.20 0.4068
631.30 0.4065
631.40 0.4063
631.50 0.406
631.60 0.4058
631.70 0.4055
631.80 0.4053
631.90 0.405
632.00 0.4048
632.10 0.4045
632.20 0.4043
632.30 0.404
632.40 0.4038
632.50 0.4035
632.60 0.4033
632.70 0.403
632.80 0.4028
632.90 0.4026
633.00 0.4023
633.10 0.4021
633.20 0.4018
633.30 0.4016
633.40 0.4013
633.50 0.4011
633.60 0.4008
633.70 0.4006
633.80 0.4003
633.90 0.4001
634.00 0.3998
634.10 0.3996
634.20 0.3994
634.30 0.3991
634.40 0.3989
634.50 0.3986
634.60 0.3984
634.70 0.3981
634.80 0.3979
634.90 0.3976
635.00 0.3974
635.10 0.3972
635.20 0.3969
635.30 0.3967
635.40 0.3964
635.50 0.3962
635.60 0.3959
635.70 0.3957
635.80 0.3955
635.90 0.3952
636.00 0.395
636.10 0.3947
636.20 0.3945
636.30 0.3942
636.40 0.394
636.50 0.3938
636.60 0.3935
636.70 0.3933
636.80 0.393
636.90 0.3928
637.00 0.3926
637.10 0.3923
637.20 0.3921
637.30 0.3918
637.40 0.3916
637.50 0.3914
637.60 0.3911
637.70 0.3909
637.80 0.3906
637.90 0.3904
638.00 0.3902
638.10 0.3899
638.20 0.3897
638.30 0.3895
638.40 0.3892
638.50 0.389
638.60 0.3887
638.70 0.3885
638.80 0.3883
638.90 0.388
639.00 0.3878
639.10 0.3875
639.20 0.3873
639.30 0.3871
639.40 0.3868
639.50 0.3866
639.60 0.3864
639.70 0.3861
639.80 0.3859
639.90 0.3857
640.00 0.3854
640.10 0.3852
640.20 0.3849
640.30 0.3847
640.40 0.3845
640.50 0.3842
640.60 0.384
640.70 0.3838
640.80 0.3835
640.90 0.3833
641.00 0.3831
641.10 0.3828
641.20 0.3826
641.30 0.3824
641.40 0.3821
641.50 0.3819
641.60 0.3817
641.70 0.3814
641.80 0.3812
641.90 0.381
642.00 0.3807
642.10 0.3805
642.20 0.3803
642.30 0.38
642.40 0.3798
642.50 0.3796
642.60 0.3793
642.70 0.3791
642.80 0.3789
642.90 0.3786
643.00 0.3784
643.10 0.3782
643.20 0.3779
643.30 0.3777
643.40 0.3775
643.50 0.3772
643.60 0.377
643.70 0.3768
643.80 0.3765
643.90 0.3763
644.00 0.3761
644.10 0.3758
644.20 0.3756
644.30 0.3754
644.40 0.3751
644.50 0.3749
644.60 0.3747
644.70 0.3744
644.80 0.3742
644.90 0.374
645.00 0.3737
645.10 0.3735
645.20 0.3733
645.30 0.373
645.40 0.3728
645.50 0.3726
645.60 0.3723
645.70 0.3721
645.80 0.3719
645.90 0.3716
646.00 0.3714
646.10 0.3712
646.20 0.3709
646.30 0.3707
646.40 0.3705
646.50 0.3702
646.60 0.37
646.70 0.3697
646.80 0.3695
646.90 0.3693
647.00 0.369
647.10 0.3688
647.20 0.3686
647.30 0.3683
647.40 0.3681
647.50 0.3678
647.60 0.3676
647.70 0.3674
647.80 0.3671
647.90 0.3669
648.00 0.3666
648.10 0.3664
648.20 0.3662
648.30 0.3659
648.40 0.3657
648.50 0.3654
648.60 0.3652
648.70 0.3649
648.80 0.3647
648.90 0.3644
649.00 0.3642
649.10 0.3639
649.20 0.3637
649.30 0.3634
649.40 0.3632
649.50 0.3629
649.60 0.3626
649.70 0.3624
649.80 0.3621
649.90 0.3619
650.00 0.3616
650.10 0.3613
650.20 0.3611
650.30 0.3608
650.40 0.3605
650.50 0.3602
650.60 0.3599
650.70 0.3596
650.80 0.3594
650.90 0.3591
651.00 0.3588
651.10 0.3585
651.20 0.3582
651.30 0.3579
651.40 0.3576
651.50 0.3572
651.60 0.3569
651.70 0.3565
651.80 0.3562
651.90 0.3559
652.00 0.3555
652.10 0.3552
652.20 0.3548
652.30 0.3545
652.40 0.354
652.50 0.3536
652.60 0.3532
652.70 0.3527
652.80 0.3523
652.90 0.3518
653.00 0.3514
653.10 0.351
653.20 0.3505
653.30 0.35
653.40 0.3494
653.50 0.3487
653.60 0.3481
653.70 0.3475
653.80 0.3468
653.90 0.3462
654.00 0.3455
654.10 0.3449
654.20 0.3442
654.30 0.3435
654.40 0.3426
654.50 0.3417
654.60 0.3408
654.70 0.3399
654.80 0.339
654.90 0.3378
655.00 0.3366
655.10 0.3355
655.20 0.3343
655.30 0.3331
655.40 0.3317
655.50 0.3302
655.60 0.3286
655.70 0.3268
655.80 0.3246
655.90 0.3223
656.00 0.3189
656.10 0.3156
656.20 0.32
656.30 0.3328
656.40 0.3153
656.50 0.316
656.60 0.319
656.70 0.3217
656.80 0.3235
656.90 0.3252
657.00 0.3264
657.10 0.3277
657.20 0.3287
657.30 0.3297
657.40 0.3304
657.50 0.3312
657.60 0.332
657.70 0.3327
657.80 0.3335
657.90 0.3339
658.00 0.3344
658.10 0.3349
658.20 0.3354
658.30 0.3359
658.40 0.3361
658.50 0.3364
658.60 0.3366
658.70 0.3368
658.80 0.337
658.90 0.3373
659.00 0.3375
659.10 0.3377
659.20 0.338
659.30 0.3381
659.40 0.3382
659.50 0.3382
659.60 0.3382
659.70 0.3382
659.80 0.3383
659.90 0.3383
660.00 0.3383
660.10 0.3383
660.20 0.3383
660.30 0.3383
660.40 0.3383
660.50 0.3382
660.60 0.3381
660.70 0.338
660.80 0.338
660.90 0.3379
661.00 0.3378
661.10 0.3377
661.20 0.3376
661.30 0.3376
661.40 0.3374
661.50 0.3373
661.60 0.3372
661.70 0.337
661.80 0.3369
661.90 0.3368
662.00 0.3366
662.10 0.3365
662.20 0.3364
662.30 0.3363
662.40 0.3361
662.50 0.3359
662.60 0.3358
662.70 0.3356
662.80 0.3355
662.90 0.3353
663.00 0.3352
663.10 0.335
663.20 0.3349
663.30 0.3347
663.40 0.3345
663.50 0.3344
663.60 0.3342
663.70 0.334
663.80 0.3339
663.90 0.3337
664.00 0.3335
664.10 0.3334
664.20 0.3332
664.30 0.333
664.40 0.3328
664.50 0.3327
664.60 0.3325
664.70 0.3323
664.80 0.3321
664.90 0.332
665.00 0.3318
665.10 0.3316
665.20 0.3314
665.30 0.3313
665.40 0.3311
665.50 0.3309
665.60 0.3307
665.70 0.3305
665.80 0.3304
665.90 0.3302
666.00 0.33
666.10 0.3298
666.20 0.3296
666.30 0.3295
666.40 0.3293
666.50 0.3291
666.60 0.3289
666.70 0.3287
666.80 0.3286
666.90 0.3284
667.00 0.3282
667.10 0.328
667.20 0.3278
667.30 0.3276
667.40 0.3275
667.50 0.3273
667.60 0.3271
667.70 0.3269
667.80 0.3267
667.90 0.3265
668.00 0.3264
668.10 0.3262
668.20 0.326
668.30 0.3258
668.40 0.3256
668.50 0.3254
668.60 0.3253
668.70 0.3251
668.80 0.3249
668.90 0.3247
669.00 0.3245
669.10 0.3243
669.20 0.3242
669.30 0.324
669.40 0.3238
669.50 0.3236
669.60 0.3234
669.70 0.3233
669.80 0.3231
669.90 0.3229
670.00 0.3227
670.10 0.3225
670.20 0.3223
670.30 0.3222
670.40 0.322
670.50 0.3218
670.60 0.3216
670.70 0.3214
670.80 0.3212
670.90 0.3211
671.00 0.3209
671.10 0.3207
671.20 0.3205
671.30 0.3203
671.40 0.3201
671.50 0.32
671.60 0.3198
671.70 0.3196
671.80 0.3194
671.90 0.3192
672.00 0.3191
672.10 0.3189
672.20 0.3187
672.30 0.3185
672.40 0.3183
672.50 0.3181
672.60 0.318
672.70 0.3178
672.80 0.3176
672.90 0.3174
673.00 0.3172
673.10 0.3171
673.20 0.3169
673.30 0.3167
673.40 0.3165
673.50 0.3163
673.60 0.3162
673.70 0.316
673.80 0.3158
673.90 0.3156
674.00 0.3154
674.10 0.3153
674.20 0.3151
674.30 0.3149
674.40 0.3147
674.50 0.3145
674.60 0.3144
674.70 0.3142
674.80 0.314
674.90 0.3138
675.00 0.3136
675.10 0.3135
675.20 0.3133
675.30 0.3131
675.40 0.3129
675.50 0.3127
675.60 0.3126
675.70 0.3124
675.80 0.3122
675.90 0.312
676.00 0.3119
676.10 0.3117
676.20 0.3115
676.30 0.3113
676.40 0.3111
676.50 0.311
676.60 0.3108
676.70 0.3106
676.80 0.3104
676.90 0.3103
677.00 0.3101
677.10 0.3099
677.20 0.3097
677.30 0.3096
677.40 0.3094
677.50 0.3092
677.60 0.309
677.70 0.3088
677.80 0.3087
677.90 0.3085
678.00 0.3083
678.10 0.3081
678.20 0.308
678.30 0.3078
678.40 0.3076
678.50 0.3074
678.60 0.3073
678.70 0.3071
678.80 0.3069
678.90 0.3067
679.00 0.3066
679.10 0.3064
679.20 0.3062
679.30 0.306
679.40 0.3059
679.50 0.3057
679.60 0.3055
679.70 0.3054
679.80 0.3052
679.90 0.305
680.00 0.3048
680.10 0.3047
680.20 0.3045
680.30 0.3043
680.40 0.3041
680.50 0.304
680.60 0.3038
680.70 0.3036
680.80 0.3034
680.90 0.3033
681.00 0.3031
681.10 0.3029
681.20 0.3028
681.30 0.3026
681.40 0.3024
681.50 0.3022
681.60 0.3021
681.70 0.3019
681.80 0.3017
681.90 0.3016
682.00 0.3014
682.10 0.3012
682.20 0.301
682.30 0.3009
682.40 0.3007
682.50 0.3005
682.60 0.3004
682.70 0.3002
682.80 0.3
682.90 0.2999
683.00 0.2997
683.10 0.2995
683.20 0.2993
683.30 0.2992
683.40 0.299
683.50 0.2988
683.60 0.2987
683.70 0.2985
683.80 0.2983
683.90 0.2982
684.00 0.298
684.10 0.2978
684.20 0.2977
684.30 0.2975
684.40 0.2973
684.50 0.2972
684.60 0.297
684.70 0.2968
684.80 0.2966
684.90 0.2965
685.00 0.2963
685.10 0.2961
685.20 0.296
685.30 0.2958
685.40 0.2956
685.50 0.2955
685.60 0.2953
685.70 0.2951
685.80 0.295
685.90 0.2948
686.00 0.2946
686.10 0.2945
686.20 0.2943
686.30 0.2941
686.40 0.294
686.50 0.2938
686.60 0.2936
686.70 0.2935
686.80 0.2933
686.90 0.2932
687.00 0.293
687.10 0.2928
687.20 0.2927
687.30 0.2925
687.40 0.2923
687.50 0.2922
687.60 0.292
687.70 0.2918
687.80 0.2917
687.90 0.2915
688.00 0.2913
688.10 0.2912
688.20 0.291
688.30 0.2908
688.40 0.2907
688.50 0.2905
688.60 0.2904
688.70 0.2902
688.80 0.29
688.90 0.2899
689.00 0.2897
689.10 0.2895
689.20 0.2894
689.30 0.2892
689.40 0.2891
689.50 0.2889
689.60 0.2887
689.70 0.2886
689.80 0.2884
689.90 0.2882
690.00 0.2881
690.10 0.2879
690.20 0.2878
690.30 0.2876
690.40 0.2874
690.50 0.2873
690.60 0.2871
690.70 0.287
690.80 0.2868
690.90 0.2866
691.00 0.2865
691.10 0.2863
691.20 0.2862
691.30 0.286
691.40 0.2858
691.50 0.2857
691.60 0.2855
691.70 0.2854
691.80 0.2852
691.90 0.285
692.00 0.2849
692.10 0.2847
692.20 0.2846
692.30 0.2844
692.40 0.2842
692.50 0.2841
692.60 0.2839
692.70 0.2838
692.80 0.2836
692.90 0.2834
693.00 0.2833
693.10 0.2831
693.20 0.283
693.30 0.2828
693.40 0.2827
693.50 0.2825
693.60 0.2823
693.70 0.2822
693.80 0.282
693.90 0.2819
694.00 0.2817
694.10 0.2815
694.20 0.2814
694.30 0.2812
694.40 0.2811
694.50 0.2809
694.60 0.2808
694.70 0.2806
694.80 0.2804
694.90 0.2803
695.00 0.2801
695.10 0.28
695.20 0.2798
695.30 0.2797
695.40 0.2795
695.50 0.2794
695.60 0.2792
695.70 0.279
695.80 0.2789
695.90 0.2787
696.00 0.2786
696.10 0.2784
696.20 0.2783
696.30 0.2781
696.40 0.278
696.50 0.2778
696.60 0.2777
696.70 0.2775
696.80 0.2773
696.90 0.2772
697.00 0.277
697.10 0.2769
697.20 0.2767
697.30 0.2766
697.40 0.2764
697.50 0.2763
697.60 0.2761
697.70 0.276
697.80 0.2758
697.90 0.2757
698.00 0.2755
698.10 0.2753
698.20 0.2752
698.30 0.275
698.40 0.2749
698.50 0.2747
698.60 0.2746
698.70 0.2744
698.80 0.2743
698.90 0.2741
699.00 0.274
699.10 0.2738
699.20 0.2737
699.30 0.2735
699.40 0.2734
699.50 0.2732
699.60 0.2731
699.70 0.2729
699.80 0.2728
699.90 0.2726
700.00 0.2725
700.10 0.2723
700.20 0.2722
700.30 0.272
700.40 0.2719
700.50 0.2717
700.60 0.2716
700.70 0.2714
700.80 0.2713
700.90 0.2711
701.00 0.271
701.10 0.2708
701.20 0.2707
701.30 0.2705
701.40 0.2704
701.50 0.2702
701.60 0.2701
701.70 0.2699
701.80 0.2698
701.90 0.2696
702.00 0.2695
702.10 0.2693
702.20 0.2692
702.30 0.269
702.40 0.2689
702.50 0.2687
702.60 0.2686
702.70 0.2684
702.80 0.2683
702.90 0.2681
703.00 0.268
703.10 0.2678
703.20 0.2677
703.30 0.2675
703.40 0.2674
703.50 0.2672
703.60 0.2671
703.70 0.2669
703.80 0.2668
703.90 0.2666
704.00 0.2665
704.10 0.2664
704.20 0.2662
704.30 0.2661
704.40 0.2659
704.50 0.2658
704.60 0.2656
704.70 0.2655
704.80 0.2653
704.90 0.2652
705.00 0.265
705.10 0.2649
705.20 0.2647
705.30 0.2646
705.40 0.2645
705.50 0.2643
705.60 0.2642
705.70 0.264
705.80 0.2639
705.90 0.2637
706.00 0.2636
706.10 0.2634
706.20 0.2633
706.30 0.2632
706.40 0.263
706.50 0.2629
706.60 0.2627
706.70 0.2626
706.80 0.2624
706.90 0.2623
707.00 0.2621
707.10 0.262
707.20 0.2619
707.30 0.2617
707.40 0.2616
707.50 0.2614
707.60 0.2613
707.70 0.2611
707.80 0.261
707.90 0.2609
708.00 0.2607
708.10 0.2606
708.20 0.2604
708.30 0.2603
708.40 0.2601
708.50 0.26
708.60 0.2599
708.70 0.2597
708.80 0.2596
708.90 0.2594
709.00 0.2593
709.10 0.2591
709.20 0.259
709.30 0.2589
709.40 0.2587
709.50 0.2586
709.60 0.2584
709.70 0.2583
709.80 0.2581
709.90 0.258
710.00 0.2579
710.10 0.2577
710.20 0.2576
710.30 0.2574
710.40 0.2573
710.50 0.2572
710.60 0.257
710.70 0.2569
710.80 0.2567
710.90 0.2566
711.00 0.2565
711.10 0.2563
711.20 0.2562
711.30 0.256
711.40 0.2559
711.50 0.2558
711.60 0.2556
711.70 0.2555
711.80 0.2554
711.90 0.2552
712.00 0.2551
712.10 0.2549
712.20 0.2548
712.30 0.2547
712.40 0.2545
712.50 0.2544
712.60 0.2542
712.70 0.2541
712.80 0.254
712.90 0.2538
713.00 0.2537
713.10 0.2536
713.20 0.2534
713.30 0.2533
713.40 0.2531
713.50 0.253
713.60 0.2529
713.70 0.2527
713.80 0.2526
713.90 0.2524
714.00 0.2523
714.10 0.2522
714.20 0.252
714.30 0.2519
714.40 0.2518
714.50 0.2516
714.60 0.2515
714.70 0.2513
714.80 0.2512
714.90 0.2511
715.00 0.2509
715.10 0.2508
715.20 0.2507
715.30 0.2505
715.40 0.2504
715.50 0.2503
715.60 0.2501
715.70 0.25
715.80 0.2499
715.90 0.2497
716.00 0.2496
716.10 0.2495
716.20 0.2493
716.30 0.2492
716.40 0.249
716.50 0.2489
716.60 0.2488
716.70 0.2486
716.80 0.2485
716.90 0.2484
717.00 0.2482
717.10 0.2481
717.20 0.248
717.30 0.2478
717.40 0.2477
717.50 0.2476
717.60 0.2474
717.70 0.2473
717.80 0.2472
717.90 0.247
718.00 0.2469
718.10 0.2468
718.20 0.2466
718.30 0.2465
718.40 0.2464
718.50 0.2462
718.60 0.2461
718.70 0.246
718.80 0.2458
718.90 0.2457
719.00 0.2456
719.10 0.2454
719.20 0.2453
719.30 0.2452
719.40 0.245
719.50 0.2449
719.60 0.2448
719.70 0.2446
719.80 0.2445
719.90 0.2444
720.00 0.2442
720.10 0.2441
720.20 0.244
720.30 0.2438
720.40 0.2437
720.50 0.2436
720.60 0.2435
720.70 0.2433
720.80 0.2432
720.90 0.2431
721.00 0.2429
721.10 0.2428
721.20 0.2427
721.30 0.2425
721.40 0.2424
721.50 0.2423
721.60 0.2422
721.70 0.242
721.80 0.2419
721.90 0.2418
722.00 0.2416
722.10 0.2415
722.20 0.2414
722.30 0.2412
722.40 0.2411
722.50 0.241
722.60 0.2409
722.70 0.2407
722.80 0.2406
722.90 0.2405
723.00 0.2403
723.10 0.2402
723.20 0.2401
723.30 0.24
723.40 0.2398
723.50 0.2397
723.60 0.2396
723.70 0.2394
723.80 0.2393
723.90 0.2392
724.00 0.2391
724.10 0.2389
724.20 0.2388
724.30 0.2387
724.40 0.2385
724.50 0.2384
724.60 0.2383
724.70 0.2382
724.80 0.238
724.90 0.2379
725.00 0.2378
725.10 0.2376
725.20 0.2375
725.30 0.2374
725.40 0.2373
725.50 0.2371
725.60 0.237
725.70 0.2369
725.80 0.2368
725.90 0.2366
726.00 0.2365
726.10 0.2364
726.20 0.2363
726.30 0.2361
726.40 0.236
726.50 0.2359
726.60 0.2357
726.70 0.2356
726.80 0.2355
726.90 0.2354
727.00 0.2352
727.10 0.2351
727.20 0.235
727.30 0.2349
727.40 0.2347
727.50 0.2346
727.60 0.2345
727.70 0.2344
727.80 0.2342
727.90 0.2341
728.00 0.234
728.10 0.2339
728.20 0.2337
728.30 0.2336
728.40 0.2335
728.50 0.2334
728.60 0.2332
728.70 0.2331
728.80 0.233
728.90 0.2329
729.00 0.2327
729.10 0.2326
729.20 0.2325
729.30 0.2324
729.40 0.2323
729.50 0.2321
729.60 0.232
729.70 0.2319
729.80 0.2318
729.90 0.2316
730.00 0.2315
730.10 0.2314
730.20 0.2313
730.30 0.2311
730.40 0.231
730.50 0.2309
730.60 0.2308
730.70 0.2307
730.80 0.2305
730.90 0.2304
731.00 0.2303
731.10 0.2302
731.20 0.2301
731.30 0.2299
731.40 0.2298
731.50 0.2297
731.60 0.2296
731.70 0.2294
731.80 0.2293
731.90 0.2292
732.00 0.2291
732.10 0.229
732.20 0.2288
732.30 0.2287
732.40 0.2286
732.50 0.2285
732.60 0.2284
732.70 0.2282
732.80 0.2281
732.90 0.228
733.00 0.2279
733.10 0.2278
733.20 0.2276
733.30 0.2275
733.40 0.2274
733.50 0.2273
733.60 0.2272
733.70 0.227
733.80 0.2269
733.90 0.2268
734.00 0.2267
734.10 0.2266
734.20 0.2264
734.30 0.2263
734.40 0.2262
734.50 0.2261
734.60 0.226
734.70 0.2258
734.80 0.2257
734.90 0.2256
735.00 0.2255
735.10 0.2254
735.20 0.2252
735.30 0.2251
735.40 0.225
735.50 0.2249
735.60 0.2248
735.70 0.2247
735.80 0.2245
735.90 0.2244
736.00 0.2243
736.10 0.2242
736.20 0.2241
736.30 0.2239
736.40 0.2238
736.50 0.2237
736.60 0.2236
736.70 0.2235
736.80 0.2233
736.90 0.2232
737.00 0.2231
737.10 0.223
737.20 0.2229
737.30 0.2228
737.40 0.2226
737.50 0.2225
737.60 0.2224
737.70 0.2223
737.80 0.2222
737.90 0.2221
738.00 0.2219
738.10 0.2218
738.20 0.2217
738.30 0.2216
738.40 0.2215
738.50 0.2213
738.60 0.2212
738.70 0.2211
738.80 0.221
738.90 0.2209
739.00 0.2208
739.10 0.2206
739.20 0.2205
739.30 0.2204
739.40 0.2203
739.50 0.2202
739.60 0.2201
739.70 0.2199
739.80 0.2198
739.90 0.2197
740.00 0.2196
740.10 0.2195
740.20 0.2194
740.30 0.2193
740.40 0.2191
740.50 0.219
740.60 0.2189
740.70 0.2188
740.80 0.2187
740.90 0.2186
741.00 0.2185
741.10 0.2183
741.20 0.2182
741.30 0.2181
741.40 0.218
741.50 0.2179
741.60 0.2178
741.70 0.2177
741.80 0.2176
741.90 0.2174
742.00 0.2173
742.10 0.2172
742.20 0.2171
742.30 0.217
742.40 0.2169
742.50 0.2168
742.60 0.2166
742.70 0.2165
742.80 0.2164
742.90 0.2163
743.00 0.2162
743.10 0.2161
743.20 0.216
743.30 0.2159
743.40 0.2157
743.50 0.2156
743.60 0.2155
743.70 0.2154
743.80 0.2153
743.90 0.2152
744.00 0.2151
744.10 0.215
744.20 0.2148
744.30 0.2147
744.40 0.2146
744.50 0.2145
744.60 0.2144
744.70 0.2143
744.80 0.2142
744.90 0.2141
745.00 0.214
745.10 0.2138
745.20 0.2137
745.30 0.2136
745.40 0.2135
745.50 0.2134
745.60 0.2133
745.70 0.2132
745.80 0.2131
745.90 0.213
746.00 0.2128
746.10 0.2127
746.20 0.2126
746.30 0.2125
746.40 0.2124
746.50 0.2123
746.60 0.2122
746.70 0.2121
746.80 0.212
746.90 0.2118
747.00 0.2117
747.10 0.2116
747.20 0.2115
747.30 0.2114
747.40 0.2113
747.50 0.2112
747.60 0.2111
747.70 0.211
747.80 0.2109
747.90 0.2107
748.00 0.2106
748.10 0.2105
748.20 0.2104
748.30 0.2103
748.40 0.2102
748.50 0.2101
748.60 0.21
748.70 0.2099
748.80 0.2098
748.90 0.2096
749.00 0.2095
749.10 0.2094
749.20 0.2093
749.30 0.2092
749.40 0.2091
749.50 0.209
749.60 0.2089
749.70 0.2088
749.80 0.2087
749.90 0.2086
750.00 0.2084
750.10 0.2083
750.20 0.2082
750.30 0.2081
750.40 0.208
750.50 0.2079
750.60 0.2078
750.70 0.2077
750.80 0.2076
750.90 0.2075
751.00 0.2074
751.10 0.2073
751.20 0.2072
751.30 0.2071
751.40 0.207
751.50 0.2068
751.60 0.2067
751.70 0.2066
751.80 0.2065
751.90 0.2064
752.00 0.2063
752.10 0.2062
752.20 0.2061
752.30 0.206
752.40 0.2059
752.50 0.2058
752.60 0.2057
752.70 0.2056
752.80 0.2055
752.90 0.2054
753.00 0.2053
753.10 0.2052
753.20 0.205
753.30 0.2049
753.40 0.2048
753.50 0.2047
753.60 0.2046
753.70 0.2045
753.80 0.2044
753.90 0.2043
754.00 0.2042
754.10 0.2041
754.20 0.204
754.30 0.2039
754.40 0.2038
754.50 0.2037
754.60 0.2036
754.70 0.2035
754.80 0.2034
754.90 0.2033
755.00 0.2032
755.10 0.2031
755.20 0.2029
755.30 0.2028
755.40 0.2027
755.50 0.2026
755.60 0.2025
755.70 0.2024
755.80 0.2023
755.90 0.2022
756.00 0.2021
756.10 0.202
756.20 0.2019
756.30 0.2018
756.40 0.2017
756.50 0.2016
756.60 0.2015
756.70 0.2014
756.80 0.2013
756.90 0.2012
757.00 0.2011
757.10 0.201
757.20 0.2009
757.30 0.2008
757.40 0.2007
757.50 0.2006
757.60 0.2005
757.70 0.2004
757.80 0.2002
757.90 0.2001
758.00 0.2
758.10 0.1999
758.20 0.1998
758.30 0.1997
758.40 0.1996
758.50 0.1995
758.60 0.1994
758.70 0.1993
758.80 0.1992
758.90 0.1991
759.00 0.199
759.10 0.1989
759.20 0.1988
759.30 0.1987
759.40 0.1986
759.50 0.1985
759.60 0.1984
759.70 0.1983
759.80 0.1982
759.90 0.1981
760.00 0.198
760.10 0.1979
760.20 0.1978
760.30 0.1977
760.40 0.1976
760.50 0.1975
760.60 0.1974
760.70 0.1973
760.80 0.1972
760.90 0.1971
761.00 0.197
761.10 0.1969
761.20 0.1968
761.30 0.1967
761.40 0.1966
761.50 0.1965
761.60 0.1964
761.70 0.1963
761.80 0.1962
761.90 0.1961
762.00 0.196
762.10 0.1959
762.20 0.1958
762.30 0.1957
762.40 0.1956
762.50 0.1955
762.60 0.1954
762.70 0.1953
762.80 0.1952
762.90 0.1951
763.00 0.195
763.10 0.1949
763.20 0.1948
763.30 0.1947
763.40 0.1946
763.50 0.1945
763.60 0.1944
763.70 0.1943
763.80 0.1942
763.90 0.1941
764.00 0.194
764.10 0.1939
764.20 0.1938
764.30 0.1937
764.40 0.1936
764.50 0.1935
764.60 0.1934
764.70 0.1933
764.80 0.1932
764.90 0.1931
765.00 0.193
765.10 0.1929
765.20 0.1928
765.30 0.1927
765.40 0.1926
765.50 0.1925
765.60 0.1924
765.70 0.1923
765.80 0.1922
765.90 0.1922
766.00 0.1921
766.10 0.192
766.20 0.1919
766.30 0.1918
766.40 0.1917
766.50 0.1916
766.60 0.1915
766.70 0.1914
766.80 0.1913
766.90 0.1912
767.00 0.1911
767.10 0.191
767.20 0.1909
767.30 0.1908
767.40 0.1907
767.50 0.1906
767.60 0.1905
767.70 0.1904
767.80 0.1903
767.90 0.1902
768.00 0.1901
768.10 0.19
768.20 0.1899
768.30 0.1898
768.40 0.1897
768.50 0.1896
768.60 0.1895
768.70 0.1894
768.80 0.1893
768.90 0.1892
769.00 0.1891
769.10 0.189
769.20 0.189
769.30 0.1889
769.40 0.1888
769.50 0.1887
769.60 0.1886
769.70 0.1885
769.80 0.1884
769.90 0.1883
770.00 0.1882
770.10 0.1881
770.20 0.188
770.30 0.1879
770.40 0.1878
770.50 0.1877
770.60 0.1876
770.70 0.1875
770.80 0.1874
770.90 0.1873
771.00 0.1872
771.10 0.1872
771.20 0.1871
771.30 0.187
771.40 0.1869
771.50 0.1868
771.60 0.1867
771.70 0.1866
771.80 0.1865
771.90 0.1864
772.00 0.1863
772.10 0.1862
772.20 0.1861
772.30 0.186
772.40 0.1859
772.50 0.1858
772.60 0.1858
772.70 0.1857
772.80 0.1856
772.90 0.1855
773.00 0.1854
773.10 0.1853
773.20 0.1852
773.30 0.1851
773.40 0.185
773.50 0.1849
773.60 0.1848
773.70 0.1847
773.80 0.1846
773.90 0.1845
774.00 0.1845
774.10 0.1844
774.20 0.1843
774.30 0.1842
774.40 0.1841
774.50 0.184
774.60 0.1839
774.70 0.1838
774.80 0.1837
774.90 0.1836
775.00 0.1835
775.10 0.1834
775.20 0.1833
775.30 0.1833
775.40 0.1832
775.50 0.1831
775.60 0.183
775.70 0.1829
775.80 0.1828
775.90 0.1827
776.00 0.1826
776.10 0.1825
776.20 0.1824
776.30 0.1823
776.40 0.1822
776.50 0.1822
776.60 0.1821
776.70 0.182
776.80 0.1819
776.90 0.1818
777.00 0.1817
777.10 0.1816
777.20 0.1815
777.30 0.1814
777.40 0.1813
777.50 0.1812
777.60 0.1812
777.70 0.1811
777.80 0.181
777.90 0.1809
778.00 0.1808
778.10 0.1807
778.20 0.1806
778.30 0.1805
778.40 0.1804
778.50 0.1803
778.60 0.1802
778.70 0.1802
778.80 0.1801
778.90 0.18
779.00 0.1799
779.10 0.1798
779.20 0.1797
779.30 0.1796
779.40 0.1795
779.50 0.1794
779.60 0.1793
779.70 0.1793
779.80 0.1792
779.90 0.1791
780.00 0.179
780.10 0.1789
780.20 0.1788
780.30 0.1787
780.40 0.1786
780.50 0.1785
780.60 0.1785
780.70 0.1784
780.80 0.1783
780.90 0.1782
781.00 0.1781
781.10 0.178
781.20 0.1779
781.30 0.1778
781.40 0.1777
781.50 0.1777
781.60 0.1776
781.70 0.1775
781.80 0.1774
781.90 0.1773
782.00 0.1772
782.10 0.1771
782.20 0.177
782.30 0.177
782.40 0.1769
782.50 0.1768
782.60 0.1767
782.70 0.1766
782.80 0.1765
782.90 0.1764
783.00 0.1763
783.10 0.1763
783.20 0.1762
783.30 0.1761
783.40 0.176
783.50 0.1759
783.60 0.1758
783.70 0.1757
783.80 0.1756
783.90 0.1756
784.00 0.1755
784.10 0.1754
784.20 0.1753
784.30 0.1752
784.40 0.1751
784.50 0.175
784.60 0.175
784.70 0.1749
784.80 0.1748
784.90 0.1747
785.00 0.1746
785.10 0.1745
785.20 0.1744
785.30 0.1744
785.40 0.1743
785.50 0.1742
785.60 0.1741
785.70 0.174
785.80 0.1739
785.90 0.1738
786.00 0.1737
786.10 0.1737
786.20 0.1736
786.30 0.1735
786.40 0.1734
786.50 0.1733
786.60 0.1732
786.70 0.1731
786.80 0.1731
786.90 0.173
787.00 0.1729
787.10 0.1728
787.20 0.1727
787.30 0.1726
787.40 0.1725
787.50 0.1725
787.60 0.1724
787.70 0.1723
787.80 0.1722
787.90 0.1721
788.00 0.172
788.10 0.1719
788.20 0.1719
788.30 0.1718
788.40 0.1717
788.50 0.1716
788.60 0.1715
788.70 0.1714
788.80 0.1714
788.90 0.1713
789.00 0.1712
789.10 0.1711
789.20 0.171
789.30 0.1709
789.40 0.1708
789.50 0.1708
789.60 0.1707
789.70 0.1706
789.80 0.1705
789.90 0.1704
790.00 0.1703
790.10 0.1703
790.20 0.1702
790.30 0.1701
790.40 0.17
790.50 0.1699
790.60 0.1698
790.70 0.1698
790.80 0.1697
790.90 0.1696
791.00 0.1695
791.10 0.1694
791.20 0.1693
791.30 0.1693
791.40 0.1692
791.50 0.1691
791.60 0.169
791.70 0.1689
791.80 0.1688
791.90 0.1688
792.00 0.1687
792.10 0.1686
792.20 0.1685
792.30 0.1684
792.40 0.1684
792.50 0.1683
792.60 0.1682
792.70 0.1681
792.80 0.168
792.90 0.1679
793.00 0.1679
793.10 0.1678
793.20 0.1677
793.30 0.1676
793.40 0.1675
793.50 0.1674
793.60 0.1674
793.70 0.1673
793.80 0.1672
793.90 0.1671
794.00 0.167
794.10 0.167
794.20 0.1669
794.30 0.1668
794.40 0.1667
794.50 0.1666
794.60 0.1666
794.70 0.1665
794.80 0.1664
794.90 0.1663
795.00 0.1662
795.10 0.1661
795.20 0.1661
795.30 0.166
795.40 0.1659
795.50 0.1658
795.60 0.1657
795.70 0.1657
795.80 0.1656
795.90 0.1655
796.00 0.1654
796.10 0.1653
796.20 0.1653
796.30 0.1652
796.40 0.1651
796.50 0.165
796.60 0.1649
796.70 0.1648
796.80 0.1648
796.90 0.1647
797.00 0.1646
797.10 0.1645
797.20 0.1644
797.30 0.1644
797.40 0.1643
797.50 0.1642
797.60 0.1641
797.70 0.164
797.80 0.164
797.90 0.1639
798.00 0.1638
798.10 0.1637
798.20 0.1636
798.30 0.1636
798.40 0.1635
798.50 0.1634
798.60 0.1633
798.70 0.1632
798.80 0.1632
798.90 0.1631
799.00 0.163
799.10 0.1629
799.20 0.1628
799.30 0.1628
799.40 0.1627
799.50 0.1626
799.60 0.1625
799.70 0.1624
799.80 0.1624
799.90 0.1623
800.00 0.1622
800.10 0.1621
800.20 0.162
800.30 0.162
800.40 0.1619
800.50 0.1618
800.60 0.1617
800.70 0.1617
800.80 0.1616
800.90 0.1615
801.00 0.1614
801.10 0.1613
801.20 0.1613
801.30 0.1612
801.40 0.1611
801.50 0.161
801.60 0.161
801.70 0.1609
801.80 0.1608
801.90 0.1607
802.00 0.1606
802.10 0.1606
802.20 0.1605
802.30 0.1604
802.40 0.1603
802.50 0.1603
802.60 0.1602
802.70 0.1601
802.80 0.16
802.90 0.16
803.00 0.1599
803.10 0.1598
803.20 0.1597
803.30 0.1596
803.40 0.1596
803.50 0.1595
803.60 0.1594
803.70 0.1593
803.80 0.1593
803.90 0.1592
804.00 0.1591
804.10 0.159
804.20 0.159
804.30 0.1589
804.40 0.1588
804.50 0.1587
804.60 0.1586
804.70 0.1586
804.80 0.1585
804.90 0.1584
805.00 0.1583
805.10 0.1583
805.20 0.1582
805.30 0.1581
805.40 0.158
805.50 0.158
805.60 0.1579
805.70 0.1578
805.80 0.1577
805.90 0.1577
806.00 0.1576
806.10 0.1575
806.20 0.1574
806.30 0.1573
806.40 0.1573
806.50 0.1572
806.60 0.1571
806.70 0.157
806.80 0.157
806.90 0.1569
807.00 0.1568
807.10 0.1567
807.20 0.1567
807.30 0.1566
807.40 0.1565
807.50 0.1564
807.60 0.1564
807.70 0.1563
807.80 0.1562
807.90 0.1561
808.00 0.1561
808.10 0.156
808.20 0.1559
808.30 0.1558
808.40 0.1558
808.50 0.1557
808.60 0.1556
808.70 0.1555
808.80 0.1555
808.90 0.1554
809.00 0.1553
809.10 0.1552
809.20 0.1552
809.30 0.1551
809.40 0.155
809.50 0.1549
809.60 0.1549
809.70 0.1548
809.80 0.1547
809.90 0.1546
810.00 0.1546
810.10 0.1545
810.20 0.1544
810.30 0.1543
810.40 0.1543
810.50 0.1542
810.60 0.1541
810.70 0.154
810.80 0.154
810.90 0.1539
811.00 0.1538
811.10 0.1537
811.20 0.1537
811.30 0.1536
811.40 0.1535
811.50 0.1535
811.60 0.1534
811.70 0.1533
811.80 0.1532
811.90 0.1532
812.00 0.1531
812.10 0.153
812.20 0.1529
812.30 0.1529
812.40 0.1528
812.50 0.1527
812.60 0.1527
812.70 0.1526
812.80 0.1525
812.90 0.1524
813.00 0.1524
813.10 0.1523
813.20 0.1522
813.30 0.1521
813.40 0.1521
813.50 0.152
813.60 0.1519
813.70 0.1519
813.80 0.1518
813.90 0.1517
814.00 0.1516
814.10 0.1516
814.20 0.1515
814.30 0.1514
814.40 0.1513
814.50 0.1513
814.60 0.1512
814.70 0.1511
814.80 0.1511
814.90 0.151
815.00 0.1509
815.10 0.1508
815.20 0.1508
815.30 0.1507
815.40 0.1506
815.50 0.1506
815.60 0.1505
815.70 0.1504
815.80 0.1503
815.90 0.1503
816.00 0.1502
816.10 0.1501
816.20 0.1501
816.30 0.15
816.40 0.1499
816.50 0.1498
816.60 0.1498
816.70 0.1497
816.80 0.1496
816.90 0.1496
817.00 0.1495
817.10 0.1494
817.20 0.1493
817.30 0.1493
817.40 0.1492
817.50 0.1491
817.60 0.1491
817.70 0.149
817.80 0.1489
817.90 0.1488
818.00 0.1488
818.10 0.1487
818.20 0.1486
818.30 0.1486
818.40 0.1485
818.50 0.1484
818.60 0.1483
818.70 0.1483
818.80 0.1482
818.90 0.1481
819.00 0.1481
819.10 0.148
819.20 0.1479
819.30 0.1478
819.40 0.1478
819.50 0.1477
819.60 0.1476
819.70 0.1476
819.80 0.1475
819.90 0.1474
820.00 0.1474
820.10 0.1473
820.20 0.1472
820.30 0.1471
820.40 0.1471
820.50 0.147
820.60 0.1469
820.70 0.1469
820.80 0.1468
820.90 0.1467
821.00 0.1467
821.10 0.1466
821.20 0.1465
821.30 0.1464
821.40 0.1464
821.50 0.1463
821.60 0.1462
821.70 0.1462
821.80 0.1461
821.90 0.146
822.00 0.146
822.10 0.1459
822.20 0.1458
822.30 0.1458
822.40 0.1457
822.50 0.1456
822.60 0.1456
822.70 0.1455
822.80 0.1454
822.90 0.1453
823.00 0.1453
823.10 0.1452
823.20 0.1451
823.30 0.1451
823.40 0.145
823.50 0.1449
823.60 0.1449
823.70 0.1448
823.80 0.1447
823.90 0.1447
824.00 0.1446
824.10 0.1445
824.20 0.1445
824.30 0.1444
824.40 0.1443
824.50 0.1443
824.60 0.1442
824.70 0.1441
824.80 0.144
824.90 0.144
825.00 0.1439
825.10 0.1438
825.20 0.1438
825.30 0.1437
825.40 0.1436
825.50 0.1436
825.60 0.1435
825.70 0.1434
825.80 0.1434
825.90 0.1433
826.00 0.1432
826.10 0.1432
826.20 0.1431
826.30 0.143
826.40 0.143
826.50 0.1429
826.60 0.1428
826.70 0.1428
826.80 0.1427
826.90 0.1426
827.00 0.1426
827.10 0.1425
827.20 0.1424
827.30 0.1424
827.40 0.1423
827.50 0.1422
827.60 0.1422
827.70 0.1421
827.80 0.142
827.90 0.142
828.00 0.1419
828.10 0.1418
828.20 0.1418
828.30 0.1417
828.40 0.1416
828.50 0.1416
828.60 0.1415
828.70 0.1414
828.80 0.1414
828.90 0.1413
829.00 0.1412
829.10 0.1412
829.20 0.1411
829.30 0.141
829.40 0.141
829.50 0.1409
829.60 0.1408
829.70 0.1408
829.80 0.1407
829.90 0.1406
830.00 0.1406
830.10 0.1405
830.20 0.1404
830.30 0.1404
830.40 0.1403
830.50 0.1402
830.60 0.1402
830.70 0.1401
830.80 0.14
830.90 0.14
831.00 0.1399
831.10 0.1398
831.20 0.1398
831.30 0.1397
831.40 0.1396
831.50 0.1396
831.60 0.1395
831.70 0.1395
831.80 0.1394
831.90 0.1393
832.00 0.1393
832.10 0.1392
832.20 0.1391
832.30 0.1391
832.40 0.139
832.50 0.1389
832.60 0.1389
832.70 0.1388
832.80 0.1387
832.90 0.1387
833.00 0.1386
833.10 0.1385
833.20 0.1385
833.30 0.1384
833.40 0.1383
833.50 0.1383
833.60 0.1382
833.70 0.1382
833.80 0.1381
833.90 0.138
834.00 0.138
834.10 0.1379
834.20 0.1378
834.30 0.1378
834.40 0.1377
834.50 0.1376
834.60 0.1376
834.70 0.1375
834.80 0.1374
834.90 0.1374
835.00 0.1373
835.10 0.1373
835.20 0.1372
835.30 0.1371
835.40 0.1371
835.50 0.137
835.60 0.1369
835.70 0.1369
835.80 0.1368
835.90 0.1367
836.00 0.1367
836.10 0.1366
836.20 0.1366
836.30 0.1365
836.40 0.1364
836.50 0.1364
836.60 0.1363
836.70 0.1362
836.80 0.1362
836.90 0.1361
837.00 0.136
837.10 0.136
837.20 0.1359
837.30 0.1359
837.40 0.1358
837.50 0.1357
837.60 0.1357
837.70 0.1356
837.80 0.1355
837.90 0.1355
838.00 0.1354
838.10 0.1353
838.20 0.1353
838.30 0.1352
838.40 0.1352
838.50 0.1351
838.60 0.135
838.70 0.135
838.80 0.1349
838.90 0.1348
839.00 0.1348
839.10 0.1347
839.20 0.1347
839.30 0.1346
839.40 0.1345
839.50 0.1345
839.60 0.1344
839.70 0.1343
839.80 0.1343
839.90 0.1342
840.00 0.1342
840.10 0.1341
840.20 0.134
840.30 0.134
840.40 0.1339
840.50 0.1338
840.60 0.1338
840.70 0.1337
840.80 0.1337
840.90 0.1336
841.00 0.1335
841.10 0.1335
841.20 0.1334
841.30 0.1334
841.40 0.1333
841.50 0.1332
841.60 0.1332
841.70 0.1331
841.80 0.133
841.90 0.133
842.00 0.1329
842.10 0.1329
842.20 0.1328
842.30 0.1327
842.40 0.1327
842.50 0.1326
842.60 0.1326
842.70 0.1325
842.80 0.1324
842.90 0.1324
843.00 0.1323
843.10 0.1322
843.20 0.1322
843.30 0.1321
843.40 0.1321
843.50 0.132
843.60 0.1319
843.70 0.1319
843.80 0.1318
843.90 0.1318
844.00 0.1317
844.10 0.1316
844.20 0.1316
844.30 0.1315
844.40 0.1315
844.50 0.1314
844.60 0.1313
844.70 0.1313
844.80 0.1312
844.90 0.1312
845.00 0.1311
845.10 0.131
845.20 0.131
845.30 0.1309
845.40 0.1309
845.50 0.1308
845.60 0.1307
845.70 0.1307
845.80 0.1306
845.90 0.1305
846.00 0.1305
846.10 0.1304
846.20 0.1304
846.30 0.1303
846.40 0.1302
846.50 0.1302
846.60 0.1301
846.70 0.1301
846.80 0.13
846.90 0.1299
847.00 0.1299
847.10 0.1298
847.20 0.1298
847.30 0.1297
847.40 0.1297
847.50 0.1296
847.60 0.1295
847.70 0.1295
847.80 0.1294
847.90 0.1294
848.00 0.1293
848.10 0.1292
848.20 0.1292
848.30 0.1291
848.40 0.1291
848.50 0.129
848.60 0.1289
848.70 0.1289
848.80 0.1288
848.90 0.1288
849.00 0.1287
849.10 0.1286
849.20 0.1286
849.30 0.1285
849.40 0.1285
849.50 0.1284
849.60 0.1283
849.70 0.1283
849.80 0.1282
849.90 0.1282
850.00 0.1281
850.10 0.1281
850.20 0.128
850.30 0.1279
850.40 0.1279
850.50 0.1278
850.60 0.1278
850.70 0.1277
850.80 0.1276
850.90 0.1276
851.00 0.1275
851.10 0.1275
851.20 0.1274
851.30 0.1274
851.40 0.1273
851.50 0.1272
851.60 0.1272
851.70 0.1271
851.80 0.1271
851.90 0.127
852.00 0.1269
852.10 0.1269
852.20 0.1268
852.30 0.1268
852.40 0.1267
852.50 0.1267
852.60 0.1266
852.70 0.1265
852.80 0.1265
852.90 0.1264
853.00 0.1264
853.10 0.1263
853.20 0.1262
853.30 0.1262
853.40 0.1261
853.50 0.1261
853.60 0.126
853.70 0.126
853.80 0.1259
853.90 0.1258
854.00 0.1258
854.10 0.1257
854.20 0.1257
854.30 0.1256
854.40 0.1256
854.50 0.1255
854.60 0.1254
854.70 0.1254
854.80 0.1253
854.90 0.1253
855.00 0.1252
855.10 0.1252
855.20 0.1251
855.30 0.125
855.40 0.125
855.50 0.1249
855.60 0.1249
855.70 0.1248
855.80 0.1248
855.90 0.1247
856.00 0.1246
856.10 0.1246
856.20 0.1245
856.30 0.1245
856.40 0.1244
856.50 0.1244
856.60 0.1243
856.70 0.1243
856.80 0.1242
856.90 0.1241
857.00 0.1241
857.10 0.124
857.20 0.124
857.30 0.1239
857.40 0.1239
857.50 0.1238
857.60 0.1237
857.70 0.1237
857.80 0.1236
857.90 0.1236
858.00 0.1235
858.10 0.1235
858.20 0.1234
858.30 0.1234
858.40 0.1233
858.50 0.1232
858.60 0.1232
858.70 0.1231
858.80 0.1231
858.90 0.123
859.00 0.123
859.10 0.1229
859.20 0.1229
859.30 0.1228
859.40 0.1227
859.50 0.1227
859.60 0.1226
859.70 0.1226
859.80 0.1225
859.90 0.1225
860.00 0.1224
860.10 0.1224
860.20 0.1223
860.30 0.1222
860.40 0.1222
860.50 0.1221
860.60 0.1221
860.70 0.122
860.80 0.122
860.90 0.1219
861.00 0.1219
861.10 0.1218
861.20 0.1217
861.30 0.1217
861.40 0.1216
861.50 0.1216
861.60 0.1215
861.70 0.1215
861.80 0.1214
861.90 0.1214
862.00 0.1213
862.10 0.1212
862.20 0.1212
862.30 0.1211
862.40 0.1211
862.50 0.121
862.60 0.121
862.70 0.1209
862.80 0.1209
862.90 0.1208
863.00 0.1208
863.10 0.1207
863.20 0.1206
863.30 0.1206
863.40 0.1205
863.50 0.1205
863.60 0.1204
863.70 0.1204
863.80 0.1203
863.90 0.1203
864.00 0.1202
864.10 0.1202
864.20 0.1201
864.30 0.1201
864.40 0.12
864.50 0.1199
864.60 0.1199
864.70 0.1198
864.80 0.1198
864.90 0.1197
865.00 0.1197
865.10 0.1196
865.20 0.1196
865.30 0.1195
865.40 0.1195
865.50 0.1194
865.60 0.1193
865.70 0.1193
865.80 0.1192
865.90 0.1192
866.00 0.1191
866.10 0.1191
866.20 0.119
866.30 0.119
866.40 0.1189
866.50 0.1189
866.60 0.1188
866.70 0.1188
866.80 0.1187
866.90 0.1187
867.00 0.1186
867.10 0.1185
867.20 0.1185
867.30 0.1184
867.40 0.1184
867.50 0.1183
867.60 0.1183
867.70 0.1182
867.80 0.1182
867.90 0.1181
868.00 0.1181
868.10 0.118
868.20 0.118
868.30 0.1179
868.40 0.1179
868.50 0.1178
868.60 0.1178
868.70 0.1177
868.80 0.1176
868.90 0.1176
869.00 0.1175
869.10 0.1175
869.20 0.1174
869.30 0.1174
869.40 0.1173
869.50 0.1173
869.60 0.1172
869.70 0.1172
869.80 0.1171
869.90 0.1171
870.00 0.117
870.10 0.117
870.20 0.1169
870.30 0.1169
870.40 0.1168
870.50 0.1168
870.60 0.1167
870.70 0.1166
870.80 0.1166
870.90 0.1165
871.00 0.1165
871.10 0.1164
871.20 0.1164
871.30 0.1163
871.40 0.1163
871.50 0.1162
871.60 0.1162
871.70 0.1161
871.80 0.1161
871.90 0.116
872.00 0.116
872.10 0.1159
872.20 0.1159
872.30 0.1158
872.40 0.1158
872.50 0.1157
872.60 0.1157
872.70 0.1156
872.80 0.1156
872.90 0.1155
873.00 0.1155
873.10 0.1154
873.20 0.1154
873.30 0.1153
873.40 0.1153
873.50 0.1152
873.60 0.1151
873.70 0.1151
873.80 0.115
873.90 0.115
874.00 0.1149
874.10 0.1149
874.20 0.1148
874.30 0.1148
874.40 0.1147
874.50 0.1147
874.60 0.1146
874.70 0.1146
874.80 0.1145
874.90 0.1145
875.00 0.1144
875.10 0.1144
875.20 0.1143
875.30 0.1143
875.40 0.1142
875.50 0.1142
875.60 0.1141
875.70 0.1141
875.80 0.114
875.90 0.114
876.00 0.1139
876.10 0.1139
876.20 0.1138
876.30 0.1138
876.40 0.1137
876.50 0.1137
876.60 0.1136
876.70 0.1136
876.80 0.1135
876.90 0.1135
877.00 0.1134
877.10 0.1134
877.20 0.1133
877.30 0.1133
877.40 0.1132
877.50 0.1132
877.60 0.1131
877.70 0.1131
877.80 0.113
877.90 0.113
878.00 0.1129
878.10 0.1129
878.20 0.1128
878.30 0.1128
878.40 0.1127
878.50 0.1127
878.60 0.1126
878.70 0.1126
878.80 0.1125
878.90 0.1125
879.00 0.1124
879.10 0.1124
879.20 0.1123
879.30 0.1123
879.40 0.1122
879.50 0.1122
879.60 0.1121
879.70 0.1121
879.80 0.112
879.90 0.112
880.00 0.1119
880.10 0.1119
880.20 0.1118
880.30 0.1118
880.40 0.1117
880.50 0.1117
880.60 0.1116
880.70 0.1116
880.80 0.1115
880.90 0.1115
881.00 0.1114
881.10 0.1114
881.20 0.1113
881.30 0.1113
881.40 0.1112
881.50 0.1112
881.60 0.1111
881.70 0.1111
881.80 0.111
881.90 0.111
882.00 0.1109
882.10 0.1109
882.20 0.1108
882.30 0.1108
882.40 0.1107
882.50 0.1107
882.60 0.1106
882.70 0.1106
882.80 0.1105
882.90 0.1105
883.00 0.1105
883.10 0.1104
883.20 0.1104
883.30 0.1103
883.40 0.1103
883.50 0.1102
883.60 0.1102
883.70 0.1101
883.80 0.1101
883.90 0.11
884.00 0.11
884.10 0.1099
884.20 0.1099
884.30 0.1098
884.40 0.1098
884.50 0.1097
884.60 0.1097
884.70 0.1096
884.80 0.1096
884.90 0.1095
885.00 0.1095
885.10 0.1094
885.20 0.1094
885.30 0.1093
885.40 0.1093
885.50 0.1093
885.60 0.1092
885.70 0.1092
885.80 0.1091
885.90 0.1091
886.00 0.109
886.10 0.109
886.20 0.1089
886.30 0.1089
886.40 0.1088
886.50 0.1088
886.60 0.1087
886.70 0.1087
886.80 0.1086
886.90 0.1086
887.00 0.1085
887.10 0.1085
887.20 0.1084
887.30 0.1084
887.40 0.1083
887.50 0.1083
887.60 0.1082
887.70 0.1082
887.80 0.1082
887.90 0.1081
888.00 0.1081
888.10 0.108
888.20 0.108
888.30 0.1079
888.40 0.1079
888.50 0.1078
888.60 0.1078
888.70 0.1077
888.80 0.1077
888.90 0.1076
889.00 0.1076
889.10 0.1075
889.20 0.1075
889.30 0.1074
889.40 0.1074
889.50 0.1074
889.60 0.1073
889.70 0.1073
889.80 0.1072
889.90 0.1072
890.00 0.1071
890.10 0.1071
890.20 0.107
890.30 0.107
890.40 0.1069
890.50 0.1069
890.60 0.1068
890.70 0.1068
890.80 0.1067
890.90 0.1067
891.00 0.1066
891.10 0.1066
891.20 0.1066
891.30 0.1065
891.40 0.1065
891.50 0.1064
891.60 0.1064
891.70 0.1063
891.80 0.1063
891.90 0.1062
892.00 0.1062
892.10 0.1061
892.20 0.1061
892.30 0.106
892.40 0.106
892.50 0.1059
892.60 0.1059
892.70 0.1059
892.80 0.1058
892.90 0.1058
893.00 0.1057
893.10 0.1057
893.20 0.1056
893.30 0.1056
893.40 0.1055
893.50 0.1055
893.60 0.1054
893.70 0.1054
893.80 0.1054
893.90 0.1053
894.00 0.1053
894.10 0.1052
894.20 0.1052
894.30 0.1051
894.40 0.1051
894.50 0.105
894.60 0.105
894.70 0.1049
894.80 0.1049
894.90 0.1048
895.00 0.1048
895.10 0.1048
895.20 0.1047
895.30 0.1047
895.40 0.1046
895.50 0.1046
895.60 0.1045
895.70 0.1045
895.80 0.1044
895.90 0.1044
896.00 0.1043
896.10 0.1043
896.20 0.1043
896.30 0.1042
896.40 0.1042
896.50 0.1041
896.60 0.1041
896.70 0.104
896.80 0.104
896.90 0.1039
897.00 0.1039
897.10 0.1039
897.20 0.1038
897.30 0.1038
897.40 0.1037
897.50 0.1037
897.60 0.1036
897.70 0.1036
897.80 0.1035
897.90 0.1035
898.00 0.1035
898.10 0.1034
898.20 0.1034
898.30 0.1033
898.40 0.1033
898.50 0.1032
898.60 0.1032
898.70 0.1031
898.80 0.1031
898.90 0.1031
899.00 0.103
899.10 0.103
899.20 0.1029
899.30 0.1029
899.40 0.1028
899.50 0.1028
899.60 0.1027
899.70 0.1027
899.80 0.1027
899.90 0.1026
900.00 0.1026
900.10 0.1025
900.20 0.1025
900.30 0.1024
900.40 0.1024
900.50 0.1024
900.60 0.1023
900.70 0.1023
900.80 0.1022
900.90 0.1022
901.00 0.1021
901.10 0.1021
901.20 0.102
901.30 0.102
901.40 0.102
901.50 0.1019
901.60 0.1019
901.70 0.1018
901.80 0.1018
901.90 0.1017
902.00 0.1017
902.10 0.1017
902.20 0.1016
902.30 0.1016
902.40 0.1015
902.50 0.1015
902.60 0.1014
902.70 0.1014
902.80 0.1013
902.90 0.1013
903.00 0.1013
903.10 0.1012
903.20 0.1012
903.30 0.1011
903.40 0.1011
903.50 0.101
903.60 0.101
903.70 0.101
903.80 0.1009
903.90 0.1009
904.00 0.1008
904.10 0.1008
904.20 0.1007
904.30 0.1007
904.40 0.1006
904.50 0.1006
904.60 0.1006
904.70 0.1005
904.80 0.1005
904.90 0.1004
905.00 0.1004
905.10 0.1003
905.20 0.1003
905.30 0.1003
905.40 0.1002
905.50 0.1002
905.60 0.1001
905.70 0.1001
905.80 0.1
905.90 0.09999
906.00 0.09995
906.10 0.09991
906.20 0.09986
906.30 0.09982
906.40 0.09978
906.50 0.09973
906.60 0.09969
906.70 0.09965
906.80 0.0996
906.90 0.09956
907.00 0.09952
907.10 0.09948
907.20 0.09943
907.30 0.09939
907.40 0.09935
907.50 0.09931
907.60 0.09926
907.70 0.09922
907.80 0.09918
907.90 0.09914
908.00 0.09909
908.10 0.09905
908.20 0.09901
908.30 0.09897
908.40 0.09892
908.50 0.09888
908.60 0.09884
908.70 0.0988
908.80 0.09875
908.90 0.09871
909.00 0.09867
909.10 0.09863
909.20 0.09859
909.30 0.09854
909.40 0.0985
909.50 0.09846
909.60 0.09842
909.70 0.09838
909.80 0.09833
909.90 0.09829
910.00 0.09825
910.10 0.09821
910.20 0.09816
910.30 0.09812
910.40 0.09808
910.50 0.09804
910.60 0.098
910.70 0.09795
910.80 0.09791
910.90 0.09787
911.00 0.09783
911.10 0.09779
911.20 0.09774
911.30 0.0977
911.40 0.09766
911.50 0.09762
911.60 0.09758
911.70 0.09754
911.80 0.09749
911.90 0.09745
912.00 0.09741
912.10 0.09737
912.20 0.09733
912.30 0.09729
912.40 0.09724
912.50 0.0972
912.60 0.09716
912.70 0.09712
912.80 0.09708
912.90 0.09704
913.00 0.09699
913.10 0.09695
913.20 0.09691
913.30 0.09687
913.40 0.09683
913.50 0.09679
913.60 0.09674
913.70 0.0967
913.80 0.09666
913.90 0.09662
914.00 0.09658
914.10 0.09654
914.20 0.0965
914.30 0.09645
914.40 0.09641
914.50 0.09637
914.60 0.09633
914.70 0.09629
914.80 0.09625
914.90 0.09621
915.00 0.09617
915.10 0.09612
915.20 0.09608
915.30 0.09604
915.40 0.096
915.50 0.09596
915.60 0.09592
915.70 0.09588
915.80 0.09584
915.90 0.09579
916.00 0.09575
916.10 0.09571
916.20 0.09567
916.30 0.09563
916.40 0.09559
916.50 0.09555
916.60 0.09551
916.70 0.09547
916.80 0.09543
916.90 0.09538
917.00 0.09534
917.10 0.0953
917.20 0.09526
917.30 0.09522
917.40 0.09518
917.50 0.09514
917.60 0.0951
917.70 0.09506
917.80 0.09502
917.90 0.09498
918.00 0.09494
918.10 0.09491
918.20 0.09487
918.30 0.09483
918.40 0.09479
918.50 0.09475
918.60 0.09471
918.70 0.09467
918.80 0.09463
918.90 0.09459
919.00 0.09455
919.10 0.09451
919.20 0.09447
919.30 0.09443
919.40 0.09439
919.50 0.09435
919.60 0.09431
919.70 0.09427
919.80 0.09423
919.90 0.09419
920.00 0.09415
920.10 0.09411
920.20 0.09407
920.30 0.09403
920.40 0.09399
920.50 0.09395
920.60 0.09392
920.70 0.09388
920.80 0.09384
920.90 0.0938
921.00 0.09376
921.10 0.09372
921.20 0.09368
921.30 0.09364
921.40 0.0936
921.50 0.09356
921.60 0.09352
921.70 0.09348
921.80 0.09344
921.90 0.0934
922.00 0.09337
922.10 0.09333
922.20 0.09329
922.30 0.09325
922.40 0.09321
922.50 0.09317
922.60 0.09313
922.70 0.09309
922.80 0.09305
922.90 0.09301
923.00 0.09297
923.10 0.09293
923.20 0.09289
923.30 0.09285
923.40 0.09281
923.50 0.09278
923.60 0.09274
923.70 0.0927
923.80 0.09266
923.90 0.09262
924.00 0.09258
924.10 0.09254
924.20 0.0925
924.30 0.09246
924.40 0.09242
924.50 0.09238
924.60 0.09235
924.70 0.09231
924.80 0.09227
924.90 0.09223
925.00 0.09219
925.10 0.09215
925.20 0.09211
925.30 0.09207
925.40 0.09203
925.50 0.092
925.60 0.09196
925.70 0.09192
925.80 0.09188
925.90 0.09184
926.00 0.0918
926.10 0.09176
926.20 0.09172
926.30 0.09168
926.40 0.09165
926.50 0.09161
926.60 0.09157
926.70 0.09153
926.80 0.09149
926.90 0.09145
927.00 0.09141
927.10 0.09138
927.20 0.09134
927.30 0.0913
927.40 0.09126
927.50 0.09123
927.60 0.09119
927.70 0.09115
927.80 0.09111
927.90 0.09108
928.00 0.09104
928.10 0.091
928.20 0.09096
928.30 0.09093
928.40 0.09089
928.50 0.09085
928.60 0.09081
928.70 0.09078
928.80 0.09074
928.90 0.0907
929.00 0.09066
929.10 0.09063
929.20 0.09059
929.30 0.09055
929.40 0.09051
929.50 0.09048
929.60 0.09044
929.70 0.0904
929.80 0.09037
929.90 0.09033
930.00 0.09029
930.10 0.09025
930.20 0.09022
930.30 0.09018
930.40 0.09014
930.50 0.09011
930.60 0.09007
930.70 0.09003
930.80 0.08999
930.90 0.08996
931.00 0.08992
931.10 0.08988
931.20 0.08985
931.30 0.08981
931.40 0.08977
931.50 0.08973
931.60 0.0897
931.70 0.08966
931.80 0.08962
931.90 0.08959
932.00 0.08955
932.10 0.08951
932.20 0.08948
932.30 0.08944
932.40 0.0894
932.50 0.08936
932.60 0.08933
932.70 0.08929
932.80 0.08925
932.90 0.08922
933.00 0.08918
933.10 0.08914
933.20 0.08911
933.30 0.08907
933.40 0.08903
933.50 0.089
933.60 0.08896
933.70 0.08892
933.80 0.08889
933.90 0.08885
934.00 0.08881
934.10 0.08878
934.20 0.08874
934.30 0.0887
934.40 0.08867
934.50 0.08863
934.60 0.08859
934.70 0.08856
934.80 0.08852
934.90 0.08848
935.00 0.08845
935.10 0.08841
935.20 0.08837
935.30 0.08834
935.40 0.0883
935.50 0.08826
935.60 0.08823
935.70 0.08819
935.80 0.08815
935.90 0.08812
936.00 0.08808
936.10 0.08804
936.20 0.08801
936.30 0.08797
936.40 0.08793
936.50 0.0879
936.60 0.08786
936.70 0.08782
936.80 0.08779
936.90 0.08775
937.00 0.08771
937.10 0.08768
937.20 0.08764
937.30 0.0876
937.40 0.08757
937.50 0.08753
937.60 0.08749
937.70 0.08746
937.80 0.08742
937.90 0.08738
938.00 0.08735
938.10 0.08731
938.20 0.08728
938.30 0.08724
938.40 0.0872
938.50 0.08717
938.60 0.08713
938.70 0.08709
938.80 0.08706
938.90 0.08702
939.00 0.08698
939.10 0.08695
939.20 0.08691
939.30 0.08687
939.40 0.08684
939.50 0.0868
939.60 0.08676
939.70 0.08673
939.80 0.08669
939.90 0.08666
940.00 0.08662
940.10 0.08658
940.20 0.08655
940.30 0.08651
940.40 0.08647
940.50 0.08644
940.60 0.0864
940.70 0.08636
940.80 0.08633
940.90 0.08629
941.00 0.08626
941.10 0.08622
941.20 0.08618
941.30 0.08615
941.40 0.08611
941.50 0.08607
941.60 0.08604
941.70 0.086
941.80 0.08596
941.90 0.08593
942.00 0.08589
942.10 0.08586
942.20 0.08582
942.30 0.08578
942.40 0.08575
942.50 0.08571
942.60 0.08567
942.70 0.08564
942.80 0.0856
942.90 0.08557
943.00 0.08553
943.10 0.08549
943.20 0.08546
943.30 0.08542
943.40 0.08538
943.50 0.08535
943.60 0.08531
943.70 0.08527
943.80 0.08524
943.90 0.0852
944.00 0.08517
944.10 0.08513
944.20 0.08509
944.30 0.08506
944.40 0.08502
944.50 0.08498
944.60 0.08495
944.70 0.08491
944.80 0.08488
944.90 0.08484
945.00 0.0848
945.10 0.08477
945.20 0.08473
945.30 0.0847
945.40 0.08466
945.50 0.08462
945.60 0.08459
945.70 0.08455
945.80 0.08451
945.90 0.08448
946.00 0.08444
946.10 0.0844
946.20 0.08437
946.30 0.08433
946.40 0.0843
946.50 0.08426
946.60 0.08422
946.70 0.08419
946.80 0.08415
946.90 0.08412
947.00 0.08408
947.10 0.08404
947.20 0.08401
947.30 0.08397
947.40 0.08394
947.50 0.0839
947.60 0.08386
947.70 0.08383
947.80 0.08379
947.90 0.08375
948.00 0.08372
948.10 0.08368
948.20 0.08365
948.30 0.08361
948.40 0.08357
948.50 0.08354
948.60 0.0835
948.70 0.08347
948.80 0.08343
948.90 0.0834
949.00 0.08336
949.10 0.08332
949.20 0.08329
949.30 0.08325
949.40 0.08322
949.50 0.08318
949.60 0.08315
949.70 0.08311
949.80 0.08307
949.90 0.08304
950.00 0.083
950.10 0.08297
950.20 0.08293
950.30 0.0829
950.40 0.08286
950.50 0.08283
950.60 0.08279
950.70 0.08276
950.80 0.08272
950.90 0.08269
951.00 0.08265
951.10 0.08262
951.20 0.08258
951.30 0.08255
951.40 0.08251
951.50 0.08248
951.60 0.08244
951.70 0.08241
951.80 0.08237
951.90 0.08234
952.00 0.0823
952.10 0.08227
952.20 0.08224
952.30 0.0822
952.40 0.08217
952.50 0.08214
952.60 0.0821
952.70 0.08207
952.80 0.08204
952.90 0.08201
953.00 0.08197
953.10 0.08194
953.20 0.08191
953.30 0.08188
953.40 0.08185
953.50 0.08181
953.60 0.08178
953.70 0.08175
953.80 0.08172
953.90 0.08169
954.00 0.08166
954.10 0.08163
954.20 0.08161
954.30 0.08158
954.40 0.08155
954.50 0.08152
954.60 0.08149
954.70 0.08146
954.80 0.08142
954.90 0.08138
955.00 0.08134
955.10 0.0813
955.20 0.08127
955.30 0.08123
955.40 0.0812
955.50 0.08116
955.60 0.08112
955.70 0.08109
955.80 0.08105
955.90 0.08102
956.00 0.08098
956.10 0.08095
956.20 0.08092
956.30 0.08088
956.40 0.08085
956.50 0.08082
956.60 0.08078
956.70 0.08075
956.80 0.08072
956.90 0.08068
957.00 0.08065
957.10 0.08062
957.20 0.08059
957.30 0.08055
957.40 0.08052
957.50 0.08049
957.60 0.08046
957.70 0.08043
957.80 0.0804
957.90 0.08037
958.00 0.08033
958.10 0.0803
958.20 0.08027
958.30 0.08024
958.40 0.08021
958.50 0.08018
958.60 0.08015
958.70 0.08012
958.80 0.08008
958.90 0.08005
959.00 0.08002
959.10 0.07999
959.20 0.07996
959.30 0.07993
959.40 0.0799
959.50 0.07987
959.60 0.07984
959.70 0.07981
959.80 0.07978
959.90 0.07974
960.00 0.07971
960.10 0.07968
960.20 0.07965
960.30 0.07962
960.40 0.07959
960.50 0.07956
960.60 0.07953
960.70 0.0795
960.80 0.07947
960.90 0.07944
961.00 0.07941
961.10 0.07938
961.20 0.07935
961.30 0.07932
961.40 0.07929
961.50 0.07926
961.60 0.07923
961.70 0.0792
961.80 0.07917
961.90 0.07914
962.00 0.07911
962.10 0.07908
962.20 0.07905
962.30 0.07902
962.40 0.07899
962.50 0.07896
962.60 0.07893
962.70 0.07889
962.80 0.07886
962.90 0.07883
963.00 0.0788
963.10 0.07877
963.20 0.07874
963.30 0.07871
963.40 0.07868
963.50 0.07865
963.60 0.07862
963.70 0.07859
963.80 0.07856
963.90 0.07853
964.00 0.0785
964.10 0.07847
964.20 0.07844
964.30 0.07841
964.40 0.07838
964.50 0.07835
964.60 0.07832
964.70 0.07829
964.80 0.07826
964.90 0.07823
965.00 0.0782
965.10 0.07817
965.20 0.07814
965.30 0.07811
965.40 0.07808
965.50 0.07805
965.60 0.07802
965.70 0.07799
965.80 0.07796
965.90 0.07793
966.00 0.0779
966.10 0.07787
966.20 0.07784
966.30 0.07781
966.40 0.07778
966.50 0.07775
966.60 0.07772
966.70 0.07769
966.80 0.07766
966.90 0.07763
967.00 0.0776
967.10 0.07757
967.20 0.07754
967.30 0.07751
967.40 0.07747
967.50 0.07744
967.60 0.07741
967.70 0.07738
967.80 0.07735
967.90 0.07732
968.00 0.07729
968.10 0.07726
968.20 0.07723
968.30 0.0772
968.40 0.07717
968.50 0.07714
968.60 0.07711
968.70 0.07708
968.80 0.07705
968.90 0.07702
969.00 0.07699
969.10 0.07696
969.20 0.07693
969.30 0.0769
969.40 0.07687
969.50 0.07684
969.60 0.07681
969.70 0.07678
969.80 0.07675
969.90 0.07672
970.00 0.07669
970.10 0.07666
970.20 0.07663
970.30 0.0766
970.40 0.07657
970.50 0.07654
970.60 0.07651
970.70 0.07648
970.80 0.07645
970.90 0.07642
971.00 0.07639
971.10 0.07636
971.20 0.07633
971.30 0.0763
971.40 0.07627
971.50 0.07624
971.60 0.07621
971.70 0.07618
971.80 0.07615
971.90 0.07612
972.00 0.07609
972.10 0.07606
972.20 0.07603
972.30 0.076
972.40 0.07597
972.50 0.07594
972.60 0.07591
972.70 0.07588
972.80 0.07585
972.90 0.07582
973.00 0.07579
973.10 0.07576
973.20 0.07573
973.30 0.0757
973.40 0.07567
973.50 0.07564
973.60 0.07561
973.70 0.07558
973.80 0.07555
973.90 0.07552
974.00 0.07549
974.10 0.07546
974.20 0.07543
974.30 0.0754
974.40 0.07537
974.50 0.07534
974.60 0.07531
974.70 0.07528
974.80 0.07525
974.90 0.07522
975.00 0.07519
975.10 0.07516
975.20 0.07513
975.30 0.0751
975.40 0.07507
975.50 0.07504
975.60 0.07501
975.70 0.07498
975.80 0.07495
975.90 0.07492
976.00 0.07489
976.10 0.07486
976.20 0.07483
976.30 0.07481
976.40 0.07478
976.50 0.07475
976.60 0.07472
976.70 0.07469
976.80 0.07466
976.90 0.07463
977.00 0.0746
977.10 0.07457
977.20 0.07454
977.30 0.07451
977.40 0.07448
977.50 0.07445
977.60 0.07442
977.70 0.07439
977.80 0.07436
977.90 0.07433
978.00 0.0743
978.10 0.07427
978.20 0.07424
978.30 0.07421
978.40 0.07418
978.50 0.07415
978.60 0.07412
978.70 0.07409
978.80 0.07406
978.90 0.07403
979.00 0.074
979.10 0.07398
979.20 0.07395
979.30 0.07392
979.40 0.07389
979.50 0.07386
979.60 0.07383
979.70 0.0738
979.80 0.07377
979.90 0.07374
980.00 0.07371
980.10 0.07368
980.20 0.07365
980.30 0.07362
980.40 0.07359
980.50 0.07356
980.60 0.07353
980.70 0.0735
980.80 0.07347
980.90 0.07345
981.00 0.07342
981.10 0.07339
981.20 0.07336
981.30 0.07333
981.40 0.0733
981.50 0.07327
981.60 0.07324
981.70 0.07321
981.80 0.07318
981.90 0.07315
982.00 0.07312
982.10 0.07309
982.20 0.07306
982.30 0.07304
982.40 0.07301
982.50 0.07298
982.60 0.07295
982.70 0.07292
982.80 0.07289
982.90 0.07286
983.00 0.07283
983.10 0.0728
983.20 0.07277
983.30 0.07274
983.40 0.07271
983.50 0.07268
983.60 0.07266
983.70 0.07263
983.80 0.0726
983.90 0.07257
984.00 0.07254
984.10 0.07251
984.20 0.07248
984.30 0.07245
984.40 0.07242
984.50 0.07239
984.60 0.07236
984.70 0.07233
984.80 0.07231
984.90 0.07228
985.00 0.07225
985.10 0.07222
985.20 0.07219
985.30 0.07216
985.40 0.07213
985.50 0.0721
985.60 0.07207
985.70 0.07204
985.80 0.07201
985.90 0.07198
986.00 0.07196
986.10 0.07193
986.20 0.0719
986.30 0.07187
986.40 0.07184
986.50 0.07181
986.60 0.07178
986.70 0.07175
986.80 0.07172
986.90 0.07169
987.00 0.07166
987.10 0.07164
987.20 0.07161
987.30 0.07158
987.40 0.07155
987.50 0.07152
987.60 0.07149
987.70 0.07146
987.80 0.07143
987.90 0.0714
988.00 0.07137
988.10 0.07135
988.20 0.07132
988.30 0.07129
988.40 0.07126
988.50 0.07123
988.60 0.0712
988.70 0.07117
988.80 0.07114
988.90 0.07111
989.00 0.07108
989.10 0.07105
989.20 0.07102
989.30 0.071
989.40 0.07097
989.50 0.07094
989.60 0.07091
989.70 0.07088
989.80 0.07085
989.90 0.07082
990.00 0.07079
990.10 0.07076
990.20 0.07073
990.30 0.0707
990.40 0.07068
990.50 0.07065
990.60 0.07062
990.70 0.07059
990.80 0.07056
990.90 0.07053
991.00 0.0705
991.10 0.07047
991.20 0.07044
991.30 0.07041
991.40 0.07038
991.50 0.07035
991.60 0.07033
991.70 0.0703
991.80 0.07027
991.90 0.07024
992.00 0.07021
992.10 0.07018
992.20 0.07015
992.30 0.07012
992.40 0.07009
992.50 0.07006
992.60 0.07003
992.70 0.07
992.80 0.06997
992.90 0.06994
993.00 0.06991
993.10 0.06988
993.20 0.06986
993.30 0.06983
993.40 0.0698
993.50 0.06977
993.60 0.06974
993.70 0.06971
993.80 0.06968
993.90 0.06965
994.00 0.06962
994.10 0.06959
994.20 0.06956
994.30 0.06953
994.40 0.0695
994.50 0.06947
994.60 0.06944
994.70 0.06941
994.80 0.06938
994.90 0.06935
995.00 0.06932
995.10 0.06929
995.20 0.06926
995.30 0.06923
995.40 0.06921
995.50 0.06918
995.60 0.06915
995.70 0.06912
995.80 0.06909
995.90 0.06906
996.00 0.06903
996.10 0.069
996.20 0.06897
996.30 0.06894
996.40 0.06891
996.50 0.06888
996.60 0.06885
996.70 0.06882
996.80 0.06879
996.90 0.06876
997.00 0.06873
997.10 0.0687
997.20 0.06867
997.30 0.06864
997.40 0.06861
997.50 0.06858
997.60 0.06855
997.70 0.06851
997.80 0.06848
997.90 0.06845
998.00 0.06842
998.10 0.06839
998.20 0.06836
998.30 0.06833
998.40 0.0683
998.50 0.06827
998.60 0.06824
998.70 0.06821
998.80 0.06818
998.90 0.06815
999.00 0.06812
999.10 0.06809
999.20 0.06806
999.30 0.06803
999.40 0.068
999.50 0.06797
999.60 0.06794
999.70 0.06791
999.80 0.06787
999.90 0.06784
1000.00 0.06781
1000.10 0.06778
1000.20 0.06775
1000.30 0.06772
1000.40 0.06769
1000.50 0.06766
1000.60 0.06762
1000.70 0.06759
1000.80 0.06756
1000.90 0.06753
1001.00 0.0675
1001.10 0.06747
1001.20 0.06744
1001.30 0.06741
1001.40 0.06738
1001.50 0.06734
1001.60 0.06731
1001.70 0.06728
1001.80 0.06726
1001.90 0.06723
1002.00 0.0672
1002.10 0.06717
1002.20 0.06714
1002.30 0.06712
1002.40 0.06709
1002.50 0.06706
1002.60 0.06703
1002.70 0.06701
1002.80 0.06698
1002.90 0.06695
1003.00 0.06693
1003.10 0.0669
1003.20 0.06688
1003.30 0.06685
1003.40 0.06683
1003.50 0.06681
1003.60 0.06679
1003.70 0.06677
1003.80 0.06675
1003.90 0.06673
1004.00 0.06671
1004.10 0.0667
1004.20 0.06668
1004.30 0.06667
1004.40 0.06666
1004.50 0.06665
1004.60 0.06665
1004.70 0.06663
1004.80 0.06661
1004.90 0.06659
1005.00 0.06656
1005.10 0.06653
1005.20 0.06649
1005.30 0.06645
1005.40 0.06642
1005.50 0.06638
1005.60 0.06634
1005.70 0.0663
1005.80 0.06627
1005.90 0.06623
1006.00 0.06619
1006.10 0.06615
1006.20 0.06612
1006.30 0.0661
1006.40 0.06607
1006.50 0.06604
1006.60 0.06601
1006.70 0.06598
1006.80 0.06595
1006.90 0.06593
1007.00 0.0659
1007.10 0.06587
1007.20 0.06585
1007.30 0.06583
1007.40 0.0658
1007.50 0.06578
1007.60 0.06575
1007.70 0.06573
1007.80 0.06571
1007.90 0.06569
1008.00 0.06567
1008.10 0.06564
1008.20 0.06562
1008.30 0.0656
1008.40 0.06558
1008.50 0.06556
1008.60 0.06553
1008.70 0.06551
1008.80 0.06549
1008.90 0.06547
1009.00 0.06545
1009.10 0.06543
1009.20 0.0654
1009.30 0.06538
1009.40 0.06536
1009.50 0.06534
1009.60 0.06532
1009.70 0.0653
1009.80 0.06527
1009.90 0.06525
1010.00 0.06523
1010.10 0.06521
1010.20 0.06519
1010.30 0.06517
1010.40 0.06515
1010.50 0.06512
1010.60 0.0651
1010.70 0.06508
1010.80 0.06506
1010.90 0.06504
1011.00 0.06502
1011.10 0.065
1011.20 0.06497
1011.30 0.06495
1011.40 0.06493
1011.50 0.06491
1011.60 0.06489
1011.70 0.06487
1011.80 0.06485
1011.90 0.06482
1012.00 0.0648
1012.10 0.06478
1012.20 0.06476
1012.30 0.06474
1012.40 0.06472
1012.50 0.06469
1012.60 0.06467
1012.70 0.06465
1012.80 0.06463
1012.90 0.06461
1013.00 0.06458
1013.10 0.06456
1013.20 0.06454
1013.30 0.06452
1013.40 0.0645
1013.50 0.06447
1013.60 0.06445
1013.70 0.06443
1013.80 0.06441
1013.90 0.06439
1014.00 0.06436
1014.10 0.06434
1014.20 0.06432
1014.30 0.0643
1014.40 0.06427
1014.50 0.06425
1014.60 0.06423
1014.70 0.06421
1014.80 0.06419
1014.90 0.06416
1015.00 0.06414
1015.10 0.06412
1015.20 0.06409
1015.30 0.06407
1015.40 0.06405
1015.50 0.06403
1015.60 0.064
1015.70 0.06398
1015.80 0.06396
1015.90 0.06394
1016.00 0.06391
1016.10 0.06389
1016.20 0.06387
1016.30 0.06385
1016.40 0.06382
1016.50 0.0638
1016.60 0.06378
1016.70 0.06376
1016.80 0.06373
1016.90 0.06371
1017.00 0.06369
1017.10 0.06367
1017.20 0.06364
1017.30 0.06362
1017.40 0.0636
1017.50 0.06357
1017.60 0.06355
1017.70 0.06353
1017.80 0.06351
1017.90 0.06348
1018.00 0.06346
1018.10 0.06344
1018.20 0.06341
1018.30 0.06339
1018.40 0.06337
1018.50 0.06335
1018.60 0.06332
1018.70 0.0633
1018.80 0.06328
1018.90 0.06325
1019.00 0.06323
1019.10 0.06321
1019.20 0.06318
1019.30 0.06316
1019.40 0.06314
1019.50 0.06311
1019.60 0.06309
1019.70 0.06307
1019.80 0.06305
1019.90 0.06302
1020.00 0.063
1020.10 0.06298
1020.20 0.06295
1020.30 0.06293
1020.40 0.06291
1020.50 0.06288
1020.60 0.06286
1020.70 0.06284
1020.80 0.06282
1020.90 0.06279
1021.00 0.06277
1021.10 0.06275
1021.20 0.06272
1021.30 0.0627
1021.40 0.06268
1021.50 0.06265
1021.60 0.06263
1021.70 0.06261
1021.80 0.06258
1021.90 0.06256
1022.00 0.06254
1022.10 0.06252
1022.20 0.06249
1022.30 0.06247
1022.40 0.06245
1022.50 0.06242
1022.60 0.0624
1022.70 0.06238
1022.80 0.06235
1022.90 0.06233
1023.00 0.06231
1023.10 0.06228
1023.20 0.06226
1023.30 0.06224
1023.40 0.06221
1023.50 0.06219
1023.60 0.06217
1023.70 0.06215
1023.80 0.06212
1023.90 0.0621
1024.00 0.06208
1024.10 0.06205
1024.20 0.06203
1024.30 0.06201
1024.40 0.06198
1024.50 0.06196
1024.60 0.06194
1024.70 0.06191
1024.80 0.06189
1024.90 0.06187
1025.00 0.06185
1025.10 0.06182
1025.20 0.0618
1025.30 0.06178
1025.40 0.06175
1025.50 0.06173
1025.60 0.06171
1025.70 0.06168
1025.80 0.06166
1025.90 0.06164
1026.00 0.06162
1026.10 0.06159
1026.20 0.06157
1026.30 0.06155
1026.40 0.06152
1026.50 0.0615
1026.60 0.06148
1026.70 0.06145
1026.80 0.06143
1026.90 0.06141
1027.00 0.06139
1027.10 0.06136
1027.20 0.06134
1027.30 0.06132
1027.40 0.06129
1027.50 0.06127
1027.60 0.06125
1027.70 0.06122
1027.80 0.0612
1027.90 0.06118
1028.00 0.06116
1028.10 0.06113
1028.20 0.06111
1028.30 0.06109
1028.40 0.06106
1028.50 0.06104
1028.60 0.06102
1028.70 0.061
1028.80 0.06097
1028.90 0.06095
1029.00 0.06093
1029.10 0.0609
1029.20 0.06088
1029.30 0.06086
1029.40 0.06084
1029.50 0.06081
1029.60 0.06079
1029.70 0.06077
1029.80 0.06075
1029.90 0.06072
1030.00 0.0607
1030.10 0.06068
1030.20 0.06065
1030.30 0.06063
1030.40 0.06061
1030.50 0.06059
1030.60 0.06056
1030.70 0.06054
1030.80 0.06052
1030.90 0.0605
1031.00 0.06047
1031.10 0.06045
1031.20 0.06043
1031.30 0.0604
1031.40 0.06038
1031.50 0.06036
1031.60 0.06034
1031.70 0.06031
1031.80 0.06029
1031.90 0.06027
1032.00 0.06025
1032.10 0.06022
1032.20 0.0602
1032.30 0.06018
1032.40 0.06016
1032.50 0.06013
1032.60 0.06011
1032.70 0.06009
1032.80 0.06007
1032.90 0.06004
1033.00 0.06002
1033.10 0.06
1033.20 0.05998
1033.30 0.05995
1033.40 0.05993
1033.50 0.05991
1033.60 0.05989
1033.70 0.05986
1033.80 0.05984
1033.90 0.05982
1034.00 0.0598
1034.10 0.05977
1034.20 0.05975
1034.30 0.05973
1034.40 0.05971
1034.50 0.05968
1034.60 0.05966
1034.70 0.05964
1034.80 0.05962
1034.90 0.05959
1035.00 0.05957
1035.10 0.05955
1035.20 0.05953
1035.30 0.05951
1035.40 0.05948
1035.50 0.05946
1035.60 0.05944
1035.70 0.05942
1035.80 0.05939
1035.90 0.05937
1036.00 0.05935
1036.10 0.05933
1036.20 0.0593
1036.30 0.05928
1036.40 0.05926
1036.50 0.05924
1036.60 0.05922
1036.70 0.05919
1036.80 0.05917
1036.90 0.05915
1037.00 0.05913
1037.10 0.0591
1037.20 0.05908
1037.30 0.05906
1037.40 0.05904
1037.50 0.05902
1037.60 0.05899
1037.70 0.05897
1037.80 0.05895
1037.90 0.05893
1038.00 0.05891
1038.10 0.05888
1038.20 0.05886
1038.30 0.05884
1038.40 0.05882
1038.50 0.0588
1038.60 0.05877
1038.70 0.05875
1038.80 0.05873
1038.90 0.05871
1039.00 0.05869
1039.10 0.05866
1039.20 0.05864
1039.30 0.05862
1039.40 0.0586
1039.50 0.05858
1039.60 0.05855
1039.70 0.05853
1039.80 0.05851
1039.90 0.05849
1040.00 0.05847
1040.10 0.05844
1040.20 0.05842
1040.30 0.0584
1040.40 0.05838
1040.50 0.05836
1040.60 0.05834
1040.70 0.05831
1040.80 0.05829
1040.90 0.05827
1041.00 0.05825
1041.10 0.05823
1041.20 0.0582
1041.30 0.05818
1041.40 0.05816
1041.50 0.05814
1041.60 0.05812
1041.70 0.0581
1041.80 0.05807
1041.90 0.05805
1042.00 0.05803
1042.10 0.05801
1042.20 0.05799
1042.30 0.05797
1042.40 0.05794
1042.50 0.05792
1042.60 0.0579
1042.70 0.05788
1042.80 0.05786
1042.90 0.05784
1043.00 0.05781
1043.10 0.05779
1043.20 0.05777
1043.30 0.05775
1043.40 0.05773
1043.50 0.05771
1043.60 0.05769
1043.70 0.05766
1043.80 0.05764
1043.90 0.05762
1044.00 0.0576
1044.10 0.05758
1044.20 0.05756
1044.30 0.05753
1044.40 0.05751
1044.50 0.05749
1044.60 0.05747
1044.70 0.05745
1044.80 0.05743
1044.90 0.05741
1045.00 0.05738
1045.10 0.05736
1045.20 0.05734
1045.30 0.05732
1045.40 0.0573
1045.50 0.05728
1045.60 0.05726
1045.70 0.05723
1045.80 0.05721
1045.90 0.05719
1046.00 0.05717
1046.10 0.05715
1046.20 0.05713
1046.30 0.05711
1046.40 0.05709
1046.50 0.05706
1046.60 0.05704
1046.70 0.05702
1046.80 0.057
1046.90 0.05698
1047.00 0.05696
1047.10 0.05694
1047.20 0.05691
1047.30 0.05689
1047.40 0.05687
1047.50 0.05685
1047.60 0.05683
1047.70 0.05681
1047.80 0.05679
1047.90 0.05677
1048.00 0.05675
1048.10 0.05672
1048.20 0.0567
1048.30 0.05668
1048.40 0.05666
1048.50 0.05664
1048.60 0.05662
1048.70 0.0566
1048.80 0.05658
1048.90 0.05656
1049.00 0.05654
1049.10 0.05651
1049.20 0.05649
1049.30 0.05647
1049.40 0.05645
1049.50 0.05643
1049.60 0.05641
1049.70 0.05639
1049.80 0.05637
1049.90 0.05635
1050.00 0.05632
1050.10 0.0563
1050.20 0.05628
1050.30 0.05626
1050.40 0.05624
1050.50 0.05622
1050.60 0.0562
1050.70 0.05618
1050.80 0.05616
1050.90 0.05614
1051.00 0.05612
1051.10 0.05609
1051.20 0.05607
1051.30 0.05605
1051.40 0.05603
1051.50 0.05601
1051.60 0.05599
1051.70 0.05597
1051.80 0.05595
1051.90 0.05593
1052.00 0.05591
1052.10 0.05589
1052.20 0.05587
1052.30 0.05584
1052.40 0.05582
1052.50 0.0558
1052.60 0.05578
1052.70 0.05576
1052.80 0.05574
1052.90 0.05572
1053.00 0.0557
1053.10 0.05568
1053.20 0.05566
1053.30 0.05564
1053.40 0.05562
1053.50 0.0556
1053.60 0.05558
1053.70 0.05556
1053.80 0.05554
1053.90 0.05551
1054.00 0.05549
1054.10 0.05547
1054.20 0.05545
1054.30 0.05543
1054.40 0.05541
1054.50 0.05539
1054.60 0.05537
1054.70 0.05535
1054.80 0.05533
1054.90 0.05531
1055.00 0.05529
1055.10 0.05527
1055.20 0.05525
1055.30 0.05523
1055.40 0.05521
1055.50 0.05519
1055.60 0.05517
1055.70 0.05515
1055.80 0.05512
1055.90 0.0551
1056.00 0.05508
1056.10 0.05506
1056.20 0.05504
1056.30 0.05502
1056.40 0.055
1056.50 0.05498
1056.60 0.05496
1056.70 0.05494
1056.80 0.05492
1056.90 0.0549
1057.00 0.05488
1057.10 0.05486
1057.20 0.05484
1057.30 0.05482
1057.40 0.0548
1057.50 0.05478
1057.60 0.05476
1057.70 0.05474
1057.80 0.05472
1057.90 0.0547
1058.00 0.05468
1058.10 0.05466
1058.20 0.05464
1058.30 0.05462
1058.40 0.0546
1058.50 0.05458
1058.60 0.05456
1058.70 0.05454
1058.80 0.05452
1058.90 0.0545
1059.00 0.05448
1059.10 0.05445
1059.20 0.05443
1059.30 0.05441
1059.40 0.05439
1059.50 0.05437
1059.60 0.05435
1059.70 0.05433
1059.80 0.05431
1059.90 0.05429
1060.00 0.05427
1060.10 0.05425
1060.20 0.05423
1060.30 0.05421
1060.40 0.05419
1060.50 0.05417
1060.60 0.05415
1060.70 0.05413
1060.80 0.05411
1060.90 0.05409
1061.00 0.05407
1061.10 0.05405
1061.20 0.05403
1061.30 0.05401
1061.40 0.05399
1061.50 0.05397
1061.60 0.05395
1061.70 0.05393
1061.80 0.05391
1061.90 0.05389
1062.00 0.05387
1062.10 0.05385
1062.20 0.05383
1062.30 0.05381
1062.40 0.05379
1062.50 0.05377
1062.60 0.05375
1062.70 0.05373
1062.80 0.05371
1062.90 0.05369
1063.00 0.05367
1063.10 0.05365
1063.20 0.05364
1063.30 0.05362
1063.40 0.0536
1063.50 0.05358
1063.60 0.05356
1063.70 0.05354
1063.80 0.05352
1063.90 0.0535
1064.00 0.05348
1064.10 0.05346
1064.20 0.05344
1064.30 0.05342
1064.40 0.0534
1064.50 0.05338
1064.60 0.05336
1064.70 0.05334
1064.80 0.05332
1064.90 0.0533
1065.00 0.05328
1065.10 0.05326
1065.20 0.05324
1065.30 0.05322
1065.40 0.0532
1065.50 0.05318
1065.60 0.05316
1065.70 0.05314
1065.80 0.05312
1065.90 0.0531
1066.00 0.05308
1066.10 0.05306
1066.20 0.05304
1066.30 0.05302
1066.40 0.053
1066.50 0.05298
1066.60 0.05296
1066.70 0.05295
1066.80 0.05293
1066.90 0.05291
1067.00 0.05289
1067.10 0.05287
1067.20 0.05285
1067.30 0.05283
1067.40 0.05281
1067.50 0.05279
1067.60 0.05277
1067.70 0.05275
1067.80 0.05273
1067.90 0.05271
1068.00 0.05269
1068.10 0.05267
1068.20 0.05265
1068.30 0.05263
1068.40 0.05261
1068.50 0.05259
1068.60 0.05257
1068.70 0.05255
1068.80 0.05254
1068.90 0.05252
1069.00 0.0525
1069.10 0.05248
1069.20 0.05246
1069.30 0.05244
1069.40 0.05242
1069.50 0.0524
1069.60 0.05238
1069.70 0.05236
1069.80 0.05234
1069.90 0.05232
1070.00 0.0523
1070.10 0.05228
1070.20 0.05226
1070.30 0.05224
1070.40 0.05222
1070.50 0.05221
1070.60 0.05219
1070.70 0.05217
1070.80 0.05215
1070.90 0.05213
1071.00 0.05211
1071.10 0.05209
1071.20 0.05207
1071.30 0.05205
1071.40 0.05203
1071.50 0.05201
1071.60 0.05199
1071.70 0.05197
1071.80 0.05195
1071.90 0.05193
1072.00 0.05192
1072.10 0.0519
1072.20 0.05188
1072.30 0.05186
1072.40 0.05184
1072.50 0.05182
1072.60 0.0518
1072.70 0.05178
1072.80 0.05176
1072.90 0.05174
1073.00 0.05172
1073.10 0.0517
1073.20 0.05168
1073.30 0.05166
1073.40 0.05165
1073.50 0.05163
1073.60 0.05161
1073.70 0.05159
1073.80 0.05157
1073.90 0.05155
1074.00 0.05153
1074.10 0.05151
1074.20 0.05149
1074.30 0.05147
1074.40 0.05145
1074.50 0.05143
1074.60 0.05141
1074.70 0.05139
1074.80 0.05137
1074.90 0.05136
1075.00 0.05134
1075.10 0.05132
1075.20 0.0513
1075.30 0.05128
1075.40 0.05126
1075.50 0.05124
1075.60 0.05122
1075.70 0.0512
1075.80 0.05118
1075.90 0.05116
1076.00 0.05114
1076.10 0.05112
1076.20 0.05111
1076.30 0.05109
1076.40 0.05107
1076.50 0.05105
1076.60 0.05103
1076.70 0.05101
1076.80 0.05099
1076.90 0.05097
1077.00 0.05095
1077.10 0.05093
1077.20 0.05091
1077.30 0.05089
1077.40 0.05087
1077.50 0.05085
1077.60 0.05084
1077.70 0.05082
1077.80 0.0508
1077.90 0.05078
1078.00 0.05076
1078.10 0.05074
1078.20 0.05072
1078.30 0.0507
1078.40 0.05068
1078.50 0.05066
1078.60 0.05064
1078.70 0.05062
1078.80 0.0506
1078.90 0.05058
1079.00 0.05056
1079.10 0.05054
1079.20 0.05052
1079.30 0.05051
1079.40 0.05049
1079.50 0.05047
1079.60 0.05045
1079.70 0.05043
1079.80 0.05041
1079.90 0.05039
1080.00 0.05037
1080.10 0.05035
1080.20 0.05033
1080.30 0.05031
1080.40 0.05029
1080.50 0.05027
1080.60 0.05025
1080.70 0.05023
1080.80 0.05021
1080.90 0.05019
1081.00 0.05017
1081.10 0.05015
1081.20 0.05013
1081.30 0.05011
1081.40 0.05009
1081.50 0.05007
1081.60 0.05005
1081.70 0.05003
1081.80 0.05001
1081.90 0.04999
1082.00 0.04997
1082.10 0.04995
1082.20 0.04993
1082.30 0.04991
1082.40 0.04989
1082.50 0.04987
1082.60 0.04985
1082.70 0.04983
1082.80 0.04981
1082.90 0.04979
1083.00 0.04977
1083.10 0.04975
1083.20 0.04973
1083.30 0.04971
1083.40 0.04969
1083.50 0.04967
1083.60 0.04965
1083.70 0.04963
1083.80 0.04961
1083.90 0.04959
1084.00 0.04957
1084.10 0.04955
1084.20 0.04953
1084.30 0.04951
1084.40 0.04949
1084.50 0.04947
1084.60 0.04944
1084.70 0.04942
1084.80 0.0494
1084.90 0.04938
1085.00 0.04936
1085.10 0.04934
1085.20 0.04932
1085.30 0.0493
1085.40 0.04927
1085.50 0.04925
1085.60 0.04923
1085.70 0.04921
1085.80 0.04919
1085.90 0.04917
1086.00 0.04915
1086.10 0.04913
1086.20 0.0491
1086.30 0.04908
1086.40 0.04906
1086.50 0.04904
1086.60 0.04902
1086.70 0.049
1086.80 0.04898
1086.90 0.04895
1087.00 0.04893
1087.10 0.04891
1087.20 0.04889
1087.30 0.04887
1087.40 0.04884
1087.50 0.04882
1087.60 0.0488
1087.70 0.04878
1087.80 0.04875
1087.90 0.04873
1088.00 0.04871
1088.10 0.04869
1088.20 0.04867
1088.30 0.04864
1088.40 0.04862
1088.50 0.0486
1088.60 0.04858
1088.70 0.04855
1088.80 0.04853
1088.90 0.04851
1089.00 0.04849
1089.10 0.04847
1089.20 0.04844
1089.30 0.04842
1089.40 0.0484
1089.50 0.04838
1089.60 0.04835
1089.70 0.04833
1089.80 0.04831
1089.90 0.04829
1090.00 0.04827
1090.10 0.04824
1090.20 0.04822
1090.30 0.0482
1090.40 0.04818
1090.50 0.04816
1090.60 0.04814
1090.70 0.04812
1090.80 0.0481
1090.90 0.04808
1091.00 0.04806
1091.10 0.04804
1091.20 0.04802
1091.30 0.048
1091.40 0.04799
1091.50 0.04797
1091.60 0.04795
1091.70 0.04793
1091.80 0.04791
1091.90 0.04789
1092.00 0.04787
1092.10 0.04786
1092.20 0.04785
1092.30 0.04784
1092.40 0.04782
1092.50 0.04781
1092.60 0.0478
1092.70 0.04779
1092.80 0.04778
1092.90 0.04778
1093.00 0.04777
1093.10 0.04777
1093.20 0.04777
1093.30 0.04777
1093.40 0.04777
1093.50 0.04778
1093.60 0.04782
1093.70 0.04785
1093.80 0.04786
1093.90 0.04784
1094.00 0.04778
1094.10 0.04772
1094.20 0.04765
1094.30 0.0476
1094.40 0.04757
1094.50 0.04754
1094.60 0.04751
1094.70 0.04748
1094.80 0.04745
1094.90 0.04742
1095.00 0.0474
1095.10 0.04738
1095.20 0.04736
1095.30 0.04734
1095.40 0.04732
1095.50 0.0473
1095.60 0.04729
1095.70 0.04727
1095.80 0.04725
1095.90 0.04723
1096.00 0.04721
1096.10 0.04719
1096.20 0.04718
1096.30 0.04716
1096.40 0.04714
1096.50 0.04712
1096.60 0.04711
1096.70 0.04709
1096.80 0.04708
1096.90 0.04707
1097.00 0.04705
1097.10 0.04704
1097.20 0.04703
1097.30 0.04702
1097.40 0.04701
1097.50 0.04699
1097.60 0.04698
1097.70 0.04697
1097.80 0.04696
1097.90 0.04695
1098.00 0.04693
1098.10 0.04692
1098.20 0.04691
1098.30 0.0469
1098.40 0.04689
1098.50 0.04687
1098.60 0.04686
1098.70 0.04685
1098.80 0.04684
1098.90 0.04683
1099.00 0.04682
1099.10 0.0468
1099.20 0.04679
1099.30 0.04678
1099.40 0.04677
1099.50 0.04676
1099.60 0.04674
1099.70 0.04673
1099.80 0.04672
1099.90 0.04671
1100.00 0.0467
1100.10 0.04668
1100.20 0.04667
1100.30 0.04666
1100.40 0.04665
1100.50 0.04664
1100.60 0.04662
1100.70 0.04661
1100.80 0.0466
1100.90 0.04659
1101.00 0.04657
1101.10 0.04656
1101.20 0.04655
1101.30 0.04654
1101.40 0.04652
1101.50 0.04651
1101.60 0.0465
1101.70 0.04648
1101.80 0.04647
1101.90 0.04646
1102.00 0.04645
1102.10 0.04643
1102.20 0.04642
1102.30 0.04641
1102.40 0.04639
1102.50 0.04638
1102.60 0.04637
1102.70 0.04635
1102.80 0.04634
1102.90 0.04633
1103.00 0.04631
1103.10 0.0463
1103.20 0.04629
1103.30 0.04627
1103.40 0.04626
1103.50 0.04624
1103.60 0.04623
1103.70 0.04622
1103.80 0.0462
1103.90 0.04619
1104.00 0.04617
1104.10 0.04616
1104.20 0.04615
1104.30 0.04613
1104.40 0.04612
1104.50 0.0461
1104.60 0.04609
1104.70 0.04607
1104.80 0.04606
1104.90 0.04605
1105.00 0.04603
1105.10 0.04602
1105.20 0.046
1105.30 0.04599
1105.40 0.04598
1105.50 0.04596
1105.60 0.04595
1105.70 0.04593
1105.80 0.04592
1105.90 0.0459
1106.00 0.04589
1106.10 0.04587
1106.20 0.04586
1106.30 0.04584
1106.40 0.04583
1106.50 0.04581
1106.60 0.0458
1106.70 0.04579
1106.80 0.04577
1106.90 0.04576
1107.00 0.04574
1107.10 0.04573
1107.20 0.04571
1107.30 0.0457
1107.40 0.04568
1107.50 0.04567
1107.60 0.04565
1107.70 0.04564
1107.80 0.04562
1107.90 0.04561
1108.00 0.04559
1108.10 0.04558
1108.20 0.04556
1108.30 0.04555
1108.40 0.04553
1108.50 0.04552
1108.60 0.0455
1108.70 0.04549
1108.80 0.04547
1108.90 0.04546
1109.00 0.04544
1109.10 0.04543
1109.20 0.04541
1109.30 0.0454
1109.40 0.04538
1109.50 0.04537
1109.60 0.04535
1109.70 0.04534
1109.80 0.04532
1109.90 0.04531
1110.00 0.04529
1110.10 0.04528
1110.20 0.04526
1110.30 0.04524
1110.40 0.04523
1110.50 0.04521
1110.60 0.0452
1110.70 0.04518
1110.80 0.04517
1110.90 0.04515
1111.00 0.04514
1111.10 0.04512
1111.20 0.04511
1111.30 0.04509
1111.40 0.04508
1111.50 0.04506
1111.60 0.04505
1111.70 0.04503
1111.80 0.04502
1111.90 0.045
1112.00 0.04499
1112.10 0.04497
1112.20 0.04496
1112.30 0.04494
1112.40 0.04493
1112.50 0.04491
1112.60 0.0449
1112.70 0.04488
1112.80 0.04486
1112.90 0.04485
1113.00 0.04483
1113.10 0.04482
1113.20 0.0448
1113.30 0.04479
1113.40 0.04477
1113.50 0.04476
1113.60 0.04474
1113.70 0.04473
1113.80 0.04471
1113.90 0.0447
1114.00 0.04468
1114.10 0.04467
1114.20 0.04465
1114.30 0.04464
1114.40 0.04462
1114.50 0.0446
1114.60 0.04459
1114.70 0.04457
1114.80 0.04456
1114.90 0.04454
1115.00 0.04453
1115.10 0.04451
1115.20 0.0445
1115.30 0.04448
1115.40 0.04447
1115.50 0.04445
1115.60 0.04444
1115.70 0.04442
1115.80 0.04441
1115.90 0.04439
1116.00 0.04438
1116.10 0.04436
1116.20 0.04435
1116.30 0.04433
1116.40 0.04432
1116.50 0.0443
1116.60 0.04428
1116.70 0.04427
1116.80 0.04425
1116.90 0.04424
1117.00 0.04422
1117.10 0.04421
1117.20 0.04419
1117.30 0.04418
1117.40 0.04416
1117.50 0.04415
1117.60 0.04413
1117.70 0.04412
1117.80 0.0441
1117.90 0.04409
1118.00 0.04407
1118.10 0.04406
1118.20 0.04404
1118.30 0.04403
1118.40 0.04401
1118.50 0.044
1118.60 0.04398
1118.70 0.04397
1118.80 0.04395
1118.90 0.04394
1119.00 0.04392
1119.10 0.0439
1119.20 0.04389
1119.30 0.04387
1119.40 0.04386
1119.50 0.04384
1119.60 0.04383
1119.70 0.04381
1119.80 0.0438
1119.90 0.04378
1120.00 0.04377
1120.10 0.04375
1120.20 0.04374
1120.30 0.04372
1120.40 0.04371
1120.50 0.04369
1120.60 0.04368
1120.70 0.04366
1120.80 0.04365
1120.90 0.04363
1121.00 0.04362
1121.10 0.0436
1121.20 0.04359
1121.30 0.04357
1121.40 0.04356
1121.50 0.04354
1121.60 0.04353
1121.70 0.04351
1121.80 0.0435
1121.90 0.04348
1122.00 0.04347
1122.10 0.04345
1122.20 0.04344
1122.30 0.04342
1122.40 0.04341
1122.50 0.04339
1122.60 0.04338
1122.70 0.04336
1122.80 0.04335
1122.90 0.04333
1123.00 0.04332
1123.10 0.0433
1123.20 0.04329
1123.30 0.04327
1123.40 0.04326
1123.50 0.04324
1123.60 0.04323
1123.70 0.04321
1123.80 0.0432
1123.90 0.04318
1124.00 0.04317
1124.10 0.04315
1124.20 0.04314
1124.30 0.04312
1124.40 0.04311
1124.50 0.04309
1124.60 0.04308
1124.70 0.04306
1124.80 0.04305
1124.90 0.04304
1125.00 0.04302
1125.10 0.04301
1125.20 0.04299
1125.30 0.04298
1125.40 0.04296
1125.50 0.04295
1125.60 0.04293
1125.70 0.04292
1125.80 0.0429
1125.90 0.04289
1126.00 0.04287
1126.10 0.04286
1126.20 0.04284
1126.30 0.04283
1126.40 0.04281
1126.50 0.0428
1126.60 0.04278
1126.70 0.04277
1126.80 0.04275
1126.90 0.04274
1127.00 0.04272
1127.10 0.04271
1127.20 0.04269
1127.30 0.04268
1127.40 0.04267
1127.50 0.04265
1127.60 0.04264
1127.70 0.04262
1127.80 0.04261
1127.90 0.04259
1128.00 0.04258
1128.10 0.04256
1128.20 0.04255
1128.30 0.04253
1128.40 0.04252
1128.50 0.0425
1128.60 0.04249
1128.70 0.04247
1128.80 0.04246
1128.90 0.04245
1129.00 0.04243
1129.10 0.04242
1129.20 0.0424
1129.30 0.04239
1129.40 0.04237
1129.50 0.04236
1129.60 0.04234
1129.70 0.04233
1129.80 0.04231
1129.90 0.0423
1130.00 0.04228
1130.10 0.04227
1130.20 0.04226
1130.30 0.04224
1130.40 0.04223
1130.50 0.04221
1130.60 0.0422
1130.70 0.04218
1130.80 0.04217
1130.90 0.04215
1131.00 0.04214
1131.10 0.04212
1131.20 0.04211
1131.30 0.0421
1131.40 0.04208
1131.50 0.04207
1131.60 0.04205
1131.70 0.04204
1131.80 0.04202
1131.90 0.04201
1132.00 0.04199
1132.10 0.04198
1132.20 0.04197
1132.30 0.04195
1132.40 0.04194
1132.50 0.04192
1132.60 0.04191
1132.70 0.04189
1132.80 0.04188
1132.90 0.04186
1133.00 0.04185
1133.10 0.04184
1133.20 0.04182
1133.30 0.04181
1133.40 0.04179
1133.50 0.04178
1133.60 0.04176
1133.70 0.04175
1133.80 0.04174
1133.90 0.04172
1134.00 0.04171
1134.10 0.04169
1134.20 0.04168
1134.30 0.04166
1134.40 0.04165
1134.50 0.04163
1134.60 0.04162
1134.70 0.04161
1134.80 0.04159
1134.90 0.04158
1135.00 0.04156
1135.10 0.04155
1135.20 0.04153
1135.30 0.04152
1135.40 0.04151
1135.50 0.04149
1135.60 0.04148
1135.70 0.04146
1135.80 0.04145
1135.90 0.04143
1136.00 0.04142
1136.10 0.04141
1136.20 0.04139
1136.30 0.04138
1136.40 0.04136
1136.50 0.04135
1136.60 0.04134
1136.70 0.04132
1136.80 0.04131
1136.90 0.04129
1137.00 0.04128
1137.10 0.04126
1137.20 0.04125
1137.30 0.04124
1137.40 0.04122
1137.50 0.04121
1137.60 0.04119
1137.70 0.04118
1137.80 0.04117
1137.90 0.04115
1138.00 0.04114
1138.10 0.04112
1138.20 0.04111
1138.30 0.0411
1138.40 0.04108
1138.50 0.04107
1138.60 0.04105
1138.70 0.04104
1138.80 0.04103
1138.90 0.04101
1139.00 0.041
1139.10 0.04098
1139.20 0.04097
1139.30 0.04095
1139.40 0.04094
1139.50 0.04093
1139.60 0.04091
1139.70 0.0409
1139.80 0.04088
1139.90 0.04087
1140.00 0.04086
1140.10 0.04084
1140.20 0.04083
1140.30 0.04081
1140.40 0.0408
1140.50 0.04079
1140.60 0.04077
1140.70 0.04076
1140.80 0.04074
1140.90 0.04073
1141.00 0.04072
1141.10 0.0407
1141.20 0.04069
1141.30 0.04068
1141.40 0.04066
1141.50 0.04065
1141.60 0.04063
1141.70 0.04062
1141.80 0.04061
1141.90 0.04059
1142.00 0.04058
1142.10 0.04056
1142.20 0.04055
1142.30 0.04054
1142.40 0.04052
1142.50 0.04051
1142.60 0.04049
1142.70 0.04048
1142.80 0.04047
1142.90 0.04045
1143.00 0.04044
1143.10 0.04043
1143.20 0.04041
1143.30 0.0404
1143.40 0.04038
1143.50 0.04037
1143.60 0.04036
1143.70 0.04034
1143.80 0.04033
1143.90 0.04032
1144.00 0.0403
1144.10 0.04029
1144.20 0.04027
1144.30 0.04026
1144.40 0.04025
1144.50 0.04023
1144.60 0.04022
1144.70 0.04021
1144.80 0.04019
1144.90 0.04018
1145.00 0.04016
1145.10 0.04015
1145.20 0.04014
1145.30 0.04012
1145.40 0.04011
1145.50 0.0401
1145.60 0.04008
1145.70 0.04007
1145.80 0.04006
1145.90 0.04004
1146.00 0.04003
1146.10 0.04001
1146.20 0.04
1146.30 0.03999
1146.40 0.03997
1146.50 0.03996
1146.60 0.03995
1146.70 0.03993
1146.80 0.03992
1146.90 0.03991
1147.00 0.03989
1147.10 0.03988
1147.20 0.03986
1147.30 0.03985
1147.40 0.03984
1147.50 0.03982
1147.60 0.03981
1147.70 0.0398
1147.80 0.03978
1147.90 0.03977
1148.00 0.03976
1148.10 0.03974
1148.20 0.03973
1148.30 0.03972
1148.40 0.0397
1148.50 0.03969
1148.60 0.03968
1148.70 0.03966
1148.80 0.03965
1148.90 0.03963
1149.00 0.03962
1149.10 0.03961
1149.20 0.03959
1149.30 0.03958
1149.40 0.03957
1149.50 0.03955
1149.60 0.03954
1149.70 0.03953
1149.80 0.03951
1149.90 0.0395
1150.00 0.03949
1150.10 0.03947
1150.20 0.03946
1150.30 0.03945
1150.40 0.03943
1150.50 0.03942
1150.60 0.03941
1150.70 0.03939
1150.80 0.03938
1150.90 0.03937
1151.00 0.03935
1151.10 0.03934
1151.20 0.03933
1151.30 0.03931
1151.40 0.0393
1151.50 0.03929
1151.60 0.03927
1151.70 0.03926
1151.80 0.03925
1151.90 0.03923
1152.00 0.03922
1152.10 0.03921
1152.20 0.03919
1152.30 0.03918
1152.40 0.03917
1152.50 0.03915
1152.60 0.03914
1152.70 0.03913
1152.80 0.03911
1152.90 0.0391
1153.00 0.03909
1153.10 0.03907
1153.20 0.03906
1153.30 0.03905
1153.40 0.03903
1153.50 0.03902
1153.60 0.03901
1153.70 0.03899
1153.80 0.03898
1153.90 0.03897
1154.00 0.03896
1154.10 0.03894
1154.20 0.03893
1154.30 0.03892
1154.40 0.0389
1154.50 0.03889
1154.60 0.03888
1154.70 0.03886
1154.80 0.03885
1154.90 0.03884
1155.00 0.03882
1155.10 0.03881
1155.20 0.0388
1155.30 0.03878
1155.40 0.03877
1155.50 0.03876
1155.60 0.03874
1155.70 0.03873
1155.80 0.03872
1155.90 0.03871
1156.00 0.03869
1156.10 0.03868
1156.20 0.03867
1156.30 0.03865
1156.40 0.03864
1156.50 0.03863
1156.60 0.03861
1156.70 0.0386
1156.80 0.03859
1156.90 0.03857
1157.00 0.03856
1157.10 0.03855
1157.20 0.03854
1157.30 0.03852
1157.40 0.03851
1157.50 0.0385
1157.60 0.03848
1157.70 0.03847
1157.80 0.03846
1157.90 0.03844
1158.00 0.03843
1158.10 0.03842
1158.20 0.03841
1158.30 0.03839
1158.40 0.03838
1158.50 0.03837
1158.60 0.03835
1158.70 0.03834
1158.80 0.03833
1158.90 0.03832
1159.00 0.0383
1159.10 0.03829
1159.20 0.03828
1159.30 0.03826
1159.40 0.03825
1159.50 0.03824
1159.60 0.03823
1159.70 0.03821
1159.80 0.0382
1159.90 0.03819
1160.00 0.03817
1160.10 0.03816
1160.20 0.03815
1160.30 0.03814
1160.40 0.03812
1160.50 0.03811
1160.60 0.0381
1160.70 0.03808
1160.80 0.03807
1160.90 0.03806
1161.00 0.03805
1161.10 0.03803
1161.20 0.03802
1161.30 0.03801
1161.40 0.03799
1161.50 0.03798
1161.60 0.03797
1161.70 0.03796
1161.80 0.03794
1161.90 0.03793
1162.00 0.03792
1162.10 0.0379
1162.20 0.03789
1162.30 0.03788
1162.40 0.03787
1162.50 0.03785
1162.60 0.03784
1162.70 0.03783
1162.80 0.03782
1162.90 0.0378
1163.00 0.03779
1163.10 0.03778
1163.20 0.03776
1163.30 0.03775
1163.40 0.03774
1163.50 0.03773
1163.60 0.03771
1163.70 0.0377
1163.80 0.03769
1163.90 0.03768
1164.00 0.03766
1164.10 0.03765
1164.20 0.03764
1164.30 0.03763
1164.40 0.03761
1164.50 0.0376
1164.60 0.03759
1164.70 0.03758
1164.80 0.03756
1164.90 0.03755
1165.00 0.03754
1165.10 0.03752
1165.20 0.03751
1165.30 0.0375
1165.40 0.03749
1165.50 0.03747
1165.60 0.03746
1165.70 0.03745
1165.80 0.03744
1165.90 0.03742
1166.00 0.03741
1166.10 0.0374
1166.20 0.03739
1166.30 0.03737
1166.40 0.03736
1166.50 0.03735
1166.60 0.03734
1166.70 0.03732
1166.80 0.03731
1166.90 0.0373
1167.00 0.03729
1167.10 0.03727
1167.20 0.03726
1167.30 0.03725
1167.40 0.03724
1167.50 0.03722
1167.60 0.03721
1167.70 0.0372
1167.80 0.03719
1167.90 0.03717
1168.00 0.03716
1168.10 0.03715
1168.20 0.03714
1168.30 0.03712
1168.40 0.03711
1168.50 0.0371
1168.60 0.03709
1168.70 0.03707
1168.80 0.03706
1168.90 0.03705
1169.00 0.03704
1169.10 0.03703
1169.20 0.03701
1169.30 0.037
1169.40 0.03699
1169.50 0.03698
1169.60 0.03696
1169.70 0.03695
1169.80 0.03694
1169.90 0.03693
1170.00 0.03691
1170.10 0.0369
1170.20 0.03689
1170.30 0.03688
1170.40 0.03686
1170.50 0.03685
1170.60 0.03684
1170.70 0.03683
1170.80 0.03682
1170.90 0.0368
1171.00 0.03679
1171.10 0.03678
1171.20 0.03677
1171.30 0.03675
1171.40 0.03674
1171.50 0.03673
1171.60 0.03672
1171.70 0.0367
1171.80 0.03669
1171.90 0.03668
1172.00 0.03667
1172.10 0.03666
1172.20 0.03664
1172.30 0.03663
1172.40 0.03662
1172.50 0.03661
1172.60 0.0366
1172.70 0.03658
1172.80 0.03657
1172.90 0.03656
1173.00 0.03655
1173.10 0.03653
1173.20 0.03652
1173.30 0.03651
1173.40 0.0365
1173.50 0.03649
1173.60 0.03647
1173.70 0.03646
1173.80 0.03645
1173.90 0.03644
1174.00 0.03642
1174.10 0.03641
1174.20 0.0364
1174.30 0.03639
1174.40 0.03638
1174.50 0.03636
1174.60 0.03635
1174.70 0.03634
1174.80 0.03633
1174.90 0.03632
1175.00 0.0363
1175.10 0.03629
1175.20 0.03628
1175.30 0.03627
1175.40 0.03626
1175.50 0.03624
1175.60 0.03623
1175.70 0.03622
1175.80 0.03621
1175.90 0.0362
1176.00 0.03618
1176.10 0.03617
1176.20 0.03616
1176.30 0.03615
1176.40 0.03614
1176.50 0.03612
1176.60 0.03611
1176.70 0.0361
1176.80 0.03609
1176.90 0.03607
1177.00 0.03606
1177.10 0.03605
1177.20 0.03604
1177.30 0.03603
1177.40 0.03602
1177.50 0.036
1177.60 0.03599
1177.70 0.03598
1177.80 0.03597
1177.90 0.03596
1178.00 0.03594
1178.10 0.03593
1178.20 0.03592
1178.30 0.03591
1178.40 0.0359
1178.50 0.03588
1178.60 0.03587
1178.70 0.03586
1178.80 0.03585
1178.90 0.03584
1179.00 0.03582
1179.10 0.03581
1179.20 0.0358
1179.30 0.03579
1179.40 0.03578
1179.50 0.03577
1179.60 0.03575
1179.70 0.03574
1179.80 0.03573
1179.90 0.03572
1180.00 0.03571
1180.10 0.03569
1180.20 0.03568
1180.30 0.03567
1180.40 0.03566
1180.50 0.03565
1180.60 0.03564
1180.70 0.03562
1180.80 0.03561
1180.90 0.0356
1181.00 0.03559
1181.10 0.03558
1181.20 0.03556
1181.30 0.03555
1181.40 0.03554
1181.50 0.03553
1181.60 0.03552
1181.70 0.03551
1181.80 0.03549
1181.90 0.03548
1182.00 0.03547
1182.10 0.03546
1182.20 0.03545
1182.30 0.03544
1182.40 0.03542
1182.50 0.03541
1182.60 0.0354
1182.70 0.03539
1182.80 0.03538
1182.90 0.03537
1183.00 0.03535
1183.10 0.03534
1183.20 0.03533
1183.30 0.03532
1183.40 0.03531
1183.50 0.0353
1183.60 0.03528
1183.70 0.03527
1183.80 0.03526
1183.90 0.03525
1184.00 0.03524
1184.10 0.03523
1184.20 0.03521
1184.30 0.0352
1184.40 0.03519
1184.50 0.03518
1184.60 0.03517
1184.70 0.03516
1184.80 0.03514
1184.90 0.03513
1185.00 0.03512
1185.10 0.03511
1185.20 0.0351
1185.30 0.03509
1185.40 0.03507
1185.50 0.03506
1185.60 0.03505
1185.70 0.03504
1185.80 0.03503
1185.90 0.03502
1186.00 0.035
1186.10 0.03499
1186.20 0.03498
1186.30 0.03497
1186.40 0.03496
1186.50 0.03495
1186.60 0.03494
1186.70 0.03492
1186.80 0.03491
1186.90 0.0349
1187.00 0.03489
1187.10 0.03488
1187.20 0.03487
1187.30 0.03486
1187.40 0.03484
1187.50 0.03483
1187.60 0.03482
1187.70 0.03481
1187.80 0.0348
1187.90 0.03479
1188.00 0.03478
1188.10 0.03476
1188.20 0.03475
1188.30 0.03474
1188.40 0.03473
1188.50 0.03472
1188.60 0.03471
1188.70 0.0347
1188.80 0.03468
1188.90 0.03467
1189.00 0.03466
1189.10 0.03465
1189.20 0.03464
1189.30 0.03463
1189.40 0.03462
1189.50 0.0346
1189.60 0.03459
1189.70 0.03458
1189.80 0.03457
1189.90 0.03456
1190.00 0.03455
1190.10 0.03454
1190.20 0.03452
1190.30 0.03451
1190.40 0.0345
1190.50 0.03449
1190.60 0.03448
1190.70 0.03447
1190.80 0.03446
1190.90 0.03445
1191.00 0.03443
1191.10 0.03442
1191.20 0.03441
1191.30 0.0344
1191.40 0.03439
1191.50 0.03438
1191.60 0.03437
1191.70 0.03435
1191.80 0.03434
1191.90 0.03433
1192.00 0.03432
1192.10 0.03431
1192.20 0.0343
1192.30 0.03429
1192.40 0.03428
1192.50 0.03426
1192.60 0.03425
1192.70 0.03424
1192.80 0.03423
1192.90 0.03422
1193.00 0.03421
1193.10 0.0342
1193.20 0.03419
1193.30 0.03418
1193.40 0.03416
1193.50 0.03415
1193.60 0.03414
1193.70 0.03413
1193.80 0.03412
1193.90 0.03411
1194.00 0.0341
1194.10 0.03409
1194.20 0.03407
1194.30 0.03406
1194.40 0.03405
1194.50 0.03404
1194.60 0.03403
1194.70 0.03402
1194.80 0.03401
1194.90 0.034
1195.00 0.03399
1195.10 0.03397
1195.20 0.03396
1195.30 0.03395
1195.40 0.03394
1195.50 0.03393
1195.60 0.03392
1195.70 0.03391
1195.80 0.0339
1195.90 0.03389
1196.00 0.03387
1196.10 0.03386
1196.20 0.03385
1196.30 0.03384
1196.40 0.03383
1196.50 0.03382
1196.60 0.03381
1196.70 0.0338
1196.80 0.03379
1196.90 0.03377
1197.00 0.03376
1197.10 0.03375
1197.20 0.03374
1197.30 0.03373
1197.40 0.03372
1197.50 0.03371
1197.60 0.0337
1197.70 0.03369
1197.80 0.03368
1197.90 0.03366
1198.00 0.03365
1198.10 0.03364
1198.20 0.03363
1198.30 0.03362
1198.40 0.03361
1198.50 0.0336
1198.60 0.03359
1198.70 0.03358
1198.80 0.03357
1198.90 0.03356
1199.00 0.03354
1199.10 0.03353
1199.20 0.03352
1199.30 0.03351
1199.40 0.0335
1199.50 0.03349
1199.60 0.03348
1199.70 0.03347
1199.80 0.03346
1199.90 0.03345
1200.00 0
