# Version 2.1 - nm, norm@500 to 1, cut digits, bergeron_2250_70.dat_2250
# Wavelength(nm)  Flambda(ergs/cm^s/s/nm)
300.00 0.0303
300.10 0.03041
300.20 0.03052
300.30 0.03064
300.40 0.03075
300.50 0.03087
300.60 0.03098
300.70 0.03109
300.80 0.03121
300.90 0.03132
301.00 0.03144
301.10 0.03155
301.20 0.03167
301.30 0.03178
301.40 0.03189
301.50 0.03201
301.60 0.03212
301.70 0.03223
301.80 0.03234
301.90 0.03246
302.00 0.03257
302.10 0.03269
302.20 0.03281
302.30 0.03293
302.40 0.03306
302.50 0.03318
302.60 0.0333
302.70 0.03342
302.80 0.03354
302.90 0.03366
303.00 0.03378
303.10 0.0339
303.20 0.03402
303.30 0.03414
303.40 0.03426
303.50 0.03438
303.60 0.0345
303.70 0.03462
303.80 0.03474
303.90 0.03486
304.00 0.03498
304.10 0.0351
304.20 0.03523
304.30 0.03536
304.40 0.03549
304.50 0.03561
304.60 0.03574
304.70 0.03587
304.80 0.03599
304.90 0.03612
305.00 0.03625
305.10 0.03637
305.20 0.0365
305.30 0.03663
305.40 0.03675
305.50 0.03688
305.60 0.037
305.70 0.03713
305.80 0.03726
305.90 0.03738
306.00 0.03751
306.10 0.03764
306.20 0.03777
306.30 0.03791
306.40 0.03804
306.50 0.03818
306.60 0.03831
306.70 0.03844
306.80 0.03858
306.90 0.03871
307.00 0.03885
307.10 0.03898
307.20 0.03911
307.30 0.03924
307.40 0.03938
307.50 0.03951
307.60 0.03964
307.70 0.03977
307.80 0.0399
307.90 0.04004
308.00 0.04017
308.10 0.04031
308.20 0.04045
308.30 0.04059
308.40 0.04073
308.50 0.04087
308.60 0.04101
308.70 0.04115
308.80 0.0413
308.90 0.04144
309.00 0.04158
309.10 0.04172
309.20 0.04185
309.30 0.04199
309.40 0.04213
309.50 0.04227
309.60 0.04241
309.70 0.04255
309.80 0.04269
309.90 0.04283
310.00 0.04297
310.10 0.04312
310.20 0.04326
310.30 0.04341
310.40 0.04356
310.50 0.04371
310.60 0.04386
310.70 0.044
310.80 0.04415
310.90 0.0443
311.00 0.04445
311.10 0.04459
311.20 0.04474
311.30 0.04489
311.40 0.04503
311.50 0.04518
311.60 0.04533
311.70 0.04547
311.80 0.04562
311.90 0.04576
312.00 0.04591
312.10 0.04606
312.20 0.0462
312.30 0.04636
312.40 0.04651
312.50 0.04667
312.60 0.04682
312.70 0.04698
312.80 0.04713
312.90 0.04729
313.00 0.04744
313.10 0.04759
313.20 0.04775
313.30 0.0479
313.40 0.04806
313.50 0.04821
313.60 0.04836
313.70 0.04852
313.80 0.04867
313.90 0.04882
314.00 0.04898
314.10 0.04914
314.20 0.0493
314.30 0.04946
314.40 0.04962
314.50 0.04979
314.60 0.04995
314.70 0.05011
314.80 0.05027
314.90 0.05043
315.00 0.05059
315.10 0.05076
315.20 0.05092
315.30 0.05108
315.40 0.05124
315.50 0.0514
315.60 0.05156
315.70 0.05172
315.80 0.05188
315.90 0.05204
316.00 0.0522
316.10 0.05237
316.20 0.05253
316.30 0.0527
316.40 0.05287
316.50 0.05304
316.60 0.05321
316.70 0.05338
316.80 0.05355
316.90 0.05372
317.00 0.05389
317.10 0.05406
317.20 0.05423
317.30 0.05439
317.40 0.05456
317.50 0.05473
317.60 0.0549
317.70 0.05506
317.80 0.05523
317.90 0.0554
318.00 0.05557
318.10 0.05574
318.20 0.05592
318.30 0.05609
318.40 0.05627
318.50 0.05645
318.60 0.05663
318.70 0.0568
318.80 0.05698
318.90 0.05716
319.00 0.05733
319.10 0.05751
319.20 0.05768
319.30 0.05786
319.40 0.05803
319.50 0.05821
319.60 0.05838
319.70 0.05856
319.80 0.05873
319.90 0.05891
320.00 0.05909
320.10 0.05927
320.20 0.05945
320.30 0.05964
320.40 0.05982
320.50 0.06001
320.60 0.06019
320.70 0.06037
320.80 0.06056
320.90 0.06074
321.00 0.06093
321.10 0.06111
321.20 0.06129
321.30 0.06148
321.40 0.06166
321.50 0.06184
321.60 0.06202
321.70 0.0622
321.80 0.06239
321.90 0.06257
322.00 0.06275
322.10 0.06295
322.20 0.06314
322.30 0.06333
322.40 0.06352
322.50 0.06371
322.60 0.06391
322.70 0.0641
322.80 0.06429
322.90 0.06448
323.00 0.06467
323.10 0.06487
323.20 0.06506
323.30 0.06525
323.40 0.06544
323.50 0.06563
323.60 0.06582
323.70 0.06601
323.80 0.0662
323.90 0.06639
324.00 0.06658
324.10 0.06678
324.20 0.06698
324.30 0.06718
324.40 0.06738
324.50 0.06758
324.60 0.06778
324.70 0.06798
324.80 0.06818
324.90 0.06838
325.00 0.06858
325.10 0.06878
325.20 0.06898
325.30 0.06918
325.40 0.06938
325.50 0.06957
325.60 0.06977
325.70 0.06997
325.80 0.07017
325.90 0.07037
326.00 0.07057
326.10 0.07077
326.20 0.07098
326.30 0.07119
326.40 0.0714
326.50 0.07161
326.60 0.07181
326.70 0.07202
326.80 0.07223
326.90 0.07244
327.00 0.07265
327.10 0.07285
327.20 0.07306
327.30 0.07327
327.40 0.07347
327.50 0.07368
327.60 0.07388
327.70 0.07409
327.80 0.07429
327.90 0.0745
328.00 0.07471
328.10 0.07493
328.20 0.07514
328.30 0.07536
328.40 0.07557
328.50 0.07579
328.60 0.07601
328.70 0.07622
328.80 0.07644
328.90 0.07666
329.00 0.07687
329.10 0.07709
329.20 0.0773
329.30 0.07752
329.40 0.07773
329.50 0.07795
329.60 0.07816
329.70 0.07837
329.80 0.07859
329.90 0.0788
330.00 0.07901
330.10 0.07924
330.20 0.07946
330.30 0.07969
330.40 0.07992
330.50 0.08014
330.60 0.08037
330.70 0.08059
330.80 0.08082
330.90 0.08104
331.00 0.08126
331.10 0.08149
331.20 0.08171
331.30 0.08193
331.40 0.08216
331.50 0.08238
331.60 0.0826
331.70 0.08282
331.80 0.08304
331.90 0.08326
332.00 0.08349
332.10 0.08372
332.20 0.08396
332.30 0.08419
332.40 0.08442
332.50 0.08466
332.60 0.08489
332.70 0.08512
332.80 0.08536
332.90 0.08559
333.00 0.08582
333.10 0.08605
333.20 0.08628
333.30 0.08652
333.40 0.08675
333.50 0.08698
333.60 0.08721
333.70 0.08744
333.80 0.08767
333.90 0.0879
334.00 0.08813
334.10 0.08837
334.20 0.08861
334.30 0.08886
334.40 0.0891
334.50 0.08934
334.60 0.08958
334.70 0.08982
334.80 0.09007
334.90 0.09031
335.00 0.09055
335.10 0.09079
335.20 0.09103
335.30 0.09127
335.40 0.09151
335.50 0.09175
335.60 0.09199
335.70 0.09222
335.80 0.09246
335.90 0.0927
336.00 0.09294
336.10 0.09319
336.20 0.09344
336.30 0.09369
336.40 0.09394
336.50 0.09419
336.60 0.09444
336.70 0.0947
336.80 0.09494
336.90 0.09519
337.00 0.09544
337.10 0.09569
337.20 0.09594
337.30 0.09619
337.40 0.09644
337.50 0.09668
337.60 0.09693
337.70 0.09718
337.80 0.09743
337.90 0.09767
338.00 0.09792
338.10 0.09818
338.20 0.09844
338.30 0.0987
338.40 0.09896
338.50 0.09922
338.60 0.09948
338.70 0.09974
338.80 0.1
338.90 0.1003
339.00 0.1005
339.10 0.1008
339.20 0.101
339.30 0.1013
339.40 0.1015
339.50 0.1018
339.60 0.1021
339.70 0.1023
339.80 0.1026
339.90 0.1028
340.00 0.1031
340.10 0.1033
340.20 0.1036
340.30 0.1039
340.40 0.1041
340.50 0.1044
340.60 0.1047
340.70 0.105
340.80 0.1052
340.90 0.1055
341.00 0.1058
341.10 0.106
341.20 0.1063
341.30 0.1066
341.40 0.1068
341.50 0.1071
341.60 0.1073
341.70 0.1076
341.80 0.1079
341.90 0.1081
342.00 0.1084
342.10 0.1087
342.20 0.109
342.30 0.1092
342.40 0.1095
342.50 0.1098
342.60 0.1101
342.70 0.1103
342.80 0.1106
342.90 0.1109
343.00 0.1112
343.10 0.1114
343.20 0.1117
343.30 0.112
343.40 0.1123
343.50 0.1125
343.60 0.1128
343.70 0.1131
343.80 0.1134
343.90 0.1136
344.00 0.1139
344.10 0.1142
344.20 0.1145
344.30 0.1148
344.40 0.1151
344.50 0.1153
344.60 0.1156
344.70 0.1159
344.80 0.1162
344.90 0.1165
345.00 0.1168
345.10 0.117
345.20 0.1173
345.30 0.1176
345.40 0.1179
345.50 0.1182
345.60 0.1185
345.70 0.1187
345.80 0.119
345.90 0.1193
346.00 0.1196
346.10 0.1199
346.20 0.1202
346.30 0.1205
346.40 0.1208
346.50 0.1211
346.60 0.1214
346.70 0.1217
346.80 0.1219
346.90 0.1222
347.00 0.1225
347.10 0.1228
347.20 0.1231
347.30 0.1234
347.40 0.1237
347.50 0.124
347.60 0.1243
347.70 0.1246
347.80 0.1249
347.90 0.1252
348.00 0.1254
348.10 0.1258
348.20 0.1261
348.30 0.1264
348.40 0.1267
348.50 0.127
348.60 0.1273
348.70 0.1276
348.80 0.1279
348.90 0.1282
349.00 0.1285
349.10 0.1288
349.20 0.1291
349.30 0.1294
349.40 0.1297
349.50 0.13
349.60 0.1303
349.70 0.1306
349.80 0.1309
349.90 0.1312
350.00 0.1315
350.10 0.1318
350.20 0.1321
350.30 0.1324
350.40 0.1327
350.50 0.1331
350.60 0.1334
350.70 0.1337
350.80 0.134
350.90 0.1343
351.00 0.1346
351.10 0.1349
351.20 0.1352
351.30 0.1355
351.40 0.1359
351.50 0.1362
351.60 0.1365
351.70 0.1368
351.80 0.1371
351.90 0.1374
352.00 0.1377
352.10 0.138
352.20 0.1383
352.30 0.1387
352.40 0.139
352.50 0.1393
352.60 0.1396
352.70 0.14
352.80 0.1403
352.90 0.1406
353.00 0.1409
353.10 0.1412
353.20 0.1416
353.30 0.1419
353.40 0.1422
353.50 0.1425
353.60 0.1428
353.70 0.1432
353.80 0.1435
353.90 0.1438
354.00 0.1441
354.10 0.1444
354.20 0.1448
354.30 0.1451
354.40 0.1454
354.50 0.1458
354.60 0.1461
354.70 0.1464
354.80 0.1468
354.90 0.1471
355.00 0.1474
355.10 0.1477
355.20 0.1481
355.30 0.1484
355.40 0.1487
355.50 0.149
355.60 0.1494
355.70 0.1497
355.80 0.15
355.90 0.1503
356.00 0.1507
356.10 0.151
356.20 0.1514
356.30 0.1517
356.40 0.152
356.50 0.1524
356.60 0.1527
356.70 0.1531
356.80 0.1534
356.90 0.1537
357.00 0.1541
357.10 0.1544
357.20 0.1548
357.30 0.1551
357.40 0.1554
357.50 0.1558
357.60 0.1561
357.70 0.1564
357.80 0.1568
357.90 0.1571
358.00 0.1574
358.10 0.1578
358.20 0.1581
358.30 0.1585
358.40 0.1588
358.50 0.1592
358.60 0.1595
358.70 0.1599
358.80 0.1602
358.90 0.1606
359.00 0.1609
359.10 0.1613
359.20 0.1616
359.30 0.162
359.40 0.1623
359.50 0.1627
359.60 0.163
359.70 0.1634
359.80 0.1637
359.90 0.164
360.00 0.1644
360.10 0.1647
360.20 0.1651
360.30 0.1655
360.40 0.1658
360.50 0.1662
360.60 0.1665
360.70 0.1669
360.80 0.1673
360.90 0.1676
361.00 0.168
361.10 0.1683
361.20 0.1687
361.30 0.169
361.40 0.1694
361.50 0.1697
361.60 0.1701
361.70 0.1704
361.80 0.1708
361.90 0.1712
362.00 0.1715
362.10 0.1719
362.20 0.1722
362.30 0.1726
362.40 0.173
362.50 0.1733
362.60 0.1737
362.70 0.174
362.80 0.1744
362.90 0.1748
363.00 0.1751
363.10 0.1755
363.20 0.1759
363.30 0.1762
363.40 0.1766
363.50 0.177
363.60 0.1774
363.70 0.1777
363.80 0.1781
363.90 0.1785
364.00 0.1788
364.10 0.1792
364.20 0.1796
364.30 0.1799
364.40 0.1803
364.50 0.1807
364.60 0.181
364.70 0.1814
364.80 0.1818
364.90 0.1822
365.00 0.1826
365.10 0.1829
365.20 0.1833
365.30 0.1837
365.40 0.1841
365.50 0.1844
365.60 0.1848
365.70 0.1852
365.80 0.1856
365.90 0.1859
366.00 0.1863
366.10 0.1867
366.20 0.1871
366.30 0.1875
366.40 0.1878
366.50 0.1882
366.60 0.1886
366.70 0.189
366.80 0.1894
366.90 0.1898
367.00 0.1902
367.10 0.1905
367.20 0.1909
367.30 0.1913
367.40 0.1917
367.50 0.1921
367.60 0.1924
367.70 0.1928
367.80 0.1932
367.90 0.1936
368.00 0.194
368.10 0.1944
368.20 0.1948
368.30 0.1952
368.40 0.1955
368.50 0.1959
368.60 0.1963
368.70 0.1967
368.80 0.1971
368.90 0.1975
369.00 0.1979
369.10 0.1983
369.20 0.1987
369.30 0.1991
369.40 0.1995
369.50 0.1999
369.60 0.2003
369.70 0.2006
369.80 0.201
369.90 0.2014
370.00 0.2018
370.10 0.2022
370.20 0.2026
370.30 0.203
370.40 0.2034
370.50 0.2038
370.60 0.2042
370.70 0.2046
370.80 0.205
370.90 0.2054
371.00 0.2059
371.10 0.2063
371.20 0.2067
371.30 0.2071
371.40 0.2075
371.50 0.2079
371.60 0.2082
371.70 0.2086
371.80 0.209
371.90 0.2094
372.00 0.2098
372.10 0.2103
372.20 0.2107
372.30 0.2111
372.40 0.2115
372.50 0.2119
372.60 0.2123
372.70 0.2127
372.80 0.2131
372.90 0.2136
373.00 0.214
373.10 0.2144
373.20 0.2148
373.30 0.2152
373.40 0.2156
373.50 0.216
373.60 0.2164
373.70 0.2168
373.80 0.2172
373.90 0.2176
374.00 0.218
374.10 0.2185
374.20 0.2189
374.30 0.2193
374.40 0.2197
374.50 0.2202
374.60 0.2206
374.70 0.221
374.80 0.2214
374.90 0.2218
375.00 0.2223
375.10 0.2227
375.20 0.2231
375.30 0.2235
375.40 0.2239
375.50 0.2244
375.60 0.2248
375.70 0.2252
375.80 0.2256
375.90 0.226
376.00 0.2264
376.10 0.2269
376.20 0.2273
376.30 0.2277
376.40 0.2281
376.50 0.2286
376.60 0.229
376.70 0.2294
376.80 0.2298
376.90 0.2303
377.00 0.2307
377.10 0.2311
377.20 0.2316
377.30 0.232
377.40 0.2324
377.50 0.2329
377.60 0.2333
377.70 0.2337
377.80 0.2341
377.90 0.2346
378.00 0.235
378.10 0.2354
378.20 0.2359
378.30 0.2363
378.40 0.2367
378.50 0.2372
378.60 0.2376
378.70 0.238
378.80 0.2385
378.90 0.2389
379.00 0.2393
379.10 0.2398
379.20 0.2402
379.30 0.2407
379.40 0.2411
379.50 0.2415
379.60 0.242
379.70 0.2424
379.80 0.2429
379.90 0.2433
380.00 0.2437
380.10 0.2442
380.20 0.2446
380.30 0.2451
380.40 0.2455
380.50 0.246
380.60 0.2464
380.70 0.2468
380.80 0.2473
380.90 0.2477
381.00 0.2482
381.10 0.2486
381.20 0.2491
381.30 0.2495
381.40 0.25
381.50 0.2504
381.60 0.2509
381.70 0.2513
381.80 0.2517
381.90 0.2522
382.00 0.2526
382.10 0.2531
382.20 0.2536
382.30 0.254
382.40 0.2545
382.50 0.2549
382.60 0.2554
382.70 0.2558
382.80 0.2563
382.90 0.2567
383.00 0.2572
383.10 0.2576
383.20 0.2581
383.30 0.2585
383.40 0.259
383.50 0.2595
383.60 0.2599
383.70 0.2604
383.80 0.2608
383.90 0.2613
384.00 0.2617
384.10 0.2622
384.20 0.2627
384.30 0.2631
384.40 0.2636
384.50 0.264
384.60 0.2645
384.70 0.265
384.80 0.2654
384.90 0.2659
385.00 0.2663
385.10 0.2668
385.20 0.2673
385.30 0.2677
385.40 0.2682
385.50 0.2687
385.60 0.2691
385.70 0.2696
385.80 0.2701
385.90 0.2705
386.00 0.271
386.10 0.2715
386.20 0.2719
386.30 0.2724
386.40 0.2729
386.50 0.2733
386.60 0.2738
386.70 0.2743
386.80 0.2748
386.90 0.2752
387.00 0.2757
387.10 0.2762
387.20 0.2766
387.30 0.2771
387.40 0.2776
387.50 0.2781
387.60 0.2785
387.70 0.279
387.80 0.2795
387.90 0.28
388.00 0.2804
388.10 0.2809
388.20 0.2814
388.30 0.2819
388.40 0.2823
388.50 0.2828
388.60 0.2833
388.70 0.2838
388.80 0.2842
388.90 0.2847
389.00 0.2852
389.10 0.2857
389.20 0.2862
389.30 0.2866
389.40 0.2871
389.50 0.2876
389.60 0.2881
389.70 0.2886
389.80 0.2891
389.90 0.2895
390.00 0.29
390.10 0.2905
390.20 0.291
390.30 0.2915
390.40 0.292
390.50 0.2925
390.60 0.2929
390.70 0.2934
390.80 0.2939
390.90 0.2944
391.00 0.2949
391.10 0.2954
391.20 0.2959
391.30 0.2964
391.40 0.2968
391.50 0.2973
391.60 0.2978
391.70 0.2983
391.80 0.2988
391.90 0.2993
392.00 0.2998
392.10 0.3003
392.20 0.3008
392.30 0.3013
392.40 0.3018
392.50 0.3023
392.60 0.3027
392.70 0.3032
392.80 0.3037
392.90 0.3042
393.00 0.3047
393.10 0.3052
393.20 0.3057
393.30 0.3062
393.40 0.3067
393.50 0.3072
393.60 0.3077
393.70 0.3082
393.80 0.3087
393.90 0.3092
394.00 0.3097
394.10 0.3102
394.20 0.3107
394.30 0.3112
394.40 0.3117
394.50 0.3122
394.60 0.3127
394.70 0.3132
394.80 0.3137
394.90 0.3142
395.00 0.3147
395.10 0.3153
395.20 0.3158
395.30 0.3163
395.40 0.3168
395.50 0.3173
395.60 0.3178
395.70 0.3183
395.80 0.3188
395.90 0.3193
396.00 0.3198
396.10 0.3203
396.20 0.3208
396.30 0.3213
396.40 0.3219
396.50 0.3224
396.60 0.3229
396.70 0.3234
396.80 0.3239
396.90 0.3244
397.00 0.3249
397.10 0.3254
397.20 0.3259
397.30 0.3265
397.40 0.327
397.50 0.3275
397.60 0.328
397.70 0.3285
397.80 0.329
397.90 0.3296
398.00 0.3301
398.10 0.3306
398.20 0.3311
398.30 0.3316
398.40 0.3321
398.50 0.3327
398.60 0.3332
398.70 0.3337
398.80 0.3342
398.90 0.3347
399.00 0.3353
399.10 0.3358
399.20 0.3363
399.30 0.3368
399.40 0.3373
399.50 0.3379
399.60 0.3384
399.70 0.3389
399.80 0.3394
399.90 0.34
400.00 0.3405
400.10 0.341
400.20 0.3415
400.30 0.3421
400.40 0.3426
400.50 0.3431
400.60 0.3436
400.70 0.3442
400.80 0.3447
400.90 0.3452
401.00 0.3457
401.10 0.3463
401.20 0.3468
401.30 0.3473
401.40 0.3479
401.50 0.3484
401.60 0.3489
401.70 0.3495
401.80 0.35
401.90 0.3505
402.00 0.351
402.10 0.3516
402.20 0.3521
402.30 0.3527
402.40 0.3532
402.50 0.3537
402.60 0.3542
402.70 0.3548
402.80 0.3553
402.90 0.3559
403.00 0.3564
403.10 0.3569
403.20 0.3575
403.30 0.358
403.40 0.3585
403.50 0.3591
403.60 0.3596
403.70 0.3602
403.80 0.3607
403.90 0.3612
404.00 0.3618
404.10 0.3623
404.20 0.3628
404.30 0.3634
404.40 0.3639
404.50 0.3645
404.60 0.365
404.70 0.3656
404.80 0.3661
404.90 0.3666
405.00 0.3672
405.10 0.3677
405.20 0.3683
405.30 0.3688
405.40 0.3694
405.50 0.3699
405.60 0.3705
405.70 0.371
405.80 0.3716
405.90 0.3721
406.00 0.3726
406.10 0.3732
406.20 0.3737
406.30 0.3743
406.40 0.3748
406.50 0.3754
406.60 0.3759
406.70 0.3765
406.80 0.377
406.90 0.3776
407.00 0.3781
407.10 0.3787
407.20 0.3792
407.30 0.3798
407.40 0.3803
407.50 0.3809
407.60 0.3815
407.70 0.382
407.80 0.3826
407.90 0.3831
408.00 0.3837
408.10 0.3842
408.20 0.3848
408.30 0.3853
408.40 0.3859
408.50 0.3865
408.60 0.387
408.70 0.3876
408.80 0.3881
408.90 0.3887
409.00 0.3892
409.10 0.3898
409.20 0.3904
409.30 0.3909
409.40 0.3915
409.50 0.392
409.60 0.3926
409.70 0.3932
409.80 0.3937
409.90 0.3943
410.00 0.3948
410.10 0.3954
410.20 0.396
410.30 0.3965
410.40 0.3971
410.50 0.3977
410.60 0.3982
410.70 0.3988
410.80 0.3994
410.90 0.3999
411.00 0.4005
411.10 0.4011
411.20 0.4016
411.30 0.4022
411.40 0.4028
411.50 0.4033
411.60 0.4039
411.70 0.4045
411.80 0.405
411.90 0.4056
412.00 0.4062
412.10 0.4067
412.20 0.4073
412.30 0.4079
412.40 0.4084
412.50 0.409
412.60 0.4096
412.70 0.4102
412.80 0.4107
412.90 0.4113
413.00 0.4119
413.10 0.4124
413.20 0.413
413.30 0.4136
413.40 0.4142
413.50 0.4147
413.60 0.4153
413.70 0.4159
413.80 0.4165
413.90 0.417
414.00 0.4176
414.10 0.4182
414.20 0.4188
414.30 0.4194
414.40 0.4199
414.50 0.4205
414.60 0.4211
414.70 0.4217
414.80 0.4222
414.90 0.4228
415.00 0.4234
415.10 0.424
415.20 0.4246
415.30 0.4251
415.40 0.4257
415.50 0.4263
415.60 0.4269
415.70 0.4275
415.80 0.4281
415.90 0.4286
416.00 0.4292
416.10 0.4298
416.20 0.4304
416.30 0.431
416.40 0.4316
416.50 0.4321
416.60 0.4327
416.70 0.4333
416.80 0.4339
416.90 0.4345
417.00 0.4351
417.10 0.4357
417.20 0.4362
417.30 0.4368
417.40 0.4374
417.50 0.438
417.60 0.4386
417.70 0.4392
417.80 0.4398
417.90 0.4404
418.00 0.441
418.10 0.4415
418.20 0.4421
418.30 0.4427
418.40 0.4433
418.50 0.4439
418.60 0.4445
418.70 0.4451
418.80 0.4457
418.90 0.4463
419.00 0.4469
419.10 0.4475
419.20 0.4481
419.30 0.4487
419.40 0.4492
419.50 0.4498
419.60 0.4504
419.70 0.451
419.80 0.4516
419.90 0.4522
420.00 0.4528
420.10 0.4534
420.20 0.454
420.30 0.4546
420.40 0.4552
420.50 0.4558
420.60 0.4564
420.70 0.457
420.80 0.4576
420.90 0.4582
421.00 0.4588
421.10 0.4594
421.20 0.46
421.30 0.4606
421.40 0.4612
421.50 0.4618
421.60 0.4624
421.70 0.463
421.80 0.4636
421.90 0.4642
422.00 0.4648
422.10 0.4654
422.20 0.466
422.30 0.4666
422.40 0.4672
422.50 0.4678
422.60 0.4684
422.70 0.469
422.80 0.4696
422.90 0.4703
423.00 0.4709
423.10 0.4715
423.20 0.4721
423.30 0.4727
423.40 0.4733
423.50 0.4739
423.60 0.4745
423.70 0.4751
423.80 0.4757
423.90 0.4763
424.00 0.4769
424.10 0.4775
424.20 0.4782
424.30 0.4788
424.40 0.4794
424.50 0.48
424.60 0.4806
424.70 0.4812
424.80 0.4818
424.90 0.4824
425.00 0.483
425.10 0.4837
425.20 0.4843
425.30 0.4849
425.40 0.4855
425.50 0.4861
425.60 0.4867
425.70 0.4873
425.80 0.488
425.90 0.4886
426.00 0.4892
426.10 0.4898
426.20 0.4904
426.30 0.491
426.40 0.4916
426.50 0.4923
426.60 0.4929
426.70 0.4935
426.80 0.4941
426.90 0.4947
427.00 0.4954
427.10 0.496
427.20 0.4966
427.30 0.4972
427.40 0.4978
427.50 0.4984
427.60 0.4991
427.70 0.4997
427.80 0.5003
427.90 0.5009
428.00 0.5015
428.10 0.5022
428.20 0.5028
428.30 0.5034
428.40 0.504
428.50 0.5047
428.60 0.5053
428.70 0.5059
428.80 0.5065
428.90 0.5072
429.00 0.5078
429.10 0.5084
429.20 0.509
429.30 0.5097
429.40 0.5103
429.50 0.5109
429.60 0.5115
429.70 0.5122
429.80 0.5128
429.90 0.5134
430.00 0.514
430.10 0.5147
430.20 0.5153
430.30 0.5159
430.40 0.5165
430.50 0.5172
430.60 0.5178
430.70 0.5184
430.80 0.5191
430.90 0.5197
431.00 0.5203
431.10 0.5209
431.20 0.5216
431.30 0.5222
431.40 0.5228
431.50 0.5235
431.60 0.5241
431.70 0.5247
431.80 0.5254
431.90 0.526
432.00 0.5266
432.10 0.5273
432.20 0.5279
432.30 0.5285
432.40 0.5292
432.50 0.5298
432.60 0.5304
432.70 0.5311
432.80 0.5317
432.90 0.5323
433.00 0.533
433.10 0.5336
433.20 0.5342
433.30 0.5349
433.40 0.5355
433.50 0.5362
433.60 0.5368
433.70 0.5374
433.80 0.5381
433.90 0.5387
434.00 0.5394
434.10 0.54
434.20 0.5406
434.30 0.5413
434.40 0.5419
434.50 0.5425
434.60 0.5432
434.70 0.5438
434.80 0.5445
434.90 0.5451
435.00 0.5457
435.10 0.5464
435.20 0.547
435.30 0.5477
435.40 0.5483
435.50 0.549
435.60 0.5496
435.70 0.5502
435.80 0.5509
435.90 0.5515
436.00 0.5522
436.10 0.5528
436.20 0.5535
436.30 0.5541
436.40 0.5547
436.50 0.5554
436.60 0.556
436.70 0.5567
436.80 0.5573
436.90 0.558
437.00 0.5586
437.10 0.5593
437.20 0.5599
437.30 0.5606
437.40 0.5612
437.50 0.5619
437.60 0.5625
437.70 0.5631
437.80 0.5638
437.90 0.5644
438.00 0.5651
438.10 0.5657
438.20 0.5664
438.30 0.567
438.40 0.5677
438.50 0.5683
438.60 0.569
438.70 0.5696
438.80 0.5703
438.90 0.5709
439.00 0.5716
439.10 0.5722
439.20 0.5729
439.30 0.5736
439.40 0.5742
439.50 0.5749
439.60 0.5755
439.70 0.5762
439.80 0.5768
439.90 0.5775
440.00 0.5781
440.10 0.5788
440.20 0.5794
440.30 0.5801
440.40 0.5807
440.50 0.5814
440.60 0.5821
440.70 0.5827
440.80 0.5834
440.90 0.584
441.00 0.5847
441.10 0.5853
441.20 0.586
441.30 0.5866
441.40 0.5873
441.50 0.588
441.60 0.5886
441.70 0.5893
441.80 0.5899
441.90 0.5906
442.00 0.5913
442.10 0.5919
442.20 0.5926
442.30 0.5932
442.40 0.5939
442.50 0.5946
442.60 0.5952
442.70 0.5959
442.80 0.5965
442.90 0.5972
443.00 0.5979
443.10 0.5985
443.20 0.5992
443.30 0.5998
443.40 0.6005
443.50 0.6012
443.60 0.6018
443.70 0.6025
443.80 0.6032
443.90 0.6038
444.00 0.6045
444.10 0.6051
444.20 0.6058
444.30 0.6065
444.40 0.6071
444.50 0.6078
444.60 0.6085
444.70 0.6091
444.80 0.6098
444.90 0.6105
445.00 0.6111
445.10 0.6118
445.20 0.6124
445.30 0.6131
445.40 0.6138
445.50 0.6145
445.60 0.6151
445.70 0.6158
445.80 0.6165
445.90 0.6171
446.00 0.6178
446.10 0.6185
446.20 0.6191
446.30 0.6198
446.40 0.6205
446.50 0.6211
446.60 0.6218
446.70 0.6225
446.80 0.6231
446.90 0.6238
447.00 0.6245
447.10 0.6252
447.20 0.6258
447.30 0.6265
447.40 0.6272
447.50 0.6278
447.60 0.6285
447.70 0.6292
447.80 0.6298
447.90 0.6305
448.00 0.6312
448.10 0.6319
448.20 0.6325
448.30 0.6332
448.40 0.6339
448.50 0.6346
448.60 0.6352
448.70 0.6359
448.80 0.6366
448.90 0.6372
449.00 0.6379
449.10 0.6386
449.20 0.6393
449.30 0.6399
449.40 0.6406
449.50 0.6413
449.60 0.642
449.70 0.6427
449.80 0.6433
449.90 0.644
450.00 0.6447
450.10 0.6454
450.20 0.646
450.30 0.6467
450.40 0.6474
450.50 0.6481
450.60 0.6487
450.70 0.6494
450.80 0.6501
450.90 0.6508
451.00 0.6515
451.10 0.6521
451.20 0.6528
451.30 0.6535
451.40 0.6542
451.50 0.6549
451.60 0.6555
451.70 0.6562
451.80 0.6569
451.90 0.6576
452.00 0.6583
452.10 0.6589
452.20 0.6596
452.30 0.6603
452.40 0.661
452.50 0.6617
452.60 0.6623
452.70 0.663
452.80 0.6637
452.90 0.6644
453.00 0.6651
453.10 0.6658
453.20 0.6664
453.30 0.6671
453.40 0.6678
453.50 0.6685
453.60 0.6692
453.70 0.6699
453.80 0.6705
453.90 0.6712
454.00 0.6719
454.10 0.6726
454.20 0.6733
454.30 0.674
454.40 0.6746
454.50 0.6753
454.60 0.676
454.70 0.6767
454.80 0.6774
454.90 0.6781
455.00 0.6788
455.10 0.6795
455.20 0.6801
455.30 0.6808
455.40 0.6815
455.50 0.6822
455.60 0.6829
455.70 0.6836
455.80 0.6843
455.90 0.685
456.00 0.6856
456.10 0.6863
456.20 0.687
456.30 0.6877
456.40 0.6884
456.50 0.6891
456.60 0.6898
456.70 0.6905
456.80 0.6912
456.90 0.6918
457.00 0.6925
457.10 0.6932
457.20 0.6939
457.30 0.6946
457.40 0.6953
457.50 0.696
457.60 0.6967
457.70 0.6974
457.80 0.6981
457.90 0.6987
458.00 0.6994
458.10 0.7001
458.20 0.7008
458.30 0.7015
458.40 0.7022
458.50 0.7029
458.60 0.7036
458.70 0.7043
458.80 0.705
458.90 0.7057
459.00 0.7064
459.10 0.7071
459.20 0.7077
459.30 0.7084
459.40 0.7091
459.50 0.7098
459.60 0.7105
459.70 0.7112
459.80 0.7119
459.90 0.7126
460.00 0.7133
460.10 0.714
460.20 0.7147
460.30 0.7154
460.40 0.7161
460.50 0.7168
460.60 0.7175
460.70 0.7182
460.80 0.7189
460.90 0.7196
461.00 0.7203
461.10 0.721
461.20 0.7217
461.30 0.7224
461.40 0.7231
461.50 0.7237
461.60 0.7244
461.70 0.7251
461.80 0.7258
461.90 0.7265
462.00 0.7272
462.10 0.7279
462.20 0.7286
462.30 0.7293
462.40 0.73
462.50 0.7307
462.60 0.7314
462.70 0.7321
462.80 0.7328
462.90 0.7335
463.00 0.7342
463.10 0.7349
463.20 0.7356
463.30 0.7363
463.40 0.737
463.50 0.7377
463.60 0.7384
463.70 0.7391
463.80 0.7398
463.90 0.7405
464.00 0.7412
464.10 0.7419
464.20 0.7426
464.30 0.7433
464.40 0.744
464.50 0.7447
464.60 0.7454
464.70 0.7461
464.80 0.7468
464.90 0.7475
465.00 0.7483
465.10 0.749
465.20 0.7497
465.30 0.7504
465.40 0.7511
465.50 0.7518
465.60 0.7525
465.70 0.7532
465.80 0.7539
465.90 0.7546
466.00 0.7553
466.10 0.756
466.20 0.7567
466.30 0.7574
466.40 0.7581
466.50 0.7588
466.60 0.7595
466.70 0.7602
466.80 0.7609
466.90 0.7616
467.00 0.7623
467.10 0.763
467.20 0.7637
467.30 0.7644
467.40 0.7652
467.50 0.7659
467.60 0.7666
467.70 0.7673
467.80 0.768
467.90 0.7687
468.00 0.7694
468.10 0.7701
468.20 0.7708
468.30 0.7715
468.40 0.7722
468.50 0.7729
468.60 0.7736
468.70 0.7743
468.80 0.775
468.90 0.7757
469.00 0.7764
469.10 0.7771
469.20 0.7779
469.30 0.7786
469.40 0.7793
469.50 0.78
469.60 0.7807
469.70 0.7814
469.80 0.7821
469.90 0.7828
470.00 0.7835
470.10 0.7842
470.20 0.785
470.30 0.7857
470.40 0.7864
470.50 0.7871
470.60 0.7878
470.70 0.7885
470.80 0.7892
470.90 0.79
471.00 0.7907
471.10 0.7914
471.20 0.7921
471.30 0.7928
471.40 0.7935
471.50 0.7942
471.60 0.7949
471.70 0.7956
471.80 0.7964
471.90 0.7971
472.00 0.7978
472.10 0.7985
472.20 0.7992
472.30 0.7999
472.40 0.8006
472.50 0.8013
472.60 0.802
472.70 0.8027
472.80 0.8035
472.90 0.8042
473.00 0.8049
473.10 0.8056
473.20 0.8063
473.30 0.807
473.40 0.8077
473.50 0.8085
473.60 0.8092
473.70 0.8099
473.80 0.8106
473.90 0.8113
474.00 0.812
474.10 0.8128
474.20 0.8135
474.30 0.8142
474.40 0.8149
474.50 0.8156
474.60 0.8163
474.70 0.817
474.80 0.8177
474.90 0.8185
475.00 0.8192
475.10 0.8199
475.20 0.8206
475.30 0.8213
475.40 0.822
475.50 0.8227
475.60 0.8234
475.70 0.8242
475.80 0.8249
475.90 0.8256
476.00 0.8263
476.10 0.827
476.20 0.8277
476.30 0.8284
476.40 0.8292
476.50 0.8299
476.60 0.8306
476.70 0.8313
476.80 0.8321
476.90 0.8328
477.00 0.8335
477.10 0.8342
477.20 0.8349
477.30 0.8356
477.40 0.8364
477.50 0.8371
477.60 0.8378
477.70 0.8385
477.80 0.8392
477.90 0.8399
478.00 0.8406
478.10 0.8413
478.20 0.8421
478.30 0.8428
478.40 0.8435
478.50 0.8442
478.60 0.845
478.70 0.8457
478.80 0.8464
478.90 0.8471
479.00 0.8478
479.10 0.8486
479.20 0.8493
479.30 0.85
479.40 0.8507
479.50 0.8514
479.60 0.8522
479.70 0.8529
479.80 0.8536
479.90 0.8543
480.00 0.855
480.10 0.8557
480.20 0.8565
480.30 0.8572
480.40 0.8579
480.50 0.8586
480.60 0.8593
480.70 0.8601
480.80 0.8608
480.90 0.8615
481.00 0.8622
481.10 0.8629
481.20 0.8637
481.30 0.8644
481.40 0.8651
481.50 0.8658
481.60 0.8665
481.70 0.8673
481.80 0.868
481.90 0.8687
482.00 0.8694
482.10 0.8701
482.20 0.8708
482.30 0.8716
482.40 0.8723
482.50 0.873
482.60 0.8737
482.70 0.8745
482.80 0.8752
482.90 0.8759
483.00 0.8766
483.10 0.8774
483.20 0.8781
483.30 0.8788
483.40 0.8795
483.50 0.8803
483.60 0.881
483.70 0.8817
483.80 0.8824
483.90 0.8832
484.00 0.8839
484.10 0.8846
484.20 0.8853
484.30 0.886
484.40 0.8867
484.50 0.8875
484.60 0.8882
484.70 0.8889
484.80 0.8896
484.90 0.8903
485.00 0.8911
485.10 0.8918
485.20 0.8925
485.30 0.8933
485.40 0.894
485.50 0.8947
485.60 0.8954
485.70 0.8961
485.80 0.8969
485.90 0.8976
486.00 0.8983
486.10 0.8991
486.20 0.8998
486.30 0.9005
486.40 0.9012
486.50 0.9019
486.60 0.9026
486.70 0.9034
486.80 0.9041
486.90 0.9048
487.00 0.9056
487.10 0.9063
487.20 0.907
487.30 0.9077
487.40 0.9085
487.50 0.9092
487.60 0.9099
487.70 0.9106
487.80 0.9114
487.90 0.9121
488.00 0.9128
488.10 0.9136
488.20 0.9143
488.30 0.915
488.40 0.9157
488.50 0.9164
488.60 0.9172
488.70 0.9179
488.80 0.9186
488.90 0.9193
489.00 0.92
489.10 0.9208
489.20 0.9215
489.30 0.9222
489.40 0.9229
489.50 0.9237
489.60 0.9244
489.70 0.9251
489.80 0.9258
489.90 0.9266
490.00 0.9273
490.10 0.928
490.20 0.9287
490.30 0.9295
490.40 0.9302
490.50 0.9309
490.60 0.9317
490.70 0.9324
490.80 0.9331
490.90 0.9338
491.00 0.9346
491.10 0.9353
491.20 0.936
491.30 0.9367
491.40 0.9375
491.50 0.9382
491.60 0.9389
491.70 0.9396
491.80 0.9404
491.90 0.9411
492.00 0.9418
492.10 0.9425
492.20 0.9432
492.30 0.944
492.40 0.9447
492.50 0.9454
492.60 0.9462
492.70 0.9469
492.80 0.9476
492.90 0.9483
493.00 0.9491
493.10 0.9498
493.20 0.9505
493.30 0.9512
493.40 0.952
493.50 0.9527
493.60 0.9534
493.70 0.9542
493.80 0.9549
493.90 0.9556
494.00 0.9563
494.10 0.9571
494.20 0.9578
494.30 0.9585
494.40 0.9593
494.50 0.96
494.60 0.9607
494.70 0.9614
494.80 0.9622
494.90 0.9629
495.00 0.9636
495.10 0.9643
495.20 0.9651
495.30 0.9658
495.40 0.9665
495.50 0.9673
495.60 0.968
495.70 0.9687
495.80 0.9695
495.90 0.9702
496.00 0.9709
496.10 0.9716
496.20 0.9724
496.30 0.9731
496.40 0.9738
496.50 0.9746
496.60 0.9753
496.70 0.976
496.80 0.9767
496.90 0.9775
497.00 0.9782
497.10 0.9789
497.20 0.9796
497.30 0.9804
497.40 0.9811
497.50 0.9818
497.60 0.9825
497.70 0.9833
497.80 0.984
497.90 0.9847
498.00 0.9854
498.10 0.9861
498.20 0.9869
498.30 0.9876
498.40 0.9883
498.50 0.9891
498.60 0.9898
498.70 0.9905
498.80 0.9913
498.90 0.992
499.00 0.9927
499.10 0.9934
499.20 0.9942
499.30 0.9949
499.40 0.9956
499.50 0.9964
499.60 0.9971
499.70 0.9978
499.80 0.9985
499.90 0.9993
500.00 1
500.10 1.001
500.20 1.001
500.30 1.002
500.40 1.003
500.50 1.004
500.60 1.004
500.70 1.005
500.80 1.006
500.90 1.007
501.00 1.007
501.10 1.008
501.20 1.009
501.30 1.009
501.40 1.01
501.50 1.011
501.60 1.012
501.70 1.012
501.80 1.013
501.90 1.014
502.00 1.015
502.10 1.015
502.20 1.016
502.30 1.017
502.40 1.017
502.50 1.018
502.60 1.019
502.70 1.02
502.80 1.02
502.90 1.021
503.00 1.022
503.10 1.023
503.20 1.023
503.30 1.024
503.40 1.025
503.50 1.025
503.60 1.026
503.70 1.027
503.80 1.028
503.90 1.028
504.00 1.029
504.10 1.03
504.20 1.031
504.30 1.031
504.40 1.032
504.50 1.033
504.60 1.033
504.70 1.034
504.80 1.035
504.90 1.036
505.00 1.036
505.10 1.037
505.20 1.038
505.30 1.039
505.40 1.039
505.50 1.04
505.60 1.041
505.70 1.041
505.80 1.042
505.90 1.043
506.00 1.044
506.10 1.044
506.20 1.045
506.30 1.046
506.40 1.047
506.50 1.047
506.60 1.048
506.70 1.049
506.80 1.049
506.90 1.05
507.00 1.051
507.10 1.052
507.20 1.052
507.30 1.053
507.40 1.054
507.50 1.055
507.60 1.055
507.70 1.056
507.80 1.057
507.90 1.057
508.00 1.058
508.10 1.059
508.20 1.06
508.30 1.06
508.40 1.061
508.50 1.062
508.60 1.063
508.70 1.063
508.80 1.064
508.90 1.065
509.00 1.065
509.10 1.066
509.20 1.067
509.30 1.068
509.40 1.068
509.50 1.069
509.60 1.07
509.70 1.07
509.80 1.071
509.90 1.072
510.00 1.073
510.10 1.073
510.20 1.074
510.30 1.075
510.40 1.076
510.50 1.076
510.60 1.077
510.70 1.078
510.80 1.078
510.90 1.079
511.00 1.08
511.10 1.081
511.20 1.081
511.30 1.082
511.40 1.083
511.50 1.084
511.60 1.084
511.70 1.085
511.80 1.086
511.90 1.086
512.00 1.087
512.10 1.088
512.20 1.089
512.30 1.089
512.40 1.09
512.50 1.091
512.60 1.092
512.70 1.092
512.80 1.093
512.90 1.094
513.00 1.094
513.10 1.095
513.20 1.096
513.30 1.097
513.40 1.097
513.50 1.098
513.60 1.099
513.70 1.099
513.80 1.1
513.90 1.101
514.00 1.102
514.10 1.102
514.20 1.103
514.30 1.104
514.40 1.105
514.50 1.105
514.60 1.106
514.70 1.107
514.80 1.107
514.90 1.108
515.00 1.109
515.10 1.11
515.20 1.11
515.30 1.111
515.40 1.112
515.50 1.113
515.60 1.113
515.70 1.114
515.80 1.115
515.90 1.115
516.00 1.116
516.10 1.117
516.20 1.118
516.30 1.118
516.40 1.119
516.50 1.12
516.60 1.12
516.70 1.121
516.80 1.122
516.90 1.123
517.00 1.123
517.10 1.124
517.20 1.125
517.30 1.125
517.40 1.126
517.50 1.127
517.60 1.128
517.70 1.128
517.80 1.129
517.90 1.13
518.00 1.131
518.10 1.131
518.20 1.132
518.30 1.133
518.40 1.133
518.50 1.134
518.60 1.135
518.70 1.136
518.80 1.136
518.90 1.137
519.00 1.138
519.10 1.138
519.20 1.139
519.30 1.14
519.40 1.141
519.50 1.141
519.60 1.142
519.70 1.143
519.80 1.144
519.90 1.144
520.00 1.145
520.10 1.146
520.20 1.146
520.30 1.147
520.40 1.148
520.50 1.149
520.60 1.149
520.70 1.15
520.80 1.151
520.90 1.151
521.00 1.152
521.10 1.153
521.20 1.154
521.30 1.154
521.40 1.155
521.50 1.156
521.60 1.156
521.70 1.157
521.80 1.158
521.90 1.159
522.00 1.159
522.10 1.16
522.20 1.161
522.30 1.162
522.40 1.162
522.50 1.163
522.60 1.164
522.70 1.164
522.80 1.165
522.90 1.166
523.00 1.167
523.10 1.167
523.20 1.168
523.30 1.169
523.40 1.169
523.50 1.17
523.60 1.171
523.70 1.172
523.80 1.172
523.90 1.173
524.00 1.174
524.10 1.174
524.20 1.175
524.30 1.176
524.40 1.177
524.50 1.177
524.60 1.178
524.70 1.179
524.80 1.179
524.90 1.18
525.00 1.181
525.10 1.182
525.20 1.182
525.30 1.183
525.40 1.184
525.50 1.184
525.60 1.185
525.70 1.186
525.80 1.187
525.90 1.187
526.00 1.188
526.10 1.189
526.20 1.189
526.30 1.19
526.40 1.191
526.50 1.192
526.60 1.192
526.70 1.193
526.80 1.194
526.90 1.194
527.00 1.195
527.10 1.196
527.20 1.197
527.30 1.197
527.40 1.198
527.50 1.199
527.60 1.199
527.70 1.2
527.80 1.201
527.90 1.202
528.00 1.202
528.10 1.203
528.20 1.204
528.30 1.204
528.40 1.205
528.50 1.206
528.60 1.207
528.70 1.207
528.80 1.208
528.90 1.209
529.00 1.209
529.10 1.21
529.20 1.211
529.30 1.212
529.40 1.212
529.50 1.213
529.60 1.214
529.70 1.214
529.80 1.215
529.90 1.216
530.00 1.217
530.10 1.217
530.20 1.218
530.30 1.219
530.40 1.219
530.50 1.22
530.60 1.221
530.70 1.221
530.80 1.222
530.90 1.223
531.00 1.224
531.10 1.224
531.20 1.225
531.30 1.226
531.40 1.226
531.50 1.227
531.60 1.228
531.70 1.229
531.80 1.229
531.90 1.23
532.00 1.231
532.10 1.231
532.20 1.232
532.30 1.233
532.40 1.234
532.50 1.234
532.60 1.235
532.70 1.236
532.80 1.236
532.90 1.237
533.00 1.238
533.10 1.238
533.20 1.239
533.30 1.24
533.40 1.241
533.50 1.241
533.60 1.242
533.70 1.243
533.80 1.243
533.90 1.244
534.00 1.245
534.10 1.246
534.20 1.246
534.30 1.247
534.40 1.248
534.50 1.248
534.60 1.249
534.70 1.25
534.80 1.25
534.90 1.251
535.00 1.252
535.10 1.253
535.20 1.253
535.30 1.254
535.40 1.255
535.50 1.255
535.60 1.256
535.70 1.257
535.80 1.258
535.90 1.258
536.00 1.259
536.10 1.26
536.20 1.26
536.30 1.261
536.40 1.262
536.50 1.262
536.60 1.263
536.70 1.264
536.80 1.265
536.90 1.265
537.00 1.266
537.10 1.267
537.20 1.267
537.30 1.268
537.40 1.269
537.50 1.269
537.60 1.27
537.70 1.271
537.80 1.272
537.90 1.272
538.00 1.273
538.10 1.274
538.20 1.274
538.30 1.275
538.40 1.276
538.50 1.276
538.60 1.277
538.70 1.278
538.80 1.279
538.90 1.279
539.00 1.28
539.10 1.281
539.20 1.281
539.30 1.282
539.40 1.283
539.50 1.283
539.60 1.284
539.70 1.285
539.80 1.285
539.90 1.286
540.00 1.287
540.10 1.288
540.20 1.288
540.30 1.289
540.40 1.29
540.50 1.29
540.60 1.291
540.70 1.292
540.80 1.292
540.90 1.293
541.00 1.294
541.10 1.295
541.20 1.295
541.30 1.296
541.40 1.297
541.50 1.297
541.60 1.298
541.70 1.299
541.80 1.299
541.90 1.3
542.00 1.301
542.10 1.301
542.20 1.302
542.30 1.303
542.40 1.304
542.50 1.304
542.60 1.305
542.70 1.306
542.80 1.306
542.90 1.307
543.00 1.308
543.10 1.308
543.20 1.309
543.30 1.31
543.40 1.31
543.50 1.311
543.60 1.312
543.70 1.313
543.80 1.313
543.90 1.314
544.00 1.315
544.10 1.315
544.20 1.316
544.30 1.317
544.40 1.317
544.50 1.318
544.60 1.319
544.70 1.319
544.80 1.32
544.90 1.321
545.00 1.321
545.10 1.322
545.20 1.323
545.30 1.324
545.40 1.324
545.50 1.325
545.60 1.326
545.70 1.326
545.80 1.327
545.90 1.328
546.00 1.328
546.10 1.329
546.20 1.33
546.30 1.33
546.40 1.331
546.50 1.332
546.60 1.332
546.70 1.333
546.80 1.334
546.90 1.334
547.00 1.335
547.10 1.336
547.20 1.337
547.30 1.337
547.40 1.338
547.50 1.339
547.60 1.339
547.70 1.34
547.80 1.341
547.90 1.341
548.00 1.342
548.10 1.343
548.20 1.343
548.30 1.344
548.40 1.345
548.50 1.345
548.60 1.346
548.70 1.347
548.80 1.347
548.90 1.348
549.00 1.349
549.10 1.35
549.20 1.35
549.30 1.351
549.40 1.352
549.50 1.352
549.60 1.353
549.70 1.354
549.80 1.354
549.90 1.355
550.00 1.356
550.10 1.356
550.20 1.357
550.30 1.358
550.40 1.358
550.50 1.359
550.60 1.36
550.70 1.36
550.80 1.361
550.90 1.362
551.00 1.362
551.10 1.363
551.20 1.364
551.30 1.364
551.40 1.365
551.50 1.366
551.60 1.366
551.70 1.367
551.80 1.368
551.90 1.368
552.00 1.369
552.10 1.37
552.20 1.37
552.30 1.371
552.40 1.372
552.50 1.372
552.60 1.373
552.70 1.374
552.80 1.374
552.90 1.375
553.00 1.376
553.10 1.376
553.20 1.377
553.30 1.378
553.40 1.378
553.50 1.379
553.60 1.38
553.70 1.38
553.80 1.381
553.90 1.382
554.00 1.382
554.10 1.383
554.20 1.384
554.30 1.385
554.40 1.385
554.50 1.386
554.60 1.387
554.70 1.387
554.80 1.388
554.90 1.389
555.00 1.389
555.10 1.39
555.20 1.391
555.30 1.391
555.40 1.392
555.50 1.392
555.60 1.393
555.70 1.394
555.80 1.394
555.90 1.395
556.00 1.396
556.10 1.396
556.20 1.397
556.30 1.398
556.40 1.398
556.50 1.399
556.60 1.4
556.70 1.4
556.80 1.401
556.90 1.402
557.00 1.402
557.10 1.403
557.20 1.404
557.30 1.404
557.40 1.405
557.50 1.406
557.60 1.406
557.70 1.407
557.80 1.408
557.90 1.408
558.00 1.409
558.10 1.41
558.20 1.41
558.30 1.411
558.40 1.412
558.50 1.412
558.60 1.413
558.70 1.414
558.80 1.414
558.90 1.415
559.00 1.416
559.10 1.416
559.20 1.417
559.30 1.418
559.40 1.418
559.50 1.419
559.60 1.42
559.70 1.42
559.80 1.421
559.90 1.421
560.00 1.422
560.10 1.423
560.20 1.423
560.30 1.424
560.40 1.425
560.50 1.425
560.60 1.426
560.70 1.427
560.80 1.427
560.90 1.428
561.00 1.429
561.10 1.429
561.20 1.43
561.30 1.431
561.40 1.431
561.50 1.432
561.60 1.433
561.70 1.433
561.80 1.434
561.90 1.435
562.00 1.435
562.10 1.436
562.20 1.436
562.30 1.437
562.40 1.438
562.50 1.438
562.60 1.439
562.70 1.44
562.80 1.44
562.90 1.441
563.00 1.442
563.10 1.442
563.20 1.443
563.30 1.444
563.40 1.444
563.50 1.445
563.60 1.445
563.70 1.446
563.80 1.447
563.90 1.447
564.00 1.448
564.10 1.449
564.20 1.449
564.30 1.45
564.40 1.451
564.50 1.451
564.60 1.452
564.70 1.453
564.80 1.453
564.90 1.454
565.00 1.454
565.10 1.455
565.20 1.456
565.30 1.456
565.40 1.457
565.50 1.458
565.60 1.458
565.70 1.459
565.80 1.46
565.90 1.46
566.00 1.461
566.10 1.461
566.20 1.462
566.30 1.463
566.40 1.463
566.50 1.464
566.60 1.465
566.70 1.465
566.80 1.466
566.90 1.467
567.00 1.467
567.10 1.468
567.20 1.468
567.30 1.469
567.40 1.47
567.50 1.47
567.60 1.471
567.70 1.472
567.80 1.472
567.90 1.473
568.00 1.473
568.10 1.474
568.20 1.475
568.30 1.475
568.40 1.476
568.50 1.477
568.60 1.477
568.70 1.478
568.80 1.478
568.90 1.479
569.00 1.48
569.10 1.48
569.20 1.481
569.30 1.482
569.40 1.482
569.50 1.483
569.60 1.483
569.70 1.484
569.80 1.485
569.90 1.485
570.00 1.486
570.10 1.487
570.20 1.487
570.30 1.488
570.40 1.488
570.50 1.489
570.60 1.49
570.70 1.49
570.80 1.491
570.90 1.492
571.00 1.492
571.10 1.493
571.20 1.493
571.30 1.494
571.40 1.495
571.50 1.495
571.60 1.496
571.70 1.496
571.80 1.497
571.90 1.498
572.00 1.498
572.10 1.499
572.20 1.5
572.30 1.5
572.40 1.501
572.50 1.501
572.60 1.502
572.70 1.503
572.80 1.503
572.90 1.504
573.00 1.504
573.10 1.505
573.20 1.506
573.30 1.506
573.40 1.507
573.50 1.508
573.60 1.508
573.70 1.509
573.80 1.509
573.90 1.51
574.00 1.511
574.10 1.511
574.20 1.512
574.30 1.512
574.40 1.513
574.50 1.514
574.60 1.514
574.70 1.515
574.80 1.515
574.90 1.516
575.00 1.517
575.10 1.517
575.20 1.518
575.30 1.518
575.40 1.519
575.50 1.52
575.60 1.52
575.70 1.521
575.80 1.521
575.90 1.522
576.00 1.523
576.10 1.523
576.20 1.524
576.30 1.524
576.40 1.525
576.50 1.526
576.60 1.526
576.70 1.527
576.80 1.527
576.90 1.528
577.00 1.529
577.10 1.529
577.20 1.53
577.30 1.53
577.40 1.531
577.50 1.532
577.60 1.532
577.70 1.533
577.80 1.533
577.90 1.534
578.00 1.535
578.10 1.535
578.20 1.536
578.30 1.536
578.40 1.537
578.50 1.538
578.60 1.538
578.70 1.539
578.80 1.539
578.90 1.54
579.00 1.541
579.10 1.541
579.20 1.542
579.30 1.542
579.40 1.543
579.50 1.543
579.60 1.544
579.70 1.545
579.80 1.545
579.90 1.546
580.00 1.546
580.10 1.547
580.20 1.548
580.30 1.548
580.40 1.549
580.50 1.549
580.60 1.55
580.70 1.55
580.80 1.551
580.90 1.552
581.00 1.552
581.10 1.553
581.20 1.553
581.30 1.554
581.40 1.555
581.50 1.555
581.60 1.556
581.70 1.556
581.80 1.557
581.90 1.557
582.00 1.558
582.10 1.559
582.20 1.559
582.30 1.56
582.40 1.56
582.50 1.561
582.60 1.561
582.70 1.562
582.80 1.563
582.90 1.563
583.00 1.564
583.10 1.564
583.20 1.565
583.30 1.565
583.40 1.566
583.50 1.567
583.60 1.567
583.70 1.568
583.80 1.568
583.90 1.569
584.00 1.569
584.10 1.57
584.20 1.571
584.30 1.571
584.40 1.572
584.50 1.572
584.60 1.573
584.70 1.573
584.80 1.574
584.90 1.575
585.00 1.575
585.10 1.576
585.20 1.576
585.30 1.577
585.40 1.577
585.50 1.578
585.60 1.578
585.70 1.579
585.80 1.58
585.90 1.58
586.00 1.581
586.10 1.581
586.20 1.582
586.30 1.582
586.40 1.583
586.50 1.583
586.60 1.584
586.70 1.585
586.80 1.585
586.90 1.586
587.00 1.586
587.10 1.587
587.20 1.587
587.30 1.588
587.40 1.588
587.50 1.589
587.60 1.59
587.70 1.59
587.80 1.591
587.90 1.591
588.00 1.592
588.10 1.592
588.20 1.593
588.30 1.593
588.40 1.594
588.50 1.594
588.60 1.595
588.70 1.596
588.80 1.596
588.90 1.597
589.00 1.597
589.10 1.598
589.20 1.598
589.30 1.599
589.40 1.599
589.50 1.6
589.60 1.6
589.70 1.601
589.80 1.601
589.90 1.602
590.00 1.603
590.10 1.603
590.20 1.604
590.30 1.604
590.40 1.605
590.50 1.605
590.60 1.606
590.70 1.606
590.80 1.607
590.90 1.607
591.00 1.608
591.10 1.608
591.20 1.609
591.30 1.609
591.40 1.61
591.50 1.611
591.60 1.611
591.70 1.612
591.80 1.612
591.90 1.613
592.00 1.613
592.10 1.614
592.20 1.614
592.30 1.615
592.40 1.615
592.50 1.616
592.60 1.616
592.70 1.617
592.80 1.617
592.90 1.618
593.00 1.618
593.10 1.619
593.20 1.619
593.30 1.62
593.40 1.62
593.50 1.621
593.60 1.621
593.70 1.622
593.80 1.622
593.90 1.623
594.00 1.624
594.10 1.624
594.20 1.625
594.30 1.625
594.40 1.626
594.50 1.626
594.60 1.627
594.70 1.627
594.80 1.628
594.90 1.628
595.00 1.629
595.10 1.629
595.20 1.63
595.30 1.63
595.40 1.631
595.50 1.631
595.60 1.632
595.70 1.632
595.80 1.633
595.90 1.633
596.00 1.634
596.10 1.634
596.20 1.635
596.30 1.635
596.40 1.636
596.50 1.636
596.60 1.637
596.70 1.637
596.80 1.638
596.90 1.638
597.00 1.639
597.10 1.639
597.20 1.64
597.30 1.64
597.40 1.641
597.50 1.641
597.60 1.642
597.70 1.642
597.80 1.643
597.90 1.643
598.00 1.644
598.10 1.644
598.20 1.645
598.30 1.645
598.40 1.646
598.50 1.646
598.60 1.647
598.70 1.647
598.80 1.648
598.90 1.648
599.00 1.649
599.10 1.649
599.20 1.65
599.30 1.65
599.40 1.65
599.50 1.651
599.60 1.651
599.70 1.652
599.80 1.652
599.90 1.653
600.00 1.653
600.10 1.654
600.20 1.654
600.30 1.655
600.40 1.655
600.50 1.656
600.60 1.656
600.70 1.657
600.80 1.657
600.90 1.658
601.00 1.658
601.10 1.659
601.20 1.659
601.30 1.66
601.40 1.66
601.50 1.66
601.60 1.661
601.70 1.661
601.80 1.662
601.90 1.662
602.00 1.663
602.10 1.663
602.20 1.664
602.30 1.664
602.40 1.665
602.50 1.665
602.60 1.666
602.70 1.666
602.80 1.666
602.90 1.667
603.00 1.667
603.10 1.668
603.20 1.668
603.30 1.669
603.40 1.669
603.50 1.67
603.60 1.67
603.70 1.671
603.80 1.671
603.90 1.672
604.00 1.672
604.10 1.672
604.20 1.673
604.30 1.673
604.40 1.674
604.50 1.674
604.60 1.675
604.70 1.675
604.80 1.676
604.90 1.676
605.00 1.676
605.10 1.677
605.20 1.677
605.30 1.678
605.40 1.678
605.50 1.679
605.60 1.679
605.70 1.68
605.80 1.68
605.90 1.68
606.00 1.681
606.10 1.681
606.20 1.682
606.30 1.682
606.40 1.683
606.50 1.683
606.60 1.683
606.70 1.684
606.80 1.684
606.90 1.685
607.00 1.685
607.10 1.686
607.20 1.686
607.30 1.686
607.40 1.687
607.50 1.687
607.60 1.688
607.70 1.688
607.80 1.689
607.90 1.689
608.00 1.689
608.10 1.69
608.20 1.69
608.30 1.691
608.40 1.691
608.50 1.691
608.60 1.692
608.70 1.692
608.80 1.693
608.90 1.693
609.00 1.694
609.10 1.694
609.20 1.694
609.30 1.695
609.40 1.695
609.50 1.696
609.60 1.696
609.70 1.696
609.80 1.697
609.90 1.697
610.00 1.698
610.10 1.698
610.20 1.698
610.30 1.699
610.40 1.699
610.50 1.7
610.60 1.7
610.70 1.7
610.80 1.701
610.90 1.701
611.00 1.702
611.10 1.702
611.20 1.702
611.30 1.703
611.40 1.703
611.50 1.704
611.60 1.704
611.70 1.704
611.80 1.705
611.90 1.705
612.00 1.706
612.10 1.706
612.20 1.706
612.30 1.707
612.40 1.707
612.50 1.707
612.60 1.708
612.70 1.708
612.80 1.709
612.90 1.709
613.00 1.709
613.10 1.71
613.20 1.71
613.30 1.711
613.40 1.711
613.50 1.711
613.60 1.712
613.70 1.712
613.80 1.712
613.90 1.713
614.00 1.713
614.10 1.713
614.20 1.714
614.30 1.714
614.40 1.715
614.50 1.715
614.60 1.715
614.70 1.716
614.80 1.716
614.90 1.716
615.00 1.717
615.10 1.717
615.20 1.717
615.30 1.718
615.40 1.718
615.50 1.719
615.60 1.719
615.70 1.719
615.80 1.72
615.90 1.72
616.00 1.72
616.10 1.721
616.20 1.721
616.30 1.721
616.40 1.722
616.50 1.722
616.60 1.722
616.70 1.723
616.80 1.723
616.90 1.723
617.00 1.724
617.10 1.724
617.20 1.724
617.30 1.725
617.40 1.725
617.50 1.725
617.60 1.726
617.70 1.726
617.80 1.726
617.90 1.727
618.00 1.727
618.10 1.727
618.20 1.728
618.30 1.728
618.40 1.728
618.50 1.729
618.60 1.729
618.70 1.729
618.80 1.73
618.90 1.73
619.00 1.73
619.10 1.731
619.20 1.731
619.30 1.731
619.40 1.732
619.50 1.732
619.60 1.732
619.70 1.732
619.80 1.733
619.90 1.733
620.00 1.733
620.10 1.734
620.20 1.734
620.30 1.734
620.40 1.735
620.50 1.735
620.60 1.735
620.70 1.735
620.80 1.736
620.90 1.736
621.00 1.736
621.10 1.737
621.20 1.737
621.30 1.737
621.40 1.738
621.50 1.738
621.60 1.738
621.70 1.738
621.80 1.739
621.90 1.739
622.00 1.739
622.10 1.74
622.20 1.74
622.30 1.74
622.40 1.74
622.50 1.741
622.60 1.741
622.70 1.741
622.80 1.742
622.90 1.742
623.00 1.742
623.10 1.742
623.20 1.743
623.30 1.743
623.40 1.743
623.50 1.744
623.60 1.744
623.70 1.744
623.80 1.744
623.90 1.745
624.00 1.745
624.10 1.745
624.20 1.745
624.30 1.746
624.40 1.746
624.50 1.746
624.60 1.746
624.70 1.747
624.80 1.747
624.90 1.747
625.00 1.747
625.10 1.748
625.20 1.748
625.30 1.748
625.40 1.748
625.50 1.749
625.60 1.749
625.70 1.749
625.80 1.749
625.90 1.75
626.00 1.75
626.10 1.75
626.20 1.75
626.30 1.751
626.40 1.751
626.50 1.751
626.60 1.751
626.70 1.752
626.80 1.752
626.90 1.752
627.00 1.752
627.10 1.752
627.20 1.753
627.30 1.753
627.40 1.753
627.50 1.753
627.60 1.754
627.70 1.754
627.80 1.754
627.90 1.754
628.00 1.754
628.10 1.755
628.20 1.755
628.30 1.755
628.40 1.755
628.50 1.756
628.60 1.756
628.70 1.756
628.80 1.756
628.90 1.756
629.00 1.757
629.10 1.757
629.20 1.757
629.30 1.757
629.40 1.757
629.50 1.758
629.60 1.758
629.70 1.758
629.80 1.758
629.90 1.758
630.00 1.759
630.10 1.759
630.20 1.759
630.30 1.759
630.40 1.759
630.50 1.759
630.60 1.76
630.70 1.76
630.80 1.76
630.90 1.76
631.00 1.76
631.10 1.761
631.20 1.761
631.30 1.761
631.40 1.761
631.50 1.761
631.60 1.761
631.70 1.762
631.80 1.762
631.90 1.762
632.00 1.762
632.10 1.762
632.20 1.762
632.30 1.763
632.40 1.763
632.50 1.763
632.60 1.763
632.70 1.763
632.80 1.763
632.90 1.763
633.00 1.764
633.10 1.764
633.20 1.764
633.30 1.764
633.40 1.764
633.50 1.764
633.60 1.765
633.70 1.765
633.80 1.765
633.90 1.765
634.00 1.765
634.10 1.765
634.20 1.765
634.30 1.765
634.40 1.766
634.50 1.766
634.60 1.766
634.70 1.766
634.80 1.766
634.90 1.766
635.00 1.766
635.10 1.766
635.20 1.767
635.30 1.767
635.40 1.767
635.50 1.767
635.60 1.767
635.70 1.767
635.80 1.767
635.90 1.767
636.00 1.767
636.10 1.768
636.20 1.768
636.30 1.768
636.40 1.768
636.50 1.768
636.60 1.768
636.70 1.768
636.80 1.768
636.90 1.768
637.00 1.768
637.10 1.768
637.20 1.769
637.30 1.769
637.40 1.769
637.50 1.769
637.60 1.769
637.70 1.769
637.80 1.769
637.90 1.769
638.00 1.769
638.10 1.769
638.20 1.769
638.30 1.769
638.40 1.769
638.50 1.77
638.60 1.77
638.70 1.77
638.80 1.77
638.90 1.77
639.00 1.77
639.10 1.77
639.20 1.77
639.30 1.77
639.40 1.77
639.50 1.77
639.60 1.77
639.70 1.77
639.80 1.77
639.90 1.77
640.00 1.77
640.10 1.77
640.20 1.77
640.30 1.77
640.40 1.77
640.50 1.77
640.60 1.77
640.70 1.771
640.80 1.771
640.90 1.771
641.00 1.771
641.10 1.771
641.20 1.771
641.30 1.771
641.40 1.771
641.50 1.771
641.60 1.771
641.70 1.771
641.80 1.771
641.90 1.771
642.00 1.771
642.10 1.771
642.20 1.771
642.30 1.771
642.40 1.771
642.50 1.771
642.60 1.771
642.70 1.771
642.80 1.771
642.90 1.771
643.00 1.771
643.10 1.77
643.20 1.77
643.30 1.77
643.40 1.77
643.50 1.77
643.60 1.77
643.70 1.77
643.80 1.77
643.90 1.77
644.00 1.77
644.10 1.77
644.20 1.77
644.30 1.77
644.40 1.77
644.50 1.77
644.60 1.77
644.70 1.77
644.80 1.77
644.90 1.77
645.00 1.77
645.10 1.77
645.20 1.77
645.30 1.769
645.40 1.769
645.50 1.769
645.60 1.769
645.70 1.769
645.80 1.769
645.90 1.769
646.00 1.769
646.10 1.769
646.20 1.769
646.30 1.769
646.40 1.769
646.50 1.769
646.60 1.769
646.70 1.768
646.80 1.768
646.90 1.768
647.00 1.768
647.10 1.768
647.20 1.768
647.30 1.768
647.40 1.768
647.50 1.768
647.60 1.768
647.70 1.767
647.80 1.767
647.90 1.767
648.00 1.767
648.10 1.767
648.20 1.767
648.30 1.767
648.40 1.767
648.50 1.767
648.60 1.766
648.70 1.766
648.80 1.766
648.90 1.766
649.00 1.766
649.10 1.766
649.20 1.766
649.30 1.765
649.40 1.765
649.50 1.765
649.60 1.765
649.70 1.765
649.80 1.765
649.90 1.764
650.00 1.764
650.10 1.764
650.20 1.764
650.30 1.764
650.40 1.764
650.50 1.763
650.60 1.763
650.70 1.763
650.80 1.763
650.90 1.763
651.00 1.763
651.10 1.762
651.20 1.762
651.30 1.762
651.40 1.762
651.50 1.762
651.60 1.761
651.70 1.761
651.80 1.761
651.90 1.761
652.00 1.761
652.10 1.76
652.20 1.76
652.30 1.76
652.40 1.76
652.50 1.76
652.60 1.759
652.70 1.759
652.80 1.759
652.90 1.759
653.00 1.758
653.10 1.758
653.20 1.758
653.30 1.758
653.40 1.758
653.50 1.757
653.60 1.757
653.70 1.757
653.80 1.757
653.90 1.756
654.00 1.756
654.10 1.756
654.20 1.756
654.30 1.755
654.40 1.755
654.50 1.755
654.60 1.755
654.70 1.754
654.80 1.754
654.90 1.754
655.00 1.753
655.10 1.753
655.20 1.753
655.30 1.753
655.40 1.752
655.50 1.752
655.60 1.752
655.70 1.751
655.80 1.751
655.90 1.751
656.00 1.751
656.10 1.75
656.20 1.75
656.30 1.75
656.40 1.749
656.50 1.749
656.60 1.749
656.70 1.748
656.80 1.748
656.90 1.748
657.00 1.747
657.10 1.747
657.20 1.747
657.30 1.746
657.40 1.746
657.50 1.746
657.60 1.745
657.70 1.745
657.80 1.745
657.90 1.744
658.00 1.744
658.10 1.744
658.20 1.743
658.30 1.743
658.40 1.743
658.50 1.742
658.60 1.742
658.70 1.742
658.80 1.741
658.90 1.741
659.00 1.74
659.10 1.74
659.20 1.74
659.30 1.739
659.40 1.739
659.50 1.738
659.60 1.738
659.70 1.738
659.80 1.737
659.90 1.737
660.00 1.737
660.10 1.736
660.20 1.736
660.30 1.735
660.40 1.735
660.50 1.734
660.60 1.734
660.70 1.734
660.80 1.733
660.90 1.733
661.00 1.732
661.10 1.732
661.20 1.731
661.30 1.731
661.40 1.731
661.50 1.73
661.60 1.73
661.70 1.729
661.80 1.729
661.90 1.728
662.00 1.728
662.10 1.727
662.20 1.727
662.30 1.727
662.40 1.726
662.50 1.726
662.60 1.725
662.70 1.725
662.80 1.724
662.90 1.724
663.00 1.723
663.10 1.723
663.20 1.722
663.30 1.722
663.40 1.721
663.50 1.721
663.60 1.72
663.70 1.72
663.80 1.719
663.90 1.719
664.00 1.718
664.10 1.718
664.20 1.717
664.30 1.717
664.40 1.716
664.50 1.716
664.60 1.715
664.70 1.714
664.80 1.714
664.90 1.713
665.00 1.713
665.10 1.712
665.20 1.712
665.30 1.711
665.40 1.711
665.50 1.71
665.60 1.709
665.70 1.709
665.80 1.708
665.90 1.708
666.00 1.707
666.10 1.707
666.20 1.706
666.30 1.705
666.40 1.705
666.50 1.704
666.60 1.704
666.70 1.703
666.80 1.702
666.90 1.702
667.00 1.701
667.10 1.701
667.20 1.7
667.30 1.699
667.40 1.699
667.50 1.698
667.60 1.698
667.70 1.697
667.80 1.696
667.90 1.696
668.00 1.695
668.10 1.694
668.20 1.694
668.30 1.693
668.40 1.692
668.50 1.692
668.60 1.691
668.70 1.69
668.80 1.69
668.90 1.689
669.00 1.688
669.10 1.688
669.20 1.687
669.30 1.686
669.40 1.686
669.50 1.685
669.60 1.684
669.70 1.684
669.80 1.683
669.90 1.682
670.00 1.682
670.10 1.681
670.20 1.68
670.30 1.68
670.40 1.679
670.50 1.678
670.60 1.677
670.70 1.677
670.80 1.676
670.90 1.675
671.00 1.674
671.10 1.674
671.20 1.673
671.30 1.672
671.40 1.671
671.50 1.671
671.60 1.67
671.70 1.669
671.80 1.668
671.90 1.668
672.00 1.667
672.10 1.666
672.20 1.665
672.30 1.665
672.40 1.664
672.50 1.663
672.60 1.662
672.70 1.661
672.80 1.661
672.90 1.66
673.00 1.659
673.10 1.658
673.20 1.657
673.30 1.657
673.40 1.656
673.50 1.655
673.60 1.654
673.70 1.653
673.80 1.652
673.90 1.652
674.00 1.651
674.10 1.65
674.20 1.649
674.30 1.648
674.40 1.647
674.50 1.647
674.60 1.646
674.70 1.645
674.80 1.644
674.90 1.643
675.00 1.642
675.10 1.641
675.20 1.641
675.30 1.64
675.40 1.639
675.50 1.638
675.60 1.637
675.70 1.636
675.80 1.635
675.90 1.634
676.00 1.633
676.10 1.632
676.20 1.632
676.30 1.631
676.40 1.63
676.50 1.629
676.60 1.628
676.70 1.627
676.80 1.626
676.90 1.625
677.00 1.624
677.10 1.623
677.20 1.622
677.30 1.621
677.40 1.62
677.50 1.619
677.60 1.618
677.70 1.618
677.80 1.617
677.90 1.616
678.00 1.615
678.10 1.614
678.20 1.613
678.30 1.612
678.40 1.611
678.50 1.61
678.60 1.609
678.70 1.608
678.80 1.607
678.90 1.606
679.00 1.605
679.10 1.604
679.20 1.603
679.30 1.602
679.40 1.601
679.50 1.6
679.60 1.599
679.70 1.598
679.80 1.597
679.90 1.595
680.00 1.594
680.10 1.593
680.20 1.592
680.30 1.591
680.40 1.59
680.50 1.589
680.60 1.588
680.70 1.587
680.80 1.586
680.90 1.585
681.00 1.584
681.10 1.583
681.20 1.582
681.30 1.581
681.40 1.579
681.50 1.578
681.60 1.577
681.70 1.576
681.80 1.575
681.90 1.574
682.00 1.573
682.10 1.572
682.20 1.571
682.30 1.569
682.40 1.568
682.50 1.567
682.60 1.566
682.70 1.565
682.80 1.564
682.90 1.563
683.00 1.561
683.10 1.56
683.20 1.559
683.30 1.558
683.40 1.557
683.50 1.556
683.60 1.554
683.70 1.553
683.80 1.552
683.90 1.551
684.00 1.55
684.10 1.549
684.20 1.547
684.30 1.546
684.40 1.545
684.50 1.544
684.60 1.542
684.70 1.541
684.80 1.54
684.90 1.539
685.00 1.538
685.10 1.536
685.20 1.535
685.30 1.534
685.40 1.533
685.50 1.531
685.60 1.53
685.70 1.529
685.80 1.528
685.90 1.526
686.00 1.525
686.10 1.524
686.20 1.523
686.30 1.521
686.40 1.52
686.50 1.519
686.60 1.518
686.70 1.516
686.80 1.515
686.90 1.514
687.00 1.512
687.10 1.511
687.20 1.51
687.30 1.509
687.40 1.507
687.50 1.506
687.60 1.505
687.70 1.503
687.80 1.502
687.90 1.501
688.00 1.499
688.10 1.498
688.20 1.497
688.30 1.495
688.40 1.494
688.50 1.493
688.60 1.491
688.70 1.49
688.80 1.489
688.90 1.487
689.00 1.486
689.10 1.484
689.20 1.483
689.30 1.482
689.40 1.48
689.50 1.479
689.60 1.477
689.70 1.476
689.80 1.474
689.90 1.473
690.00 1.471
690.10 1.47
690.20 1.468
690.30 1.467
690.40 1.465
690.50 1.464
690.60 1.462
690.70 1.461
690.80 1.46
690.90 1.458
691.00 1.457
691.10 1.455
691.20 1.454
691.30 1.452
691.40 1.451
691.50 1.449
691.60 1.448
691.70 1.446
691.80 1.445
691.90 1.443
692.00 1.442
692.10 1.44
692.20 1.439
692.30 1.437
692.40 1.436
692.50 1.435
692.60 1.433
692.70 1.432
692.80 1.43
692.90 1.429
693.00 1.427
693.10 1.426
693.20 1.424
693.30 1.423
693.40 1.421
693.50 1.42
693.60 1.419
693.70 1.417
693.80 1.416
693.90 1.414
694.00 1.413
694.10 1.411
694.20 1.41
694.30 1.408
694.40 1.407
694.50 1.405
694.60 1.404
694.70 1.403
694.80 1.401
694.90 1.4
695.00 1.398
695.10 1.397
695.20 1.395
695.30 1.393
695.40 1.392
695.50 1.39
695.60 1.389
695.70 1.387
695.80 1.385
695.90 1.384
696.00 1.382
696.10 1.381
696.20 1.379
696.30 1.377
696.40 1.376
696.50 1.374
696.60 1.373
696.70 1.371
696.80 1.369
696.90 1.368
697.00 1.366
697.10 1.364
697.20 1.363
697.30 1.361
697.40 1.36
697.50 1.358
697.60 1.357
697.70 1.355
697.80 1.353
697.90 1.352
698.00 1.35
698.10 1.349
698.20 1.347
698.30 1.345
698.40 1.344
698.50 1.342
698.60 1.341
698.70 1.339
698.80 1.337
698.90 1.336
699.00 1.334
699.10 1.333
699.20 1.331
699.30 1.33
699.40 1.328
699.50 1.326
699.60 1.325
699.70 1.323
699.80 1.322
699.90 1.32
700.00 1.319
700.10 1.317
700.20 1.315
700.30 1.313
700.40 1.312
700.50 1.31
700.60 1.308
700.70 1.307
700.80 1.305
700.90 1.303
701.00 1.302
701.10 1.3
701.20 1.298
701.30 1.296
701.40 1.295
701.50 1.293
701.60 1.291
701.70 1.29
701.80 1.288
701.90 1.286
702.00 1.285
702.10 1.283
702.20 1.281
702.30 1.28
702.40 1.278
702.50 1.276
702.60 1.274
702.70 1.273
702.80 1.271
702.90 1.269
703.00 1.268
703.10 1.266
703.20 1.264
703.30 1.263
703.40 1.261
703.50 1.259
703.60 1.258
703.70 1.256
703.80 1.254
703.90 1.253
704.00 1.251
704.10 1.249
704.20 1.248
704.30 1.246
704.40 1.244
704.50 1.243
704.60 1.241
704.70 1.239
704.80 1.238
704.90 1.236
705.00 1.234
705.10 1.233
705.20 1.231
705.30 1.229
705.40 1.227
705.50 1.226
705.60 1.224
705.70 1.222
705.80 1.221
705.90 1.219
706.00 1.217
706.10 1.215
706.20 1.214
706.30 1.212
706.40 1.21
706.50 1.209
706.60 1.207
706.70 1.205
706.80 1.203
706.90 1.202
707.00 1.2
707.10 1.198
707.20 1.197
707.30 1.195
707.40 1.193
707.50 1.191
707.60 1.19
707.70 1.188
707.80 1.186
707.90 1.185
708.00 1.183
708.10 1.181
708.20 1.18
708.30 1.178
708.40 1.176
708.50 1.174
708.60 1.173
708.70 1.171
708.80 1.169
708.90 1.168
709.00 1.166
709.10 1.164
709.20 1.163
709.30 1.161
709.40 1.159
709.50 1.158
709.60 1.156
709.70 1.154
709.80 1.153
709.90 1.151
710.00 1.149
710.10 1.147
710.20 1.146
710.30 1.144
710.40 1.142
710.50 1.141
710.60 1.139
710.70 1.137
710.80 1.136
710.90 1.134
711.00 1.132
711.10 1.131
711.20 1.129
711.30 1.127
711.40 1.125
711.50 1.124
711.60 1.122
711.70 1.12
711.80 1.119
711.90 1.117
712.00 1.115
712.10 1.114
712.20 1.112
712.30 1.11
712.40 1.109
712.50 1.107
712.60 1.105
712.70 1.104
712.80 1.102
712.90 1.1
713.00 1.099
713.10 1.097
713.20 1.095
713.30 1.094
713.40 1.092
713.50 1.09
713.60 1.089
713.70 1.087
713.80 1.085
713.90 1.084
714.00 1.082
714.10 1.08
714.20 1.079
714.30 1.077
714.40 1.075
714.50 1.074
714.60 1.072
714.70 1.07
714.80 1.069
714.90 1.067
715.00 1.065
715.10 1.064
715.20 1.062
715.30 1.06
715.40 1.059
715.50 1.057
715.60 1.056
715.70 1.054
715.80 1.052
715.90 1.051
716.00 1.049
716.10 1.047
716.20 1.046
716.30 1.044
716.40 1.043
716.50 1.041
716.60 1.039
716.70 1.038
716.80 1.036
716.90 1.035
717.00 1.033
717.10 1.031
717.20 1.03
717.30 1.028
717.40 1.027
717.50 1.025
717.60 1.023
717.70 1.022
717.80 1.02
717.90 1.019
718.00 1.017
718.10 1.015
718.20 1.014
718.30 1.012
718.40 1.011
718.50 1.009
718.60 1.007
718.70 1.006
718.80 1.004
718.90 1.003
719.00 1.001
719.10 0.9994
719.20 0.9978
719.30 0.9962
719.40 0.9946
719.50 0.993
719.60 0.9914
719.70 0.9899
719.80 0.9883
719.90 0.9867
720.00 0.9851
720.10 0.9836
720.20 0.9821
720.30 0.9806
720.40 0.9792
720.50 0.9777
720.60 0.9762
720.70 0.9747
720.80 0.9732
720.90 0.9717
721.00 0.9703
721.10 0.9688
721.20 0.9673
721.30 0.9658
721.40 0.9644
721.50 0.9629
721.60 0.9614
721.70 0.9599
721.80 0.9584
721.90 0.957
722.00 0.9555
722.10 0.954
722.20 0.9526
722.30 0.9511
722.40 0.9496
722.50 0.9482
722.60 0.9467
722.70 0.9452
722.80 0.9437
722.90 0.9423
723.00 0.9408
723.10 0.9394
723.20 0.9379
723.30 0.9364
723.40 0.935
723.50 0.9335
723.60 0.932
723.70 0.9306
723.80 0.9291
723.90 0.9277
724.00 0.9262
724.10 0.9248
724.20 0.9233
724.30 0.9218
724.40 0.9204
724.50 0.9189
724.60 0.9175
724.70 0.916
724.80 0.9146
724.90 0.9131
725.00 0.9117
725.10 0.9104
725.20 0.909
725.30 0.9077
725.40 0.9064
725.50 0.9051
725.60 0.9038
725.70 0.9024
725.80 0.9011
725.90 0.8998
726.00 0.8985
726.10 0.8972
726.20 0.8959
726.30 0.8945
726.40 0.8932
726.50 0.8919
726.60 0.8906
726.70 0.8893
726.80 0.888
726.90 0.8867
727.00 0.8854
727.10 0.884
727.20 0.8827
727.30 0.8814
727.40 0.8801
727.50 0.8788
727.60 0.8775
727.70 0.8762
727.80 0.8749
727.90 0.8736
728.00 0.8723
728.10 0.871
728.20 0.8697
728.30 0.8684
728.40 0.8671
728.50 0.8658
728.60 0.8645
728.70 0.8632
728.80 0.8619
728.90 0.8606
729.00 0.8593
729.10 0.858
729.20 0.8567
729.30 0.8554
729.40 0.8541
729.50 0.8528
729.60 0.8516
729.70 0.8503
729.80 0.849
729.90 0.8477
730.00 0.8464
730.10 0.8454
730.20 0.8443
730.30 0.8433
730.40 0.8423
730.50 0.8413
730.60 0.8403
730.70 0.8392
730.80 0.8382
730.90 0.8372
731.00 0.8362
731.10 0.8352
731.20 0.8341
731.30 0.8331
731.40 0.8321
731.50 0.8311
731.60 0.8301
731.70 0.8291
731.80 0.8281
731.90 0.827
732.00 0.826
732.10 0.825
732.20 0.824
732.30 0.823
732.40 0.822
732.50 0.821
732.60 0.82
732.70 0.819
732.80 0.8179
732.90 0.8169
733.00 0.8159
733.10 0.8149
733.20 0.8139
733.30 0.8129
733.40 0.8119
733.50 0.8109
733.60 0.8099
733.70 0.8089
733.80 0.8079
733.90 0.8069
734.00 0.8059
734.10 0.8049
734.20 0.8039
734.30 0.8029
734.40 0.8019
734.50 0.8009
734.60 0.7999
734.70 0.7989
734.80 0.7979
734.90 0.7969
735.00 0.7959
735.10 0.7949
735.20 0.7939
735.30 0.7929
735.40 0.7919
735.50 0.7909
735.60 0.7899
735.70 0.7889
735.80 0.7879
735.90 0.7869
736.00 0.7859
736.10 0.7849
736.20 0.784
736.30 0.783
736.40 0.782
736.50 0.781
736.60 0.78
736.70 0.779
736.80 0.778
736.90 0.777
737.00 0.776
737.10 0.7751
737.20 0.7741
737.30 0.7731
737.40 0.7721
737.50 0.7711
737.60 0.7701
737.70 0.7691
737.80 0.7682
737.90 0.7672
738.00 0.7662
738.10 0.7652
738.20 0.7642
738.30 0.7633
738.40 0.7623
738.50 0.7613
738.60 0.7603
738.70 0.7593
738.80 0.7584
738.90 0.7574
739.00 0.7564
739.10 0.7554
739.20 0.7545
739.30 0.7535
739.40 0.7525
739.50 0.7515
739.60 0.7506
739.70 0.7496
739.80 0.7486
739.90 0.7476
740.00 0.7467
740.10 0.746
740.20 0.7454
740.30 0.7447
740.40 0.7441
740.50 0.7434
740.60 0.7428
740.70 0.7421
740.80 0.7415
740.90 0.7408
741.00 0.7402
741.10 0.7395
741.20 0.7389
741.30 0.7382
741.40 0.7376
741.50 0.7369
741.60 0.7363
741.70 0.7357
741.80 0.735
741.90 0.7344
742.00 0.7337
742.10 0.7331
742.20 0.7324
742.30 0.7318
742.40 0.7311
742.50 0.7305
742.60 0.7299
742.70 0.7292
742.80 0.7286
742.90 0.7279
743.00 0.7273
743.10 0.7267
743.20 0.726
743.30 0.7254
743.40 0.7247
743.50 0.7241
743.60 0.7235
743.70 0.7228
743.80 0.7222
743.90 0.7215
744.00 0.7209
744.10 0.7203
744.20 0.7196
744.30 0.719
744.40 0.7183
744.50 0.7177
744.60 0.7171
744.70 0.7164
744.80 0.7158
744.90 0.7152
745.00 0.7145
745.10 0.7139
745.20 0.7133
745.30 0.7126
745.40 0.712
745.50 0.7114
745.60 0.7107
745.70 0.7101
745.80 0.7095
745.90 0.7088
746.00 0.7082
746.10 0.7076
746.20 0.7069
746.30 0.7063
746.40 0.7057
746.50 0.7051
746.60 0.7044
746.70 0.7038
746.80 0.7032
746.90 0.7025
747.00 0.7019
747.10 0.7013
747.20 0.7006
747.30 0.7
747.40 0.6994
747.50 0.6988
747.60 0.6981
747.70 0.6975
747.80 0.6969
747.90 0.6963
748.00 0.6956
748.10 0.695
748.20 0.6944
748.30 0.6938
748.40 0.6931
748.50 0.6925
748.60 0.6919
748.70 0.6913
748.80 0.6906
748.90 0.69
749.00 0.6894
749.10 0.6888
749.20 0.6882
749.30 0.6875
749.40 0.6869
749.50 0.6863
749.60 0.6857
749.70 0.6851
749.80 0.6844
749.90 0.6838
750.00 0.6832
750.10 0.6828
750.20 0.6823
750.30 0.6819
750.40 0.6815
750.50 0.6811
750.60 0.6806
750.70 0.6802
750.80 0.6798
750.90 0.6793
751.00 0.6789
751.10 0.6785
751.20 0.6781
751.30 0.6776
751.40 0.6772
751.50 0.6768
751.60 0.6764
751.70 0.6759
751.80 0.6755
751.90 0.6751
752.00 0.6747
752.10 0.6742
752.20 0.6738
752.30 0.6734
752.40 0.673
752.50 0.6725
752.60 0.6721
752.70 0.6717
752.80 0.6713
752.90 0.6709
753.00 0.6704
753.10 0.67
753.20 0.6696
753.30 0.6692
753.40 0.6687
753.50 0.6683
753.60 0.6679
753.70 0.6675
753.80 0.6671
753.90 0.6666
754.00 0.6662
754.10 0.6658
754.20 0.6654
754.30 0.665
754.40 0.6645
754.50 0.6641
754.60 0.6637
754.70 0.6633
754.80 0.6629
754.90 0.6624
755.00 0.662
755.10 0.6616
755.20 0.6612
755.30 0.6608
755.40 0.6604
755.50 0.6599
755.60 0.6595
755.70 0.6591
755.80 0.6587
755.90 0.6583
756.00 0.6579
756.10 0.6574
756.20 0.657
756.30 0.6566
756.40 0.6562
756.50 0.6558
756.60 0.6554
756.70 0.6549
756.80 0.6545
756.90 0.6541
757.00 0.6537
757.10 0.6533
757.20 0.6529
757.30 0.6525
757.40 0.652
757.50 0.6516
757.60 0.6512
757.70 0.6508
757.80 0.6504
757.90 0.65
758.00 0.6496
758.10 0.6492
758.20 0.6487
758.30 0.6483
758.40 0.6479
758.50 0.6475
758.60 0.6471
758.70 0.6467
758.80 0.6463
758.90 0.6459
759.00 0.6454
759.10 0.645
759.20 0.6446
759.30 0.6442
759.40 0.6438
759.50 0.6434
759.60 0.643
759.70 0.6426
759.80 0.6422
759.90 0.6418
760.00 0.6414
760.10 0.6411
760.20 0.6408
760.30 0.6404
760.40 0.6401
760.50 0.6398
760.60 0.6395
760.70 0.6392
760.80 0.6389
760.90 0.6386
761.00 0.6383
761.10 0.638
761.20 0.6377
761.30 0.6374
761.40 0.6371
761.50 0.6368
761.60 0.6365
761.70 0.6362
761.80 0.6359
761.90 0.6356
762.00 0.6353
762.10 0.635
762.20 0.6347
762.30 0.6344
762.40 0.6341
762.50 0.6338
762.60 0.6335
762.70 0.6332
762.80 0.6329
762.90 0.6326
763.00 0.6323
763.10 0.6321
763.20 0.6318
763.30 0.6315
763.40 0.6312
763.50 0.6309
763.60 0.6306
763.70 0.6303
763.80 0.63
763.90 0.6297
764.00 0.6294
764.10 0.6291
764.20 0.6288
764.30 0.6285
764.40 0.6282
764.50 0.6279
764.60 0.6276
764.70 0.6273
764.80 0.627
764.90 0.6267
765.00 0.6264
765.10 0.6261
765.20 0.6258
765.30 0.6255
765.40 0.6252
765.50 0.6249
765.60 0.6246
765.70 0.6243
765.80 0.6241
765.90 0.6238
766.00 0.6235
766.10 0.6232
766.20 0.6229
766.30 0.6226
766.40 0.6223
766.50 0.622
766.60 0.6217
766.70 0.6214
766.80 0.6211
766.90 0.6208
767.00 0.6205
767.10 0.6202
767.20 0.6199
767.30 0.6197
767.40 0.6194
767.50 0.6191
767.60 0.6188
767.70 0.6185
767.80 0.6182
767.90 0.6179
768.00 0.6176
768.10 0.6173
768.20 0.617
768.30 0.6167
768.40 0.6164
768.50 0.6162
768.60 0.6159
768.70 0.6156
768.80 0.6153
768.90 0.615
769.00 0.6147
769.10 0.6144
769.20 0.6141
769.30 0.6138
769.40 0.6135
769.50 0.6132
769.60 0.613
769.70 0.6127
769.80 0.6124
769.90 0.6121
770.00 0.6118
770.10 0.6116
770.20 0.6115
770.30 0.6113
770.40 0.6112
770.50 0.611
770.60 0.6109
770.70 0.6107
770.80 0.6105
770.90 0.6104
771.00 0.6102
771.10 0.6101
771.20 0.6099
771.30 0.6098
771.40 0.6096
771.50 0.6095
771.60 0.6093
771.70 0.6091
771.80 0.609
771.90 0.6088
772.00 0.6087
772.10 0.6085
772.20 0.6084
772.30 0.6082
772.40 0.6081
772.50 0.6079
772.60 0.6077
772.70 0.6076
772.80 0.6074
772.90 0.6073
773.00 0.6071
773.10 0.607
773.20 0.6068
773.30 0.6067
773.40 0.6065
773.50 0.6063
773.60 0.6062
773.70 0.606
773.80 0.6059
773.90 0.6057
774.00 0.6056
774.10 0.6054
774.20 0.6053
774.30 0.6051
774.40 0.605
774.50 0.6048
774.60 0.6046
774.70 0.6045
774.80 0.6043
774.90 0.6042
775.00 0.604
775.10 0.6039
775.20 0.6037
775.30 0.6036
775.40 0.6034
775.50 0.6033
775.60 0.6031
775.70 0.603
775.80 0.6028
775.90 0.6026
776.00 0.6025
776.10 0.6023
776.20 0.6022
776.30 0.602
776.40 0.6019
776.50 0.6017
776.60 0.6016
776.70 0.6014
776.80 0.6013
776.90 0.6011
777.00 0.601
777.10 0.6008
777.20 0.6007
777.30 0.6005
777.40 0.6004
777.50 0.6002
777.60 0.6
777.70 0.5999
777.80 0.5997
777.90 0.5996
778.00 0.5994
778.10 0.5993
778.20 0.5991
778.30 0.599
778.40 0.5988
778.50 0.5987
778.60 0.5985
778.70 0.5984
778.80 0.5982
778.90 0.5981
779.00 0.5979
779.10 0.5978
779.20 0.5976
779.30 0.5975
779.40 0.5973
779.50 0.5972
779.60 0.597
779.70 0.5969
779.80 0.5967
779.90 0.5966
780.00 0.5964
780.10 0.5964
780.20 0.5964
780.30 0.5965
780.40 0.5965
780.50 0.5965
780.60 0.5965
780.70 0.5965
780.80 0.5965
780.90 0.5966
781.00 0.5966
781.10 0.5966
781.20 0.5966
781.30 0.5966
781.40 0.5966
781.50 0.5966
781.60 0.5967
781.70 0.5967
781.80 0.5967
781.90 0.5967
782.00 0.5967
782.10 0.5967
782.20 0.5968
782.30 0.5968
782.40 0.5968
782.50 0.5968
782.60 0.5968
782.70 0.5968
782.80 0.5969
782.90 0.5969
783.00 0.5969
783.10 0.5969
783.20 0.5969
783.30 0.5969
783.40 0.5969
783.50 0.597
783.60 0.597
783.70 0.597
783.80 0.597
783.90 0.597
784.00 0.597
784.10 0.5971
784.20 0.5971
784.30 0.5971
784.40 0.5971
784.50 0.5971
784.60 0.5971
784.70 0.5971
784.80 0.5972
784.90 0.5972
785.00 0.5972
785.10 0.5972
785.20 0.5972
785.30 0.5972
785.40 0.5972
785.50 0.5973
785.60 0.5973
785.70 0.5973
785.80 0.5973
785.90 0.5973
786.00 0.5973
786.10 0.5973
786.20 0.5974
786.30 0.5974
786.40 0.5974
786.50 0.5974
786.60 0.5974
786.70 0.5974
786.80 0.5974
786.90 0.5975
787.00 0.5975
787.10 0.5975
787.20 0.5975
787.30 0.5975
787.40 0.5975
787.50 0.5975
787.60 0.5976
787.70 0.5976
787.80 0.5976
787.90 0.5976
788.00 0.5976
788.10 0.5976
788.20 0.5976
788.30 0.5977
788.40 0.5977
788.50 0.5977
788.60 0.5977
788.70 0.5977
788.80 0.5977
788.90 0.5977
789.00 0.5978
789.10 0.5978
789.20 0.5978
789.30 0.5978
789.40 0.5978
789.50 0.5978
789.60 0.5978
789.70 0.5979
789.80 0.5979
789.90 0.5979
790.00 0.5979
790.10 0.598
790.20 0.5981
790.30 0.5982
790.40 0.5983
790.50 0.5983
790.60 0.5984
790.70 0.5985
790.80 0.5986
790.90 0.5987
791.00 0.5988
791.10 0.5989
791.20 0.599
791.30 0.599
791.40 0.5991
791.50 0.5992
791.60 0.5993
791.70 0.5994
791.80 0.5995
791.90 0.5996
792.00 0.5997
792.10 0.5998
792.20 0.5998
792.30 0.5999
792.40 0.6
792.50 0.6001
792.60 0.6002
792.70 0.6003
792.80 0.6004
792.90 0.6005
793.00 0.6005
793.10 0.6006
793.20 0.6007
793.30 0.6008
793.40 0.6009
793.50 0.601
793.60 0.6011
793.70 0.6012
793.80 0.6012
793.90 0.6013
794.00 0.6014
794.10 0.6015
794.20 0.6016
794.30 0.6017
794.40 0.6018
794.50 0.6018
794.60 0.6019
794.70 0.602
794.80 0.6021
794.90 0.6022
795.00 0.6023
795.10 0.6024
795.20 0.6024
795.30 0.6025
795.40 0.6026
795.50 0.6027
795.60 0.6028
795.70 0.6029
795.80 0.603
795.90 0.603
796.00 0.6031
796.10 0.6032
796.20 0.6033
796.30 0.6034
796.40 0.6035
796.50 0.6036
796.60 0.6036
796.70 0.6037
796.80 0.6038
796.90 0.6039
797.00 0.604
797.10 0.6041
797.20 0.6042
797.30 0.6042
797.40 0.6043
797.50 0.6044
797.60 0.6045
797.70 0.6046
797.80 0.6047
797.90 0.6047
798.00 0.6048
798.10 0.6049
798.20 0.605
798.30 0.6051
798.40 0.6052
798.50 0.6052
798.60 0.6053
798.70 0.6054
798.80 0.6055
798.90 0.6056
799.00 0.6057
799.10 0.6057
799.20 0.6058
799.30 0.6059
799.40 0.606
799.50 0.6061
799.60 0.6062
799.70 0.6062
799.80 0.6063
799.90 0.6064
800.00 0.6065
800.10 0.6065
800.20 0.6065
800.30 0.6065
800.40 0.6066
800.50 0.6066
800.60 0.6066
800.70 0.6066
800.80 0.6066
800.90 0.6066
801.00 0.6067
801.10 0.6067
801.20 0.6067
801.30 0.6067
801.40 0.6067
801.50 0.6067
801.60 0.6067
801.70 0.6068
801.80 0.6068
801.90 0.6068
802.00 0.6068
802.10 0.6068
802.20 0.6068
802.30 0.6069
802.40 0.6069
802.50 0.6069
802.60 0.6069
802.70 0.6069
802.80 0.6069
802.90 0.6069
803.00 0.607
803.10 0.607
803.20 0.607
803.30 0.607
803.40 0.607
803.50 0.607
803.60 0.607
803.70 0.6071
803.80 0.6071
803.90 0.6071
804.00 0.6071
804.10 0.6071
804.20 0.6071
804.30 0.6072
804.40 0.6072
804.50 0.6072
804.60 0.6072
804.70 0.6072
804.80 0.6072
804.90 0.6072
805.00 0.6073
805.10 0.6073
805.20 0.6073
805.30 0.6073
805.40 0.6073
805.50 0.6073
805.60 0.6073
805.70 0.6074
805.80 0.6074
805.90 0.6074
806.00 0.6074
806.10 0.6074
806.20 0.6074
806.30 0.6074
806.40 0.6075
806.50 0.6075
806.60 0.6075
806.70 0.6075
806.80 0.6075
806.90 0.6075
807.00 0.6075
807.10 0.6076
807.20 0.6076
807.30 0.6076
807.40 0.6076
807.50 0.6076
807.60 0.6076
807.70 0.6076
807.80 0.6076
807.90 0.6077
808.00 0.6077
808.10 0.6077
808.20 0.6077
808.30 0.6077
808.40 0.6077
808.50 0.6077
808.60 0.6078
808.70 0.6078
808.80 0.6078
808.90 0.6078
809.00 0.6078
809.10 0.6078
809.20 0.6078
809.30 0.6078
809.40 0.6079
809.50 0.6079
809.60 0.6079
809.70 0.6079
809.80 0.6079
809.90 0.6079
810.00 0.6079
810.10 0.6079
810.20 0.6078
810.30 0.6077
810.40 0.6076
810.50 0.6076
810.60 0.6075
810.70 0.6074
810.80 0.6073
810.90 0.6072
811.00 0.6072
811.10 0.6071
811.20 0.607
811.30 0.6069
811.40 0.6068
811.50 0.6068
811.60 0.6067
811.70 0.6066
811.80 0.6065
811.90 0.6065
812.00 0.6064
812.10 0.6063
812.20 0.6062
812.30 0.6061
812.40 0.6061
812.50 0.606
812.60 0.6059
812.70 0.6058
812.80 0.6058
812.90 0.6057
813.00 0.6056
813.10 0.6055
813.20 0.6054
813.30 0.6054
813.40 0.6053
813.50 0.6052
813.60 0.6051
813.70 0.6051
813.80 0.605
813.90 0.6049
814.00 0.6048
814.10 0.6048
814.20 0.6047
814.30 0.6046
814.40 0.6045
814.50 0.6044
814.60 0.6044
814.70 0.6043
814.80 0.6042
814.90 0.6041
815.00 0.6041
815.10 0.604
815.20 0.6039
815.30 0.6038
815.40 0.6037
815.50 0.6037
815.60 0.6036
815.70 0.6035
815.80 0.6034
815.90 0.6034
816.00 0.6033
816.10 0.6032
816.20 0.6031
816.30 0.6031
816.40 0.603
816.50 0.6029
816.60 0.6028
816.70 0.6027
816.80 0.6027
816.90 0.6026
817.00 0.6025
817.10 0.6024
817.20 0.6024
817.30 0.6023
817.40 0.6022
817.50 0.6021
817.60 0.6021
817.70 0.602
817.80 0.6019
817.90 0.6018
818.00 0.6017
818.10 0.6017
818.20 0.6016
818.30 0.6015
818.40 0.6014
818.50 0.6014
818.60 0.6013
818.70 0.6012
818.80 0.6011
818.90 0.6011
819.00 0.601
819.10 0.6009
819.20 0.6008
819.30 0.6008
819.40 0.6007
819.50 0.6006
819.60 0.6005
819.70 0.6004
819.80 0.6004
819.90 0.6003
820.00 0.6002
820.10 0.6001
820.20 0.6001
820.30 0.6
820.40 0.5999
820.50 0.5998
820.60 0.5997
820.70 0.5996
820.80 0.5995
820.90 0.5994
821.00 0.5993
821.10 0.5992
821.20 0.5991
821.30 0.599
821.40 0.5989
821.50 0.5988
821.60 0.5987
821.70 0.5986
821.80 0.5985
821.90 0.5984
822.00 0.5983
822.10 0.5982
822.20 0.5981
822.30 0.598
822.40 0.5979
822.50 0.5978
822.60 0.5977
822.70 0.5976
822.80 0.5975
822.90 0.5974
823.00 0.5973
823.10 0.5972
823.20 0.5971
823.30 0.597
823.40 0.5969
823.50 0.5968
823.60 0.5967
823.70 0.5966
823.80 0.5965
823.90 0.5964
824.00 0.5963
824.10 0.5962
824.20 0.596
824.30 0.5959
824.40 0.5958
824.50 0.5957
824.60 0.5956
824.70 0.5955
824.80 0.5954
824.90 0.5953
825.00 0.5952
825.10 0.5951
825.20 0.595
825.30 0.5949
825.40 0.5948
825.50 0.5947
825.60 0.5946
825.70 0.5945
825.80 0.5944
825.90 0.5943
826.00 0.5942
826.10 0.5941
826.20 0.594
826.30 0.5939
826.40 0.5938
826.50 0.5937
826.60 0.5936
826.70 0.5935
826.80 0.5934
826.90 0.5933
827.00 0.5932
827.10 0.5931
827.20 0.593
827.30 0.5929
827.40 0.5928
827.50 0.5927
827.60 0.5926
827.70 0.5925
827.80 0.5924
827.90 0.5923
828.00 0.5922
828.10 0.592
828.20 0.5919
828.30 0.5918
828.40 0.5917
828.50 0.5916
828.60 0.5915
828.70 0.5914
828.80 0.5913
828.90 0.5912
829.00 0.5911
829.10 0.591
829.20 0.5909
829.30 0.5908
829.40 0.5907
829.50 0.5906
829.60 0.5905
829.70 0.5904
829.80 0.5903
829.90 0.5902
830.00 0.5901
830.10 0.59
830.20 0.5899
830.30 0.5898
830.40 0.5897
830.50 0.5896
830.60 0.5895
830.70 0.5894
830.80 0.5892
830.90 0.5891
831.00 0.589
831.10 0.5889
831.20 0.5888
831.30 0.5887
831.40 0.5886
831.50 0.5885
831.60 0.5884
831.70 0.5883
831.80 0.5882
831.90 0.5881
832.00 0.588
832.10 0.5879
832.20 0.5878
832.30 0.5877
832.40 0.5876
832.50 0.5875
832.60 0.5874
832.70 0.5873
832.80 0.5872
832.90 0.5871
833.00 0.587
833.10 0.5869
833.20 0.5868
833.30 0.5867
833.40 0.5866
833.50 0.5865
833.60 0.5864
833.70 0.5863
833.80 0.5862
833.90 0.5861
834.00 0.586
834.10 0.5859
834.20 0.5858
834.30 0.5857
834.40 0.5856
834.50 0.5855
834.60 0.5853
834.70 0.5852
834.80 0.5851
834.90 0.585
835.00 0.5849
835.10 0.5848
835.20 0.5847
835.30 0.5846
835.40 0.5845
835.50 0.5844
835.60 0.5843
835.70 0.5842
835.80 0.5841
835.90 0.584
836.00 0.5839
836.10 0.5838
836.20 0.5837
836.30 0.5836
836.40 0.5835
836.50 0.5834
836.60 0.5833
836.70 0.5832
836.80 0.5831
836.90 0.583
837.00 0.5829
837.10 0.5828
837.20 0.5827
837.30 0.5826
837.40 0.5825
837.50 0.5824
837.60 0.5823
837.70 0.5822
837.80 0.5821
837.90 0.582
838.00 0.5819
838.10 0.5818
838.20 0.5817
838.30 0.5816
838.40 0.5815
838.50 0.5814
838.60 0.5812
838.70 0.5811
838.80 0.581
838.90 0.5809
839.00 0.5808
839.10 0.5807
839.20 0.5806
839.30 0.5805
839.40 0.5804
839.50 0.5803
839.60 0.5802
839.70 0.5801
839.80 0.58
839.90 0.5799
840.00 0.5798
840.10 0.5797
840.20 0.5796
840.30 0.5795
840.40 0.5794
840.50 0.5793
840.60 0.5792
840.70 0.5791
840.80 0.579
840.90 0.5789
841.00 0.5788
841.10 0.5787
841.20 0.5786
841.30 0.5785
841.40 0.5784
841.50 0.5783
841.60 0.5782
841.70 0.5781
841.80 0.5779
841.90 0.5778
842.00 0.5777
842.10 0.5776
842.20 0.5775
842.30 0.5774
842.40 0.5773
842.50 0.5772
842.60 0.5771
842.70 0.577
842.80 0.5769
842.90 0.5768
843.00 0.5767
843.10 0.5766
843.20 0.5765
843.30 0.5764
843.40 0.5763
843.50 0.5762
843.60 0.5761
843.70 0.576
843.80 0.5759
843.90 0.5758
844.00 0.5757
844.10 0.5755
844.20 0.5754
844.30 0.5753
844.40 0.5752
844.50 0.5751
844.60 0.575
844.70 0.5749
844.80 0.5748
844.90 0.5747
845.00 0.5746
845.10 0.5745
845.20 0.5744
845.30 0.5743
845.40 0.5742
845.50 0.5741
845.60 0.574
845.70 0.5739
845.80 0.5738
845.90 0.5737
846.00 0.5736
846.10 0.5735
846.20 0.5734
846.30 0.5733
846.40 0.5732
846.50 0.5731
846.60 0.573
846.70 0.5729
846.80 0.5727
846.90 0.5726
847.00 0.5725
847.10 0.5724
847.20 0.5723
847.30 0.5722
847.40 0.5721
847.50 0.572
847.60 0.5719
847.70 0.5718
847.80 0.5716
847.90 0.5715
848.00 0.5714
848.10 0.5713
848.20 0.5712
848.30 0.5711
848.40 0.571
848.50 0.5709
848.60 0.5707
848.70 0.5706
848.80 0.5705
848.90 0.5704
849.00 0.5703
849.10 0.5702
849.20 0.5701
849.30 0.57
849.40 0.5698
849.50 0.5697
849.60 0.5696
849.70 0.5695
849.80 0.5694
849.90 0.5693
850.00 0.5692
850.10 0.5691
850.20 0.569
850.30 0.5688
850.40 0.5687
850.50 0.5686
850.60 0.5685
850.70 0.5684
850.80 0.5683
850.90 0.5682
851.00 0.5681
851.10 0.568
851.20 0.5678
851.30 0.5677
851.40 0.5676
851.50 0.5675
851.60 0.5674
851.70 0.5673
851.80 0.5672
851.90 0.5671
852.00 0.567
852.10 0.5668
852.20 0.5667
852.30 0.5666
852.40 0.5665
852.50 0.5664
852.60 0.5662
852.70 0.5661
852.80 0.566
852.90 0.5659
853.00 0.5658
853.10 0.5656
853.20 0.5655
853.30 0.5654
853.40 0.5653
853.50 0.5652
853.60 0.565
853.70 0.5649
853.80 0.5648
853.90 0.5647
854.00 0.5646
854.10 0.5644
854.20 0.5643
854.30 0.5642
854.40 0.5641
854.50 0.564
854.60 0.5638
854.70 0.5637
854.80 0.5636
854.90 0.5635
855.00 0.5634
855.10 0.5632
855.20 0.5631
855.30 0.563
855.40 0.5629
855.50 0.5628
855.60 0.5626
855.70 0.5625
855.80 0.5624
855.90 0.5623
856.00 0.5622
856.10 0.562
856.20 0.5619
856.30 0.5618
856.40 0.5617
856.50 0.5616
856.60 0.5615
856.70 0.5613
856.80 0.5612
856.90 0.5611
857.00 0.561
857.10 0.5609
857.20 0.5607
857.30 0.5606
857.40 0.5605
857.50 0.5603
857.60 0.5602
857.70 0.5601
857.80 0.56
857.90 0.5598
858.00 0.5597
858.10 0.5596
858.20 0.5594
858.30 0.5593
858.40 0.5592
858.50 0.5591
858.60 0.5589
858.70 0.5588
858.80 0.5587
858.90 0.5585
859.00 0.5584
859.10 0.5583
859.20 0.5582
859.30 0.558
859.40 0.5579
859.50 0.5578
859.60 0.5577
859.70 0.5575
859.80 0.5574
859.90 0.5573
860.00 0.5571
860.10 0.557
860.20 0.5569
860.30 0.5568
860.40 0.5566
860.50 0.5565
860.60 0.5564
860.70 0.5563
860.80 0.5561
860.90 0.556
861.00 0.5559
861.10 0.5557
861.20 0.5556
861.30 0.5555
861.40 0.5554
861.50 0.5552
861.60 0.5551
861.70 0.555
861.80 0.5549
861.90 0.5547
862.00 0.5546
862.10 0.5545
862.20 0.5543
862.30 0.5542
862.40 0.5541
862.50 0.5539
862.60 0.5538
862.70 0.5537
862.80 0.5535
862.90 0.5534
863.00 0.5532
863.10 0.5531
863.20 0.553
863.30 0.5528
863.40 0.5527
863.50 0.5526
863.60 0.5524
863.70 0.5523
863.80 0.5522
863.90 0.552
864.00 0.5519
864.10 0.5518
864.20 0.5516
864.30 0.5515
864.40 0.5514
864.50 0.5512
864.60 0.5511
864.70 0.551
864.80 0.5508
864.90 0.5507
865.00 0.5505
865.10 0.5504
865.20 0.5503
865.30 0.5501
865.40 0.55
865.50 0.5499
865.60 0.5497
865.70 0.5496
865.80 0.5495
865.90 0.5493
866.00 0.5492
866.10 0.5491
866.20 0.5489
866.30 0.5488
866.40 0.5487
866.50 0.5485
866.60 0.5484
866.70 0.5483
866.80 0.5481
866.90 0.548
867.00 0.5479
867.10 0.5477
867.20 0.5475
867.30 0.5474
867.40 0.5472
867.50 0.5471
867.60 0.5469
867.70 0.5468
867.80 0.5466
867.90 0.5464
868.00 0.5463
868.10 0.5461
868.20 0.546
868.30 0.5458
868.40 0.5456
868.50 0.5455
868.60 0.5453
868.70 0.5452
868.80 0.545
868.90 0.5449
869.00 0.5447
869.10 0.5445
869.20 0.5444
869.30 0.5442
869.40 0.5441
869.50 0.5439
869.60 0.5438
869.70 0.5436
869.80 0.5434
869.90 0.5433
870.00 0.5431
870.10 0.543
870.20 0.5428
870.30 0.5426
870.40 0.5425
870.50 0.5423
870.60 0.5422
870.70 0.542
870.80 0.5419
870.90 0.5417
871.00 0.5415
871.10 0.5414
871.20 0.5412
871.30 0.5411
871.40 0.5409
871.50 0.5408
871.60 0.5406
871.70 0.5405
871.80 0.5403
871.90 0.5401
872.00 0.54
872.10 0.5398
872.20 0.5396
872.30 0.5394
872.40 0.5393
872.50 0.5391
872.60 0.5389
872.70 0.5387
872.80 0.5386
872.90 0.5384
873.00 0.5382
873.10 0.538
873.20 0.5378
873.30 0.5377
873.40 0.5375
873.50 0.5373
873.60 0.5371
873.70 0.5369
873.80 0.5368
873.90 0.5366
874.00 0.5364
874.10 0.5362
874.20 0.5361
874.30 0.5359
874.40 0.5357
874.50 0.5355
874.60 0.5353
874.70 0.5352
874.80 0.535
874.90 0.5348
875.00 0.5346
875.10 0.5345
875.20 0.5343
875.30 0.5341
875.40 0.5339
875.50 0.5337
875.60 0.5336
875.70 0.5334
875.80 0.5332
875.90 0.533
876.00 0.5329
876.10 0.5327
876.20 0.5325
876.30 0.5323
876.40 0.5322
876.50 0.532
876.60 0.5318
876.70 0.5316
876.80 0.5315
876.90 0.5313
877.00 0.5311
877.10 0.5309
877.20 0.5307
877.30 0.5305
877.40 0.5303
877.50 0.5301
877.60 0.5298
877.70 0.5296
877.80 0.5294
877.90 0.5292
878.00 0.529
878.10 0.5288
878.20 0.5286
878.30 0.5284
878.40 0.5282
878.50 0.528
878.60 0.5278
878.70 0.5275
878.80 0.5273
878.90 0.5271
879.00 0.5269
879.10 0.5267
879.20 0.5265
879.30 0.5263
879.40 0.5261
879.50 0.5259
879.60 0.5257
879.70 0.5255
879.80 0.5253
879.90 0.5251
880.00 0.5248
880.10 0.5246
880.20 0.5244
880.30 0.5242
880.40 0.524
880.50 0.5238
880.60 0.5236
880.70 0.5234
880.80 0.5232
880.90 0.523
881.00 0.5228
881.10 0.5226
881.20 0.5224
881.30 0.5222
881.40 0.522
881.50 0.5217
881.60 0.5215
881.70 0.5213
881.80 0.5211
881.90 0.5209
882.00 0.5207
882.10 0.5205
882.20 0.5202
882.30 0.52
882.40 0.5198
882.50 0.5195
882.60 0.5193
882.70 0.5191
882.80 0.5188
882.90 0.5186
883.00 0.5183
883.10 0.5181
883.20 0.5179
883.30 0.5176
883.40 0.5174
883.50 0.5172
883.60 0.5169
883.70 0.5167
883.80 0.5165
883.90 0.5162
884.00 0.516
884.10 0.5158
884.20 0.5155
884.30 0.5153
884.40 0.515
884.50 0.5148
884.60 0.5146
884.70 0.5143
884.80 0.5141
884.90 0.5139
885.00 0.5136
885.10 0.5134
885.20 0.5132
885.30 0.5129
885.40 0.5127
885.50 0.5125
885.60 0.5122
885.70 0.512
885.80 0.5118
885.90 0.5115
886.00 0.5113
886.10 0.5111
886.20 0.5108
886.30 0.5106
886.40 0.5104
886.50 0.5101
886.60 0.5099
886.70 0.5097
886.80 0.5094
886.90 0.5092
887.00 0.509
887.10 0.5087
887.20 0.5084
887.30 0.5082
887.40 0.5079
887.50 0.5077
887.60 0.5074
887.70 0.5071
887.80 0.5069
887.90 0.5066
888.00 0.5063
888.10 0.5061
888.20 0.5058
888.30 0.5056
888.40 0.5053
888.50 0.505
888.60 0.5048
888.70 0.5045
888.80 0.5043
888.90 0.504
889.00 0.5037
889.10 0.5035
889.20 0.5032
889.30 0.503
889.40 0.5027
889.50 0.5024
889.60 0.5022
889.70 0.5019
889.80 0.5017
889.90 0.5014
890.00 0.5011
890.10 0.5009
890.20 0.5006
890.30 0.5004
890.40 0.5001
890.50 0.4999
890.60 0.4996
890.70 0.4993
890.80 0.4991
890.90 0.4988
891.00 0.4986
891.10 0.4983
891.20 0.498
891.30 0.4978
891.40 0.4975
891.50 0.4973
891.60 0.497
891.70 0.4968
891.80 0.4965
891.90 0.4962
892.00 0.496
892.10 0.4957
892.20 0.4954
892.30 0.4951
892.40 0.4948
892.50 0.4945
892.60 0.4942
892.70 0.4939
892.80 0.4936
892.90 0.4933
893.00 0.493
893.10 0.4927
893.20 0.4924
893.30 0.4921
893.40 0.4919
893.50 0.4916
893.60 0.4913
893.70 0.491
893.80 0.4907
893.90 0.4904
894.00 0.4901
894.10 0.4898
894.20 0.4895
894.30 0.4892
894.40 0.4889
894.50 0.4886
894.60 0.4883
894.70 0.488
894.80 0.4877
894.90 0.4874
895.00 0.4872
895.10 0.4869
895.20 0.4866
895.30 0.4863
895.40 0.486
895.50 0.4857
895.60 0.4854
895.70 0.4851
895.80 0.4848
895.90 0.4845
896.00 0.4842
896.10 0.4839
896.20 0.4837
896.30 0.4834
896.40 0.4831
896.50 0.4828
896.60 0.4825
896.70 0.4822
896.80 0.4819
896.90 0.4816
897.00 0.4813
897.10 0.481
897.20 0.4807
897.30 0.4804
897.40 0.4801
897.50 0.4798
897.60 0.4795
897.70 0.4792
897.80 0.4789
897.90 0.4786
898.00 0.4783
898.10 0.478
898.20 0.4777
898.30 0.4774
898.40 0.4771
898.50 0.4767
898.60 0.4764
898.70 0.4761
898.80 0.4758
898.90 0.4755
899.00 0.4752
899.10 0.4749
899.20 0.4746
899.30 0.4743
899.40 0.474
899.50 0.4737
899.60 0.4734
899.70 0.4731
899.80 0.4728
899.90 0.4725
900.00 0.4722
900.10 0.4719
900.20 0.4716
900.30 0.4713
900.40 0.471
900.50 0.4707
900.60 0.4704
900.70 0.4701
900.80 0.4698
900.90 0.4695
901.00 0.4692
901.10 0.4689
901.20 0.4686
901.30 0.4683
901.40 0.468
901.50 0.4677
901.60 0.4674
901.70 0.4671
901.80 0.4668
901.90 0.4665
902.00 0.4662
902.10 0.4659
902.20 0.4655
902.30 0.4652
902.40 0.4649
902.50 0.4646
902.60 0.4643
902.70 0.464
902.80 0.4637
902.90 0.4634
903.00 0.4631
903.10 0.4628
903.20 0.4625
903.30 0.4622
903.40 0.4619
903.50 0.4616
903.60 0.4613
903.70 0.461
903.80 0.4607
903.90 0.4604
904.00 0.4601
904.10 0.4597
904.20 0.4594
904.30 0.4591
904.40 0.4588
904.50 0.4585
904.60 0.4582
904.70 0.4579
904.80 0.4576
904.90 0.4573
905.00 0.457
905.10 0.4567
905.20 0.4564
905.30 0.4561
905.40 0.4558
905.50 0.4555
905.60 0.4552
905.70 0.4549
905.80 0.4546
905.90 0.4543
906.00 0.454
906.10 0.4537
906.20 0.4534
906.30 0.4531
906.40 0.4528
906.50 0.4525
906.60 0.4522
906.70 0.4519
906.80 0.4516
906.90 0.4513
907.00 0.451
907.10 0.4506
907.20 0.4503
907.30 0.45
907.40 0.4496
907.50 0.4493
907.60 0.4489
907.70 0.4486
907.80 0.4483
907.90 0.4479
908.00 0.4476
908.10 0.4473
908.20 0.4469
908.30 0.4466
908.40 0.4462
908.50 0.4459
908.60 0.4456
908.70 0.4452
908.80 0.4449
908.90 0.4446
909.00 0.4442
909.10 0.4439
909.20 0.4435
909.30 0.4432
909.40 0.4429
909.50 0.4425
909.60 0.4422
909.70 0.4419
909.80 0.4415
909.90 0.4412
910.00 0.4409
910.10 0.4405
910.20 0.4402
910.30 0.4398
910.40 0.4395
910.50 0.4392
910.60 0.4388
910.70 0.4385
910.80 0.4382
910.90 0.4378
911.00 0.4375
911.10 0.4372
911.20 0.4368
911.30 0.4365
911.40 0.4362
911.50 0.4358
911.60 0.4355
911.70 0.4352
911.80 0.4348
911.90 0.4345
912.00 0.4342
912.10 0.4338
912.20 0.4334
912.30 0.4331
912.40 0.4327
912.50 0.4323
912.60 0.432
912.70 0.4316
912.80 0.4313
912.90 0.4309
913.00 0.4305
913.10 0.4302
913.20 0.4298
913.30 0.4294
913.40 0.4291
913.50 0.4287
913.60 0.4283
913.70 0.428
913.80 0.4276
913.90 0.4273
914.00 0.4269
914.10 0.4265
914.20 0.4262
914.30 0.4258
914.40 0.4254
914.50 0.4251
914.60 0.4247
914.70 0.4244
914.80 0.424
914.90 0.4236
915.00 0.4233
915.10 0.4229
915.20 0.4226
915.30 0.4222
915.40 0.4218
915.50 0.4215
915.60 0.4211
915.70 0.4208
915.80 0.4204
915.90 0.42
916.00 0.4197
916.10 0.4193
916.20 0.419
916.30 0.4186
916.40 0.4182
916.50 0.4179
916.60 0.4175
916.70 0.4172
916.80 0.4168
916.90 0.4164
917.00 0.4161
917.10 0.4157
917.20 0.4153
917.30 0.415
917.40 0.4146
917.50 0.4142
917.60 0.4139
917.70 0.4135
917.80 0.4131
917.90 0.4128
918.00 0.4124
918.10 0.412
918.20 0.4117
918.30 0.4113
918.40 0.4109
918.50 0.4106
918.60 0.4102
918.70 0.4098
918.80 0.4095
918.90 0.4091
919.00 0.4087
919.10 0.4084
919.20 0.408
919.30 0.4076
919.40 0.4073
919.50 0.4069
919.60 0.4065
919.70 0.4062
919.80 0.4058
919.90 0.4054
920.00 0.4051
920.10 0.4047
920.20 0.4043
920.30 0.404
920.40 0.4036
920.50 0.4032
920.60 0.4029
920.70 0.4025
920.80 0.4022
920.90 0.4018
921.00 0.4014
921.10 0.4011
921.20 0.4007
921.30 0.4003
921.40 0.4
921.50 0.3996
921.60 0.3992
921.70 0.3989
921.80 0.3985
921.90 0.3982
922.00 0.3978
922.10 0.3974
922.20 0.397
922.30 0.3967
922.40 0.3963
922.50 0.3959
922.60 0.3955
922.70 0.3952
922.80 0.3948
922.90 0.3944
923.00 0.394
923.10 0.3937
923.20 0.3933
923.30 0.3929
923.40 0.3926
923.50 0.3922
923.60 0.3918
923.70 0.3914
923.80 0.3911
923.90 0.3907
924.00 0.3903
924.10 0.3899
924.20 0.3896
924.30 0.3892
924.40 0.3888
924.50 0.3885
924.60 0.3881
924.70 0.3877
924.80 0.3873
924.90 0.387
925.00 0.3866
925.10 0.3862
925.20 0.3859
925.30 0.3855
925.40 0.3851
925.50 0.3847
925.60 0.3844
925.70 0.384
925.80 0.3836
925.90 0.3833
926.00 0.3829
926.10 0.3825
926.20 0.3822
926.30 0.3818
926.40 0.3814
926.50 0.381
926.60 0.3807
926.70 0.3803
926.80 0.3799
926.90 0.3796
927.00 0.3792
927.10 0.3788
927.20 0.3784
927.30 0.3781
927.40 0.3777
927.50 0.3773
927.60 0.3769
927.70 0.3765
927.80 0.3762
927.90 0.3758
928.00 0.3754
928.10 0.375
928.20 0.3746
928.30 0.3743
928.40 0.3739
928.50 0.3735
928.60 0.3731
928.70 0.3728
928.80 0.3724
928.90 0.372
929.00 0.3716
929.10 0.3712
929.20 0.3709
929.30 0.3705
929.40 0.3701
929.50 0.3697
929.60 0.3694
929.70 0.369
929.80 0.3686
929.90 0.3682
930.00 0.3678
930.10 0.3675
930.20 0.3671
930.30 0.3667
930.40 0.3663
930.50 0.366
930.60 0.3656
930.70 0.3652
930.80 0.3648
930.90 0.3645
931.00 0.3641
931.10 0.3637
931.20 0.3633
931.30 0.363
931.40 0.3626
931.50 0.3622
931.60 0.3618
931.70 0.3615
931.80 0.3611
931.90 0.3607
932.00 0.3603
932.10 0.36
932.20 0.3596
932.30 0.3592
932.40 0.3588
932.50 0.3585
932.60 0.3581
932.70 0.3577
932.80 0.3573
932.90 0.357
933.00 0.3566
933.10 0.3562
933.20 0.3558
933.30 0.3555
933.40 0.3551
933.50 0.3547
933.60 0.3543
933.70 0.354
933.80 0.3536
933.90 0.3532
934.00 0.3528
934.10 0.3525
934.20 0.3521
934.30 0.3517
934.40 0.3513
934.50 0.351
934.60 0.3506
934.70 0.3502
934.80 0.3498
934.90 0.3495
935.00 0.3491
935.10 0.3487
935.20 0.3483
935.30 0.348
935.40 0.3476
935.50 0.3472
935.60 0.3468
935.70 0.3465
935.80 0.3461
935.90 0.3457
936.00 0.3453
936.10 0.345
936.20 0.3446
936.30 0.3442
936.40 0.3439
936.50 0.3435
936.60 0.3431
936.70 0.3427
936.80 0.3424
936.90 0.342
937.00 0.3416
937.10 0.3412
937.20 0.3409
937.30 0.3405
937.40 0.3401
937.50 0.3398
937.60 0.3394
937.70 0.339
937.80 0.3386
937.90 0.3383
938.00 0.3379
938.10 0.3375
938.20 0.3372
938.30 0.3368
938.40 0.3364
938.50 0.336
938.60 0.3357
938.70 0.3353
938.80 0.3349
938.90 0.3345
939.00 0.3341
939.10 0.3338
939.20 0.3334
939.30 0.333
939.40 0.3326
939.50 0.3323
939.60 0.3319
939.70 0.3315
939.80 0.3311
939.90 0.3308
940.00 0.3304
940.10 0.33
940.20 0.3296
940.30 0.3293
940.40 0.3289
940.50 0.3285
940.60 0.3282
940.70 0.3278
940.80 0.3274
940.90 0.3271
941.00 0.3267
941.10 0.3263
941.20 0.3259
941.30 0.3256
941.40 0.3252
941.50 0.3248
941.60 0.3245
941.70 0.3241
941.80 0.3237
941.90 0.3234
942.00 0.323
942.10 0.3226
942.20 0.3223
942.30 0.3219
942.40 0.3215
942.50 0.3212
942.60 0.3208
942.70 0.3204
942.80 0.3201
942.90 0.3197
943.00 0.3193
943.10 0.319
943.20 0.3186
943.30 0.3182
943.40 0.3179
943.50 0.3175
943.60 0.3171
943.70 0.3168
943.80 0.3164
943.90 0.316
944.00 0.3157
944.10 0.3153
944.20 0.3149
944.30 0.3146
944.40 0.3142
944.50 0.3139
944.60 0.3135
944.70 0.3131
944.80 0.3128
944.90 0.3124
945.00 0.312
945.10 0.3117
945.20 0.3113
945.30 0.311
945.40 0.3106
945.50 0.3102
945.60 0.3099
945.70 0.3095
945.80 0.3091
945.90 0.3088
946.00 0.3084
946.10 0.3081
946.20 0.3077
946.30 0.3073
946.40 0.307
946.50 0.3066
946.60 0.3063
946.70 0.3059
946.80 0.3055
946.90 0.3052
947.00 0.3048
947.10 0.3045
947.20 0.3041
947.30 0.3037
947.40 0.3034
947.50 0.303
947.60 0.3027
947.70 0.3023
947.80 0.3019
947.90 0.3016
948.00 0.3012
948.10 0.3009
948.20 0.3005
948.30 0.3001
948.40 0.2998
948.50 0.2994
948.60 0.2991
948.70 0.2987
948.80 0.2983
948.90 0.298
949.00 0.2976
949.10 0.2973
949.20 0.2969
949.30 0.2965
949.40 0.2962
949.50 0.2958
949.60 0.2955
949.70 0.2951
949.80 0.2948
949.90 0.2944
950.00 0.2941
950.10 0.2937
950.20 0.2934
950.30 0.293
950.40 0.2927
950.50 0.2923
950.60 0.292
950.70 0.2916
950.80 0.2913
950.90 0.2909
951.00 0.2906
951.10 0.2902
951.20 0.2899
951.30 0.2895
951.40 0.2892
951.50 0.2888
951.60 0.2885
951.70 0.2881
951.80 0.2878
951.90 0.2874
952.00 0.2871
952.10 0.2867
952.20 0.2864
952.30 0.286
952.40 0.2857
952.50 0.2853
952.60 0.285
952.70 0.2846
952.80 0.2843
952.90 0.2839
953.00 0.2836
953.10 0.2832
953.20 0.2829
953.30 0.2825
953.40 0.2822
953.50 0.2818
953.60 0.2815
953.70 0.2812
953.80 0.2808
953.90 0.2805
954.00 0.2801
954.10 0.2798
954.20 0.2794
954.30 0.2791
954.40 0.2788
954.50 0.2784
954.60 0.2781
954.70 0.2777
954.80 0.2774
954.90 0.277
955.00 0.2767
955.10 0.2763
955.20 0.276
955.30 0.2757
955.40 0.2753
955.50 0.275
955.60 0.2746
955.70 0.2743
955.80 0.274
955.90 0.2736
956.00 0.2733
956.10 0.2729
956.20 0.2726
956.30 0.2722
956.40 0.2719
956.50 0.2715
956.60 0.2712
956.70 0.2708
956.80 0.2705
956.90 0.2701
957.00 0.2698
957.10 0.2695
957.20 0.2691
957.30 0.2688
957.40 0.2684
957.50 0.2681
957.60 0.2678
957.70 0.2674
957.80 0.2671
957.90 0.2668
958.00 0.2664
958.10 0.2661
958.20 0.2658
958.30 0.2654
958.40 0.2651
958.50 0.2648
958.60 0.2644
958.70 0.2641
958.80 0.2638
958.90 0.2634
959.00 0.2631
959.10 0.2628
959.20 0.2624
959.30 0.2621
959.40 0.2618
959.50 0.2615
959.60 0.2611
959.70 0.2608
959.80 0.2605
959.90 0.2601
960.00 0.2598
960.10 0.2595
960.20 0.2592
960.30 0.2588
960.40 0.2585
960.50 0.2582
960.60 0.2578
960.70 0.2575
960.80 0.2572
960.90 0.2569
961.00 0.2565
961.10 0.2562
961.20 0.2559
961.30 0.2556
961.40 0.2552
961.50 0.2549
961.60 0.2546
961.70 0.2543
961.80 0.254
961.90 0.2536
962.00 0.2533
962.10 0.253
962.20 0.2527
962.30 0.2524
962.40 0.252
962.50 0.2517
962.60 0.2514
962.70 0.2511
962.80 0.2507
962.90 0.2504
963.00 0.2501
963.10 0.2498
963.20 0.2495
963.30 0.2491
963.40 0.2488
963.50 0.2485
963.60 0.2482
963.70 0.2479
963.80 0.2476
963.90 0.2472
964.00 0.2469
964.10 0.2466
964.20 0.2463
964.30 0.246
964.40 0.2457
964.50 0.2453
964.60 0.245
964.70 0.2447
964.80 0.2444
964.90 0.2441
965.00 0.2437
965.10 0.2434
965.20 0.2431
965.30 0.2428
965.40 0.2425
965.50 0.2421
965.60 0.2418
965.70 0.2415
965.80 0.2412
965.90 0.2409
966.00 0.2405
966.10 0.2402
966.20 0.2399
966.30 0.2396
966.40 0.2393
966.50 0.239
966.60 0.2387
966.70 0.2384
966.80 0.238
966.90 0.2377
967.00 0.2374
967.10 0.2371
967.20 0.2368
967.30 0.2365
967.40 0.2362
967.50 0.2359
967.60 0.2356
967.70 0.2353
967.80 0.235
967.90 0.2347
968.00 0.2344
968.10 0.2341
968.20 0.2338
968.30 0.2335
968.40 0.2332
968.50 0.2329
968.60 0.2326
968.70 0.2323
968.80 0.232
968.90 0.2317
969.00 0.2314
969.10 0.2311
969.20 0.2308
969.30 0.2305
969.40 0.2302
969.50 0.2299
969.60 0.2296
969.70 0.2293
969.80 0.229
969.90 0.2287
970.00 0.2284
970.10 0.2281
970.20 0.2278
970.30 0.2275
970.40 0.2272
970.50 0.2269
970.60 0.2266
970.70 0.2264
970.80 0.2261
970.90 0.2258
971.00 0.2255
971.10 0.2252
971.20 0.2249
971.30 0.2246
971.40 0.2243
971.50 0.224
971.60 0.2237
971.70 0.2234
971.80 0.2232
971.90 0.2229
972.00 0.2226
972.10 0.2223
972.20 0.222
972.30 0.2217
972.40 0.2214
972.50 0.2212
972.60 0.2209
972.70 0.2206
972.80 0.2203
972.90 0.22
973.00 0.2197
973.10 0.2195
973.20 0.2192
973.30 0.2189
973.40 0.2186
973.50 0.2183
973.60 0.218
973.70 0.2178
973.80 0.2175
973.90 0.2172
974.00 0.2169
974.10 0.2166
974.20 0.2163
974.30 0.2161
974.40 0.2158
974.50 0.2155
974.60 0.2152
974.70 0.2149
974.80 0.2147
974.90 0.2144
975.00 0.2141
975.10 0.2138
975.20 0.2135
975.30 0.2133
975.40 0.213
975.50 0.2127
975.60 0.2124
975.70 0.2122
975.80 0.2119
975.90 0.2116
976.00 0.2113
976.10 0.211
976.20 0.2108
976.30 0.2105
976.40 0.2102
976.50 0.2099
976.60 0.2097
976.70 0.2094
976.80 0.2091
976.90 0.2088
977.00 0.2086
977.10 0.2083
977.20 0.208
977.30 0.2078
977.40 0.2075
977.50 0.2072
977.60 0.207
977.70 0.2067
977.80 0.2065
977.90 0.2062
978.00 0.2059
978.10 0.2057
978.20 0.2054
978.30 0.2051
978.40 0.2049
978.50 0.2046
978.60 0.2044
978.70 0.2041
978.80 0.2038
978.90 0.2036
979.00 0.2033
979.10 0.2031
979.20 0.2028
979.30 0.2025
979.40 0.2023
979.50 0.202
979.60 0.2018
979.70 0.2015
979.80 0.2012
979.90 0.201
980.00 0.2007
980.10 0.2005
980.20 0.2002
980.30 0.1999
980.40 0.1997
980.50 0.1994
980.60 0.1992
980.70 0.1989
980.80 0.1986
980.90 0.1984
981.00 0.1981
981.10 0.1979
981.20 0.1976
981.30 0.1973
981.40 0.1971
981.50 0.1968
981.60 0.1966
981.70 0.1963
981.80 0.1961
981.90 0.1958
982.00 0.1955
982.10 0.1953
982.20 0.195
982.30 0.1948
982.40 0.1945
982.50 0.1943
982.60 0.1941
982.70 0.1938
982.80 0.1936
982.90 0.1933
983.00 0.1931
983.10 0.1928
983.20 0.1926
983.30 0.1923
983.40 0.1921
983.50 0.1918
983.60 0.1916
983.70 0.1913
983.80 0.1911
983.90 0.1908
984.00 0.1906
984.10 0.1904
984.20 0.1901
984.30 0.1899
984.40 0.1896
984.50 0.1894
984.60 0.1891
984.70 0.1889
984.80 0.1887
984.90 0.1884
985.00 0.1882
985.10 0.188
985.20 0.1877
985.30 0.1875
985.40 0.1873
985.50 0.1871
985.60 0.1868
985.70 0.1866
985.80 0.1864
985.90 0.1861
986.00 0.1859
986.10 0.1857
986.20 0.1855
986.30 0.1852
986.40 0.185
986.50 0.1848
986.60 0.1845
986.70 0.1843
986.80 0.1841
986.90 0.1839
987.00 0.1836
987.10 0.1834
987.20 0.1831
987.30 0.1829
987.40 0.1827
987.50 0.1824
987.60 0.1822
987.70 0.182
987.80 0.1817
987.90 0.1815
988.00 0.1812
988.10 0.181
988.20 0.1808
988.30 0.1805
988.40 0.1803
988.50 0.1801
988.60 0.1798
988.70 0.1796
988.80 0.1793
988.90 0.1791
989.00 0.1789
989.10 0.1786
989.20 0.1784
989.30 0.1782
989.40 0.1779
989.50 0.1777
989.60 0.1775
989.70 0.1772
989.80 0.177
989.90 0.1768
990.00 0.1765
990.10 0.1763
990.20 0.1761
990.30 0.1758
990.40 0.1756
990.50 0.1754
990.60 0.1751
990.70 0.1749
990.80 0.1746
990.90 0.1744
991.00 0.1742
991.10 0.1739
991.20 0.1737
991.30 0.1735
991.40 0.1732
991.50 0.173
991.60 0.1728
991.70 0.1725
991.80 0.1723
991.90 0.1721
992.00 0.1718
992.10 0.1716
992.20 0.1714
992.30 0.1711
992.40 0.1709
992.50 0.1707
992.60 0.1704
992.70 0.1702
992.80 0.17
992.90 0.1698
993.00 0.1695
993.10 0.1693
993.20 0.1691
993.30 0.1688
993.40 0.1686
993.50 0.1684
993.60 0.1681
993.70 0.1679
993.80 0.1677
993.90 0.1674
994.00 0.1672
994.10 0.167
994.20 0.1668
994.30 0.1665
994.40 0.1663
994.50 0.1661
994.60 0.1658
994.70 0.1656
994.80 0.1653
994.90 0.165
995.00 0.1647
995.10 0.1644
995.20 0.1642
995.30 0.1639
995.40 0.1636
995.50 0.1633
995.60 0.163
995.70 0.1628
995.80 0.1626
995.90 0.1623
996.00 0.1621
996.10 0.1619
996.20 0.1617
996.30 0.1615
996.40 0.1612
996.50 0.161
996.60 0.1608
996.70 0.1606
996.80 0.1603
996.90 0.1601
997.00 0.1599
997.10 0.1597
997.20 0.1595
997.30 0.1593
997.40 0.159
997.50 0.1588
997.60 0.1586
997.70 0.1584
997.80 0.1582
997.90 0.158
998.00 0.1578
998.10 0.1576
998.20 0.1573
998.30 0.1571
998.40 0.1569
998.50 0.1567
998.60 0.1565
998.70 0.1563
998.80 0.1561
998.90 0.1559
999.00 0.1557
999.10 0.1555
999.20 0.1552
999.30 0.155
999.40 0.1548
999.50 0.1546
999.60 0.1544
999.70 0.1542
999.80 0.154
999.90 0.1538
1000.00 0.1536
1000.10 0.1534
1000.20 0.1532
1000.30 0.153
1000.40 0.1528
1000.50 0.1526
1000.60 0.1524
1000.70 0.1522
1000.80 0.152
1000.90 0.1518
1001.00 0.1516
1001.10 0.1514
1001.20 0.1512
1001.30 0.151
1001.40 0.1508
1001.50 0.1506
1001.60 0.1504
1001.70 0.1502
1001.80 0.15
1001.90 0.1498
1002.00 0.1496
1002.10 0.1494
1002.20 0.1492
1002.30 0.149
1002.40 0.1489
1002.50 0.1487
1002.60 0.1485
1002.70 0.1483
1002.80 0.1481
1002.90 0.1479
1003.00 0.1477
1003.10 0.1475
1003.20 0.1473
1003.30 0.1471
1003.40 0.147
1003.50 0.1468
1003.60 0.1466
1003.70 0.1464
1003.80 0.1462
1003.90 0.146
1004.00 0.1458
1004.10 0.1457
1004.20 0.1455
1004.30 0.1453
1004.40 0.1451
1004.50 0.1449
1004.60 0.1447
1004.70 0.1446
1004.80 0.1444
1004.90 0.1441
1005.00 0.1439
1005.10 0.1437
1005.20 0.1435
1005.30 0.1433
1005.40 0.1432
1005.50 0.143
1005.60 0.1428
1005.70 0.1426
1005.80 0.1425
1005.90 0.1423
1006.00 0.1421
1006.10 0.1419
1006.20 0.1418
1006.30 0.1416
1006.40 0.1414
1006.50 0.1412
1006.60 0.1411
1006.70 0.1409
1006.80 0.1407
1006.90 0.1406
1007.00 0.1404
1007.10 0.1402
1007.20 0.14
1007.30 0.1399
1007.40 0.1397
1007.50 0.1395
1007.60 0.1394
1007.70 0.1392
1007.80 0.1391
1007.90 0.1389
1008.00 0.1387
1008.10 0.1386
1008.20 0.1384
1008.30 0.1382
1008.40 0.1381
1008.50 0.1379
1008.60 0.1378
1008.70 0.1376
1008.80 0.1374
1008.90 0.1373
1009.00 0.1371
1009.10 0.137
1009.20 0.1368
1009.30 0.1366
1009.40 0.1365
1009.50 0.1363
1009.60 0.1361
1009.70 0.136
1009.80 0.1358
1009.90 0.1357
1010.00 0.1355
1010.10 0.1354
1010.20 0.1352
1010.30 0.1351
1010.40 0.1349
1010.50 0.1348
1010.60 0.1346
1010.70 0.1345
1010.80 0.1343
1010.90 0.1342
1011.00 0.134
1011.10 0.1339
1011.20 0.1337
1011.30 0.1336
1011.40 0.1334
1011.50 0.1333
1011.60 0.1331
1011.70 0.133
1011.80 0.1328
1011.90 0.1327
1012.00 0.1325
1012.10 0.1324
1012.20 0.1322
1012.30 0.1321
1012.40 0.132
1012.50 0.1318
1012.60 0.1317
1012.70 0.1315
1012.80 0.1314
1012.90 0.1313
1013.00 0.1311
1013.10 0.131
1013.20 0.1308
1013.30 0.1307
1013.40 0.1306
1013.50 0.1304
1013.60 0.1303
1013.70 0.1301
1013.80 0.13
1013.90 0.1299
1014.00 0.1297
1014.10 0.1296
1014.20 0.1295
1014.30 0.1293
1014.40 0.1292
1014.50 0.129
1014.60 0.1289
1014.70 0.1288
1014.80 0.1287
1014.90 0.1286
1015.00 0.1284
1015.10 0.1283
1015.20 0.1282
1015.30 0.1281
1015.40 0.128
1015.50 0.1279
1015.60 0.1277
1015.70 0.1276
1015.80 0.1275
1015.90 0.1274
1016.00 0.1273
1016.10 0.1272
1016.20 0.127
1016.30 0.1269
1016.40 0.1268
1016.50 0.1267
1016.60 0.1266
1016.70 0.1265
1016.80 0.1263
1016.90 0.1262
1017.00 0.1261
1017.10 0.1259
1017.20 0.1258
1017.30 0.1257
1017.40 0.1256
1017.50 0.1254
1017.60 0.1253
1017.70 0.1252
1017.80 0.1251
1017.90 0.1249
1018.00 0.1248
1018.10 0.1247
1018.20 0.1246
1018.30 0.1244
1018.40 0.1243
1018.50 0.1242
1018.60 0.1241
1018.70 0.1239
1018.80 0.1238
1018.90 0.1237
1019.00 0.1236
1019.10 0.1235
1019.20 0.1233
1019.30 0.1232
1019.40 0.1231
1019.50 0.123
1019.60 0.1229
1019.70 0.1227
1019.80 0.1226
1019.90 0.1225
1020.00 0.1224
1020.10 0.1222
1020.20 0.1221
1020.30 0.122
1020.40 0.1219
1020.50 0.1218
1020.60 0.1216
1020.70 0.1215
1020.80 0.1214
1020.90 0.1213
1021.00 0.1212
1021.10 0.1211
1021.20 0.1209
1021.30 0.1208
1021.40 0.1207
1021.50 0.1206
1021.60 0.1205
1021.70 0.1203
1021.80 0.1202
1021.90 0.1201
1022.00 0.12
1022.10 0.1199
1022.20 0.1198
1022.30 0.1196
1022.40 0.1195
1022.50 0.1194
1022.60 0.1193
1022.70 0.1192
1022.80 0.1191
1022.90 0.119
1023.00 0.1188
1023.10 0.1187
1023.20 0.1186
1023.30 0.1185
1023.40 0.1184
1023.50 0.1183
1023.60 0.1182
1023.70 0.118
1023.80 0.1179
1023.90 0.1178
1024.00 0.1177
1024.10 0.1176
1024.20 0.1175
1024.30 0.1174
1024.40 0.1173
1024.50 0.1171
1024.60 0.117
1024.70 0.1169
1024.80 0.1168
1024.90 0.1167
1025.00 0.1166
1025.10 0.1165
1025.20 0.1164
1025.30 0.1162
1025.40 0.1161
1025.50 0.116
1025.60 0.1159
1025.70 0.1158
1025.80 0.1157
1025.90 0.1156
1026.00 0.1155
1026.10 0.1154
1026.20 0.1152
1026.30 0.1151
1026.40 0.115
1026.50 0.1149
1026.60 0.1148
1026.70 0.1147
1026.80 0.1146
1026.90 0.1145
1027.00 0.1144
1027.10 0.1143
1027.20 0.1142
1027.30 0.1141
1027.40 0.1139
1027.50 0.1138
1027.60 0.1137
1027.70 0.1136
1027.80 0.1135
1027.90 0.1134
1028.00 0.1133
1028.10 0.1132
1028.20 0.1131
1028.30 0.113
1028.40 0.1129
1028.50 0.1128
1028.60 0.1127
1028.70 0.1126
1028.80 0.1125
1028.90 0.1124
1029.00 0.1123
1029.10 0.1122
1029.20 0.1121
1029.30 0.112
1029.40 0.1119
1029.50 0.1118
1029.60 0.1117
1029.70 0.1116
1029.80 0.1115
1029.90 0.1114
1030.00 0.1113
1030.10 0.1112
1030.20 0.1111
1030.30 0.111
1030.40 0.1109
1030.50 0.1108
1030.60 0.1107
1030.70 0.1106
1030.80 0.1105
1030.90 0.1104
1031.00 0.1103
1031.10 0.1102
1031.20 0.1101
1031.30 0.11
1031.40 0.1099
1031.50 0.1098
1031.60 0.1097
1031.70 0.1096
1031.80 0.1095
1031.90 0.1094
1032.00 0.1093
1032.10 0.1092
1032.20 0.1091
1032.30 0.109
1032.40 0.1089
1032.50 0.1088
1032.60 0.1087
1032.70 0.1086
1032.80 0.1085
1032.90 0.1084
1033.00 0.1084
1033.10 0.1083
1033.20 0.1082
1033.30 0.1081
1033.40 0.108
1033.50 0.1079
1033.60 0.1078
1033.70 0.1077
1033.80 0.1076
1033.90 0.1075
1034.00 0.1074
1034.10 0.1073
1034.20 0.1072
1034.30 0.1071
1034.40 0.1071
1034.50 0.107
1034.60 0.1069
1034.70 0.1068
1034.80 0.1067
1034.90 0.1066
1035.00 0.1065
1035.10 0.1064
1035.20 0.1063
1035.30 0.1062
1035.40 0.1061
1035.50 0.106
1035.60 0.1059
1035.70 0.1059
1035.80 0.1058
1035.90 0.1057
1036.00 0.1056
1036.10 0.1055
1036.20 0.1054
1036.30 0.1053
1036.40 0.1052
1036.50 0.1051
1036.60 0.105
1036.70 0.1049
1036.80 0.1048
1036.90 0.1048
1037.00 0.1047
1037.10 0.1046
1037.20 0.1045
1037.30 0.1044
1037.40 0.1043
1037.50 0.1042
1037.60 0.1042
1037.70 0.1041
1037.80 0.104
1037.90 0.1039
1038.00 0.1038
1038.10 0.1038
1038.20 0.1037
1038.30 0.1036
1038.40 0.1035
1038.50 0.1034
1038.60 0.1033
1038.70 0.1033
1038.80 0.1032
1038.90 0.1031
1039.00 0.103
1039.10 0.1029
1039.20 0.1029
1039.30 0.1028
1039.40 0.1027
1039.50 0.1026
1039.60 0.1025
1039.70 0.1025
1039.80 0.1024
1039.90 0.1023
1040.00 0.1022
1040.10 0.1021
1040.20 0.102
1040.30 0.102
1040.40 0.1019
1040.50 0.1018
1040.60 0.1017
1040.70 0.1016
1040.80 0.1016
1040.90 0.1015
1041.00 0.1014
1041.10 0.1013
1041.20 0.1012
1041.30 0.1012
1041.40 0.1011
1041.50 0.101
1041.60 0.1009
1041.70 0.1008
1041.80 0.1007
1041.90 0.1007
1042.00 0.1006
1042.10 0.1005
1042.20 0.1004
1042.30 0.1004
1042.40 0.1003
1042.50 0.1002
1042.60 0.1002
1042.70 0.1001
1042.80 0.1
1042.90 0.09994
1043.00 0.09987
1043.10 0.09979
1043.20 0.09972
1043.30 0.09965
1043.40 0.09958
1043.50 0.09951
1043.60 0.09943
1043.70 0.09936
1043.80 0.09929
1043.90 0.09922
1044.00 0.09915
1044.10 0.09908
1044.20 0.099
1044.30 0.09893
1044.40 0.09886
1044.50 0.09879
1044.60 0.09872
1044.70 0.09865
1044.80 0.09858
1044.90 0.0985
1045.00 0.09843
1045.10 0.09836
1045.20 0.09829
1045.30 0.09822
1045.40 0.09815
1045.50 0.09808
1045.60 0.098
1045.70 0.09793
1045.80 0.09786
1045.90 0.09779
1046.00 0.09772
1046.10 0.09765
1046.20 0.09758
1046.30 0.09751
1046.40 0.09744
1046.50 0.09736
1046.60 0.09729
1046.70 0.09722
1046.80 0.09715
1046.90 0.09708
1047.00 0.09701
1047.10 0.09695
1047.20 0.09688
1047.30 0.09682
1047.40 0.09676
1047.50 0.0967
1047.60 0.09663
1047.70 0.09657
1047.80 0.09651
1047.90 0.09645
1048.00 0.09638
1048.10 0.09632
1048.20 0.09626
1048.30 0.0962
1048.40 0.09613
1048.50 0.09607
1048.60 0.09601
1048.70 0.09595
1048.80 0.09588
1048.90 0.09582
1049.00 0.09576
1049.10 0.0957
1049.20 0.09564
1049.30 0.09557
1049.40 0.09551
1049.50 0.09545
1049.60 0.09539
1049.70 0.09532
1049.80 0.09526
1049.90 0.0952
1050.00 0.09514
1050.10 0.09508
1050.20 0.09501
1050.30 0.09495
1050.40 0.09489
1050.50 0.09483
1050.60 0.09477
1050.70 0.0947
1050.80 0.09464
1050.90 0.09458
1051.00 0.09452
1051.10 0.09446
1051.20 0.09439
1051.30 0.09433
1051.40 0.09427
1051.50 0.09421
1051.60 0.09415
1051.70 0.09409
1051.80 0.09402
1051.90 0.09396
1052.00 0.0939
1052.10 0.09385
1052.20 0.09379
1052.30 0.09374
1052.40 0.09368
1052.50 0.09363
1052.60 0.09357
1052.70 0.09352
1052.80 0.09346
1052.90 0.09341
1053.00 0.09335
1053.10 0.0933
1053.20 0.09324
1053.30 0.09319
1053.40 0.09313
1053.50 0.09308
1053.60 0.09302
1053.70 0.09297
1053.80 0.09291
1053.90 0.09286
1054.00 0.0928
1054.10 0.09275
1054.20 0.09269
1054.30 0.09264
1054.40 0.09258
1054.50 0.09253
1054.60 0.09247
1054.70 0.09242
1054.80 0.09237
1054.90 0.09231
1055.00 0.09226
1055.10 0.0922
1055.20 0.09215
1055.30 0.09209
1055.40 0.09204
1055.50 0.09198
1055.60 0.09193
1055.70 0.09188
1055.80 0.09182
1055.90 0.09177
1056.00 0.09171
1056.10 0.09166
1056.20 0.0916
1056.30 0.09155
1056.40 0.09149
1056.50 0.09144
1056.60 0.09139
1056.70 0.09133
1056.80 0.09128
1056.90 0.09122
1057.00 0.09117
1057.10 0.09112
1057.20 0.09107
1057.30 0.09103
1057.40 0.09098
1057.50 0.09093
1057.60 0.09088
1057.70 0.09084
1057.80 0.09079
1057.90 0.09074
1058.00 0.09069
1058.10 0.09065
1058.20 0.0906
1058.30 0.09055
1058.40 0.0905
1058.50 0.09046
1058.60 0.09041
1058.70 0.09036
1058.80 0.09031
1058.90 0.09027
1059.00 0.09022
1059.10 0.09017
1059.20 0.09012
1059.30 0.09008
1059.40 0.09003
1059.50 0.08998
1059.60 0.08994
1059.70 0.08989
1059.80 0.08984
1059.90 0.08979
1060.00 0.08975
1060.10 0.0897
1060.20 0.08965
1060.30 0.0896
1060.40 0.08956
1060.50 0.08951
1060.60 0.08946
1060.70 0.08942
1060.80 0.08937
1060.90 0.08932
1061.00 0.08928
1061.10 0.08923
1061.20 0.08918
1061.30 0.08913
1061.40 0.08909
1061.50 0.08904
1061.60 0.08899
1061.70 0.08895
1061.80 0.0889
1061.90 0.08885
1062.00 0.08881
1062.10 0.08877
1062.20 0.08872
1062.30 0.08868
1062.40 0.08864
1062.50 0.0886
1062.60 0.08856
1062.70 0.08852
1062.80 0.08848
1062.90 0.08844
1063.00 0.0884
1063.10 0.08836
1063.20 0.08832
1063.30 0.08828
1063.40 0.08824
1063.50 0.0882
1063.60 0.08816
1063.70 0.08812
1063.80 0.08808
1063.90 0.08804
1064.00 0.088
1064.10 0.08796
1064.20 0.08792
1064.30 0.08788
1064.40 0.08784
1064.50 0.08779
1064.60 0.08775
1064.70 0.08771
1064.80 0.08767
1064.90 0.08763
1065.00 0.08759
1065.10 0.08755
1065.20 0.08751
1065.30 0.08747
1065.40 0.08743
1065.50 0.08739
1065.60 0.08735
1065.70 0.08731
1065.80 0.08727
1065.90 0.08723
1066.00 0.08719
1066.10 0.08715
1066.20 0.08711
1066.30 0.08707
1066.40 0.08703
1066.50 0.08699
1066.60 0.08695
1066.70 0.08691
1066.80 0.08687
1066.90 0.08683
1067.00 0.08679
1067.10 0.08676
1067.20 0.08672
1067.30 0.08669
1067.40 0.08665
1067.50 0.08662
1067.60 0.08658
1067.70 0.08655
1067.80 0.08651
1067.90 0.08648
1068.00 0.08644
1068.10 0.08641
1068.20 0.08637
1068.30 0.08634
1068.40 0.0863
1068.50 0.08627
1068.60 0.08623
1068.70 0.0862
1068.80 0.08616
1068.90 0.08613
1069.00 0.08609
1069.10 0.08606
1069.20 0.08603
1069.30 0.08599
1069.40 0.08596
1069.50 0.08592
1069.60 0.08589
1069.70 0.08585
1069.80 0.08582
1069.90 0.08578
1070.00 0.08575
1070.10 0.08571
1070.20 0.08568
1070.30 0.08564
1070.40 0.08561
1070.50 0.08557
1070.60 0.08554
1070.70 0.0855
1070.80 0.08547
1070.90 0.08544
1071.00 0.0854
1071.10 0.08537
1071.20 0.08533
1071.30 0.0853
1071.40 0.08526
1071.50 0.08523
1071.60 0.08519
1071.70 0.08516
1071.80 0.08512
1071.90 0.08509
1072.00 0.08506
1072.10 0.08503
1072.20 0.085
1072.30 0.08497
1072.40 0.08494
1072.50 0.08491
1072.60 0.08488
1072.70 0.08486
1072.80 0.08483
1072.90 0.0848
1073.00 0.08477
1073.10 0.08474
1073.20 0.08471
1073.30 0.08469
1073.40 0.08466
1073.50 0.08463
1073.60 0.08461
1073.70 0.08458
1073.80 0.08456
1073.90 0.08453
1074.00 0.08451
1074.10 0.08448
1074.20 0.08446
1074.30 0.08443
1074.40 0.08441
1074.50 0.08438
1074.60 0.08436
1074.70 0.08434
1074.80 0.08431
1074.90 0.08429
1075.00 0.08426
1075.10 0.08424
1075.20 0.08421
1075.30 0.08419
1075.40 0.08416
1075.50 0.08414
1075.60 0.08412
1075.70 0.08409
1075.80 0.08407
1075.90 0.08404
1076.00 0.08402
1076.10 0.08399
1076.20 0.08397
1076.30 0.08395
1076.40 0.08392
1076.50 0.0839
1076.60 0.08387
1076.70 0.08385
1076.80 0.08382
1076.90 0.0838
1077.00 0.08377
1077.10 0.08375
1077.20 0.08373
1077.30 0.08371
1077.40 0.08369
1077.50 0.08367
1077.60 0.08365
1077.70 0.08363
1077.80 0.08361
1077.90 0.08359
1078.00 0.08357
1078.10 0.08355
1078.20 0.08353
1078.30 0.08351
1078.40 0.08349
1078.50 0.08347
1078.60 0.08346
1078.70 0.08344
1078.80 0.08342
1078.90 0.0834
1079.00 0.08338
1079.10 0.08336
1079.20 0.08334
1079.30 0.08332
1079.40 0.0833
1079.50 0.08328
1079.60 0.08327
1079.70 0.08325
1079.80 0.08324
1079.90 0.08323
1080.00 0.08321
1080.10 0.0832
1080.20 0.08318
1080.30 0.08317
1080.40 0.08315
1080.50 0.08314
1080.60 0.08313
1080.70 0.08311
1080.80 0.0831
1080.90 0.08308
1081.00 0.08307
1081.10 0.08305
1081.20 0.08304
1081.30 0.08303
1081.40 0.08301
1081.50 0.083
1081.60 0.08298
1081.70 0.08297
1081.80 0.08295
1081.90 0.08294
1082.00 0.08292
1082.10 0.08291
1082.20 0.0829
1082.30 0.08289
1082.40 0.08287
1082.50 0.08286
1082.60 0.08285
1082.70 0.08283
1082.80 0.08282
1082.90 0.08281
1083.00 0.08279
1083.10 0.08278
1083.20 0.08277
1083.30 0.08275
1083.40 0.08274
1083.50 0.08273
1083.60 0.08272
1083.70 0.0827
1083.80 0.08269
1083.90 0.08268
1084.00 0.08267
1084.10 0.08266
1084.20 0.08265
1084.30 0.08264
1084.40 0.08262
1084.50 0.08261
1084.60 0.0826
1084.70 0.08259
1084.80 0.08258
1084.90 0.08257
1085.00 0.08257
1085.10 0.08256
1085.20 0.08255
1085.30 0.08254
1085.40 0.08253
1085.50 0.08252
1085.60 0.08251
1085.70 0.0825
1085.80 0.08249
1085.90 0.08248
1086.00 0.08247
1086.10 0.08246
1086.20 0.08245
1086.30 0.08244
1086.40 0.08243
1086.50 0.08242
1086.60 0.08241
1086.70 0.08241
1086.80 0.0824
1086.90 0.08239
1087.00 0.08238
1087.10 0.08238
1087.20 0.08237
1087.30 0.08236
1087.40 0.08236
1087.50 0.08235
1087.60 0.08234
1087.70 0.08234
1087.80 0.08233
1087.90 0.08232
1088.00 0.08232
1088.10 0.08231
1088.20 0.0823
1088.30 0.0823
1088.40 0.08229
1088.50 0.08228
1088.60 0.08228
1088.70 0.08227
1088.80 0.08227
1088.90 0.08226
1089.00 0.08226
1089.10 0.08226
1089.20 0.08225
1089.30 0.08225
1089.40 0.08224
1089.50 0.08224
1089.60 0.08223
1089.70 0.08223
1089.80 0.08222
1089.90 0.08222
1090.00 0.08221
1090.10 0.08221
1090.20 0.08221
1090.30 0.0822
1090.40 0.0822
1090.50 0.08219
1090.60 0.08219
1090.70 0.08219
1090.80 0.08219
1090.90 0.08218
1091.00 0.08218
1091.10 0.08218
1091.20 0.08218
1091.30 0.08218
1091.40 0.08217
1091.50 0.08217
1091.60 0.08217
1091.70 0.08217
1091.80 0.08216
1091.90 0.08216
1092.00 0.08216
1092.10 0.08216
1092.20 0.08216
1092.30 0.08216
1092.40 0.08216
1092.50 0.08216
1092.60 0.08215
1092.70 0.08216
1092.80 0.08219
1092.90 0.08221
1093.00 0.08223
1093.10 0.08225
1093.20 0.08225
1093.30 0.08225
1093.40 0.08225
1093.50 0.08225
1093.60 0.08225
1093.70 0.08225
1093.80 0.08225
1093.90 0.08225
1094.00 0.08225
1094.10 0.08225
1094.20 0.08225
1094.30 0.08225
1094.40 0.08225
1094.50 0.08226
1094.60 0.08226
1094.70 0.08226
1094.80 0.08226
1094.90 0.08226
1095.00 0.08226
1095.10 0.08226
1095.20 0.08227
1095.30 0.08227
1095.40 0.08227
1095.50 0.08227
1095.60 0.08227
1095.70 0.08227
1095.80 0.08228
1095.90 0.08228
1096.00 0.08228
1096.10 0.08228
1096.20 0.08228
1096.30 0.08228
1096.40 0.08229
1096.50 0.08229
1096.60 0.08229
1096.70 0.08229
1096.80 0.0823
1096.90 0.0823
1097.00 0.0823
1097.10 0.0823
1097.20 0.08231
1097.30 0.08231
1097.40 0.08231
1097.50 0.08232
1097.60 0.08232
1097.70 0.08232
1097.80 0.08233
1097.90 0.08233
1098.00 0.08233
1098.10 0.08234
1098.20 0.08234
1098.30 0.08234
1098.40 0.08235
1098.50 0.08235
1098.60 0.08235
1098.70 0.08236
1098.80 0.08236
1098.90 0.08237
1099.00 0.08237
1099.10 0.08238
1099.20 0.08238
1099.30 0.08238
1099.40 0.08239
1099.50 0.08239
1099.60 0.0824
1099.70 0.0824
1099.80 0.08241
1099.90 0.08241
1100.00 0.08242
1100.10 0.08242
1100.20 0.08242
1100.30 0.08243
1100.40 0.08243
1100.50 0.08244
1100.60 0.08244
1100.70 0.08245
1100.80 0.08245
1100.90 0.08246
1101.00 0.08247
1101.10 0.08247
1101.20 0.08248
1101.30 0.08248
1101.40 0.08249
1101.50 0.08249
1101.60 0.0825
1101.70 0.0825
1101.80 0.08251
1101.90 0.08252
1102.00 0.08252
1102.10 0.08253
1102.20 0.08253
1102.30 0.08254
1102.40 0.08255
1102.50 0.08255
1102.60 0.08256
1102.70 0.08257
1102.80 0.08257
1102.90 0.08258
1103.00 0.08259
1103.10 0.08259
1103.20 0.0826
1103.30 0.08261
1103.40 0.08261
1103.50 0.08262
1103.60 0.08263
1103.70 0.08264
1103.80 0.08265
1103.90 0.08265
1104.00 0.08266
1104.10 0.08267
1104.20 0.08268
1104.30 0.08269
1104.40 0.0827
1104.50 0.0827
1104.60 0.08271
1104.70 0.08272
1104.80 0.08273
1104.90 0.08274
1105.00 0.08275
1105.10 0.08275
1105.20 0.08276
1105.30 0.08277
1105.40 0.08278
1105.50 0.08279
1105.60 0.0828
1105.70 0.08281
1105.80 0.08281
1105.90 0.08282
1106.00 0.08283
1106.10 0.08284
1106.20 0.08285
1106.30 0.08286
1106.40 0.08287
1106.50 0.08288
1106.60 0.08289
1106.70 0.08289
1106.80 0.0829
1106.90 0.08291
1107.00 0.08292
1107.10 0.08293
1107.20 0.08294
1107.30 0.08295
1107.40 0.08296
1107.50 0.08297
1107.60 0.08298
1107.70 0.08299
1107.80 0.083
1107.90 0.08301
1108.00 0.08302
1108.10 0.08303
1108.20 0.08304
1108.30 0.08305
1108.40 0.08306
1108.50 0.08307
1108.60 0.08308
1108.70 0.08309
1108.80 0.0831
1108.90 0.08311
1109.00 0.08312
1109.10 0.08313
1109.20 0.08314
1109.30 0.08315
1109.40 0.08316
1109.50 0.08317
1109.60 0.08319
1109.70 0.0832
1109.80 0.08321
1109.90 0.08322
1110.00 0.08323
1110.10 0.08324
1110.20 0.08326
1110.30 0.08327
1110.40 0.08328
1110.50 0.08329
1110.60 0.0833
1110.70 0.08331
1110.80 0.08333
1110.90 0.08334
1111.00 0.08335
1111.10 0.08336
1111.20 0.08337
1111.30 0.08338
1111.40 0.0834
1111.50 0.08341
1111.60 0.08342
1111.70 0.08343
1111.80 0.08344
1111.90 0.08345
1112.00 0.08347
1112.10 0.08348
1112.20 0.08349
1112.30 0.0835
1112.40 0.08352
1112.50 0.08353
1112.60 0.08354
1112.70 0.08356
1112.80 0.08357
1112.90 0.08358
1113.00 0.08359
1113.10 0.08361
1113.20 0.08362
1113.30 0.08363
1113.40 0.08365
1113.50 0.08366
1113.60 0.08367
1113.70 0.08369
1113.80 0.0837
1113.90 0.08372
1114.00 0.08373
1114.10 0.08375
1114.20 0.08376
1114.30 0.08378
1114.40 0.08379
1114.50 0.0838
1114.60 0.08382
1114.70 0.08383
1114.80 0.08385
1114.90 0.08386
1115.00 0.08388
1115.10 0.08389
1115.20 0.08391
1115.30 0.08392
1115.40 0.08393
1115.50 0.08395
1115.60 0.08396
1115.70 0.08398
1115.80 0.08399
1115.90 0.08401
1116.00 0.08402
1116.10 0.08404
1116.20 0.08405
1116.30 0.08406
1116.40 0.08408
1116.50 0.08409
1116.60 0.08411
1116.70 0.08412
1116.80 0.08414
1116.90 0.08415
1117.00 0.08416
1117.10 0.08418
1117.20 0.0842
1117.30 0.08421
1117.40 0.08423
1117.50 0.08425
1117.60 0.08427
1117.70 0.08428
1117.80 0.0843
1117.90 0.08432
1118.00 0.08433
1118.10 0.08435
1118.20 0.08437
1118.30 0.08438
1118.40 0.0844
1118.50 0.08442
1118.60 0.08444
1118.70 0.08445
1118.80 0.08447
1118.90 0.08449
1119.00 0.0845
1119.10 0.08452
1119.20 0.08454
1119.30 0.08455
1119.40 0.08457
1119.50 0.08459
1119.60 0.0846
1119.70 0.08462
1119.80 0.08464
1119.90 0.08465
1120.00 0.08467
1120.10 0.08469
1120.20 0.0847
1120.30 0.08472
1120.40 0.08474
1120.50 0.08475
1120.60 0.08477
1120.70 0.08479
1120.80 0.0848
1120.90 0.08482
1121.00 0.08484
1121.10 0.08485
1121.20 0.08487
1121.30 0.08489
1121.40 0.0849
1121.50 0.08492
1121.60 0.08494
1121.70 0.08495
1121.80 0.08497
1121.90 0.08499
1122.00 0.085
1122.10 0.08503
1122.20 0.08505
1122.30 0.08507
1122.40 0.08509
1122.50 0.08511
1122.60 0.08513
1122.70 0.08515
1122.80 0.08517
1122.90 0.08519
1123.00 0.08521
1123.10 0.08523
1123.20 0.08526
1123.30 0.08528
1123.40 0.0853
1123.50 0.08532
1123.60 0.08534
1123.70 0.08536
1123.80 0.08538
1123.90 0.0854
1124.00 0.08542
1124.10 0.08544
1124.20 0.08546
1124.30 0.08548
1124.40 0.08551
1124.50 0.08553
1124.60 0.08555
1124.70 0.08557
1124.80 0.08559
1124.90 0.08561
1125.00 0.08563
1125.10 0.08565
1125.20 0.08567
1125.30 0.08569
1125.40 0.08571
1125.50 0.08573
1125.60 0.08575
1125.70 0.08577
1125.80 0.0858
1125.90 0.08582
1126.00 0.08584
1126.10 0.08586
1126.20 0.08588
1126.30 0.0859
1126.40 0.08592
1126.50 0.08594
1126.60 0.08596
1126.70 0.08598
1126.80 0.086
1126.90 0.08602
1127.00 0.08604
1127.10 0.08607
1127.20 0.0861
1127.30 0.08612
1127.40 0.08615
1127.50 0.08617
1127.60 0.0862
1127.70 0.08623
1127.80 0.08625
1127.90 0.08628
1128.00 0.08631
1128.10 0.08633
1128.20 0.08636
1128.30 0.08639
1128.40 0.08641
1128.50 0.08644
1128.60 0.08646
1128.70 0.08649
1128.80 0.08652
1128.90 0.08654
1129.00 0.08657
1129.10 0.0866
1129.20 0.08662
1129.30 0.08665
1129.40 0.08668
1129.50 0.0867
1129.60 0.08673
1129.70 0.08675
1129.80 0.08678
1129.90 0.08681
1130.00 0.08683
1130.10 0.08686
1130.20 0.08688
1130.30 0.08691
1130.40 0.08694
1130.50 0.08696
1130.60 0.08699
1130.70 0.08702
1130.80 0.08704
1130.90 0.08707
1131.00 0.08709
1131.10 0.08712
1131.20 0.08715
1131.30 0.08717
1131.40 0.0872
1131.50 0.08722
1131.60 0.08725
1131.70 0.08728
1131.80 0.0873
1131.90 0.08733
1132.00 0.08735
1132.10 0.08738
1132.20 0.0874
1132.30 0.08743
1132.40 0.08746
1132.50 0.08748
1132.60 0.08751
1132.70 0.08753
1132.80 0.08756
1132.90 0.08758
1133.00 0.08761
1133.10 0.08764
1133.20 0.08766
1133.30 0.08769
1133.40 0.08771
1133.50 0.08774
1133.60 0.08776
1133.70 0.08779
1133.80 0.08781
1133.90 0.08784
1134.00 0.08786
1134.10 0.08789
1134.20 0.08792
1134.30 0.08794
1134.40 0.08797
1134.50 0.08799
1134.60 0.08802
1134.70 0.08804
1134.80 0.08807
1134.90 0.08809
1135.00 0.08812
1135.10 0.08814
1135.20 0.08817
1135.30 0.08819
1135.40 0.08822
1135.50 0.08825
1135.60 0.08827
1135.70 0.0883
1135.80 0.08832
1135.90 0.08835
1136.00 0.08837
1136.10 0.0884
1136.20 0.08842
1136.30 0.08845
1136.40 0.08847
1136.50 0.0885
1136.60 0.08852
1136.70 0.08855
1136.80 0.08857
1136.90 0.0886
1137.00 0.08862
1137.10 0.08865
1137.20 0.08868
1137.30 0.0887
1137.40 0.08873
1137.50 0.08876
1137.60 0.08878
1137.70 0.08881
1137.80 0.08884
1137.90 0.08886
1138.00 0.08889
1138.10 0.08891
1138.20 0.08894
1138.30 0.08897
1138.40 0.08899
1138.50 0.08902
1138.60 0.08905
1138.70 0.08907
1138.80 0.0891
1138.90 0.08913
1139.00 0.08915
1139.10 0.08918
1139.20 0.0892
1139.30 0.08923
1139.40 0.08926
1139.50 0.08928
1139.60 0.08931
1139.70 0.08933
1139.80 0.08936
1139.90 0.08939
1140.00 0.08941
1140.10 0.08944
1140.20 0.08947
1140.30 0.08949
1140.40 0.08952
1140.50 0.08954
1140.60 0.08957
1140.70 0.0896
1140.80 0.08962
1140.90 0.08965
1141.00 0.08967
1141.10 0.0897
1141.20 0.08973
1141.30 0.08975
1141.40 0.08978
1141.50 0.0898
1141.60 0.08983
1141.70 0.08986
1141.80 0.08988
1141.90 0.08991
1142.00 0.08993
1142.10 0.08996
1142.20 0.08999
1142.30 0.09002
1142.40 0.09005
1142.50 0.09008
1142.60 0.09011
1142.70 0.09014
1142.80 0.09017
1142.90 0.09019
1143.00 0.09022
1143.10 0.09025
1143.20 0.09028
1143.30 0.09031
1143.40 0.09034
1143.50 0.09037
1143.60 0.0904
1143.70 0.09043
1143.80 0.09045
1143.90 0.09048
1144.00 0.09051
1144.10 0.09054
1144.20 0.09057
1144.30 0.0906
1144.40 0.09063
1144.50 0.09066
1144.60 0.09068
1144.70 0.09071
1144.80 0.09074
1144.90 0.09077
1145.00 0.0908
1145.10 0.09083
1145.20 0.09086
1145.30 0.09088
1145.40 0.09091
1145.50 0.09094
1145.60 0.09097
1145.70 0.091
1145.80 0.09103
1145.90 0.09106
1146.00 0.09108
1146.10 0.09111
1146.20 0.09114
1146.30 0.09117
1146.40 0.0912
1146.50 0.09123
1146.60 0.09126
1146.70 0.09128
1146.80 0.09131
1146.90 0.09134
1147.00 0.09137
1147.10 0.09139
1147.20 0.09142
1147.30 0.09144
1147.40 0.09146
1147.50 0.09149
1147.60 0.09151
1147.70 0.09154
1147.80 0.09156
1147.90 0.09158
1148.00 0.09161
1148.10 0.09163
1148.20 0.09165
1148.30 0.09168
1148.40 0.0917
1148.50 0.09172
1148.60 0.09175
1148.70 0.09177
1148.80 0.0918
1148.90 0.09182
1149.00 0.09184
1149.10 0.09187
1149.20 0.09189
1149.30 0.09191
1149.40 0.09194
1149.50 0.09196
1149.60 0.09198
1149.70 0.09201
1149.80 0.09203
1149.90 0.09205
1150.00 0.09208
1150.10 0.0921
1150.20 0.09212
1150.30 0.09215
1150.40 0.09217
1150.50 0.0922
1150.60 0.09222
1150.70 0.09224
1150.80 0.09227
1150.90 0.09229
1151.00 0.09231
1151.10 0.09234
1151.20 0.09236
1151.30 0.09238
1151.40 0.09241
1151.50 0.09243
1151.60 0.09245
1151.70 0.09248
1151.80 0.0925
1151.90 0.09252
1152.00 0.09255
1152.10 0.09257
1152.20 0.09259
1152.30 0.09262
1152.40 0.09264
1152.50 0.09266
1152.60 0.09269
1152.70 0.09271
1152.80 0.09273
1152.90 0.09276
1153.00 0.09278
1153.10 0.0928
1153.20 0.09283
1153.30 0.09285
1153.40 0.09287
1153.50 0.0929
1153.60 0.09292
1153.70 0.09294
1153.80 0.09296
1153.90 0.09299
1154.00 0.09301
1154.10 0.09303
1154.20 0.09306
1154.30 0.09308
1154.40 0.0931
1154.50 0.09313
1154.60 0.09315
1154.70 0.09317
1154.80 0.0932
1154.90 0.09322
1155.00 0.09324
1155.10 0.09327
1155.20 0.09329
1155.30 0.09331
1155.40 0.09334
1155.50 0.09336
1155.60 0.09338
1155.70 0.0934
1155.80 0.09343
1155.90 0.09345
1156.00 0.09347
1156.10 0.0935
1156.20 0.09352
1156.30 0.09354
1156.40 0.09357
1156.50 0.09359
1156.60 0.09361
1156.70 0.09363
1156.80 0.09366
1156.90 0.09368
1157.00 0.0937
1157.10 0.09372
1157.20 0.09374
1157.30 0.09375
1157.40 0.09377
1157.50 0.09379
1157.60 0.09381
1157.70 0.09382
1157.80 0.09384
1157.90 0.09386
1158.00 0.09388
1158.10 0.09389
1158.20 0.09391
1158.30 0.09393
1158.40 0.09394
1158.50 0.09396
1158.60 0.09398
1158.70 0.094
1158.80 0.09401
1158.90 0.09403
1159.00 0.09405
1159.10 0.09406
1159.20 0.09408
1159.30 0.0941
1159.40 0.09412
1159.50 0.09413
1159.60 0.09415
1159.70 0.09417
1159.80 0.09418
1159.90 0.0942
1160.00 0.09422
1160.10 0.09424
1160.20 0.09425
1160.30 0.09427
1160.40 0.09429
1160.50 0.0943
1160.60 0.09432
1160.70 0.09434
1160.80 0.09436
1160.90 0.09437
1161.00 0.09439
1161.10 0.09441
1161.20 0.09442
1161.30 0.09444
1161.40 0.09446
1161.50 0.09447
1161.60 0.09449
1161.70 0.09451
1161.80 0.09452
1161.90 0.09454
1162.00 0.09456
1162.10 0.09457
1162.20 0.09458
1162.30 0.0946
1162.40 0.09461
1162.50 0.09462
1162.60 0.09463
1162.70 0.09465
1162.80 0.09466
1162.90 0.09467
1163.00 0.09468
1163.10 0.0947
1163.20 0.09471
1163.30 0.09472
1163.40 0.09473
1163.50 0.09475
1163.60 0.09476
1163.70 0.09477
1163.80 0.09478
1163.90 0.0948
1164.00 0.09481
1164.10 0.09482
1164.20 0.09483
1164.30 0.09485
1164.40 0.09486
1164.50 0.09487
1164.60 0.09488
1164.70 0.0949
1164.80 0.09491
1164.90 0.09492
1165.00 0.09493
1165.10 0.09495
1165.20 0.09496
1165.30 0.09497
1165.40 0.09498
1165.50 0.095
1165.60 0.09501
1165.70 0.09502
1165.80 0.09503
1165.90 0.09505
1166.00 0.09506
1166.10 0.09507
1166.20 0.09508
1166.30 0.09509
1166.40 0.09511
1166.50 0.09512
1166.60 0.09513
1166.70 0.09514
1166.80 0.09516
1166.90 0.09517
1167.00 0.09518
1167.10 0.09519
1167.20 0.0952
1167.30 0.09521
1167.40 0.09522
1167.50 0.09523
1167.60 0.09524
1167.70 0.09525
1167.80 0.09526
1167.90 0.09527
1168.00 0.09528
1168.10 0.09529
1168.20 0.0953
1168.30 0.09531
1168.40 0.09532
1168.50 0.09533
1168.60 0.09534
1168.70 0.09535
1168.80 0.09536
1168.90 0.09537
1169.00 0.09538
1169.10 0.09539
1169.20 0.0954
1169.30 0.09541
1169.40 0.09542
1169.50 0.09543
1169.60 0.09544
1169.70 0.09545
1169.80 0.09546
1169.90 0.09547
1170.00 0.09548
1170.10 0.09549
1170.20 0.0955
1170.30 0.09551
1170.40 0.09552
1170.50 0.09553
1170.60 0.09554
1170.70 0.09555
1170.80 0.09556
1170.90 0.09557
1171.00 0.09558
1171.10 0.09559
1171.20 0.0956
1171.30 0.09561
1171.40 0.09562
1171.50 0.09563
1171.60 0.09564
1171.70 0.09565
1171.80 0.09566
1171.90 0.09567
1172.00 0.09568
1172.10 0.09568
1172.20 0.09568
1172.30 0.09568
1172.40 0.09568
1172.50 0.09568
1172.60 0.09568
1172.70 0.09568
1172.80 0.09569
1172.90 0.09569
1173.00 0.09569
1173.10 0.09569
1173.20 0.09569
1173.30 0.09569
1173.40 0.09569
1173.50 0.09569
1173.60 0.0957
1173.70 0.0957
1173.80 0.0957
1173.90 0.0957
1174.00 0.0957
1174.10 0.0957
1174.20 0.0957
1174.30 0.0957
1174.40 0.0957
1174.50 0.09571
1174.60 0.09571
1174.70 0.09571
1174.80 0.09571
1174.90 0.09571
1175.00 0.09571
1175.10 0.09571
1175.20 0.09571
1175.30 0.09572
1175.40 0.09572
1175.50 0.09572
1175.60 0.09572
1175.70 0.09572
1175.80 0.09572
1175.90 0.09572
1176.00 0.09572
1176.10 0.09572
1176.20 0.09573
1176.30 0.09573
1176.40 0.09573
1176.50 0.09573
1176.60 0.09573
1176.70 0.09573
1176.80 0.09573
1176.90 0.09573
1177.00 0.09573
1177.10 0.09573
1177.20 0.09572
1177.30 0.09572
1177.40 0.09571
1177.50 0.09571
1177.60 0.0957
1177.70 0.0957
1177.80 0.09569
1177.90 0.09569
1178.00 0.09568
1178.10 0.09567
1178.20 0.09567
1178.30 0.09566
1178.40 0.09566
1178.50 0.09565
1178.60 0.09565
1178.70 0.09564
1178.80 0.09564
1178.90 0.09563
1179.00 0.09563
1179.10 0.09562
1179.20 0.09562
1179.30 0.09561
1179.40 0.0956
1179.50 0.0956
1179.60 0.09559
1179.70 0.09559
1179.80 0.09558
1179.90 0.09558
1180.00 0.09557
1180.10 0.09557
1180.20 0.09556
1180.30 0.09556
1180.40 0.09555
1180.50 0.09555
1180.60 0.09554
1180.70 0.09553
1180.80 0.09553
1180.90 0.09552
1181.00 0.09552
1181.10 0.09551
1181.20 0.09551
1181.30 0.0955
1181.40 0.0955
1181.50 0.09549
1181.60 0.09549
1181.70 0.09548
1181.80 0.09548
1181.90 0.09547
1182.00 0.09546
1182.10 0.09545
1182.20 0.09543
1182.30 0.09542
1182.40 0.09541
1182.50 0.09539
1182.60 0.09538
1182.70 0.09536
1182.80 0.09535
1182.90 0.09533
1183.00 0.09532
1183.10 0.0953
1183.20 0.09529
1183.30 0.09527
1183.40 0.09526
1183.50 0.09524
1183.60 0.09523
1183.70 0.09521
1183.80 0.0952
1183.90 0.09518
1184.00 0.09517
1184.10 0.09515
1184.20 0.09514
1184.30 0.09512
1184.40 0.09511
1184.50 0.09509
1184.60 0.09508
1184.70 0.09507
1184.80 0.09505
1184.90 0.09504
1185.00 0.09502
1185.10 0.09501
1185.20 0.09499
1185.30 0.09498
1185.40 0.09496
1185.50 0.09495
1185.60 0.09493
1185.70 0.09492
1185.80 0.0949
1185.90 0.09489
1186.00 0.09487
1186.10 0.09486
1186.20 0.09484
1186.30 0.09483
1186.40 0.09481
1186.50 0.0948
1186.60 0.09479
1186.70 0.09477
1186.80 0.09476
1186.90 0.09474
1187.00 0.09473
1187.10 0.09471
1187.20 0.0947
1187.30 0.09469
1187.40 0.09467
1187.50 0.09466
1187.60 0.09465
1187.70 0.09464
1187.80 0.09462
1187.90 0.09461
1188.00 0.0946
1188.10 0.09458
1188.20 0.09457
1188.30 0.09456
1188.40 0.09454
1188.50 0.09453
1188.60 0.09452
1188.70 0.09451
1188.80 0.09449
1188.90 0.09448
1189.00 0.09447
1189.10 0.09445
1189.20 0.09444
1189.30 0.09443
1189.40 0.09442
1189.50 0.0944
1189.60 0.09439
1189.70 0.09438
1189.80 0.09436
1189.90 0.09435
1190.00 0.09434
1190.10 0.09432
1190.20 0.09431
1190.30 0.0943
1190.40 0.09429
1190.50 0.09427
1190.60 0.09426
1190.70 0.09425
1190.80 0.09423
1190.90 0.09422
1191.00 0.09421
1191.10 0.0942
1191.20 0.09418
1191.30 0.09417
1191.40 0.09416
1191.50 0.09414
1191.60 0.09413
1191.70 0.09412
1191.80 0.09411
1191.90 0.09409
1192.00 0.09408
1192.10 0.09406
1192.20 0.09405
1192.30 0.09403
1192.40 0.09402
1192.50 0.094
1192.60 0.09399
1192.70 0.09397
1192.80 0.09396
1192.90 0.09394
1193.00 0.09393
1193.10 0.09391
1193.20 0.0939
1193.30 0.09388
1193.40 0.09387
1193.50 0.09385
1193.60 0.09384
1193.70 0.09382
1193.80 0.09381
1193.90 0.09379
1194.00 0.09378
1194.10 0.09377
1194.20 0.09375
1194.30 0.09374
1194.40 0.09372
1194.50 0.09371
1194.60 0.09369
1194.70 0.09368
1194.80 0.09366
1194.90 0.09365
1195.00 0.09363
1195.10 0.09362
1195.20 0.0936
1195.30 0.09359
1195.40 0.09357
1195.50 0.09356
1195.60 0.09354
1195.70 0.09353
1195.80 0.09351
1195.90 0.0935
1196.00 0.09348
1196.10 0.09347
1196.20 0.09345
1196.30 0.09344
1196.40 0.09342
1196.50 0.09341
1196.60 0.09339
1196.70 0.09338
1196.80 0.09336
1196.90 0.09335
1197.00 0.09333
1197.10 0.09331
1197.20 0.09329
1197.30 0.09327
1197.40 0.09325
1197.50 0.09323
1197.60 0.09321
1197.70 0.09319
1197.80 0.09317
1197.90 0.09314
1198.00 0.09312
1198.10 0.0931
1198.20 0.09308
1198.30 0.09306
1198.40 0.09304
1198.50 0.09302
1198.60 0.093
1198.70 0.09298
1198.80 0.09296
1198.90 0.09294
1199.00 0.09291
1199.10 0.09289
1199.20 0.09287
1199.30 0.09285
1199.40 0.09283
1199.50 0.09281
1199.60 0.09279
1199.70 0.09277
1199.80 0.09275
1199.90 0.09273
1200.00 0
