# Version 2.1 - nm, norm@500 to 1, cut digits, bergeron_55000_70.dat_55000
# Wavelength(nm)  Flambda(ergs/cm^s/s/nm)
300.00 6.293
300.10 6.285
300.20 6.278
300.30 6.27
300.40 6.263
300.50 6.255
300.60 6.248
300.70 6.24
300.80 6.232
300.90 6.225
301.00 6.217
301.10 6.21
301.20 6.202
301.30 6.195
301.40 6.187
301.50 6.18
301.60 6.172
301.70 6.165
301.80 6.158
301.90 6.15
302.00 6.143
302.10 6.135
302.20 6.128
302.30 6.12
302.40 6.113
302.50 6.106
302.60 6.098
302.70 6.091
302.80 6.084
302.90 6.076
303.00 6.069
303.10 6.062
303.20 6.055
303.30 6.047
303.40 6.04
303.50 6.033
303.60 6.026
303.70 6.018
303.80 6.011
303.90 6.004
304.00 5.997
304.10 5.989
304.20 5.982
304.30 5.975
304.40 5.968
304.50 5.961
304.60 5.954
304.70 5.947
304.80 5.94
304.90 5.932
305.00 5.925
305.10 5.918
305.20 5.911
305.30 5.904
305.40 5.897
305.50 5.89
305.60 5.883
305.70 5.876
305.80 5.869
305.90 5.862
306.00 5.855
306.10 5.848
306.20 5.841
306.30 5.834
306.40 5.827
306.50 5.82
306.60 5.813
306.70 5.806
306.80 5.8
306.90 5.793
307.00 5.786
307.10 5.779
307.20 5.772
307.30 5.765
307.40 5.758
307.50 5.752
307.60 5.745
307.70 5.738
307.80 5.731
307.90 5.724
308.00 5.718
308.10 5.711
308.20 5.704
308.30 5.697
308.40 5.691
308.50 5.684
308.60 5.677
308.70 5.67
308.80 5.664
308.90 5.657
309.00 5.65
309.10 5.644
309.20 5.637
309.30 5.63
309.40 5.624
309.50 5.617
309.60 5.61
309.70 5.604
309.80 5.597
309.90 5.591
310.00 5.584
310.10 5.577
310.20 5.571
310.30 5.564
310.40 5.558
310.50 5.551
310.60 5.545
310.70 5.538
310.80 5.532
310.90 5.525
311.00 5.519
311.10 5.512
311.20 5.506
311.30 5.499
311.40 5.493
311.50 5.486
311.60 5.48
311.70 5.474
311.80 5.467
311.90 5.461
312.00 5.454
312.10 5.448
312.20 5.442
312.30 5.435
312.40 5.429
312.50 5.423
312.60 5.416
312.70 5.41
312.80 5.404
312.90 5.397
313.00 5.391
313.10 5.385
313.20 5.379
313.30 5.372
313.40 5.366
313.50 5.36
313.60 5.354
313.70 5.347
313.80 5.341
313.90 5.335
314.00 5.329
314.10 5.322
314.20 5.316
314.30 5.31
314.40 5.304
314.50 5.298
314.60 5.292
314.70 5.285
314.80 5.279
314.90 5.273
315.00 5.267
315.10 5.261
315.20 5.255
315.30 5.249
315.40 5.243
315.50 5.237
315.60 5.231
315.70 5.225
315.80 5.218
315.90 5.212
316.00 5.206
316.10 5.2
316.20 5.194
316.30 5.188
316.40 5.182
316.50 5.176
316.60 5.17
316.70 5.164
316.80 5.159
316.90 5.153
317.00 5.147
317.10 5.141
317.20 5.135
317.30 5.129
317.40 5.123
317.50 5.117
317.60 5.111
317.70 5.105
317.80 5.099
317.90 5.094
318.00 5.088
318.10 5.082
318.20 5.076
318.30 5.07
318.40 5.064
318.50 5.059
318.60 5.053
318.70 5.047
318.80 5.041
318.90 5.035
319.00 5.03
319.10 5.024
319.20 5.018
319.30 5.012
319.40 5.007
319.50 5.001
319.60 4.995
319.70 4.989
319.80 4.984
319.90 4.978
320.00 4.972
320.10 4.967
320.20 4.961
320.30 4.955
320.40 4.95
320.50 4.944
320.60 4.938
320.70 4.933
320.80 4.927
320.90 4.922
321.00 4.916
321.10 4.91
321.20 4.905
321.30 4.899
321.40 4.894
321.50 4.888
321.60 4.882
321.70 4.877
321.80 4.871
321.90 4.866
322.00 4.86
322.10 4.855
322.20 4.849
322.30 4.844
322.40 4.838
322.50 4.833
322.60 4.827
322.70 4.822
322.80 4.816
322.90 4.811
323.00 4.805
323.10 4.8
323.20 4.795
323.30 4.789
323.40 4.784
323.50 4.778
323.60 4.773
323.70 4.767
323.80 4.762
323.90 4.757
324.00 4.751
324.10 4.746
324.20 4.741
324.30 4.735
324.40 4.73
324.50 4.725
324.60 4.719
324.70 4.714
324.80 4.709
324.90 4.703
325.00 4.698
325.10 4.693
325.20 4.687
325.30 4.682
325.40 4.677
325.50 4.672
325.60 4.666
325.70 4.661
325.80 4.656
325.90 4.651
326.00 4.645
326.10 4.64
326.20 4.635
326.30 4.63
326.40 4.625
326.50 4.619
326.60 4.614
326.70 4.609
326.80 4.604
326.90 4.599
327.00 4.594
327.10 4.588
327.20 4.583
327.30 4.578
327.40 4.573
327.50 4.568
327.60 4.563
327.70 4.558
327.80 4.553
327.90 4.548
328.00 4.543
328.10 4.537
328.20 4.532
328.30 4.527
328.40 4.522
328.50 4.517
328.60 4.512
328.70 4.507
328.80 4.502
328.90 4.497
329.00 4.492
329.10 4.487
329.20 4.482
329.30 4.477
329.40 4.472
329.50 4.467
329.60 4.462
329.70 4.457
329.80 4.452
329.90 4.447
330.00 4.442
330.10 4.438
330.20 4.433
330.30 4.428
330.40 4.423
330.50 4.418
330.60 4.413
330.70 4.408
330.80 4.403
330.90 4.398
331.00 4.393
331.10 4.389
331.20 4.384
331.30 4.379
331.40 4.374
331.50 4.369
331.60 4.364
331.70 4.36
331.80 4.355
331.90 4.35
332.00 4.345
332.10 4.34
332.20 4.336
332.30 4.331
332.40 4.326
332.50 4.321
332.60 4.316
332.70 4.312
332.80 4.307
332.90 4.302
333.00 4.297
333.10 4.293
333.20 4.288
333.30 4.283
333.40 4.279
333.50 4.274
333.60 4.269
333.70 4.264
333.80 4.26
333.90 4.255
334.00 4.25
334.10 4.246
334.20 4.241
334.30 4.236
334.40 4.232
334.50 4.227
334.60 4.223
334.70 4.218
334.80 4.213
334.90 4.209
335.00 4.204
335.10 4.199
335.20 4.195
335.30 4.19
335.40 4.186
335.50 4.181
335.60 4.177
335.70 4.172
335.80 4.167
335.90 4.163
336.00 4.158
336.10 4.154
336.20 4.149
336.30 4.145
336.40 4.14
336.50 4.136
336.60 4.131
336.70 4.127
336.80 4.122
336.90 4.118
337.00 4.113
337.10 4.109
337.20 4.104
337.30 4.1
337.40 4.095
337.50 4.091
337.60 4.086
337.70 4.082
337.80 4.077
337.90 4.073
338.00 4.069
338.10 4.064
338.20 4.06
338.30 4.055
338.40 4.051
338.50 4.047
338.60 4.042
338.70 4.038
338.80 4.034
338.90 4.029
339.00 4.025
339.10 4.02
339.20 4.016
339.30 4.012
339.40 4.007
339.50 4.003
339.60 3.999
339.70 3.994
339.80 3.99
339.90 3.986
340.00 3.981
340.10 3.977
340.20 3.973
340.30 3.969
340.40 3.964
340.50 3.96
340.60 3.956
340.70 3.952
340.80 3.947
340.90 3.943
341.00 3.939
341.10 3.935
341.20 3.93
341.30 3.926
341.40 3.922
341.50 3.918
341.60 3.913
341.70 3.909
341.80 3.905
341.90 3.901
342.00 3.897
342.10 3.892
342.20 3.888
342.30 3.884
342.40 3.88
342.50 3.876
342.60 3.872
342.70 3.867
342.80 3.863
342.90 3.859
343.00 3.855
343.10 3.851
343.20 3.847
343.30 3.843
343.40 3.838
343.50 3.834
343.60 3.83
343.70 3.826
343.80 3.822
343.90 3.818
344.00 3.814
344.10 3.81
344.20 3.806
344.30 3.802
344.40 3.798
344.50 3.794
344.60 3.79
344.70 3.786
344.80 3.782
344.90 3.777
345.00 3.773
345.10 3.769
345.20 3.765
345.30 3.761
345.40 3.757
345.50 3.753
345.60 3.749
345.70 3.745
345.80 3.741
345.90 3.737
346.00 3.733
346.10 3.729
346.20 3.726
346.30 3.722
346.40 3.718
346.50 3.714
346.60 3.71
346.70 3.706
346.80 3.702
346.90 3.698
347.00 3.694
347.10 3.69
347.20 3.686
347.30 3.682
347.40 3.678
347.50 3.675
347.60 3.671
347.70 3.667
347.80 3.663
347.90 3.659
348.00 3.655
348.10 3.651
348.20 3.647
348.30 3.644
348.40 3.64
348.50 3.636
348.60 3.632
348.70 3.628
348.80 3.624
348.90 3.621
349.00 3.617
349.10 3.613
349.20 3.609
349.30 3.605
349.40 3.602
349.50 3.598
349.60 3.594
349.70 3.59
349.80 3.586
349.90 3.583
350.00 3.579
350.10 3.575
350.20 3.571
350.30 3.568
350.40 3.564
350.50 3.56
350.60 3.556
350.70 3.553
350.80 3.549
350.90 3.545
351.00 3.542
351.10 3.538
351.20 3.534
351.30 3.53
351.40 3.527
351.50 3.523
351.60 3.519
351.70 3.516
351.80 3.512
351.90 3.508
352.00 3.505
352.10 3.501
352.20 3.497
352.30 3.494
352.40 3.49
352.50 3.486
352.60 3.483
352.70 3.479
352.80 3.475
352.90 3.472
353.00 3.468
353.10 3.465
353.20 3.461
353.30 3.457
353.40 3.454
353.50 3.45
353.60 3.447
353.70 3.443
353.80 3.439
353.90 3.436
354.00 3.432
354.10 3.429
354.20 3.425
354.30 3.422
354.40 3.418
354.50 3.414
354.60 3.411
354.70 3.407
354.80 3.404
354.90 3.4
355.00 3.397
355.10 3.393
355.20 3.39
355.30 3.386
355.40 3.383
355.50 3.379
355.60 3.376
355.70 3.372
355.80 3.369
355.90 3.365
356.00 3.362
356.10 3.358
356.20 3.355
356.30 3.351
356.40 3.348
356.50 3.344
356.60 3.341
356.70 3.337
356.80 3.334
356.90 3.331
357.00 3.327
357.10 3.324
357.20 3.32
357.30 3.317
357.40 3.313
357.50 3.31
357.60 3.307
357.70 3.303
357.80 3.3
357.90 3.296
358.00 3.293
358.10 3.29
358.20 3.286
358.30 3.283
358.40 3.279
358.50 3.276
358.60 3.273
358.70 3.269
358.80 3.266
358.90 3.263
359.00 3.259
359.10 3.256
359.20 3.253
359.30 3.249
359.40 3.246
359.50 3.243
359.60 3.239
359.70 3.236
359.80 3.233
359.90 3.229
360.00 3.226
360.10 3.223
360.20 3.219
360.30 3.216
360.40 3.213
360.50 3.21
360.60 3.206
360.70 3.203
360.80 3.2
360.90 3.196
361.00 3.193
361.10 3.19
361.20 3.187
361.30 3.183
361.40 3.18
361.50 3.177
361.60 3.174
361.70 3.17
361.80 3.167
361.90 3.164
362.00 3.161
362.10 3.158
362.20 3.154
362.30 3.151
362.40 3.148
362.50 3.145
362.60 3.142
362.70 3.138
362.80 3.135
362.90 3.132
363.00 3.129
363.10 3.126
363.20 3.122
363.30 3.119
363.40 3.116
363.50 3.113
363.60 3.11
363.70 3.107
363.80 3.103
363.90 3.1
364.00 3.097
364.10 3.094
364.20 3.091
364.30 3.088
364.40 3.085
364.50 3.082
364.60 3.078
364.70 3.075
364.80 3.072
364.90 3.069
365.00 3.066
365.10 3.063
365.20 3.06
365.30 3.057
365.40 3.054
365.50 3.051
365.60 3.047
365.70 3.044
365.80 3.041
365.90 3.038
366.00 3.035
366.10 3.032
366.20 3.029
366.30 3.026
366.40 3.022
366.50 3.019
366.60 3.016
366.70 3.013
366.80 3.01
366.90 3.007
367.00 3.004
367.10 3
367.20 2.997
367.30 2.994
367.40 2.991
367.50 2.988
367.60 2.985
367.70 2.982
367.80 2.978
367.90 2.975
368.00 2.972
368.10 2.969
368.20 2.966
368.30 2.963
368.40 2.96
368.50 2.957
368.60 2.954
368.70 2.951
368.80 2.948
368.90 2.945
369.00 2.942
369.10 2.939
369.20 2.935
369.30 2.932
369.40 2.929
369.50 2.926
369.60 2.923
369.70 2.92
369.80 2.917
369.90 2.914
370.00 2.911
370.10 2.908
370.20 2.905
370.30 2.902
370.40 2.899
370.50 2.896
370.60 2.893
370.70 2.89
370.80 2.887
370.90 2.884
371.00 2.881
371.10 2.878
371.20 2.875
371.30 2.873
371.40 2.87
371.50 2.867
371.60 2.864
371.70 2.861
371.80 2.858
371.90 2.855
372.00 2.852
372.10 2.849
372.20 2.846
372.30 2.843
372.40 2.841
372.50 2.838
372.60 2.835
372.70 2.832
372.80 2.829
372.90 2.827
373.00 2.824
373.10 2.821
373.20 2.818
373.30 2.816
373.40 2.813
373.50 2.81
373.60 2.807
373.70 2.804
373.80 2.802
373.90 2.799
374.00 2.796
374.10 2.793
374.20 2.791
374.30 2.788
374.40 2.786
374.50 2.783
374.60 2.78
374.70 2.778
374.80 2.775
374.90 2.773
375.00 2.77
375.10 2.767
375.20 2.765
375.30 2.762
375.40 2.76
375.50 2.757
375.60 2.755
375.70 2.752
375.80 2.749
375.90 2.747
376.00 2.744
376.10 2.742
376.20 2.739
376.30 2.736
376.40 2.733
376.50 2.731
376.60 2.728
376.70 2.725
376.80 2.723
376.90 2.72
377.00 2.717
377.10 2.715
377.20 2.713
377.30 2.711
377.40 2.709
377.50 2.707
377.60 2.705
377.70 2.703
377.80 2.701
377.90 2.699
378.00 2.697
378.10 2.694
378.20 2.691
378.30 2.688
378.40 2.686
378.50 2.683
378.60 2.68
378.70 2.677
378.80 2.675
378.90 2.672
379.00 2.669
379.10 2.667
379.20 2.664
379.30 2.661
379.40 2.658
379.50 2.655
379.60 2.653
379.70 2.65
379.80 2.647
379.90 2.644
380.00 2.642
380.10 2.64
380.20 2.639
380.30 2.638
380.40 2.637
380.50 2.636
380.60 2.635
380.70 2.633
380.80 2.632
380.90 2.631
381.00 2.63
381.10 2.628
381.20 2.625
381.30 2.623
381.40 2.621
381.50 2.619
381.60 2.616
381.70 2.613
381.80 2.61
381.90 2.606
382.00 2.603
382.10 2.599
382.20 2.595
382.30 2.59
382.40 2.585
382.50 2.58
382.60 2.575
382.70 2.57
382.80 2.565
382.90 2.56
383.00 2.555
383.10 2.55
383.20 2.545
383.30 2.54
383.40 2.535
383.50 2.531
383.60 2.529
383.70 2.53
383.80 2.531
383.90 2.533
384.00 2.534
384.10 2.536
384.20 2.538
384.30 2.539
384.40 2.54
384.50 2.542
384.60 2.543
384.70 2.544
384.80 2.544
384.90 2.545
385.00 2.545
385.10 2.545
385.20 2.544
385.30 2.544
385.40 2.543
385.50 2.542
385.60 2.541
385.70 2.539
385.80 2.537
385.90 2.535
386.00 2.533
386.10 2.53
386.20 2.527
386.30 2.524
386.40 2.52
386.50 2.517
386.60 2.513
386.70 2.508
386.80 2.503
386.90 2.498
387.00 2.493
387.10 2.487
387.20 2.481
387.30 2.475
387.40 2.468
387.50 2.461
387.60 2.453
387.70 2.445
387.80 2.437
387.90 2.428
388.00 2.42
388.10 2.41
388.20 2.401
388.30 2.391
388.40 2.382
388.50 2.372
388.60 2.362
388.70 2.354
388.80 2.348
388.90 2.344
389.00 2.344
389.10 2.346
389.20 2.35
389.30 2.356
389.40 2.362
389.50 2.368
389.60 2.374
389.70 2.379
389.80 2.385
389.90 2.39
390.00 2.395
390.10 2.399
390.20 2.403
390.30 2.407
390.40 2.411
390.50 2.414
390.60 2.417
390.70 2.42
390.80 2.422
390.90 2.424
391.00 2.426
391.10 2.427
391.20 2.429
391.30 2.43
391.40 2.43
391.50 2.431
391.60 2.431
391.70 2.431
391.80 2.431
391.90 2.431
392.00 2.43
392.10 2.429
392.20 2.428
392.30 2.427
392.40 2.426
392.50 2.424
392.60 2.422
392.70 2.42
392.80 2.418
392.90 2.416
393.00 2.413
393.10 2.411
393.20 2.408
393.30 2.405
393.40 2.402
393.50 2.398
393.60 2.394
393.70 2.391
393.80 2.386
393.90 2.382
394.00 2.377
394.10 2.372
394.20 2.367
394.30 2.362
394.40 2.356
394.50 2.35
394.60 2.344
394.70 2.337
394.80 2.33
394.90 2.322
395.00 2.314
395.10 2.306
395.20 2.297
395.30 2.288
395.40 2.278
395.50 2.268
395.60 2.257
395.70 2.246
395.80 2.234
395.90 2.222
396.00 2.209
396.10 2.196
396.20 2.182
396.30 2.168
396.40 2.153
396.50 2.138
396.60 2.122
396.70 2.107
396.80 2.091
396.90 2.076
397.00 2.062
397.10 2.071
397.20 2.082
397.30 2.094
397.40 2.106
397.50 2.117
397.60 2.129
397.70 2.14
397.80 2.15
397.90 2.16
398.00 2.17
398.10 2.179
398.20 2.187
398.30 2.195
398.40 2.202
398.50 2.209
398.60 2.215
398.70 2.221
398.80 2.227
398.90 2.231
399.00 2.236
399.10 2.24
399.20 2.243
399.30 2.247
399.40 2.25
399.50 2.252
399.60 2.254
399.70 2.256
399.80 2.258
399.90 2.26
400.00 2.261
400.10 2.262
400.20 2.263
400.30 2.263
400.40 2.264
400.50 2.264
400.60 2.264
400.70 2.264
400.80 2.264
400.90 2.264
401.00 2.263
401.10 2.263
401.20 2.262
401.30 2.261
401.40 2.261
401.50 2.26
401.60 2.259
401.70 2.258
401.80 2.256
401.90 2.255
402.00 2.254
402.10 2.253
402.20 2.251
402.30 2.25
402.40 2.248
402.50 2.247
402.60 2.245
402.70 2.243
402.80 2.241
402.90 2.24
403.00 2.238
403.10 2.236
403.20 2.234
403.30 2.232
403.40 2.23
403.50 2.228
403.60 2.226
403.70 2.224
403.80 2.222
403.90 2.22
404.00 2.217
404.10 2.215
404.20 2.213
404.30 2.211
404.40 2.208
404.50 2.206
404.60 2.203
404.70 2.201
404.80 2.198
404.90 2.195
405.00 2.193
405.10 2.19
405.20 2.187
405.30 2.184
405.40 2.181
405.50 2.178
405.60 2.175
405.70 2.172
405.80 2.169
405.90 2.165
406.00 2.162
406.10 2.158
406.20 2.154
406.30 2.151
406.40 2.147
406.50 2.143
406.60 2.138
406.70 2.134
406.80 2.129
406.90 2.125
407.00 2.119
407.10 2.114
407.20 2.109
407.30 2.103
407.40 2.097
407.50 2.091
407.60 2.084
407.70 2.077
407.80 2.07
407.90 2.062
408.00 2.054
408.10 2.046
408.20 2.037
408.30 2.027
408.40 2.018
408.50 2.007
408.60 1.996
408.70 1.984
408.80 1.972
408.90 1.959
409.00 1.945
409.10 1.931
409.20 1.916
409.30 1.9
409.40 1.883
409.50 1.866
409.60 1.848
409.70 1.829
409.80 1.81
409.90 1.79
410.00 1.771
410.10 1.76
410.20 1.757
410.30 1.763
410.40 1.774
410.50 1.791
410.60 1.807
410.70 1.823
410.80 1.838
410.90 1.852
411.00 1.865
411.10 1.878
411.20 1.89
411.30 1.901
411.40 1.912
411.50 1.921
411.60 1.93
411.70 1.939
411.80 1.946
411.90 1.953
412.00 1.96
412.10 1.966
412.20 1.971
412.30 1.976
412.40 1.98
412.50 1.984
412.60 1.988
412.70 1.991
412.80 1.994
412.90 1.997
413.00 1.999
413.10 2.001
413.20 2.002
413.30 2.004
413.40 2.005
413.50 2.006
413.60 2.007
413.70 2.008
413.80 2.008
413.90 2.008
414.00 2.009
414.10 2.009
414.20 2.009
414.30 2.008
414.40 2.008
414.50 2.008
414.60 2.007
414.70 2.007
414.80 2.006
414.90 2.005
415.00 2.005
415.10 2.004
415.20 2.003
415.30 2.002
415.40 2.001
415.50 2
415.60 1.999
415.70 1.998
415.80 1.997
415.90 1.996
416.00 1.994
416.10 1.993
416.20 1.992
416.30 1.99
416.40 1.989
416.50 1.988
416.60 1.986
416.70 1.985
416.80 1.984
416.90 1.982
417.00 1.981
417.10 1.979
417.20 1.978
417.30 1.976
417.40 1.975
417.50 1.973
417.60 1.972
417.70 1.97
417.80 1.969
417.90 1.967
418.00 1.966
418.10 1.964
418.20 1.962
418.30 1.961
418.40 1.959
418.50 1.958
418.60 1.956
418.70 1.954
418.80 1.953
418.90 1.951
419.00 1.95
419.10 1.948
419.20 1.946
419.30 1.945
419.40 1.943
419.50 1.941
419.60 1.94
419.70 1.938
419.80 1.936
419.90 1.935
420.00 1.933
420.10 1.931
420.20 1.93
420.30 1.928
420.40 1.926
420.50 1.925
420.60 1.923
420.70 1.921
420.80 1.92
420.90 1.918
421.00 1.916
421.10 1.915
421.20 1.913
421.30 1.911
421.40 1.91
421.50 1.908
421.60 1.906
421.70 1.904
421.80 1.903
421.90 1.901
422.00 1.899
422.10 1.898
422.20 1.896
422.30 1.894
422.40 1.893
422.50 1.891
422.60 1.889
422.70 1.887
422.80 1.886
422.90 1.884
423.00 1.882
423.10 1.881
423.20 1.879
423.30 1.877
423.40 1.876
423.50 1.874
423.60 1.872
423.70 1.87
423.80 1.869
423.90 1.867
424.00 1.865
424.10 1.863
424.20 1.862
424.30 1.86
424.40 1.858
424.50 1.857
424.60 1.855
424.70 1.853
424.80 1.851
424.90 1.85
425.00 1.848
425.10 1.846
425.20 1.844
425.30 1.843
425.40 1.841
425.50 1.839
425.60 1.837
425.70 1.835
425.80 1.834
425.90 1.832
426.00 1.83
426.10 1.828
426.20 1.826
426.30 1.825
426.40 1.823
426.50 1.821
426.60 1.819
426.70 1.817
426.80 1.815
426.90 1.814
427.00 1.812
427.10 1.81
427.20 1.808
427.30 1.806
427.40 1.804
427.50 1.802
427.60 1.8
427.70 1.798
427.80 1.796
427.90 1.794
428.00 1.792
428.10 1.79
428.20 1.788
428.30 1.786
428.40 1.784
428.50 1.782
428.60 1.78
428.70 1.777
428.80 1.775
428.90 1.773
429.00 1.77
429.10 1.768
429.20 1.766
429.30 1.763
429.40 1.761
429.50 1.758
429.60 1.755
429.70 1.753
429.80 1.75
429.90 1.747
430.00 1.744
430.10 1.741
430.20 1.738
430.30 1.735
430.40 1.731
430.50 1.728
430.60 1.724
430.70 1.721
430.80 1.717
430.90 1.713
431.00 1.708
431.10 1.704
431.20 1.699
431.30 1.694
431.40 1.689
431.50 1.684
431.60 1.678
431.70 1.672
431.80 1.665
431.90 1.658
432.00 1.651
432.10 1.644
432.20 1.635
432.30 1.627
432.40 1.618
432.50 1.608
432.60 1.598
432.70 1.587
432.80 1.575
432.90 1.563
433.00 1.55
433.10 1.536
433.20 1.522
433.30 1.507
433.40 1.491
433.50 1.474
433.60 1.457
433.70 1.439
433.80 1.42
433.90 1.4
434.00 1.382
434.10 1.381
434.20 1.398
434.30 1.415
434.40 1.432
434.50 1.448
434.60 1.462
434.70 1.476
434.80 1.49
434.90 1.502
435.00 1.514
435.10 1.525
435.20 1.535
435.30 1.544
435.40 1.553
435.50 1.561
435.60 1.568
435.70 1.575
435.80 1.581
435.90 1.587
436.00 1.592
436.10 1.596
436.20 1.6
436.30 1.604
436.40 1.608
436.50 1.611
436.60 1.613
436.70 1.616
436.80 1.618
436.90 1.62
437.00 1.621
437.10 1.623
437.20 1.624
437.30 1.625
437.40 1.626
437.50 1.626
437.60 1.627
437.70 1.627
437.80 1.628
437.90 1.628
438.00 1.628
438.10 1.628
438.20 1.628
438.30 1.628
438.40 1.627
438.50 1.627
438.60 1.627
438.70 1.626
438.80 1.625
438.90 1.625
439.00 1.624
439.10 1.624
439.20 1.623
439.30 1.622
439.40 1.621
439.50 1.621
439.60 1.62
439.70 1.619
439.80 1.618
439.90 1.617
440.00 1.616
440.10 1.615
440.20 1.614
440.30 1.613
440.40 1.612
440.50 1.611
440.60 1.61
440.70 1.609
440.80 1.608
440.90 1.607
441.00 1.605
441.10 1.604
441.20 1.603
441.30 1.602
441.40 1.601
441.50 1.6
441.60 1.599
441.70 1.597
441.80 1.596
441.90 1.595
442.00 1.594
442.10 1.593
442.20 1.591
442.30 1.59
442.40 1.589
442.50 1.588
442.60 1.586
442.70 1.585
442.80 1.584
442.90 1.583
443.00 1.581
443.10 1.58
443.20 1.579
443.30 1.578
443.40 1.576
443.50 1.575
443.60 1.574
443.70 1.573
443.80 1.571
443.90 1.57
444.00 1.569
444.10 1.568
444.20 1.566
444.30 1.565
444.40 1.564
444.50 1.563
444.60 1.561
444.70 1.56
444.80 1.559
444.90 1.557
445.00 1.556
445.10 1.555
445.20 1.554
445.30 1.552
445.40 1.551
445.50 1.55
445.60 1.549
445.70 1.547
445.80 1.546
445.90 1.545
446.00 1.543
446.10 1.542
446.20 1.541
446.30 1.54
446.40 1.538
446.50 1.537
446.60 1.536
446.70 1.535
446.80 1.533
446.90 1.532
447.00 1.531
447.10 1.529
447.20 1.528
447.30 1.527
447.40 1.526
447.50 1.524
447.60 1.523
447.70 1.522
447.80 1.521
447.90 1.519
448.00 1.518
448.10 1.517
448.20 1.516
448.30 1.514
448.40 1.513
448.50 1.512
448.60 1.51
448.70 1.509
448.80 1.508
448.90 1.507
449.00 1.505
449.10 1.504
449.20 1.503
449.30 1.502
449.40 1.5
449.50 1.499
449.60 1.498
449.70 1.497
449.80 1.495
449.90 1.494
450.00 1.493
450.10 1.492
450.20 1.49
450.30 1.489
450.40 1.488
450.50 1.487
450.60 1.485
450.70 1.484
450.80 1.483
450.90 1.482
451.00 1.481
451.10 1.479
451.20 1.478
451.30 1.477
451.40 1.476
451.50 1.474
451.60 1.473
451.70 1.472
451.80 1.471
451.90 1.469
452.00 1.468
452.10 1.467
452.20 1.466
452.30 1.465
452.40 1.463
452.50 1.462
452.60 1.461
452.70 1.46
452.80 1.458
452.90 1.457
453.00 1.456
453.10 1.455
453.20 1.454
453.30 1.452
453.40 1.451
453.50 1.45
453.60 1.449
453.70 1.448
453.80 1.446
453.90 1.445
454.00 1.444
454.10 1.443
454.20 1.442
454.30 1.44
454.40 1.439
454.50 1.438
454.60 1.437
454.70 1.436
454.80 1.434
454.90 1.433
455.00 1.432
455.10 1.431
455.20 1.43
455.30 1.428
455.40 1.427
455.50 1.426
455.60 1.425
455.70 1.424
455.80 1.422
455.90 1.421
456.00 1.42
456.10 1.419
456.20 1.418
456.30 1.417
456.40 1.415
456.50 1.414
456.60 1.413
456.70 1.412
456.80 1.411
456.90 1.41
457.00 1.408
457.10 1.407
457.20 1.406
457.30 1.405
457.40 1.404
457.50 1.403
457.60 1.401
457.70 1.4
457.80 1.399
457.90 1.398
458.00 1.397
458.10 1.396
458.20 1.394
458.30 1.393
458.40 1.392
458.50 1.391
458.60 1.39
458.70 1.389
458.80 1.388
458.90 1.386
459.00 1.385
459.10 1.384
459.20 1.383
459.30 1.382
459.40 1.381
459.50 1.379
459.60 1.378
459.70 1.377
459.80 1.376
459.90 1.375
460.00 1.374
460.10 1.373
460.20 1.372
460.30 1.37
460.40 1.369
460.50 1.368
460.60 1.367
460.70 1.366
460.80 1.365
460.90 1.364
461.00 1.363
461.10 1.361
461.20 1.36
461.30 1.359
461.40 1.358
461.50 1.357
461.60 1.356
461.70 1.355
461.80 1.354
461.90 1.352
462.00 1.351
462.10 1.35
462.20 1.349
462.30 1.348
462.40 1.347
462.50 1.346
462.60 1.345
462.70 1.344
462.80 1.342
462.90 1.341
463.00 1.34
463.10 1.339
463.20 1.338
463.30 1.337
463.40 1.336
463.50 1.335
463.60 1.334
463.70 1.333
463.80 1.331
463.90 1.33
464.00 1.329
464.10 1.328
464.20 1.327
464.30 1.326
464.40 1.325
464.50 1.324
464.60 1.323
464.70 1.322
464.80 1.321
464.90 1.319
465.00 1.318
465.10 1.317
465.20 1.316
465.30 1.315
465.40 1.314
465.50 1.313
465.60 1.312
465.70 1.311
465.80 1.31
465.90 1.309
466.00 1.308
466.10 1.307
466.20 1.305
466.30 1.304
466.40 1.303
466.50 1.302
466.60 1.301
466.70 1.3
466.80 1.299
466.90 1.298
467.00 1.297
467.10 1.296
467.20 1.295
467.30 1.294
467.40 1.293
467.50 1.292
467.60 1.291
467.70 1.29
467.80 1.288
467.90 1.287
468.00 1.286
468.10 1.285
468.20 1.284
468.30 1.283
468.40 1.282
468.50 1.281
468.60 1.28
468.70 1.279
468.80 1.278
468.90 1.277
469.00 1.276
469.10 1.275
469.20 1.274
469.30 1.273
469.40 1.272
469.50 1.271
469.60 1.27
469.70 1.269
469.80 1.268
469.90 1.267
470.00 1.265
470.10 1.264
470.20 1.263
470.30 1.262
470.40 1.261
470.50 1.26
470.60 1.259
470.70 1.258
470.80 1.257
470.90 1.256
471.00 1.255
471.10 1.254
471.20 1.253
471.30 1.252
471.40 1.251
471.50 1.25
471.60 1.249
471.70 1.248
471.80 1.247
471.90 1.246
472.00 1.245
472.10 1.244
472.20 1.243
472.30 1.242
472.40 1.241
472.50 1.24
472.60 1.239
472.70 1.238
472.80 1.237
472.90 1.236
473.00 1.235
473.10 1.234
473.20 1.233
473.30 1.232
473.40 1.231
473.50 1.23
473.60 1.229
473.70 1.228
473.80 1.227
473.90 1.226
474.00 1.224
474.10 1.223
474.20 1.222
474.30 1.221
474.40 1.22
474.50 1.219
474.60 1.218
474.70 1.217
474.80 1.216
474.90 1.215
475.00 1.214
475.10 1.213
475.20 1.212
475.30 1.211
475.40 1.21
475.50 1.209
475.60 1.208
475.70 1.207
475.80 1.206
475.90 1.205
476.00 1.204
476.10 1.203
476.20 1.202
476.30 1.201
476.40 1.2
476.50 1.199
476.60 1.198
476.70 1.197
476.80 1.196
476.90 1.195
477.00 1.194
477.10 1.193
477.20 1.192
477.30 1.191
477.40 1.19
477.50 1.189
477.60 1.187
477.70 1.186
477.80 1.185
477.90 1.184
478.00 1.183
478.10 1.182
478.20 1.181
478.30 1.18
478.40 1.179
478.50 1.178
478.60 1.177
478.70 1.176
478.80 1.175
478.90 1.173
479.00 1.172
479.10 1.171
479.20 1.17
479.30 1.169
479.40 1.168
479.50 1.167
479.60 1.165
479.70 1.164
479.80 1.163
479.90 1.162
480.00 1.161
480.10 1.16
480.20 1.158
480.30 1.157
480.40 1.156
480.50 1.154
480.60 1.153
480.70 1.152
480.80 1.15
480.90 1.149
481.00 1.148
481.10 1.146
481.20 1.145
481.30 1.143
481.40 1.142
481.50 1.14
481.60 1.138
481.70 1.137
481.80 1.135
481.90 1.134
482.00 1.132
482.10 1.13
482.20 1.128
482.30 1.126
482.40 1.124
482.50 1.122
482.60 1.12
482.70 1.117
482.80 1.115
482.90 1.113
483.00 1.111
483.10 1.109
483.20 1.105
483.30 1.102
483.40 1.098
483.50 1.095
483.60 1.091
483.70 1.088
483.80 1.084
483.90 1.081
484.00 1.078
484.10 1.074
484.20 1.069
484.30 1.064
484.40 1.059
484.50 1.054
484.60 1.048
484.70 1.042
484.80 1.035
484.90 1.028
485.00 1.021
485.10 1.014
485.20 1.005
485.30 0.9968
485.40 0.9876
485.50 0.978
485.60 0.9677
485.70 0.9571
485.80 0.9446
485.90 0.9312
486.00 0.9136
486.10 0.8993
486.20 0.8989
486.30 0.9185
486.40 0.932
486.50 0.944
486.60 0.9541
486.70 0.9634
486.80 0.9718
486.90 0.9798
487.00 0.9871
487.10 0.9941
487.20 1
487.30 1.005
487.40 1.011
487.50 1.016
487.60 1.022
487.70 1.026
487.80 1.029
487.90 1.033
488.00 1.036
488.10 1.04
488.20 1.042
488.30 1.044
488.40 1.046
488.50 1.048
488.60 1.049
488.70 1.051
488.80 1.053
488.90 1.054
489.00 1.056
489.10 1.058
489.20 1.059
489.30 1.059
489.40 1.059
489.50 1.06
489.60 1.06
489.70 1.061
489.80 1.061
489.90 1.062
490.00 1.062
490.10 1.062
490.20 1.062
490.30 1.062
490.40 1.062
490.50 1.062
490.60 1.062
490.70 1.061
490.80 1.061
490.90 1.061
491.00 1.061
491.10 1.061
491.20 1.06
491.30 1.06
491.40 1.059
491.50 1.059
491.60 1.059
491.70 1.058
491.80 1.058
491.90 1.057
492.00 1.057
492.10 1.056
492.20 1.056
492.30 1.055
492.40 1.054
492.50 1.054
492.60 1.053
492.70 1.053
492.80 1.052
492.90 1.051
493.00 1.051
493.10 1.05
493.20 1.05
493.30 1.049
493.40 1.048
493.50 1.048
493.60 1.047
493.70 1.046
493.80 1.046
493.90 1.045
494.00 1.044
494.10 1.044
494.20 1.043
494.30 1.042
494.40 1.041
494.50 1.041
494.60 1.04
494.70 1.039
494.80 1.039
494.90 1.038
495.00 1.037
495.10 1.036
495.20 1.036
495.30 1.035
495.40 1.034
495.50 1.034
495.60 1.033
495.70 1.032
495.80 1.031
495.90 1.031
496.00 1.03
496.10 1.029
496.20 1.028
496.30 1.028
496.40 1.027
496.50 1.026
496.60 1.025
496.70 1.025
496.80 1.024
496.90 1.023
497.00 1.022
497.10 1.022
497.20 1.021
497.30 1.02
497.40 1.019
497.50 1.019
497.60 1.018
497.70 1.017
497.80 1.016
497.90 1.016
498.00 1.015
498.10 1.014
498.20 1.013
498.30 1.013
498.40 1.012
498.50 1.011
498.60 1.01
498.70 1.01
498.80 1.009
498.90 1.008
499.00 1.007
499.10 1.007
499.20 1.006
499.30 1.005
499.40 1.004
499.50 1.004
499.60 1.003
499.70 1.002
499.80 1.001
499.90 1.001
500.00 1
500.10 0.9993
500.20 0.9985
500.30 0.9978
500.40 0.997
500.50 0.9963
500.60 0.9955
500.70 0.9948
500.80 0.994
500.90 0.9933
501.00 0.9926
501.10 0.9918
501.20 0.9911
501.30 0.9903
501.40 0.9896
501.50 0.9889
501.60 0.9881
501.70 0.9874
501.80 0.9866
501.90 0.9859
502.00 0.9852
502.10 0.9844
502.20 0.9837
502.30 0.9829
502.40 0.9822
502.50 0.9815
502.60 0.9807
502.70 0.98
502.80 0.9793
502.90 0.9785
503.00 0.9778
503.10 0.9771
503.20 0.9763
503.30 0.9756
503.40 0.9749
503.50 0.9741
503.60 0.9734
503.70 0.9727
503.80 0.972
503.90 0.9712
504.00 0.9705
504.10 0.9698
504.20 0.969
504.30 0.9683
504.40 0.9676
504.50 0.9669
504.60 0.9661
504.70 0.9654
504.80 0.9647
504.90 0.964
505.00 0.9633
505.10 0.9625
505.20 0.9618
505.30 0.9611
505.40 0.9604
505.50 0.9597
505.60 0.9589
505.70 0.9582
505.80 0.9575
505.90 0.9568
506.00 0.9561
506.10 0.9554
506.20 0.9546
506.30 0.9539
506.40 0.9532
506.50 0.9525
506.60 0.9518
506.70 0.9511
506.80 0.9504
506.90 0.9497
507.00 0.9489
507.10 0.9482
507.20 0.9475
507.30 0.9468
507.40 0.9461
507.50 0.9454
507.60 0.9447
507.70 0.944
507.80 0.9433
507.90 0.9426
508.00 0.9419
508.10 0.9412
508.20 0.9405
508.30 0.9398
508.40 0.9391
508.50 0.9384
508.60 0.9377
508.70 0.937
508.80 0.9363
508.90 0.9356
509.00 0.9349
509.10 0.9342
509.20 0.9335
509.30 0.9328
509.40 0.9321
509.50 0.9314
509.60 0.9307
509.70 0.93
509.80 0.9293
509.90 0.9286
510.00 0.9279
510.10 0.9272
510.20 0.9265
510.30 0.9258
510.40 0.9252
510.50 0.9245
510.60 0.9238
510.70 0.9231
510.80 0.9224
510.90 0.9217
511.00 0.921
511.10 0.9204
511.20 0.9197
511.30 0.919
511.40 0.9183
511.50 0.9176
511.60 0.9169
511.70 0.9163
511.80 0.9156
511.90 0.9149
512.00 0.9142
512.10 0.9135
512.20 0.9129
512.30 0.9122
512.40 0.9115
512.50 0.9108
512.60 0.9101
512.70 0.9095
512.80 0.9088
512.90 0.9081
513.00 0.9075
513.10 0.9068
513.20 0.9061
513.30 0.9054
513.40 0.9048
513.50 0.9041
513.60 0.9034
513.70 0.9028
513.80 0.9021
513.90 0.9014
514.00 0.9007
514.10 0.9001
514.20 0.8994
514.30 0.8987
514.40 0.8981
514.50 0.8974
514.60 0.8968
514.70 0.8961
514.80 0.8954
514.90 0.8948
515.00 0.8941
515.10 0.8934
515.20 0.8928
515.30 0.8921
515.40 0.8915
515.50 0.8908
515.60 0.8902
515.70 0.8895
515.80 0.8888
515.90 0.8882
516.00 0.8875
516.10 0.8869
516.20 0.8862
516.30 0.8856
516.40 0.8849
516.50 0.8843
516.60 0.8836
516.70 0.883
516.80 0.8823
516.90 0.8817
517.00 0.881
517.10 0.8804
517.20 0.8797
517.30 0.8791
517.40 0.8784
517.50 0.8778
517.60 0.8771
517.70 0.8765
517.80 0.8758
517.90 0.8752
518.00 0.8745
518.10 0.8739
518.20 0.8733
518.30 0.8726
518.40 0.872
518.50 0.8713
518.60 0.8707
518.70 0.8701
518.80 0.8694
518.90 0.8688
519.00 0.8681
519.10 0.8675
519.20 0.8669
519.30 0.8662
519.40 0.8656
519.50 0.865
519.60 0.8643
519.70 0.8637
519.80 0.8631
519.90 0.8624
520.00 0.8618
520.10 0.8612
520.20 0.8605
520.30 0.8599
520.40 0.8593
520.50 0.8586
520.60 0.858
520.70 0.8574
520.80 0.8568
520.90 0.8561
521.00 0.8555
521.10 0.8549
521.20 0.8543
521.30 0.8536
521.40 0.853
521.50 0.8524
521.60 0.8518
521.70 0.8511
521.80 0.8505
521.90 0.8499
522.00 0.8493
522.10 0.8487
522.20 0.848
522.30 0.8474
522.40 0.8468
522.50 0.8462
522.60 0.8456
522.70 0.8449
522.80 0.8443
522.90 0.8437
523.00 0.8431
523.10 0.8425
523.20 0.8419
523.30 0.8413
523.40 0.8406
523.50 0.84
523.60 0.8394
523.70 0.8388
523.80 0.8382
523.90 0.8376
524.00 0.837
524.10 0.8364
524.20 0.8358
524.30 0.8352
524.40 0.8345
524.50 0.8339
524.60 0.8333
524.70 0.8327
524.80 0.8321
524.90 0.8315
525.00 0.8309
525.10 0.8303
525.20 0.8297
525.30 0.8291
525.40 0.8285
525.50 0.8279
525.60 0.8273
525.70 0.8267
525.80 0.8261
525.90 0.8255
526.00 0.8249
526.10 0.8243
526.20 0.8237
526.30 0.8231
526.40 0.8225
526.50 0.8219
526.60 0.8213
526.70 0.8207
526.80 0.8201
526.90 0.8195
527.00 0.819
527.10 0.8184
527.20 0.8178
527.30 0.8172
527.40 0.8166
527.50 0.816
527.60 0.8154
527.70 0.8148
527.80 0.8142
527.90 0.8136
528.00 0.813
528.10 0.8125
528.20 0.8119
528.30 0.8113
528.40 0.8107
528.50 0.8101
528.60 0.8095
528.70 0.809
528.80 0.8084
528.90 0.8078
529.00 0.8072
529.10 0.8066
529.20 0.806
529.30 0.8055
529.40 0.8049
529.50 0.8043
529.60 0.8037
529.70 0.8031
529.80 0.8026
529.90 0.802
530.00 0.8014
530.10 0.8008
530.20 0.8002
530.30 0.7997
530.40 0.7991
530.50 0.7985
530.60 0.798
530.70 0.7974
530.80 0.7968
530.90 0.7962
531.00 0.7957
531.10 0.7951
531.20 0.7945
531.30 0.7939
531.40 0.7934
531.50 0.7928
531.60 0.7922
531.70 0.7917
531.80 0.7911
531.90 0.7905
532.00 0.79
532.10 0.7894
532.20 0.7888
532.30 0.7883
532.40 0.7877
532.50 0.7871
532.60 0.7866
532.70 0.786
532.80 0.7854
532.90 0.7849
533.00 0.7843
533.10 0.7838
533.20 0.7832
533.30 0.7826
533.40 0.7821
533.50 0.7815
533.60 0.781
533.70 0.7804
533.80 0.7798
533.90 0.7793
534.00 0.7787
534.10 0.7782
534.20 0.7776
534.30 0.7771
534.40 0.7765
534.50 0.776
534.60 0.7754
534.70 0.7748
534.80 0.7743
534.90 0.7737
535.00 0.7732
535.10 0.7726
535.20 0.7721
535.30 0.7715
535.40 0.771
535.50 0.7704
535.60 0.7699
535.70 0.7693
535.80 0.7688
535.90 0.7682
536.00 0.7677
536.10 0.7671
536.20 0.7666
536.30 0.7661
536.40 0.7655
536.50 0.765
536.60 0.7644
536.70 0.7639
536.80 0.7633
536.90 0.7628
537.00 0.7623
537.10 0.7617
537.20 0.7612
537.30 0.7606
537.40 0.7601
537.50 0.7595
537.60 0.759
537.70 0.7585
537.80 0.7579
537.90 0.7574
538.00 0.7569
538.10 0.7563
538.20 0.7558
538.30 0.7552
538.40 0.7547
538.50 0.7542
538.60 0.7536
538.70 0.7531
538.80 0.7526
538.90 0.752
539.00 0.7515
539.10 0.751
539.20 0.7504
539.30 0.7499
539.40 0.7494
539.50 0.7488
539.60 0.7483
539.70 0.7478
539.80 0.7473
539.90 0.7467
540.00 0.7462
540.10 0.7457
540.20 0.7452
540.30 0.7446
540.40 0.7441
540.50 0.7436
540.60 0.743
540.70 0.7425
540.80 0.742
540.90 0.7415
541.00 0.741
541.10 0.7404
541.20 0.7399
541.30 0.7394
541.40 0.7389
541.50 0.7383
541.60 0.7378
541.70 0.7373
541.80 0.7368
541.90 0.7363
542.00 0.7357
542.10 0.7352
542.20 0.7347
542.30 0.7342
542.40 0.7337
542.50 0.7332
542.60 0.7326
542.70 0.7321
542.80 0.7316
542.90 0.7311
543.00 0.7306
543.10 0.7301
543.20 0.7295
543.30 0.729
543.40 0.7285
543.50 0.728
543.60 0.7275
543.70 0.727
543.80 0.7265
543.90 0.726
544.00 0.7255
544.10 0.725
544.20 0.7244
544.30 0.7239
544.40 0.7234
544.50 0.7229
544.60 0.7224
544.70 0.7219
544.80 0.7214
544.90 0.7209
545.00 0.7204
545.10 0.7199
545.20 0.7194
545.30 0.7189
545.40 0.7184
545.50 0.7179
545.60 0.7174
545.70 0.7169
545.80 0.7164
545.90 0.7159
546.00 0.7154
546.10 0.7149
546.20 0.7144
546.30 0.7139
546.40 0.7134
546.50 0.7129
546.60 0.7124
546.70 0.7119
546.80 0.7114
546.90 0.7109
547.00 0.7104
547.10 0.7099
547.20 0.7094
547.30 0.7089
547.40 0.7084
547.50 0.7079
547.60 0.7074
547.70 0.7069
547.80 0.7064
547.90 0.7059
548.00 0.7054
548.10 0.7049
548.20 0.7045
548.30 0.704
548.40 0.7035
548.50 0.703
548.60 0.7025
548.70 0.702
548.80 0.7015
548.90 0.701
549.00 0.7005
549.10 0.7
549.20 0.6996
549.30 0.6991
549.40 0.6986
549.50 0.6981
549.60 0.6976
549.70 0.6971
549.80 0.6966
549.90 0.6962
550.00 0.6957
550.10 0.6952
550.20 0.6947
550.30 0.6942
550.40 0.6937
550.50 0.6933
550.60 0.6928
550.70 0.6923
550.80 0.6918
550.90 0.6913
551.00 0.6909
551.10 0.6904
551.20 0.6899
551.30 0.6894
551.40 0.689
551.50 0.6885
551.60 0.688
551.70 0.6875
551.80 0.687
551.90 0.6866
552.00 0.6861
552.10 0.6856
552.20 0.6851
552.30 0.6847
552.40 0.6842
552.50 0.6837
552.60 0.6833
552.70 0.6828
552.80 0.6823
552.90 0.6818
553.00 0.6814
553.10 0.6809
553.20 0.6804
553.30 0.68
553.40 0.6795
553.50 0.679
553.60 0.6785
553.70 0.6781
553.80 0.6776
553.90 0.6771
554.00 0.6767
554.10 0.6762
554.20 0.6757
554.30 0.6753
554.40 0.6748
554.50 0.6743
554.60 0.6739
554.70 0.6734
554.80 0.673
554.90 0.6725
555.00 0.672
555.10 0.6716
555.20 0.6711
555.30 0.6706
555.40 0.6702
555.50 0.6697
555.60 0.6693
555.70 0.6688
555.80 0.6683
555.90 0.6679
556.00 0.6674
556.10 0.667
556.20 0.6665
556.30 0.666
556.40 0.6656
556.50 0.6651
556.60 0.6647
556.70 0.6642
556.80 0.6638
556.90 0.6633
557.00 0.6628
557.10 0.6624
557.20 0.6619
557.30 0.6615
557.40 0.661
557.50 0.6606
557.60 0.6601
557.70 0.6597
557.80 0.6592
557.90 0.6588
558.00 0.6583
558.10 0.6579
558.20 0.6574
558.30 0.657
558.40 0.6565
558.50 0.6561
558.60 0.6556
558.70 0.6552
558.80 0.6547
558.90 0.6543
559.00 0.6538
559.10 0.6534
559.20 0.6529
559.30 0.6525
559.40 0.652
559.50 0.6516
559.60 0.6511
559.70 0.6507
559.80 0.6503
559.90 0.6498
560.00 0.6494
560.10 0.6489
560.20 0.6485
560.30 0.648
560.40 0.6476
560.50 0.6472
560.60 0.6467
560.70 0.6463
560.80 0.6458
560.90 0.6454
561.00 0.6449
561.10 0.6445
561.20 0.6441
561.30 0.6436
561.40 0.6432
561.50 0.6428
561.60 0.6423
561.70 0.6419
561.80 0.6414
561.90 0.641
562.00 0.6406
562.10 0.6401
562.20 0.6397
562.30 0.6393
562.40 0.6388
562.50 0.6384
562.60 0.638
562.70 0.6375
562.80 0.6371
562.90 0.6367
563.00 0.6362
563.10 0.6358
563.20 0.6354
563.30 0.6349
563.40 0.6345
563.50 0.6341
563.60 0.6336
563.70 0.6332
563.80 0.6328
563.90 0.6324
564.00 0.6319
564.10 0.6315
564.20 0.6311
564.30 0.6306
564.40 0.6302
564.50 0.6298
564.60 0.6294
564.70 0.6289
564.80 0.6285
564.90 0.6281
565.00 0.6277
565.10 0.6272
565.20 0.6268
565.30 0.6264
565.40 0.626
565.50 0.6255
565.60 0.6251
565.70 0.6247
565.80 0.6243
565.90 0.6238
566.00 0.6234
566.10 0.623
566.20 0.6226
566.30 0.6222
566.40 0.6217
566.50 0.6213
566.60 0.6209
566.70 0.6205
566.80 0.6201
566.90 0.6196
567.00 0.6192
567.10 0.6188
567.20 0.6184
567.30 0.618
567.40 0.6176
567.50 0.6171
567.60 0.6167
567.70 0.6163
567.80 0.6159
567.90 0.6155
568.00 0.6151
568.10 0.6147
568.20 0.6142
568.30 0.6138
568.40 0.6134
568.50 0.613
568.60 0.6126
568.70 0.6122
568.80 0.6118
568.90 0.6114
569.00 0.6109
569.10 0.6105
569.20 0.6101
569.30 0.6097
569.40 0.6093
569.50 0.6089
569.60 0.6085
569.70 0.6081
569.80 0.6077
569.90 0.6073
570.00 0.6068
570.10 0.6064
570.20 0.606
570.30 0.6056
570.40 0.6052
570.50 0.6048
570.60 0.6044
570.70 0.604
570.80 0.6036
570.90 0.6032
571.00 0.6028
571.10 0.6024
571.20 0.602
571.30 0.6016
571.40 0.6012
571.50 0.6008
571.60 0.6004
571.70 0.6
571.80 0.5996
571.90 0.5992
572.00 0.5988
572.10 0.5984
572.20 0.598
572.30 0.5976
572.40 0.5972
572.50 0.5968
572.60 0.5964
572.70 0.596
572.80 0.5956
572.90 0.5952
573.00 0.5948
573.10 0.5944
573.20 0.594
573.30 0.5936
573.40 0.5932
573.50 0.5928
573.60 0.5924
573.70 0.592
573.80 0.5916
573.90 0.5912
574.00 0.5908
574.10 0.5904
574.20 0.59
574.30 0.5896
574.40 0.5892
574.50 0.5889
574.60 0.5885
574.70 0.5881
574.80 0.5877
574.90 0.5873
575.00 0.5869
575.10 0.5865
575.20 0.5861
575.30 0.5857
575.40 0.5853
575.50 0.5849
575.60 0.5846
575.70 0.5842
575.80 0.5838
575.90 0.5834
576.00 0.583
576.10 0.5826
576.20 0.5822
576.30 0.5818
576.40 0.5815
576.50 0.5811
576.60 0.5807
576.70 0.5803
576.80 0.5799
576.90 0.5795
577.00 0.5791
577.10 0.5788
577.20 0.5784
577.30 0.578
577.40 0.5776
577.50 0.5772
577.60 0.5768
577.70 0.5765
577.80 0.5761
577.90 0.5757
578.00 0.5753
578.10 0.5749
578.20 0.5746
578.30 0.5742
578.40 0.5738
578.50 0.5734
578.60 0.573
578.70 0.5727
578.80 0.5723
578.90 0.5719
579.00 0.5715
579.10 0.5711
579.20 0.5708
579.30 0.5704
579.40 0.57
579.50 0.5696
579.60 0.5693
579.70 0.5689
579.80 0.5685
579.90 0.5681
580.00 0.5678
580.10 0.5674
580.20 0.567
580.30 0.5666
580.40 0.5663
580.50 0.5659
580.60 0.5655
580.70 0.5651
580.80 0.5648
580.90 0.5644
581.00 0.564
581.10 0.5637
581.20 0.5633
581.30 0.5629
581.40 0.5625
581.50 0.5622
581.60 0.5618
581.70 0.5614
581.80 0.5611
581.90 0.5607
582.00 0.5603
582.10 0.56
582.20 0.5596
582.30 0.5592
582.40 0.5589
582.50 0.5585
582.60 0.5581
582.70 0.5577
582.80 0.5574
582.90 0.557
583.00 0.5567
583.10 0.5563
583.20 0.5559
583.30 0.5556
583.40 0.5552
583.50 0.5548
583.60 0.5545
583.70 0.5541
583.80 0.5537
583.90 0.5534
584.00 0.553
584.10 0.5526
584.20 0.5523
584.30 0.5519
584.40 0.5516
584.50 0.5512
584.60 0.5508
584.70 0.5505
584.80 0.5501
584.90 0.5498
585.00 0.5494
585.10 0.549
585.20 0.5487
585.30 0.5483
585.40 0.548
585.50 0.5476
585.60 0.5472
585.70 0.5469
585.80 0.5465
585.90 0.5462
586.00 0.5458
586.10 0.5455
586.20 0.5451
586.30 0.5447
586.40 0.5444
586.50 0.544
586.60 0.5437
586.70 0.5433
586.80 0.543
586.90 0.5426
587.00 0.5423
587.10 0.5419
587.20 0.5416
587.30 0.5412
587.40 0.5408
587.50 0.5405
587.60 0.5401
587.70 0.5398
587.80 0.5394
587.90 0.5391
588.00 0.5387
588.10 0.5384
588.20 0.538
588.30 0.5377
588.40 0.5373
588.50 0.537
588.60 0.5366
588.70 0.5363
588.80 0.5359
588.90 0.5356
589.00 0.5352
589.10 0.5349
589.20 0.5345
589.30 0.5342
589.40 0.5338
589.50 0.5335
589.60 0.5332
589.70 0.5328
589.80 0.5325
589.90 0.5321
590.00 0.5318
590.10 0.5314
590.20 0.5311
590.30 0.5307
590.40 0.5304
590.50 0.53
590.60 0.5297
590.70 0.5294
590.80 0.529
590.90 0.5287
591.00 0.5283
591.10 0.528
591.20 0.5276
591.30 0.5273
591.40 0.527
591.50 0.5266
591.60 0.5263
591.70 0.5259
591.80 0.5256
591.90 0.5253
592.00 0.5249
592.10 0.5246
592.20 0.5242
592.30 0.5239
592.40 0.5236
592.50 0.5232
592.60 0.5229
592.70 0.5225
592.80 0.5222
592.90 0.5219
593.00 0.5215
593.10 0.5212
593.20 0.5209
593.30 0.5205
593.40 0.5202
593.50 0.5199
593.60 0.5195
593.70 0.5192
593.80 0.5188
593.90 0.5185
594.00 0.5182
594.10 0.5178
594.20 0.5175
594.30 0.5172
594.40 0.5168
594.50 0.5165
594.60 0.5162
594.70 0.5158
594.80 0.5155
594.90 0.5152
595.00 0.5148
595.10 0.5145
595.20 0.5142
595.30 0.5139
595.40 0.5135
595.50 0.5132
595.60 0.5129
595.70 0.5125
595.80 0.5122
595.90 0.5119
596.00 0.5115
596.10 0.5112
596.20 0.5109
596.30 0.5106
596.40 0.5102
596.50 0.5099
596.60 0.5096
596.70 0.5092
596.80 0.5089
596.90 0.5086
597.00 0.5083
597.10 0.5079
597.20 0.5076
597.30 0.5073
597.40 0.507
597.50 0.5066
597.60 0.5063
597.70 0.506
597.80 0.5057
597.90 0.5053
598.00 0.505
598.10 0.5047
598.20 0.5044
598.30 0.504
598.40 0.5037
598.50 0.5034
598.60 0.5031
598.70 0.5028
598.80 0.5024
598.90 0.5021
599.00 0.5018
599.10 0.5015
599.20 0.5012
599.30 0.5008
599.40 0.5005
599.50 0.5002
599.60 0.4999
599.70 0.4996
599.80 0.4992
599.90 0.4989
600.00 0.4986
600.10 0.4983
600.20 0.498
600.30 0.4976
600.40 0.4973
600.50 0.497
600.60 0.4967
600.70 0.4964
600.80 0.4961
600.90 0.4957
601.00 0.4954
601.10 0.4951
601.20 0.4948
601.30 0.4945
601.40 0.4942
601.50 0.4938
601.60 0.4935
601.70 0.4932
601.80 0.4929
601.90 0.4926
602.00 0.4923
602.10 0.492
602.20 0.4916
602.30 0.4913
602.40 0.491
602.50 0.4907
602.60 0.4904
602.70 0.4901
602.80 0.4898
602.90 0.4895
603.00 0.4892
603.10 0.4888
603.20 0.4885
603.30 0.4882
603.40 0.4879
603.50 0.4876
603.60 0.4873
603.70 0.487
603.80 0.4867
603.90 0.4864
604.00 0.4861
604.10 0.4857
604.20 0.4854
604.30 0.4851
604.40 0.4848
604.50 0.4845
604.60 0.4842
604.70 0.4839
604.80 0.4836
604.90 0.4833
605.00 0.483
605.10 0.4827
605.20 0.4824
605.30 0.4821
605.40 0.4818
605.50 0.4814
605.60 0.4811
605.70 0.4808
605.80 0.4805
605.90 0.4802
606.00 0.4799
606.10 0.4796
606.20 0.4793
606.30 0.479
606.40 0.4787
606.50 0.4784
606.60 0.4781
606.70 0.4778
606.80 0.4775
606.90 0.4772
607.00 0.4769
607.10 0.4766
607.20 0.4763
607.30 0.476
607.40 0.4757
607.50 0.4754
607.60 0.4751
607.70 0.4748
607.80 0.4745
607.90 0.4742
608.00 0.4739
608.10 0.4736
608.20 0.4733
608.30 0.473
608.40 0.4727
608.50 0.4724
608.60 0.4721
608.70 0.4718
608.80 0.4715
608.90 0.4712
609.00 0.4709
609.10 0.4706
609.20 0.4703
609.30 0.47
609.40 0.4697
609.50 0.4694
609.60 0.4691
609.70 0.4689
609.80 0.4686
609.90 0.4683
610.00 0.468
610.10 0.4677
610.20 0.4674
610.30 0.4671
610.40 0.4668
610.50 0.4665
610.60 0.4662
610.70 0.4659
610.80 0.4656
610.90 0.4653
611.00 0.465
611.10 0.4647
611.20 0.4645
611.30 0.4642
611.40 0.4639
611.50 0.4636
611.60 0.4633
611.70 0.463
611.80 0.4627
611.90 0.4624
612.00 0.4621
612.10 0.4618
612.20 0.4615
612.30 0.4613
612.40 0.461
612.50 0.4607
612.60 0.4604
612.70 0.4601
612.80 0.4598
612.90 0.4595
613.00 0.4592
613.10 0.459
613.20 0.4587
613.30 0.4584
613.40 0.4581
613.50 0.4578
613.60 0.4575
613.70 0.4572
613.80 0.4569
613.90 0.4567
614.00 0.4564
614.10 0.4561
614.20 0.4558
614.30 0.4555
614.40 0.4552
614.50 0.455
614.60 0.4547
614.70 0.4544
614.80 0.4541
614.90 0.4538
615.00 0.4535
615.10 0.4532
615.20 0.453
615.30 0.4527
615.40 0.4524
615.50 0.4521
615.60 0.4518
615.70 0.4516
615.80 0.4513
615.90 0.451
616.00 0.4507
616.10 0.4504
616.20 0.4502
616.30 0.4499
616.40 0.4496
616.50 0.4493
616.60 0.449
616.70 0.4488
616.80 0.4485
616.90 0.4482
617.00 0.4479
617.10 0.4476
617.20 0.4474
617.30 0.4471
617.40 0.4468
617.50 0.4465
617.60 0.4462
617.70 0.446
617.80 0.4457
617.90 0.4454
618.00 0.4451
618.10 0.4449
618.20 0.4446
618.30 0.4443
618.40 0.444
618.50 0.4438
618.60 0.4435
618.70 0.4432
618.80 0.4429
618.90 0.4427
619.00 0.4424
619.10 0.4421
619.20 0.4418
619.30 0.4416
619.40 0.4413
619.50 0.441
619.60 0.4407
619.70 0.4405
619.80 0.4402
619.90 0.4399
620.00 0.4396
620.10 0.4394
620.20 0.4391
620.30 0.4388
620.40 0.4386
620.50 0.4383
620.60 0.438
620.70 0.4377
620.80 0.4375
620.90 0.4372
621.00 0.4369
621.10 0.4367
621.20 0.4364
621.30 0.4361
621.40 0.4359
621.50 0.4356
621.60 0.4353
621.70 0.435
621.80 0.4348
621.90 0.4345
622.00 0.4342
622.10 0.434
622.20 0.4337
622.30 0.4334
622.40 0.4332
622.50 0.4329
622.60 0.4326
622.70 0.4324
622.80 0.4321
622.90 0.4318
623.00 0.4316
623.10 0.4313
623.20 0.431
623.30 0.4308
623.40 0.4305
623.50 0.4302
623.60 0.43
623.70 0.4297
623.80 0.4294
623.90 0.4292
624.00 0.4289
624.10 0.4287
624.20 0.4284
624.30 0.4281
624.40 0.4279
624.50 0.4276
624.60 0.4273
624.70 0.4271
624.80 0.4268
624.90 0.4265
625.00 0.4263
625.10 0.426
625.20 0.4258
625.30 0.4255
625.40 0.4252
625.50 0.425
625.60 0.4247
625.70 0.4245
625.80 0.4242
625.90 0.4239
626.00 0.4237
626.10 0.4234
626.20 0.4232
626.30 0.4229
626.40 0.4226
626.50 0.4224
626.60 0.4221
626.70 0.4219
626.80 0.4216
626.90 0.4213
627.00 0.4211
627.10 0.4208
627.20 0.4206
627.30 0.4203
627.40 0.4201
627.50 0.4198
627.60 0.4195
627.70 0.4193
627.80 0.419
627.90 0.4188
628.00 0.4185
628.10 0.4183
628.20 0.418
628.30 0.4177
628.40 0.4175
628.50 0.4172
628.60 0.417
628.70 0.4167
628.80 0.4165
628.90 0.4162
629.00 0.416
629.10 0.4157
629.20 0.4154
629.30 0.4152
629.40 0.4149
629.50 0.4147
629.60 0.4144
629.70 0.4142
629.80 0.4139
629.90 0.4137
630.00 0.4134
630.10 0.4132
630.20 0.4129
630.30 0.4127
630.40 0.4124
630.50 0.4122
630.60 0.4119
630.70 0.4117
630.80 0.4114
630.90 0.4112
631.00 0.4109
631.10 0.4106
631.20 0.4104
631.30 0.4101
631.40 0.4099
631.50 0.4096
631.60 0.4094
631.70 0.4091
631.80 0.4089
631.90 0.4087
632.00 0.4084
632.10 0.4082
632.20 0.4079
632.30 0.4077
632.40 0.4074
632.50 0.4072
632.60 0.4069
632.70 0.4067
632.80 0.4064
632.90 0.4062
633.00 0.4059
633.10 0.4057
633.20 0.4054
633.30 0.4052
633.40 0.4049
633.50 0.4047
633.60 0.4044
633.70 0.4042
633.80 0.4039
633.90 0.4037
634.00 0.4035
634.10 0.4032
634.20 0.403
634.30 0.4027
634.40 0.4025
634.50 0.4022
634.60 0.402
634.70 0.4017
634.80 0.4015
634.90 0.4013
635.00 0.401
635.10 0.4008
635.20 0.4005
635.30 0.4003
635.40 0.4
635.50 0.3998
635.60 0.3995
635.70 0.3993
635.80 0.3991
635.90 0.3988
636.00 0.3986
636.10 0.3983
636.20 0.3981
636.30 0.3979
636.40 0.3976
636.50 0.3974
636.60 0.3971
636.70 0.3969
636.80 0.3966
636.90 0.3964
637.00 0.3962
637.10 0.3959
637.20 0.3957
637.30 0.3954
637.40 0.3952
637.50 0.395
637.60 0.3947
637.70 0.3945
637.80 0.3942
637.90 0.394
638.00 0.3938
638.10 0.3935
638.20 0.3933
638.30 0.393
638.40 0.3928
638.50 0.3926
638.60 0.3923
638.70 0.3921
638.80 0.3919
638.90 0.3916
639.00 0.3914
639.10 0.3911
639.20 0.3909
639.30 0.3907
639.40 0.3904
639.50 0.3902
639.60 0.39
639.70 0.3897
639.80 0.3895
639.90 0.3892
640.00 0.389
640.10 0.3888
640.20 0.3885
640.30 0.3883
640.40 0.3881
640.50 0.3878
640.60 0.3876
640.70 0.3873
640.80 0.3871
640.90 0.3869
641.00 0.3866
641.10 0.3864
641.20 0.3862
641.30 0.3859
641.40 0.3857
641.50 0.3855
641.60 0.3852
641.70 0.385
641.80 0.3848
641.90 0.3845
642.00 0.3843
642.10 0.3841
642.20 0.3838
642.30 0.3836
642.40 0.3833
642.50 0.3831
642.60 0.3829
642.70 0.3826
642.80 0.3824
642.90 0.3822
643.00 0.3819
643.10 0.3817
643.20 0.3815
643.30 0.3812
643.40 0.381
643.50 0.3808
643.60 0.3805
643.70 0.3803
643.80 0.3801
643.90 0.3798
644.00 0.3796
644.10 0.3794
644.20 0.3791
644.30 0.3789
644.40 0.3787
644.50 0.3784
644.60 0.3782
644.70 0.378
644.80 0.3777
644.90 0.3775
645.00 0.3773
645.10 0.377
645.20 0.3768
645.30 0.3765
645.40 0.3763
645.50 0.3761
645.60 0.3758
645.70 0.3756
645.80 0.3754
645.90 0.3751
646.00 0.3749
646.10 0.3747
646.20 0.3744
646.30 0.3742
646.40 0.3739
646.50 0.3737
646.60 0.3735
646.70 0.3732
646.80 0.373
646.90 0.3727
647.00 0.3725
647.10 0.3723
647.20 0.372
647.30 0.3718
647.40 0.3715
647.50 0.3713
647.60 0.3711
647.70 0.3708
647.80 0.3706
647.90 0.3703
648.00 0.3701
648.10 0.3698
648.20 0.3696
648.30 0.3693
648.40 0.3691
648.50 0.3688
648.60 0.3686
648.70 0.3683
648.80 0.3681
648.90 0.3678
649.00 0.3675
649.10 0.3673
649.20 0.367
649.30 0.3668
649.40 0.3665
649.50 0.3662
649.60 0.366
649.70 0.3657
649.80 0.3654
649.90 0.3651
650.00 0.3649
650.10 0.3646
650.20 0.3643
650.30 0.364
650.40 0.3637
650.50 0.3634
650.60 0.3631
650.70 0.3628
650.80 0.3625
650.90 0.3622
651.00 0.3619
651.10 0.3616
651.20 0.3613
651.30 0.361
651.40 0.3606
651.50 0.3602
651.60 0.3598
651.70 0.3595
651.80 0.3591
651.90 0.3587
652.00 0.3584
652.10 0.358
652.20 0.3576
652.30 0.3572
652.40 0.3567
652.50 0.3562
652.60 0.3557
652.70 0.3552
652.80 0.3546
652.90 0.3541
653.00 0.3536
653.10 0.3531
653.20 0.3526
653.30 0.352
653.40 0.3512
653.50 0.3504
653.60 0.3496
653.70 0.3487
653.80 0.3479
653.90 0.3471
654.00 0.3463
654.10 0.3455
654.20 0.3447
654.30 0.3438
654.40 0.3425
654.50 0.3412
654.60 0.34
654.70 0.3387
654.80 0.3374
654.90 0.3357
655.00 0.334
655.10 0.3322
655.20 0.3305
655.30 0.3287
655.40 0.3265
655.50 0.3243
655.60 0.3218
655.70 0.3191
655.80 0.316
655.90 0.3123
656.00 0.3068
656.10 0.3005
656.20 0.2886
656.30 0.2968
656.40 0.292
656.50 0.3024
656.60 0.3077
656.70 0.3125
656.80 0.3153
656.90 0.318
657.00 0.3201
657.10 0.3222
657.20 0.324
657.30 0.3257
657.40 0.327
657.50 0.3283
657.60 0.3296
657.70 0.331
657.80 0.3322
657.90 0.333
658.00 0.3339
658.10 0.3347
658.20 0.3356
658.30 0.3363
658.40 0.3367
658.50 0.3371
658.60 0.3375
658.70 0.3379
658.80 0.3383
658.90 0.3387
659.00 0.3391
659.10 0.3395
659.20 0.3399
659.30 0.3403
659.40 0.3404
659.50 0.3404
659.60 0.3405
659.70 0.3406
659.80 0.3407
659.90 0.3408
660.00 0.3409
660.10 0.341
660.20 0.3411
660.30 0.3411
660.40 0.3411
660.50 0.341
660.60 0.341
660.70 0.3409
660.80 0.3409
660.90 0.3408
661.00 0.3408
661.10 0.3408
661.20 0.3407
661.30 0.3406
661.40 0.3405
661.50 0.3404
661.60 0.3403
661.70 0.3402
661.80 0.3401
661.90 0.34
662.00 0.3398
662.10 0.3397
662.20 0.3396
662.30 0.3395
662.40 0.3394
662.50 0.3392
662.60 0.3391
662.70 0.3389
662.80 0.3388
662.90 0.3386
663.00 0.3385
663.10 0.3383
663.20 0.3382
663.30 0.338
663.40 0.3379
663.50 0.3377
663.60 0.3376
663.70 0.3374
663.80 0.3372
663.90 0.3371
664.00 0.3369
664.10 0.3367
664.20 0.3366
664.30 0.3364
664.40 0.3362
664.50 0.3361
664.60 0.3359
664.70 0.3357
664.80 0.3355
664.90 0.3354
665.00 0.3352
665.10 0.335
665.20 0.3349
665.30 0.3347
665.40 0.3345
665.50 0.3343
665.60 0.3341
665.70 0.334
665.80 0.3338
665.90 0.3336
666.00 0.3334
666.10 0.3333
666.20 0.3331
666.30 0.3329
666.40 0.3327
666.50 0.3325
666.60 0.3324
666.70 0.3322
666.80 0.332
666.90 0.3318
667.00 0.3316
667.10 0.3315
667.20 0.3313
667.30 0.3311
667.40 0.3309
667.50 0.3307
667.60 0.3305
667.70 0.3304
667.80 0.3302
667.90 0.33
668.00 0.3298
668.10 0.3296
668.20 0.3295
668.30 0.3293
668.40 0.3291
668.50 0.3289
668.60 0.3287
668.70 0.3285
668.80 0.3284
668.90 0.3282
669.00 0.328
669.10 0.3278
669.20 0.3276
669.30 0.3274
669.40 0.3273
669.50 0.3271
669.60 0.3269
669.70 0.3267
669.80 0.3265
669.90 0.3263
670.00 0.3262
670.10 0.326
670.20 0.3258
670.30 0.3256
670.40 0.3254
670.50 0.3252
670.60 0.3251
670.70 0.3249
670.80 0.3247
670.90 0.3245
671.00 0.3243
671.10 0.3241
671.20 0.324
671.30 0.3238
671.40 0.3236
671.50 0.3234
671.60 0.3232
671.70 0.3231
671.80 0.3229
671.90 0.3227
672.00 0.3225
672.10 0.3223
672.20 0.3221
672.30 0.322
672.40 0.3218
672.50 0.3216
672.60 0.3214
672.70 0.3212
672.80 0.3211
672.90 0.3209
673.00 0.3207
673.10 0.3205
673.20 0.3203
673.30 0.3202
673.40 0.32
673.50 0.3198
673.60 0.3196
673.70 0.3194
673.80 0.3192
673.90 0.3191
674.00 0.3189
674.10 0.3187
674.20 0.3185
674.30 0.3183
674.40 0.3182
674.50 0.318
674.60 0.3178
674.70 0.3176
674.80 0.3174
674.90 0.3173
675.00 0.3171
675.10 0.3169
675.20 0.3167
675.30 0.3166
675.40 0.3164
675.50 0.3162
675.60 0.316
675.70 0.3158
675.80 0.3157
675.90 0.3155
676.00 0.3153
676.10 0.3151
676.20 0.3149
676.30 0.3148
676.40 0.3146
676.50 0.3144
676.60 0.3142
676.70 0.3141
676.80 0.3139
676.90 0.3137
677.00 0.3135
677.10 0.3133
677.20 0.3132
677.30 0.313
677.40 0.3128
677.50 0.3126
677.60 0.3125
677.70 0.3123
677.80 0.3121
677.90 0.3119
678.00 0.3118
678.10 0.3116
678.20 0.3114
678.30 0.3112
678.40 0.3111
678.50 0.3109
678.60 0.3107
678.70 0.3105
678.80 0.3104
678.90 0.3102
679.00 0.31
679.10 0.3098
679.20 0.3097
679.30 0.3095
679.40 0.3093
679.50 0.3091
679.60 0.309
679.70 0.3088
679.80 0.3086
679.90 0.3084
680.00 0.3083
680.10 0.3081
680.20 0.3079
680.30 0.3077
680.40 0.3076
680.50 0.3074
680.60 0.3072
680.70 0.307
680.80 0.3069
680.90 0.3067
681.00 0.3065
681.10 0.3064
681.20 0.3062
681.30 0.306
681.40 0.3058
681.50 0.3057
681.60 0.3055
681.70 0.3053
681.80 0.3052
681.90 0.305
682.00 0.3048
682.10 0.3046
682.20 0.3045
682.30 0.3043
682.40 0.3041
682.50 0.304
682.60 0.3038
682.70 0.3036
682.80 0.3034
682.90 0.3033
683.00 0.3031
683.10 0.3029
683.20 0.3028
683.30 0.3026
683.40 0.3024
683.50 0.3022
683.60 0.3021
683.70 0.3019
683.80 0.3017
683.90 0.3016
684.00 0.3014
684.10 0.3012
684.20 0.3011
684.30 0.3009
684.40 0.3007
684.50 0.3006
684.60 0.3004
684.70 0.3002
684.80 0.3
684.90 0.2999
685.00 0.2997
685.10 0.2995
685.20 0.2994
685.30 0.2992
685.40 0.299
685.50 0.2989
685.60 0.2987
685.70 0.2985
685.80 0.2984
685.90 0.2982
686.00 0.298
686.10 0.2979
686.20 0.2977
686.30 0.2975
686.40 0.2974
686.50 0.2972
686.60 0.297
686.70 0.2969
686.80 0.2967
686.90 0.2965
687.00 0.2964
687.10 0.2962
687.20 0.296
687.30 0.2959
687.40 0.2957
687.50 0.2955
687.60 0.2954
687.70 0.2952
687.80 0.2951
687.90 0.2949
688.00 0.2947
688.10 0.2946
688.20 0.2944
688.30 0.2942
688.40 0.2941
688.50 0.2939
688.60 0.2937
688.70 0.2936
688.80 0.2934
688.90 0.2932
689.00 0.2931
689.10 0.2929
689.20 0.2928
689.30 0.2926
689.40 0.2924
689.50 0.2923
689.60 0.2921
689.70 0.2919
689.80 0.2918
689.90 0.2916
690.00 0.2915
690.10 0.2913
690.20 0.2911
690.30 0.291
690.40 0.2908
690.50 0.2906
690.60 0.2905
690.70 0.2903
690.80 0.2902
690.90 0.29
691.00 0.2898
691.10 0.2897
691.20 0.2895
691.30 0.2894
691.40 0.2892
691.50 0.289
691.60 0.2889
691.70 0.2887
691.80 0.2886
691.90 0.2884
692.00 0.2882
692.10 0.2881
692.20 0.2879
692.30 0.2878
692.40 0.2876
692.50 0.2874
692.60 0.2873
692.70 0.2871
692.80 0.287
692.90 0.2868
693.00 0.2866
693.10 0.2865
693.20 0.2863
693.30 0.2862
693.40 0.286
693.50 0.2858
693.60 0.2857
693.70 0.2855
693.80 0.2854
693.90 0.2852
694.00 0.285
694.10 0.2849
694.20 0.2847
694.30 0.2846
694.40 0.2844
694.50 0.2843
694.60 0.2841
694.70 0.2839
694.80 0.2838
694.90 0.2836
695.00 0.2835
695.10 0.2833
695.20 0.2832
695.30 0.283
695.40 0.2828
695.50 0.2827
695.60 0.2825
695.70 0.2824
695.80 0.2822
695.90 0.2821
696.00 0.2819
696.10 0.2818
696.20 0.2816
696.30 0.2814
696.40 0.2813
696.50 0.2811
696.60 0.281
696.70 0.2808
696.80 0.2807
696.90 0.2805
697.00 0.2804
697.10 0.2802
697.20 0.2801
697.30 0.2799
697.40 0.2797
697.50 0.2796
697.60 0.2794
697.70 0.2793
697.80 0.2791
697.90 0.279
698.00 0.2788
698.10 0.2787
698.20 0.2785
698.30 0.2784
698.40 0.2782
698.50 0.278
698.60 0.2779
698.70 0.2777
698.80 0.2776
698.90 0.2774
699.00 0.2773
699.10 0.2771
699.20 0.277
699.30 0.2768
699.40 0.2767
699.50 0.2765
699.60 0.2764
699.70 0.2762
699.80 0.2761
699.90 0.2759
700.00 0.2758
700.10 0.2756
700.20 0.2755
700.30 0.2753
700.40 0.2752
700.50 0.275
700.60 0.2749
700.70 0.2747
700.80 0.2746
700.90 0.2744
701.00 0.2742
701.10 0.2741
701.20 0.2739
701.30 0.2738
701.40 0.2736
701.50 0.2735
701.60 0.2734
701.70 0.2732
701.80 0.2731
701.90 0.2729
702.00 0.2728
702.10 0.2726
702.20 0.2725
702.30 0.2723
702.40 0.2722
702.50 0.272
702.60 0.2719
702.70 0.2717
702.80 0.2716
702.90 0.2714
703.00 0.2713
703.10 0.2711
703.20 0.271
703.30 0.2708
703.40 0.2707
703.50 0.2705
703.60 0.2704
703.70 0.2702
703.80 0.2701
703.90 0.2699
704.00 0.2698
704.10 0.2696
704.20 0.2695
704.30 0.2693
704.40 0.2692
704.50 0.269
704.60 0.2689
704.70 0.2687
704.80 0.2686
704.90 0.2684
705.00 0.2683
705.10 0.2682
705.20 0.268
705.30 0.2679
705.40 0.2677
705.50 0.2676
705.60 0.2674
705.70 0.2673
705.80 0.2671
705.90 0.267
706.00 0.2668
706.10 0.2667
706.20 0.2666
706.30 0.2664
706.40 0.2663
706.50 0.2661
706.60 0.266
706.70 0.2658
706.80 0.2657
706.90 0.2655
707.00 0.2654
707.10 0.2653
707.20 0.2651
707.30 0.265
707.40 0.2648
707.50 0.2647
707.60 0.2645
707.70 0.2644
707.80 0.2642
707.90 0.2641
708.00 0.264
708.10 0.2638
708.20 0.2637
708.30 0.2635
708.40 0.2634
708.50 0.2632
708.60 0.2631
708.70 0.263
708.80 0.2628
708.90 0.2627
709.00 0.2625
709.10 0.2624
709.20 0.2622
709.30 0.2621
709.40 0.262
709.50 0.2618
709.60 0.2617
709.70 0.2615
709.80 0.2614
709.90 0.2612
710.00 0.2611
710.10 0.261
710.20 0.2608
710.30 0.2607
710.40 0.2605
710.50 0.2604
710.60 0.2603
710.70 0.2601
710.80 0.26
710.90 0.2598
711.00 0.2597
711.10 0.2596
711.20 0.2594
711.30 0.2593
711.40 0.2591
711.50 0.259
711.60 0.2589
711.70 0.2587
711.80 0.2586
711.90 0.2584
712.00 0.2583
712.10 0.2582
712.20 0.258
712.30 0.2579
712.40 0.2577
712.50 0.2576
712.60 0.2575
712.70 0.2573
712.80 0.2572
712.90 0.257
713.00 0.2569
713.10 0.2568
713.20 0.2566
713.30 0.2565
713.40 0.2563
713.50 0.2562
713.60 0.2561
713.70 0.2559
713.80 0.2558
713.90 0.2557
714.00 0.2555
714.10 0.2554
714.20 0.2552
714.30 0.2551
714.40 0.255
714.50 0.2548
714.60 0.2547
714.70 0.2545
714.80 0.2544
714.90 0.2543
715.00 0.2541
715.10 0.254
715.20 0.2539
715.30 0.2537
715.40 0.2536
715.50 0.2535
715.60 0.2533
715.70 0.2532
715.80 0.253
715.90 0.2529
716.00 0.2528
716.10 0.2526
716.20 0.2525
716.30 0.2524
716.40 0.2522
716.50 0.2521
716.60 0.252
716.70 0.2518
716.80 0.2517
716.90 0.2516
717.00 0.2514
717.10 0.2513
717.20 0.2512
717.30 0.251
717.40 0.2509
717.50 0.2507
717.60 0.2506
717.70 0.2505
717.80 0.2503
717.90 0.2502
718.00 0.2501
718.10 0.2499
718.20 0.2498
718.30 0.2497
718.40 0.2495
718.50 0.2494
718.60 0.2493
718.70 0.2491
718.80 0.249
718.90 0.2489
719.00 0.2487
719.10 0.2486
719.20 0.2485
719.30 0.2483
719.40 0.2482
719.50 0.2481
719.60 0.2479
719.70 0.2478
719.80 0.2477
719.90 0.2475
720.00 0.2474
720.10 0.2473
720.20 0.2471
720.30 0.247
720.40 0.2469
720.50 0.2467
720.60 0.2466
720.70 0.2465
720.80 0.2464
720.90 0.2462
721.00 0.2461
721.10 0.246
721.20 0.2458
721.30 0.2457
721.40 0.2456
721.50 0.2454
721.60 0.2453
721.70 0.2452
721.80 0.245
721.90 0.2449
722.00 0.2448
722.10 0.2446
722.20 0.2445
722.30 0.2444
722.40 0.2443
722.50 0.2441
722.60 0.244
722.70 0.2439
722.80 0.2437
722.90 0.2436
723.00 0.2435
723.10 0.2433
723.20 0.2432
723.30 0.2431
723.40 0.243
723.50 0.2428
723.60 0.2427
723.70 0.2426
723.80 0.2424
723.90 0.2423
724.00 0.2422
724.10 0.2421
724.20 0.2419
724.30 0.2418
724.40 0.2417
724.50 0.2415
724.60 0.2414
724.70 0.2413
724.80 0.2411
724.90 0.241
725.00 0.2409
725.10 0.2408
725.20 0.2406
725.30 0.2405
725.40 0.2404
725.50 0.2403
725.60 0.2401
725.70 0.24
725.80 0.2399
725.90 0.2397
726.00 0.2396
726.10 0.2395
726.20 0.2394
726.30 0.2392
726.40 0.2391
726.50 0.239
726.60 0.2389
726.70 0.2387
726.80 0.2386
726.90 0.2385
727.00 0.2384
727.10 0.2382
727.20 0.2381
727.30 0.238
727.40 0.2378
727.50 0.2377
727.60 0.2376
727.70 0.2375
727.80 0.2373
727.90 0.2372
728.00 0.2371
728.10 0.237
728.20 0.2368
728.30 0.2367
728.40 0.2366
728.50 0.2365
728.60 0.2363
728.70 0.2362
728.80 0.2361
728.90 0.236
729.00 0.2358
729.10 0.2357
729.20 0.2356
729.30 0.2355
729.40 0.2353
729.50 0.2352
729.60 0.2351
729.70 0.235
729.80 0.2348
729.90 0.2347
730.00 0.2346
730.10 0.2345
730.20 0.2343
730.30 0.2342
730.40 0.2341
730.50 0.234
730.60 0.2339
730.70 0.2337
730.80 0.2336
730.90 0.2335
731.00 0.2334
731.10 0.2332
731.20 0.2331
731.30 0.233
731.40 0.2329
731.50 0.2328
731.60 0.2326
731.70 0.2325
731.80 0.2324
731.90 0.2323
732.00 0.2321
732.10 0.232
732.20 0.2319
732.30 0.2318
732.40 0.2317
732.50 0.2315
732.60 0.2314
732.70 0.2313
732.80 0.2312
732.90 0.2311
733.00 0.2309
733.10 0.2308
733.20 0.2307
733.30 0.2306
733.40 0.2305
733.50 0.2303
733.60 0.2302
733.70 0.2301
733.80 0.23
733.90 0.2299
734.00 0.2297
734.10 0.2296
734.20 0.2295
734.30 0.2294
734.40 0.2292
734.50 0.2291
734.60 0.229
734.70 0.2289
734.80 0.2288
734.90 0.2286
735.00 0.2285
735.10 0.2284
735.20 0.2283
735.30 0.2282
735.40 0.228
735.50 0.2279
735.60 0.2278
735.70 0.2277
735.80 0.2276
735.90 0.2275
736.00 0.2273
736.10 0.2272
736.20 0.2271
736.30 0.227
736.40 0.2269
736.50 0.2267
736.60 0.2266
736.70 0.2265
736.80 0.2264
736.90 0.2263
737.00 0.2261
737.10 0.226
737.20 0.2259
737.30 0.2258
737.40 0.2257
737.50 0.2255
737.60 0.2254
737.70 0.2253
737.80 0.2252
737.90 0.2251
738.00 0.225
738.10 0.2248
738.20 0.2247
738.30 0.2246
738.40 0.2245
738.50 0.2244
738.60 0.2242
738.70 0.2241
738.80 0.224
738.90 0.2239
739.00 0.2238
739.10 0.2237
739.20 0.2235
739.30 0.2234
739.40 0.2233
739.50 0.2232
739.60 0.2231
739.70 0.223
739.80 0.2228
739.90 0.2227
740.00 0.2226
740.10 0.2225
740.20 0.2224
740.30 0.2223
740.40 0.2221
740.50 0.222
740.60 0.2219
740.70 0.2218
740.80 0.2217
740.90 0.2216
741.00 0.2215
741.10 0.2213
741.20 0.2212
741.30 0.2211
741.40 0.221
741.50 0.2209
741.60 0.2208
741.70 0.2207
741.80 0.2205
741.90 0.2204
742.00 0.2203
742.10 0.2202
742.20 0.2201
742.30 0.22
742.40 0.2199
742.50 0.2197
742.60 0.2196
742.70 0.2195
742.80 0.2194
742.90 0.2193
743.00 0.2192
743.10 0.2191
743.20 0.219
743.30 0.2188
743.40 0.2187
743.50 0.2186
743.60 0.2185
743.70 0.2184
743.80 0.2183
743.90 0.2182
744.00 0.218
744.10 0.2179
744.20 0.2178
744.30 0.2177
744.40 0.2176
744.50 0.2175
744.60 0.2174
744.70 0.2173
744.80 0.2171
744.90 0.217
745.00 0.2169
745.10 0.2168
745.20 0.2167
745.30 0.2166
745.40 0.2165
745.50 0.2164
745.60 0.2163
745.70 0.2161
745.80 0.216
745.90 0.2159
746.00 0.2158
746.10 0.2157
746.20 0.2156
746.30 0.2155
746.40 0.2154
746.50 0.2152
746.60 0.2151
746.70 0.215
746.80 0.2149
746.90 0.2148
747.00 0.2147
747.10 0.2146
747.20 0.2145
747.30 0.2144
747.40 0.2142
747.50 0.2141
747.60 0.214
747.70 0.2139
747.80 0.2138
747.90 0.2137
748.00 0.2136
748.10 0.2135
748.20 0.2134
748.30 0.2132
748.40 0.2131
748.50 0.213
748.60 0.2129
748.70 0.2128
748.80 0.2127
748.90 0.2126
749.00 0.2125
749.10 0.2124
749.20 0.2123
749.30 0.2121
749.40 0.212
749.50 0.2119
749.60 0.2118
749.70 0.2117
749.80 0.2116
749.90 0.2115
750.00 0.2114
750.10 0.2113
750.20 0.2112
750.30 0.211
750.40 0.2109
750.50 0.2108
750.60 0.2107
750.70 0.2106
750.80 0.2105
750.90 0.2104
751.00 0.2103
751.10 0.2102
751.20 0.2101
751.30 0.21
751.40 0.2099
751.50 0.2098
751.60 0.2097
751.70 0.2095
751.80 0.2094
751.90 0.2093
752.00 0.2092
752.10 0.2091
752.20 0.209
752.30 0.2089
752.40 0.2088
752.50 0.2087
752.60 0.2086
752.70 0.2085
752.80 0.2084
752.90 0.2083
753.00 0.2082
753.10 0.2081
753.20 0.2079
753.30 0.2078
753.40 0.2077
753.50 0.2076
753.60 0.2075
753.70 0.2074
753.80 0.2073
753.90 0.2072
754.00 0.2071
754.10 0.207
754.20 0.2069
754.30 0.2068
754.40 0.2067
754.50 0.2066
754.60 0.2065
754.70 0.2064
754.80 0.2063
754.90 0.2062
755.00 0.206
755.10 0.2059
755.20 0.2058
755.30 0.2057
755.40 0.2056
755.50 0.2055
755.60 0.2054
755.70 0.2053
755.80 0.2052
755.90 0.2051
756.00 0.205
756.10 0.2049
756.20 0.2048
756.30 0.2047
756.40 0.2046
756.50 0.2045
756.60 0.2044
756.70 0.2043
756.80 0.2042
756.90 0.2041
757.00 0.204
757.10 0.2038
757.20 0.2037
757.30 0.2036
757.40 0.2035
757.50 0.2034
757.60 0.2033
757.70 0.2032
757.80 0.2031
757.90 0.203
758.00 0.2029
758.10 0.2028
758.20 0.2027
758.30 0.2026
758.40 0.2025
758.50 0.2024
758.60 0.2023
758.70 0.2022
758.80 0.2021
758.90 0.202
759.00 0.2019
759.10 0.2018
759.20 0.2017
759.30 0.2016
759.40 0.2015
759.50 0.2014
759.60 0.2013
759.70 0.2012
759.80 0.201
759.90 0.2009
760.00 0.2008
760.10 0.2007
760.20 0.2006
760.30 0.2005
760.40 0.2004
760.50 0.2003
760.60 0.2002
760.70 0.2001
760.80 0.2
760.90 0.1999
761.00 0.1998
761.10 0.1997
761.20 0.1996
761.30 0.1995
761.40 0.1994
761.50 0.1993
761.60 0.1992
761.70 0.1991
761.80 0.199
761.90 0.1989
762.00 0.1988
762.10 0.1987
762.20 0.1986
762.30 0.1985
762.40 0.1984
762.50 0.1983
762.60 0.1982
762.70 0.1981
762.80 0.198
762.90 0.1979
763.00 0.1978
763.10 0.1977
763.20 0.1976
763.30 0.1975
763.40 0.1974
763.50 0.1973
763.60 0.1972
763.70 0.1971
763.80 0.197
763.90 0.1969
764.00 0.1968
764.10 0.1967
764.20 0.1966
764.30 0.1965
764.40 0.1964
764.50 0.1963
764.60 0.1962
764.70 0.1961
764.80 0.196
764.90 0.1959
765.00 0.1958
765.10 0.1957
765.20 0.1956
765.30 0.1955
765.40 0.1954
765.50 0.1954
765.60 0.1953
765.70 0.1952
765.80 0.1951
765.90 0.195
766.00 0.1949
766.10 0.1948
766.20 0.1947
766.30 0.1946
766.40 0.1945
766.50 0.1944
766.60 0.1943
766.70 0.1942
766.80 0.1941
766.90 0.194
767.00 0.1939
767.10 0.1938
767.20 0.1937
767.30 0.1936
767.40 0.1935
767.50 0.1934
767.60 0.1933
767.70 0.1932
767.80 0.1931
767.90 0.193
768.00 0.1929
768.10 0.1928
768.20 0.1927
768.30 0.1926
768.40 0.1925
768.50 0.1924
768.60 0.1923
768.70 0.1922
768.80 0.1921
768.90 0.192
769.00 0.1919
769.10 0.1918
769.20 0.1917
769.30 0.1916
769.40 0.1915
769.50 0.1914
769.60 0.1913
769.70 0.1912
769.80 0.1912
769.90 0.1911
770.00 0.191
770.10 0.1909
770.20 0.1908
770.30 0.1907
770.40 0.1906
770.50 0.1905
770.60 0.1904
770.70 0.1903
770.80 0.1902
770.90 0.1901
771.00 0.19
771.10 0.1899
771.20 0.1898
771.30 0.1897
771.40 0.1896
771.50 0.1895
771.60 0.1894
771.70 0.1894
771.80 0.1893
771.90 0.1892
772.00 0.1891
772.10 0.189
772.20 0.1889
772.30 0.1888
772.40 0.1887
772.50 0.1886
772.60 0.1885
772.70 0.1884
772.80 0.1883
772.90 0.1882
773.00 0.1881
773.10 0.188
773.20 0.1879
773.30 0.1879
773.40 0.1878
773.50 0.1877
773.60 0.1876
773.70 0.1875
773.80 0.1874
773.90 0.1873
774.00 0.1872
774.10 0.1871
774.20 0.187
774.30 0.1869
774.40 0.1868
774.50 0.1867
774.60 0.1866
774.70 0.1865
774.80 0.1865
774.90 0.1864
775.00 0.1863
775.10 0.1862
775.20 0.1861
775.30 0.186
775.40 0.1859
775.50 0.1858
775.60 0.1857
775.70 0.1856
775.80 0.1855
775.90 0.1854
776.00 0.1853
776.10 0.1852
776.20 0.1852
776.30 0.1851
776.40 0.185
776.50 0.1849
776.60 0.1848
776.70 0.1847
776.80 0.1846
776.90 0.1845
777.00 0.1844
777.10 0.1843
777.20 0.1842
777.30 0.1841
777.40 0.1841
777.50 0.184
777.60 0.1839
777.70 0.1838
777.80 0.1837
777.90 0.1836
778.00 0.1835
778.10 0.1834
778.20 0.1833
778.30 0.1832
778.40 0.1831
778.50 0.183
778.60 0.183
778.70 0.1829
778.80 0.1828
778.90 0.1827
779.00 0.1826
779.10 0.1825
779.20 0.1824
779.30 0.1823
779.40 0.1822
779.50 0.1821
779.60 0.182
779.70 0.182
779.80 0.1819
779.90 0.1818
780.00 0.1817
780.10 0.1816
780.20 0.1815
780.30 0.1814
780.40 0.1813
780.50 0.1812
780.60 0.1811
780.70 0.1811
780.80 0.181
780.90 0.1809
781.00 0.1808
781.10 0.1807
781.20 0.1806
781.30 0.1805
781.40 0.1804
781.50 0.1803
781.60 0.1803
781.70 0.1802
781.80 0.1801
781.90 0.18
782.00 0.1799
782.10 0.1798
782.20 0.1797
782.30 0.1796
782.40 0.1795
782.50 0.1795
782.60 0.1794
782.70 0.1793
782.80 0.1792
782.90 0.1791
783.00 0.179
783.10 0.1789
783.20 0.1788
783.30 0.1788
783.40 0.1787
783.50 0.1786
783.60 0.1785
783.70 0.1784
783.80 0.1783
783.90 0.1782
784.00 0.1781
784.10 0.1781
784.20 0.178
784.30 0.1779
784.40 0.1778
784.50 0.1777
784.60 0.1776
784.70 0.1775
784.80 0.1774
784.90 0.1774
785.00 0.1773
785.10 0.1772
785.20 0.1771
785.30 0.177
785.40 0.1769
785.50 0.1768
785.60 0.1767
785.70 0.1767
785.80 0.1766
785.90 0.1765
786.00 0.1764
786.10 0.1763
786.20 0.1762
786.30 0.1761
786.40 0.1761
786.50 0.176
786.60 0.1759
786.70 0.1758
786.80 0.1757
786.90 0.1756
787.00 0.1755
787.10 0.1754
787.20 0.1754
787.30 0.1753
787.40 0.1752
787.50 0.1751
787.60 0.175
787.70 0.1749
787.80 0.1748
787.90 0.1748
788.00 0.1747
788.10 0.1746
788.20 0.1745
788.30 0.1744
788.40 0.1743
788.50 0.1742
788.60 0.1742
788.70 0.1741
788.80 0.174
788.90 0.1739
789.00 0.1738
789.10 0.1737
789.20 0.1736
789.30 0.1736
789.40 0.1735
789.50 0.1734
789.60 0.1733
789.70 0.1732
789.80 0.1731
789.90 0.173
790.00 0.173
790.10 0.1729
790.20 0.1728
790.30 0.1727
790.40 0.1726
790.50 0.1725
790.60 0.1725
790.70 0.1724
790.80 0.1723
790.90 0.1722
791.00 0.1721
791.10 0.172
791.20 0.172
791.30 0.1719
791.40 0.1718
791.50 0.1717
791.60 0.1716
791.70 0.1715
791.80 0.1715
791.90 0.1714
792.00 0.1713
792.10 0.1712
792.20 0.1711
792.30 0.171
792.40 0.171
792.50 0.1709
792.60 0.1708
792.70 0.1707
792.80 0.1706
792.90 0.1705
793.00 0.1705
793.10 0.1704
793.20 0.1703
793.30 0.1702
793.40 0.1701
793.50 0.17
793.60 0.17
793.70 0.1699
793.80 0.1698
793.90 0.1697
794.00 0.1696
794.10 0.1695
794.20 0.1695
794.30 0.1694
794.40 0.1693
794.50 0.1692
794.60 0.1691
794.70 0.1691
794.80 0.169
794.90 0.1689
795.00 0.1688
795.10 0.1687
795.20 0.1686
795.30 0.1686
795.40 0.1685
795.50 0.1684
795.60 0.1683
795.70 0.1682
795.80 0.1682
795.90 0.1681
796.00 0.168
796.10 0.1679
796.20 0.1678
796.30 0.1677
796.40 0.1677
796.50 0.1676
796.60 0.1675
796.70 0.1674
796.80 0.1673
796.90 0.1673
797.00 0.1672
797.10 0.1671
797.20 0.167
797.30 0.1669
797.40 0.1669
797.50 0.1668
797.60 0.1667
797.70 0.1666
797.80 0.1665
797.90 0.1664
798.00 0.1664
798.10 0.1663
798.20 0.1662
798.30 0.1661
798.40 0.166
798.50 0.166
798.60 0.1659
798.70 0.1658
798.80 0.1657
798.90 0.1656
799.00 0.1656
799.10 0.1655
799.20 0.1654
799.30 0.1653
799.40 0.1652
799.50 0.1652
799.60 0.1651
799.70 0.165
799.80 0.1649
799.90 0.1648
800.00 0.1648
800.10 0.1647
800.20 0.1646
800.30 0.1645
800.40 0.1644
800.50 0.1644
800.60 0.1643
800.70 0.1642
800.80 0.1641
800.90 0.164
801.00 0.164
801.10 0.1639
801.20 0.1638
801.30 0.1637
801.40 0.1636
801.50 0.1636
801.60 0.1635
801.70 0.1634
801.80 0.1633
801.90 0.1633
802.00 0.1632
802.10 0.1631
802.20 0.163
802.30 0.1629
802.40 0.1629
802.50 0.1628
802.60 0.1627
802.70 0.1626
802.80 0.1626
802.90 0.1625
803.00 0.1624
803.10 0.1623
803.20 0.1622
803.30 0.1622
803.40 0.1621
803.50 0.162
803.60 0.1619
803.70 0.1619
803.80 0.1618
803.90 0.1617
804.00 0.1616
804.10 0.1615
804.20 0.1615
804.30 0.1614
804.40 0.1613
804.50 0.1612
804.60 0.1612
804.70 0.1611
804.80 0.161
804.90 0.1609
805.00 0.1608
805.10 0.1608
805.20 0.1607
805.30 0.1606
805.40 0.1605
805.50 0.1605
805.60 0.1604
805.70 0.1603
805.80 0.1602
805.90 0.1602
806.00 0.1601
806.10 0.16
806.20 0.1599
806.30 0.1598
806.40 0.1598
806.50 0.1597
806.60 0.1596
806.70 0.1595
806.80 0.1595
806.90 0.1594
807.00 0.1593
807.10 0.1592
807.20 0.1592
807.30 0.1591
807.40 0.159
807.50 0.1589
807.60 0.1589
807.70 0.1588
807.80 0.1587
807.90 0.1586
808.00 0.1585
808.10 0.1585
808.20 0.1584
808.30 0.1583
808.40 0.1582
808.50 0.1582
808.60 0.1581
808.70 0.158
808.80 0.1579
808.90 0.1579
809.00 0.1578
809.10 0.1577
809.20 0.1576
809.30 0.1576
809.40 0.1575
809.50 0.1574
809.60 0.1573
809.70 0.1573
809.80 0.1572
809.90 0.1571
810.00 0.157
810.10 0.157
810.20 0.1569
810.30 0.1568
810.40 0.1567
810.50 0.1567
810.60 0.1566
810.70 0.1565
810.80 0.1564
810.90 0.1564
811.00 0.1563
811.10 0.1562
811.20 0.1561
811.30 0.1561
811.40 0.156
811.50 0.1559
811.60 0.1558
811.70 0.1558
811.80 0.1557
811.90 0.1556
812.00 0.1555
812.10 0.1555
812.20 0.1554
812.30 0.1553
812.40 0.1553
812.50 0.1552
812.60 0.1551
812.70 0.155
812.80 0.155
812.90 0.1549
813.00 0.1548
813.10 0.1547
813.20 0.1547
813.30 0.1546
813.40 0.1545
813.50 0.1544
813.60 0.1544
813.70 0.1543
813.80 0.1542
813.90 0.1542
814.00 0.1541
814.10 0.154
814.20 0.1539
814.30 0.1539
814.40 0.1538
814.50 0.1537
814.60 0.1536
814.70 0.1536
814.80 0.1535
814.90 0.1534
815.00 0.1534
815.10 0.1533
815.20 0.1532
815.30 0.1531
815.40 0.1531
815.50 0.153
815.60 0.1529
815.70 0.1528
815.80 0.1528
815.90 0.1527
816.00 0.1526
816.10 0.1526
816.20 0.1525
816.30 0.1524
816.40 0.1523
816.50 0.1523
816.60 0.1522
816.70 0.1521
816.80 0.152
816.90 0.152
817.00 0.1519
817.10 0.1518
817.20 0.1518
817.30 0.1517
817.40 0.1516
817.50 0.1515
817.60 0.1515
817.70 0.1514
817.80 0.1513
817.90 0.1513
818.00 0.1512
818.10 0.1511
818.20 0.151
818.30 0.151
818.40 0.1509
818.50 0.1508
818.60 0.1508
818.70 0.1507
818.80 0.1506
818.90 0.1505
819.00 0.1505
819.10 0.1504
819.20 0.1503
819.30 0.1503
819.40 0.1502
819.50 0.1501
819.60 0.15
819.70 0.15
819.80 0.1499
819.90 0.1498
820.00 0.1498
820.10 0.1497
820.20 0.1496
820.30 0.1495
820.40 0.1495
820.50 0.1494
820.60 0.1493
820.70 0.1493
820.80 0.1492
820.90 0.1491
821.00 0.1491
821.10 0.149
821.20 0.1489
821.30 0.1488
821.40 0.1488
821.50 0.1487
821.60 0.1486
821.70 0.1486
821.80 0.1485
821.90 0.1484
822.00 0.1484
822.10 0.1483
822.20 0.1482
822.30 0.1481
822.40 0.1481
822.50 0.148
822.60 0.1479
822.70 0.1479
822.80 0.1478
822.90 0.1477
823.00 0.1477
823.10 0.1476
823.20 0.1475
823.30 0.1474
823.40 0.1474
823.50 0.1473
823.60 0.1472
823.70 0.1472
823.80 0.1471
823.90 0.147
824.00 0.147
824.10 0.1469
824.20 0.1468
824.30 0.1468
824.40 0.1467
824.50 0.1466
824.60 0.1466
824.70 0.1465
824.80 0.1464
824.90 0.1463
825.00 0.1463
825.10 0.1462
825.20 0.1461
825.30 0.1461
825.40 0.146
825.50 0.1459
825.60 0.1459
825.70 0.1458
825.80 0.1457
825.90 0.1457
826.00 0.1456
826.10 0.1455
826.20 0.1455
826.30 0.1454
826.40 0.1453
826.50 0.1453
826.60 0.1452
826.70 0.1451
826.80 0.145
826.90 0.145
827.00 0.1449
827.10 0.1448
827.20 0.1448
827.30 0.1447
827.40 0.1446
827.50 0.1446
827.60 0.1445
827.70 0.1444
827.80 0.1444
827.90 0.1443
828.00 0.1442
828.10 0.1442
828.20 0.1441
828.30 0.144
828.40 0.144
828.50 0.1439
828.60 0.1438
828.70 0.1438
828.80 0.1437
828.90 0.1436
829.00 0.1436
829.10 0.1435
829.20 0.1434
829.30 0.1434
829.40 0.1433
829.50 0.1432
829.60 0.1432
829.70 0.1431
829.80 0.143
829.90 0.143
830.00 0.1429
830.10 0.1428
830.20 0.1428
830.30 0.1427
830.40 0.1426
830.50 0.1426
830.60 0.1425
830.70 0.1424
830.80 0.1424
830.90 0.1423
831.00 0.1422
831.10 0.1422
831.20 0.1421
831.30 0.142
831.40 0.142
831.50 0.1419
831.60 0.1418
831.70 0.1418
831.80 0.1417
831.90 0.1416
832.00 0.1416
832.10 0.1415
832.20 0.1414
832.30 0.1414
832.40 0.1413
832.50 0.1412
832.60 0.1412
832.70 0.1411
832.80 0.141
832.90 0.141
833.00 0.1409
833.10 0.1408
833.20 0.1408
833.30 0.1407
833.40 0.1406
833.50 0.1406
833.60 0.1405
833.70 0.1405
833.80 0.1404
833.90 0.1403
834.00 0.1403
834.10 0.1402
834.20 0.1401
834.30 0.1401
834.40 0.14
834.50 0.1399
834.60 0.1399
834.70 0.1398
834.80 0.1397
834.90 0.1397
835.00 0.1396
835.10 0.1395
835.20 0.1395
835.30 0.1394
835.40 0.1393
835.50 0.1393
835.60 0.1392
835.70 0.1391
835.80 0.1391
835.90 0.139
836.00 0.139
836.10 0.1389
836.20 0.1388
836.30 0.1388
836.40 0.1387
836.50 0.1386
836.60 0.1386
836.70 0.1385
836.80 0.1384
836.90 0.1384
837.00 0.1383
837.10 0.1382
837.20 0.1382
837.30 0.1381
837.40 0.1381
837.50 0.138
837.60 0.1379
837.70 0.1379
837.80 0.1378
837.90 0.1377
838.00 0.1377
838.10 0.1376
838.20 0.1375
838.30 0.1375
838.40 0.1374
838.50 0.1374
838.60 0.1373
838.70 0.1372
838.80 0.1372
838.90 0.1371
839.00 0.137
839.10 0.137
839.20 0.1369
839.30 0.1368
839.40 0.1368
839.50 0.1367
839.60 0.1367
839.70 0.1366
839.80 0.1365
839.90 0.1365
840.00 0.1364
840.10 0.1363
840.20 0.1363
840.30 0.1362
840.40 0.1362
840.50 0.1361
840.60 0.136
840.70 0.136
840.80 0.1359
840.90 0.1358
841.00 0.1358
841.10 0.1357
841.20 0.1356
841.30 0.1356
841.40 0.1355
841.50 0.1355
841.60 0.1354
841.70 0.1353
841.80 0.1353
841.90 0.1352
842.00 0.1351
842.10 0.1351
842.20 0.135
842.30 0.135
842.40 0.1349
842.50 0.1348
842.60 0.1348
842.70 0.1347
842.80 0.1347
842.90 0.1346
843.00 0.1345
843.10 0.1345
843.20 0.1344
843.30 0.1343
843.40 0.1343
843.50 0.1342
843.60 0.1342
843.70 0.1341
843.80 0.134
843.90 0.134
844.00 0.1339
844.10 0.1338
844.20 0.1338
844.30 0.1337
844.40 0.1337
844.50 0.1336
844.60 0.1335
844.70 0.1335
844.80 0.1334
844.90 0.1334
845.00 0.1333
845.10 0.1332
845.20 0.1332
845.30 0.1331
845.40 0.1331
845.50 0.133
845.60 0.1329
845.70 0.1329
845.80 0.1328
845.90 0.1327
846.00 0.1327
846.10 0.1326
846.20 0.1326
846.30 0.1325
846.40 0.1324
846.50 0.1324
846.60 0.1323
846.70 0.1323
846.80 0.1322
846.90 0.1321
847.00 0.1321
847.10 0.132
847.20 0.132
847.30 0.1319
847.40 0.1318
847.50 0.1318
847.60 0.1317
847.70 0.1317
847.80 0.1316
847.90 0.1315
848.00 0.1315
848.10 0.1314
848.20 0.1314
848.30 0.1313
848.40 0.1312
848.50 0.1312
848.60 0.1311
848.70 0.1311
848.80 0.131
848.90 0.1309
849.00 0.1309
849.10 0.1308
849.20 0.1308
849.30 0.1307
849.40 0.1306
849.50 0.1306
849.60 0.1305
849.70 0.1305
849.80 0.1304
849.90 0.1303
850.00 0.1303
850.10 0.1302
850.20 0.1302
850.30 0.1301
850.40 0.13
850.50 0.13
850.60 0.1299
850.70 0.1299
850.80 0.1298
850.90 0.1297
851.00 0.1297
851.10 0.1296
851.20 0.1296
851.30 0.1295
851.40 0.1294
851.50 0.1294
851.60 0.1293
851.70 0.1293
851.80 0.1292
851.90 0.1291
852.00 0.1291
852.10 0.129
852.20 0.129
852.30 0.1289
852.40 0.1289
852.50 0.1288
852.60 0.1287
852.70 0.1287
852.80 0.1286
852.90 0.1286
853.00 0.1285
853.10 0.1284
853.20 0.1284
853.30 0.1283
853.40 0.1283
853.50 0.1282
853.60 0.1282
853.70 0.1281
853.80 0.128
853.90 0.128
854.00 0.1279
854.10 0.1279
854.20 0.1278
854.30 0.1277
854.40 0.1277
854.50 0.1276
854.60 0.1276
854.70 0.1275
854.80 0.1275
854.90 0.1274
855.00 0.1273
855.10 0.1273
855.20 0.1272
855.30 0.1272
855.40 0.1271
855.50 0.1271
855.60 0.127
855.70 0.1269
855.80 0.1269
855.90 0.1268
856.00 0.1268
856.10 0.1267
856.20 0.1267
856.30 0.1266
856.40 0.1265
856.50 0.1265
856.60 0.1264
856.70 0.1264
856.80 0.1263
856.90 0.1262
857.00 0.1262
857.10 0.1261
857.20 0.1261
857.30 0.126
857.40 0.126
857.50 0.1259
857.60 0.1259
857.70 0.1258
857.80 0.1257
857.90 0.1257
858.00 0.1256
858.10 0.1256
858.20 0.1255
858.30 0.1255
858.40 0.1254
858.50 0.1253
858.60 0.1253
858.70 0.1252
858.80 0.1252
858.90 0.1251
859.00 0.1251
859.10 0.125
859.20 0.1249
859.30 0.1249
859.40 0.1248
859.50 0.1248
859.60 0.1247
859.70 0.1247
859.80 0.1246
859.90 0.1246
860.00 0.1245
860.10 0.1244
860.20 0.1244
860.30 0.1243
860.40 0.1243
860.50 0.1242
860.60 0.1242
860.70 0.1241
860.80 0.1241
860.90 0.124
861.00 0.1239
861.10 0.1239
861.20 0.1238
861.30 0.1238
861.40 0.1237
861.50 0.1237
861.60 0.1236
861.70 0.1236
861.80 0.1235
861.90 0.1234
862.00 0.1234
862.10 0.1233
862.20 0.1233
862.30 0.1232
862.40 0.1232
862.50 0.1231
862.60 0.1231
862.70 0.123
862.80 0.1229
862.90 0.1229
863.00 0.1228
863.10 0.1228
863.20 0.1227
863.30 0.1227
863.40 0.1226
863.50 0.1226
863.60 0.1225
863.70 0.1225
863.80 0.1224
863.90 0.1223
864.00 0.1223
864.10 0.1222
864.20 0.1222
864.30 0.1221
864.40 0.1221
864.50 0.122
864.60 0.122
864.70 0.1219
864.80 0.1219
864.90 0.1218
865.00 0.1217
865.10 0.1217
865.20 0.1216
865.30 0.1216
865.40 0.1215
865.50 0.1215
865.60 0.1214
865.70 0.1214
865.80 0.1213
865.90 0.1213
866.00 0.1212
866.10 0.1211
866.20 0.1211
866.30 0.121
866.40 0.121
866.50 0.1209
866.60 0.1209
866.70 0.1208
866.80 0.1208
866.90 0.1207
867.00 0.1207
867.10 0.1206
867.20 0.1206
867.30 0.1205
867.40 0.1204
867.50 0.1204
867.60 0.1203
867.70 0.1203
867.80 0.1202
867.90 0.1202
868.00 0.1201
868.10 0.1201
868.20 0.12
868.30 0.12
868.40 0.1199
868.50 0.1199
868.60 0.1198
868.70 0.1198
868.80 0.1197
868.90 0.1197
869.00 0.1196
869.10 0.1195
869.20 0.1195
869.30 0.1194
869.40 0.1194
869.50 0.1193
869.60 0.1193
869.70 0.1192
869.80 0.1192
869.90 0.1191
870.00 0.1191
870.10 0.119
870.20 0.119
870.30 0.1189
870.40 0.1189
870.50 0.1188
870.60 0.1187
870.70 0.1187
870.80 0.1186
870.90 0.1186
871.00 0.1185
871.10 0.1185
871.20 0.1184
871.30 0.1184
871.40 0.1183
871.50 0.1183
871.60 0.1182
871.70 0.1182
871.80 0.1181
871.90 0.1181
872.00 0.118
872.10 0.118
872.20 0.1179
872.30 0.1179
872.40 0.1178
872.50 0.1178
872.60 0.1177
872.70 0.1177
872.80 0.1176
872.90 0.1175
873.00 0.1175
873.10 0.1174
873.20 0.1174
873.30 0.1173
873.40 0.1173
873.50 0.1172
873.60 0.1172
873.70 0.1171
873.80 0.1171
873.90 0.117
874.00 0.117
874.10 0.1169
874.20 0.1169
874.30 0.1168
874.40 0.1168
874.50 0.1167
874.60 0.1167
874.70 0.1166
874.80 0.1166
874.90 0.1165
875.00 0.1165
875.10 0.1164
875.20 0.1164
875.30 0.1163
875.40 0.1163
875.50 0.1162
875.60 0.1162
875.70 0.1161
875.80 0.1161
875.90 0.116
876.00 0.116
876.10 0.1159
876.20 0.1159
876.30 0.1158
876.40 0.1158
876.50 0.1157
876.60 0.1157
876.70 0.1156
876.80 0.1156
876.90 0.1155
877.00 0.1154
877.10 0.1154
877.20 0.1153
877.30 0.1153
877.40 0.1152
877.50 0.1152
877.60 0.1151
877.70 0.1151
877.80 0.115
877.90 0.115
878.00 0.1149
878.10 0.1149
878.20 0.1148
878.30 0.1148
878.40 0.1147
878.50 0.1147
878.60 0.1146
878.70 0.1146
878.80 0.1145
878.90 0.1145
879.00 0.1144
879.10 0.1144
879.20 0.1143
879.30 0.1143
879.40 0.1142
879.50 0.1142
879.60 0.1141
879.70 0.1141
879.80 0.114
879.90 0.114
880.00 0.1139
880.10 0.1139
880.20 0.1138
880.30 0.1138
880.40 0.1137
880.50 0.1137
880.60 0.1136
880.70 0.1136
880.80 0.1135
880.90 0.1135
881.00 0.1134
881.10 0.1134
881.20 0.1133
881.30 0.1133
881.40 0.1132
881.50 0.1132
881.60 0.1131
881.70 0.1131
881.80 0.113
881.90 0.113
882.00 0.1129
882.10 0.1129
882.20 0.1129
882.30 0.1128
882.40 0.1128
882.50 0.1127
882.60 0.1127
882.70 0.1126
882.80 0.1126
882.90 0.1125
883.00 0.1125
883.10 0.1124
883.20 0.1124
883.30 0.1123
883.40 0.1123
883.50 0.1122
883.60 0.1122
883.70 0.1121
883.80 0.1121
883.90 0.112
884.00 0.112
884.10 0.1119
884.20 0.1119
884.30 0.1118
884.40 0.1118
884.50 0.1117
884.60 0.1117
884.70 0.1116
884.80 0.1116
884.90 0.1115
885.00 0.1115
885.10 0.1114
885.20 0.1114
885.30 0.1113
885.40 0.1113
885.50 0.1112
885.60 0.1112
885.70 0.1112
885.80 0.1111
885.90 0.1111
886.00 0.111
886.10 0.111
886.20 0.1109
886.30 0.1109
886.40 0.1108
886.50 0.1108
886.60 0.1107
886.70 0.1107
886.80 0.1106
886.90 0.1106
887.00 0.1105
887.10 0.1105
887.20 0.1104
887.30 0.1104
887.40 0.1103
887.50 0.1103
887.60 0.1102
887.70 0.1102
887.80 0.1101
887.90 0.1101
888.00 0.1101
888.10 0.11
888.20 0.11
888.30 0.1099
888.40 0.1099
888.50 0.1098
888.60 0.1098
888.70 0.1097
888.80 0.1097
888.90 0.1096
889.00 0.1096
889.10 0.1095
889.20 0.1095
889.30 0.1094
889.40 0.1094
889.50 0.1093
889.60 0.1093
889.70 0.1093
889.80 0.1092
889.90 0.1092
890.00 0.1091
890.10 0.1091
890.20 0.109
890.30 0.109
890.40 0.1089
890.50 0.1089
890.60 0.1088
890.70 0.1088
890.80 0.1087
890.90 0.1087
891.00 0.1086
891.10 0.1086
891.20 0.1086
891.30 0.1085
891.40 0.1085
891.50 0.1084
891.60 0.1084
891.70 0.1083
891.80 0.1083
891.90 0.1082
892.00 0.1082
892.10 0.1081
892.20 0.1081
892.30 0.108
892.40 0.108
892.50 0.1079
892.60 0.1079
892.70 0.1078
892.80 0.1078
892.90 0.1077
893.00 0.1077
893.10 0.1077
893.20 0.1076
893.30 0.1076
893.40 0.1075
893.50 0.1075
893.60 0.1074
893.70 0.1074
893.80 0.1073
893.90 0.1073
894.00 0.1072
894.10 0.1072
894.20 0.1071
894.30 0.1071
894.40 0.107
894.50 0.107
894.60 0.1069
894.70 0.1069
894.80 0.1068
894.90 0.1068
895.00 0.1068
895.10 0.1067
895.20 0.1067
895.30 0.1066
895.40 0.1066
895.50 0.1065
895.60 0.1065
895.70 0.1064
895.80 0.1064
895.90 0.1063
896.00 0.1063
896.10 0.1062
896.20 0.1062
896.30 0.1061
896.40 0.1061
896.50 0.106
896.60 0.106
896.70 0.106
896.80 0.1059
896.90 0.1059
897.00 0.1058
897.10 0.1058
897.20 0.1057
897.30 0.1057
897.40 0.1056
897.50 0.1056
897.60 0.1055
897.70 0.1055
897.80 0.1054
897.90 0.1054
898.00 0.1054
898.10 0.1053
898.20 0.1053
898.30 0.1052
898.40 0.1052
898.50 0.1051
898.60 0.1051
898.70 0.105
898.80 0.105
898.90 0.1049
899.00 0.1049
899.10 0.1048
899.20 0.1048
899.30 0.1048
899.40 0.1047
899.50 0.1047
899.60 0.1046
899.70 0.1046
899.80 0.1045
899.90 0.1045
900.00 0.1044
900.10 0.1044
900.20 0.1043
900.30 0.1043
900.40 0.1043
900.50 0.1042
900.60 0.1042
900.70 0.1041
900.80 0.1041
900.90 0.104
901.00 0.104
901.10 0.1039
901.20 0.1039
901.30 0.1038
901.40 0.1038
901.50 0.1038
901.60 0.1037
901.70 0.1037
901.80 0.1036
901.90 0.1036
902.00 0.1035
902.10 0.1035
902.20 0.1034
902.30 0.1034
902.40 0.1034
902.50 0.1033
902.60 0.1033
902.70 0.1032
902.80 0.1032
902.90 0.1032
903.00 0.1031
903.10 0.1031
903.20 0.103
903.30 0.103
903.40 0.1029
903.50 0.1029
903.60 0.1029
903.70 0.1028
903.80 0.1028
903.90 0.1027
904.00 0.1027
904.10 0.1027
904.20 0.1026
904.30 0.1026
904.40 0.1025
904.50 0.1025
904.60 0.1025
904.70 0.1024
904.80 0.1024
904.90 0.1023
905.00 0.1023
905.10 0.1022
905.20 0.1022
905.30 0.1022
905.40 0.1021
905.50 0.1021
905.60 0.102
905.70 0.102
905.80 0.102
905.90 0.1019
906.00 0.1019
906.10 0.1018
906.20 0.1018
906.30 0.1018
906.40 0.1017
906.50 0.1017
906.60 0.1016
906.70 0.1016
906.80 0.1015
906.90 0.1015
907.00 0.1015
907.10 0.1014
907.20 0.1014
907.30 0.1013
907.40 0.1013
907.50 0.1013
907.60 0.1012
907.70 0.1012
907.80 0.1011
907.90 0.1011
908.00 0.101
908.10 0.101
908.20 0.101
908.30 0.1009
908.40 0.1009
908.50 0.1008
908.60 0.1008
908.70 0.1008
908.80 0.1007
908.90 0.1007
909.00 0.1006
909.10 0.1006
909.20 0.1005
909.30 0.1005
909.40 0.1005
909.50 0.1004
909.60 0.1004
909.70 0.1003
909.80 0.1003
909.90 0.1003
910.00 0.1002
910.10 0.1002
910.20 0.1001
910.30 0.1001
910.40 0.1
910.50 0.1
910.60 0.09996
910.70 0.09992
910.80 0.09988
910.90 0.09984
911.00 0.09979
911.10 0.09975
911.20 0.09971
911.30 0.09967
911.40 0.09963
911.50 0.09959
911.60 0.09955
911.70 0.0995
911.80 0.09946
911.90 0.09942
912.00 0.09938
912.10 0.09933
912.20 0.09929
912.30 0.09924
912.40 0.0992
912.50 0.09915
912.60 0.09911
912.70 0.09906
912.80 0.09902
912.90 0.09897
913.00 0.09893
913.10 0.09888
913.20 0.09884
913.30 0.09879
913.40 0.09875
913.50 0.0987
913.60 0.09866
913.70 0.09861
913.80 0.09857
913.90 0.09852
914.00 0.09848
914.10 0.09843
914.20 0.09839
914.30 0.09834
914.40 0.0983
914.50 0.09825
914.60 0.09821
914.70 0.09816
914.80 0.09812
914.90 0.09807
915.00 0.09803
915.10 0.09798
915.20 0.09794
915.30 0.0979
915.40 0.09785
915.50 0.09781
915.60 0.09776
915.70 0.09772
915.80 0.09767
915.90 0.09763
916.00 0.09758
916.10 0.09754
916.20 0.09749
916.30 0.09745
916.40 0.0974
916.50 0.09736
916.60 0.09732
916.70 0.09727
916.80 0.09723
916.90 0.09718
917.00 0.09714
917.10 0.09709
917.20 0.09704
917.30 0.097
917.40 0.09695
917.50 0.0969
917.60 0.09686
917.70 0.09681
917.80 0.09676
917.90 0.09672
918.00 0.09667
918.10 0.09662
918.20 0.09658
918.30 0.09653
918.40 0.09649
918.50 0.09644
918.60 0.09639
918.70 0.09635
918.80 0.0963
918.90 0.09625
919.00 0.09621
919.10 0.09616
919.20 0.09611
919.30 0.09607
919.40 0.09602
919.50 0.09598
919.60 0.09593
919.70 0.09588
919.80 0.09584
919.90 0.09579
920.00 0.09574
920.10 0.0957
920.20 0.09565
920.30 0.09561
920.40 0.09556
920.50 0.09551
920.60 0.09547
920.70 0.09542
920.80 0.09537
920.90 0.09533
921.00 0.09528
921.10 0.09524
921.20 0.09519
921.30 0.09514
921.40 0.0951
921.50 0.09505
921.60 0.09501
921.70 0.09496
921.80 0.09492
921.90 0.09487
922.00 0.09482
922.10 0.09479
922.20 0.09475
922.30 0.09472
922.40 0.09468
922.50 0.09465
922.60 0.09461
922.70 0.09458
922.80 0.09454
922.90 0.09451
923.00 0.09447
923.10 0.09444
923.20 0.0944
923.30 0.09437
923.40 0.09434
923.50 0.0943
923.60 0.09427
923.70 0.09423
923.80 0.0942
923.90 0.09416
924.00 0.09413
924.10 0.09409
924.20 0.09406
924.30 0.09402
924.40 0.09399
924.50 0.09395
924.60 0.09392
924.70 0.09388
924.80 0.09385
924.90 0.09381
925.00 0.09378
925.10 0.09375
925.20 0.09371
925.30 0.09368
925.40 0.09364
925.50 0.09361
925.60 0.09357
925.70 0.09354
925.80 0.0935
925.90 0.09347
926.00 0.09343
926.10 0.0934
926.20 0.09337
926.30 0.09333
926.40 0.0933
926.50 0.09326
926.60 0.09323
926.70 0.09319
926.80 0.09316
926.90 0.09312
927.00 0.09309
927.10 0.09306
927.20 0.09302
927.30 0.09299
927.40 0.09296
927.50 0.09293
927.60 0.09289
927.70 0.09286
927.80 0.09283
927.90 0.0928
928.00 0.09276
928.10 0.09273
928.20 0.0927
928.30 0.09267
928.40 0.09263
928.50 0.0926
928.60 0.09257
928.70 0.09254
928.80 0.0925
928.90 0.09247
929.00 0.09244
929.10 0.09241
929.20 0.09237
929.30 0.09234
929.40 0.09231
929.50 0.09228
929.60 0.09224
929.70 0.09221
929.80 0.09218
929.90 0.09215
930.00 0.09211
930.10 0.09208
930.20 0.09205
930.30 0.09202
930.40 0.09198
930.50 0.09195
930.60 0.09192
930.70 0.09189
930.80 0.09186
930.90 0.09182
931.00 0.09179
931.10 0.09176
931.20 0.09173
931.30 0.09169
931.40 0.09166
931.50 0.09163
931.60 0.0916
931.70 0.09157
931.80 0.09153
931.90 0.0915
932.00 0.09147
932.10 0.09143
932.20 0.0914
932.30 0.09136
932.40 0.09133
932.50 0.09129
932.60 0.09126
932.70 0.09122
932.80 0.09119
932.90 0.09116
933.00 0.09112
933.10 0.09109
933.20 0.09105
933.30 0.09102
933.40 0.09098
933.50 0.09095
933.60 0.09091
933.70 0.09088
933.80 0.09084
933.90 0.09081
934.00 0.09077
934.10 0.09074
934.20 0.0907
934.30 0.09067
934.40 0.09063
934.50 0.0906
934.60 0.09056
934.70 0.09052
934.80 0.09049
934.90 0.09045
935.00 0.09042
935.10 0.09038
935.20 0.09034
935.30 0.09031
935.40 0.09027
935.50 0.09024
935.60 0.0902
935.70 0.09016
935.80 0.09013
935.90 0.09009
936.00 0.09006
936.10 0.09002
936.20 0.08998
936.30 0.08995
936.40 0.08991
936.50 0.08988
936.60 0.08984
936.70 0.0898
936.80 0.08977
936.90 0.08973
937.00 0.0897
937.10 0.08966
937.20 0.08962
937.30 0.08959
937.40 0.08955
937.50 0.08951
937.60 0.08948
937.70 0.08944
937.80 0.0894
937.90 0.08936
938.00 0.08933
938.10 0.08929
938.20 0.08925
938.30 0.08922
938.40 0.08918
938.50 0.08914
938.60 0.0891
938.70 0.08907
938.80 0.08903
938.90 0.08899
939.00 0.08895
939.10 0.08892
939.20 0.08888
939.30 0.08884
939.40 0.0888
939.50 0.08877
939.60 0.08873
939.70 0.08869
939.80 0.08865
939.90 0.08862
940.00 0.08858
940.10 0.08854
940.20 0.0885
940.30 0.08847
940.40 0.08843
940.50 0.08839
940.60 0.08835
940.70 0.08831
940.80 0.08827
940.90 0.08823
941.00 0.08819
941.10 0.08816
941.20 0.08812
941.30 0.08808
941.40 0.08804
941.50 0.088
941.60 0.08796
941.70 0.08793
941.80 0.08789
941.90 0.08785
942.00 0.08781
942.10 0.08777
942.20 0.08773
942.30 0.08769
942.40 0.08765
942.50 0.08761
942.60 0.08757
942.70 0.08753
942.80 0.08749
942.90 0.08745
943.00 0.08741
943.10 0.08737
943.20 0.08733
943.30 0.08729
943.40 0.08725
943.50 0.08721
943.60 0.08717
943.70 0.08713
943.80 0.08709
943.90 0.08705
944.00 0.08701
944.10 0.08697
944.20 0.08693
944.30 0.08689
944.40 0.08685
944.50 0.08681
944.60 0.08677
944.70 0.08673
944.80 0.08669
944.90 0.08665
945.00 0.08661
945.10 0.08656
945.20 0.08652
945.30 0.08648
945.40 0.08644
945.50 0.0864
945.60 0.08635
945.70 0.08631
945.80 0.08627
945.90 0.08623
946.00 0.08618
946.10 0.08614
946.20 0.0861
946.30 0.08606
946.40 0.08601
946.50 0.08597
946.60 0.08593
946.70 0.08589
946.80 0.08584
946.90 0.0858
947.00 0.08576
947.10 0.08571
947.20 0.08567
947.30 0.08563
947.40 0.08558
947.50 0.08553
947.60 0.08549
947.70 0.08544
947.80 0.0854
947.90 0.08535
948.00 0.08531
948.10 0.08526
948.20 0.08522
948.30 0.08517
948.40 0.08512
948.50 0.08508
948.60 0.08503
948.70 0.08499
948.80 0.08494
948.90 0.0849
949.00 0.08485
949.10 0.08481
949.20 0.08476
949.30 0.08472
949.40 0.08467
949.50 0.08462
949.60 0.08457
949.70 0.08452
949.80 0.08448
949.90 0.08443
950.00 0.08438
950.10 0.08433
950.20 0.08428
950.30 0.08423
950.40 0.08419
950.50 0.08414
950.60 0.08409
950.70 0.08404
950.80 0.08399
950.90 0.08395
951.00 0.0839
951.10 0.08385
951.20 0.0838
951.30 0.08375
951.40 0.0837
951.50 0.08365
951.60 0.08361
951.70 0.08356
951.80 0.08351
951.90 0.08346
952.00 0.08341
952.10 0.08336
952.20 0.08331
952.30 0.08326
952.40 0.08322
952.50 0.08317
952.60 0.08312
952.70 0.08307
952.80 0.08302
952.90 0.08298
953.00 0.08293
953.10 0.08289
953.20 0.08284
953.30 0.0828
953.40 0.08275
953.50 0.08271
953.60 0.08267
953.70 0.08263
953.80 0.08259
953.90 0.08255
954.00 0.08251
954.10 0.08248
954.20 0.08245
954.30 0.08242
954.40 0.0824
954.50 0.08237
954.60 0.08234
954.70 0.08231
954.80 0.08227
954.90 0.08223
955.00 0.08219
955.10 0.08215
955.20 0.08212
955.30 0.0821
955.40 0.08207
955.50 0.08204
955.60 0.08201
955.70 0.08199
955.80 0.08196
955.90 0.08194
956.00 0.08192
956.10 0.0819
956.20 0.08188
956.30 0.08186
956.40 0.08184
956.50 0.08182
956.60 0.0818
956.70 0.08179
956.80 0.08177
956.90 0.08175
957.00 0.08173
957.10 0.08171
957.20 0.08169
957.30 0.08167
957.40 0.08166
957.50 0.08164
957.60 0.08162
957.70 0.0816
957.80 0.08158
957.90 0.08156
958.00 0.08155
958.10 0.08153
958.20 0.08151
958.30 0.08149
958.40 0.08147
958.50 0.08145
958.60 0.08144
958.70 0.08142
958.80 0.0814
958.90 0.08138
959.00 0.08136
959.10 0.08135
959.20 0.08133
959.30 0.08131
959.40 0.08129
959.50 0.08127
959.60 0.08125
959.70 0.08122
959.80 0.0812
959.90 0.08118
960.00 0.08116
960.10 0.08114
960.20 0.08112
960.30 0.0811
960.40 0.08108
960.50 0.08105
960.60 0.08103
960.70 0.08101
960.80 0.08099
960.90 0.08097
961.00 0.08095
961.10 0.08093
961.20 0.08091
961.30 0.08089
961.40 0.08086
961.50 0.08084
961.60 0.08082
961.70 0.08079
961.80 0.08077
961.90 0.08075
962.00 0.08072
962.10 0.0807
962.20 0.08067
962.30 0.08065
962.40 0.08062
962.50 0.0806
962.60 0.08058
962.70 0.08055
962.80 0.08053
962.90 0.0805
963.00 0.08048
963.10 0.08045
963.20 0.08043
963.30 0.0804
963.40 0.08038
963.50 0.08035
963.60 0.08033
963.70 0.0803
963.80 0.08027
963.90 0.08025
964.00 0.08022
964.10 0.0802
964.20 0.08017
964.30 0.08014
964.40 0.08012
964.50 0.08009
964.60 0.08006
964.70 0.08003
964.80 0.08001
964.90 0.07998
965.00 0.07995
965.10 0.07993
965.20 0.0799
965.30 0.07987
965.40 0.07984
965.50 0.07982
965.60 0.07979
965.70 0.07976
965.80 0.07974
965.90 0.07971
966.00 0.07968
966.10 0.07965
966.20 0.07963
966.30 0.0796
966.40 0.07957
966.50 0.07954
966.60 0.07952
966.70 0.07949
966.80 0.07946
966.90 0.07943
967.00 0.0794
967.10 0.07937
967.20 0.07935
967.30 0.07932
967.40 0.07929
967.50 0.07926
967.60 0.07923
967.70 0.0792
967.80 0.07917
967.90 0.07914
968.00 0.07912
968.10 0.07909
968.20 0.07906
968.30 0.07903
968.40 0.079
968.50 0.07897
968.60 0.07894
968.70 0.07891
968.80 0.07888
968.90 0.07885
969.00 0.07882
969.10 0.0788
969.20 0.07877
969.30 0.07874
969.40 0.07871
969.50 0.07868
969.60 0.07865
969.70 0.07862
969.80 0.07859
969.90 0.07856
970.00 0.07853
970.10 0.0785
970.20 0.07847
970.30 0.07844
970.40 0.07842
970.50 0.07839
970.60 0.07836
970.70 0.07833
970.80 0.0783
970.90 0.07827
971.00 0.07824
971.10 0.07821
971.20 0.07818
971.30 0.07815
971.40 0.07812
971.50 0.07809
971.60 0.07806
971.70 0.07803
971.80 0.078
971.90 0.07797
972.00 0.07794
972.10 0.07791
972.20 0.07788
972.30 0.07785
972.40 0.07782
972.50 0.07779
972.60 0.07776
972.70 0.07773
972.80 0.0777
972.90 0.07767
973.00 0.07764
973.10 0.07761
973.20 0.07758
973.30 0.07755
973.40 0.07752
973.50 0.07749
973.60 0.07746
973.70 0.07743
973.80 0.0774
973.90 0.07737
974.00 0.07734
974.10 0.07731
974.20 0.07728
974.30 0.07725
974.40 0.07722
974.50 0.07719
974.60 0.07716
974.70 0.07713
974.80 0.0771
974.90 0.07707
975.00 0.07704
975.10 0.07701
975.20 0.07698
975.30 0.07695
975.40 0.07692
975.50 0.07689
975.60 0.07686
975.70 0.07683
975.80 0.0768
975.90 0.07677
976.00 0.07674
976.10 0.07671
976.20 0.07668
976.30 0.07665
976.40 0.07662
976.50 0.07659
976.60 0.07656
976.70 0.07653
976.80 0.0765
976.90 0.07647
977.00 0.07644
977.10 0.07641
977.20 0.07638
977.30 0.07635
977.40 0.07632
977.50 0.07629
977.60 0.07626
977.70 0.07623
977.80 0.0762
977.90 0.07617
978.00 0.07614
978.10 0.07611
978.20 0.07608
978.30 0.07605
978.40 0.07602
978.50 0.07599
978.60 0.07596
978.70 0.07593
978.80 0.0759
978.90 0.07587
979.00 0.07584
979.10 0.07581
979.20 0.07578
979.30 0.07575
979.40 0.07572
979.50 0.07569
979.60 0.07566
979.70 0.07563
979.80 0.0756
979.90 0.07557
980.00 0.07554
980.10 0.07551
980.20 0.07548
980.30 0.07545
980.40 0.07542
980.50 0.07539
980.60 0.07536
980.70 0.07533
980.80 0.0753
980.90 0.07527
981.00 0.07524
981.10 0.07521
981.20 0.07518
981.30 0.07515
981.40 0.07512
981.50 0.07509
981.60 0.07506
981.70 0.07503
981.80 0.075
981.90 0.07497
982.00 0.07494
982.10 0.07491
982.20 0.07488
982.30 0.07485
982.40 0.07482
982.50 0.07479
982.60 0.07476
982.70 0.07473
982.80 0.0747
982.90 0.07467
983.00 0.07464
983.10 0.07461
983.20 0.07458
983.30 0.07455
983.40 0.07452
983.50 0.07449
983.60 0.07446
983.70 0.07443
983.80 0.0744
983.90 0.07437
984.00 0.07434
984.10 0.07431
984.20 0.07428
984.30 0.07425
984.40 0.07422
984.50 0.07419
984.60 0.07416
984.70 0.07413
984.80 0.0741
984.90 0.07407
985.00 0.07404
985.10 0.07401
985.20 0.07398
985.30 0.07395
985.40 0.07392
985.50 0.07388
985.60 0.07385
985.70 0.07382
985.80 0.07379
985.90 0.07376
986.00 0.07373
986.10 0.0737
986.20 0.07367
986.30 0.07364
986.40 0.07361
986.50 0.07358
986.60 0.07355
986.70 0.07352
986.80 0.07349
986.90 0.07346
987.00 0.07343
987.10 0.0734
987.20 0.07337
987.30 0.07334
987.40 0.07331
987.50 0.07328
987.60 0.07325
987.70 0.07322
987.80 0.07319
987.90 0.07316
988.00 0.07313
988.10 0.0731
988.20 0.07307
988.30 0.07304
988.40 0.07301
988.50 0.07298
988.60 0.07295
988.70 0.07292
988.80 0.07288
988.90 0.07285
989.00 0.07282
989.10 0.07279
989.20 0.07276
989.30 0.07273
989.40 0.0727
989.50 0.07267
989.60 0.07264
989.70 0.07261
989.80 0.07258
989.90 0.07254
990.00 0.07251
990.10 0.07248
990.20 0.07245
990.30 0.07242
990.40 0.07239
990.50 0.07236
990.60 0.07233
990.70 0.0723
990.80 0.07227
990.90 0.07223
991.00 0.0722
991.10 0.07217
991.20 0.07214
991.30 0.07211
991.40 0.07208
991.50 0.07205
991.60 0.07201
991.70 0.07198
991.80 0.07195
991.90 0.07192
992.00 0.07189
992.10 0.07186
992.20 0.07182
992.30 0.07179
992.40 0.07176
992.50 0.07173
992.60 0.0717
992.70 0.07166
992.80 0.07163
992.90 0.0716
993.00 0.07156
993.10 0.07153
993.20 0.0715
993.30 0.07146
993.40 0.07143
993.50 0.0714
993.60 0.07136
993.70 0.07133
993.80 0.0713
993.90 0.07126
994.00 0.07123
994.10 0.0712
994.20 0.07116
994.30 0.07113
994.40 0.0711
994.50 0.07106
994.60 0.07103
994.70 0.071
994.80 0.07096
994.90 0.07093
995.00 0.07089
995.10 0.07086
995.20 0.07082
995.30 0.07079
995.40 0.07075
995.50 0.07072
995.60 0.07068
995.70 0.07065
995.80 0.07061
995.90 0.07057
996.00 0.07054
996.10 0.0705
996.20 0.07046
996.30 0.07043
996.40 0.07039
996.50 0.07035
996.60 0.07032
996.70 0.07028
996.80 0.07024
996.90 0.07021
997.00 0.07017
997.10 0.07013
997.20 0.07009
997.30 0.07005
997.40 0.07001
997.50 0.06998
997.60 0.06994
997.70 0.0699
997.80 0.06985
997.90 0.06981
998.00 0.06977
998.10 0.06973
998.20 0.06969
998.30 0.06964
998.40 0.0696
998.50 0.06956
998.60 0.06952
998.70 0.06947
998.80 0.06943
998.90 0.06939
999.00 0.06935
999.10 0.06931
999.20 0.06926
999.30 0.06922
999.40 0.06918
999.50 0.06914
999.60 0.0691
999.70 0.06905
999.80 0.069
999.90 0.06895
1000.00 0.0689
1000.10 0.06885
1000.20 0.0688
1000.30 0.06875
1000.40 0.06871
1000.50 0.06866
1000.60 0.06861
1000.70 0.06856
1000.80 0.06851
1000.90 0.06846
1001.00 0.06841
1001.10 0.06836
1001.20 0.06831
1001.30 0.06826
1001.40 0.06821
1001.50 0.06817
1001.60 0.06812
1001.70 0.06807
1001.80 0.06801
1001.90 0.06796
1002.00 0.06791
1002.10 0.06786
1002.20 0.0678
1002.30 0.06775
1002.40 0.0677
1002.50 0.06764
1002.60 0.06759
1002.70 0.06754
1002.80 0.06749
1002.90 0.06743
1003.00 0.06738
1003.10 0.06733
1003.20 0.06728
1003.30 0.06723
1003.40 0.06718
1003.50 0.06714
1003.60 0.06709
1003.70 0.06704
1003.80 0.06699
1003.90 0.06696
1004.00 0.06693
1004.10 0.0669
1004.20 0.06687
1004.30 0.06685
1004.40 0.06685
1004.50 0.06685
1004.60 0.06688
1004.70 0.06691
1004.80 0.06695
1004.90 0.06694
1005.00 0.06693
1005.10 0.06686
1005.20 0.06678
1005.30 0.0667
1005.40 0.06661
1005.50 0.06657
1005.60 0.06655
1005.70 0.06652
1005.80 0.0665
1005.90 0.06647
1006.00 0.06644
1006.10 0.06642
1006.20 0.06641
1006.30 0.06641
1006.40 0.06641
1006.50 0.06641
1006.60 0.0664
1006.70 0.0664
1006.80 0.0664
1006.90 0.0664
1007.00 0.0664
1007.10 0.0664
1007.20 0.0664
1007.30 0.0664
1007.40 0.0664
1007.50 0.06641
1007.60 0.06641
1007.70 0.06641
1007.80 0.0664
1007.90 0.0664
1008.00 0.0664
1008.10 0.0664
1008.20 0.0664
1008.30 0.06639
1008.40 0.06639
1008.50 0.06639
1008.60 0.06639
1008.70 0.06639
1008.80 0.06638
1008.90 0.06638
1009.00 0.06638
1009.10 0.06638
1009.20 0.06637
1009.30 0.06637
1009.40 0.06637
1009.50 0.06637
1009.60 0.06637
1009.70 0.06636
1009.80 0.06635
1009.90 0.06634
1010.00 0.06633
1010.10 0.06632
1010.20 0.06631
1010.30 0.0663
1010.40 0.06629
1010.50 0.06628
1010.60 0.06627
1010.70 0.06627
1010.80 0.06626
1010.90 0.06625
1011.00 0.06624
1011.10 0.06623
1011.20 0.06622
1011.30 0.06621
1011.40 0.0662
1011.50 0.06619
1011.60 0.06618
1011.70 0.06617
1011.80 0.06616
1011.90 0.06614
1012.00 0.06613
1012.10 0.06612
1012.20 0.0661
1012.30 0.06608
1012.40 0.06607
1012.50 0.06605
1012.60 0.06604
1012.70 0.06602
1012.80 0.06601
1012.90 0.06599
1013.00 0.06598
1013.10 0.06596
1013.20 0.06595
1013.30 0.06593
1013.40 0.06592
1013.50 0.0659
1013.60 0.06589
1013.70 0.06587
1013.80 0.06585
1013.90 0.06583
1014.00 0.06581
1014.10 0.0658
1014.20 0.06578
1014.30 0.06576
1014.40 0.06574
1014.50 0.06573
1014.60 0.06571
1014.70 0.06569
1014.80 0.06567
1014.90 0.06565
1015.00 0.06563
1015.10 0.06561
1015.20 0.06559
1015.30 0.06557
1015.40 0.06555
1015.50 0.06553
1015.60 0.06551
1015.70 0.06549
1015.80 0.06547
1015.90 0.06545
1016.00 0.06543
1016.10 0.06541
1016.20 0.06539
1016.30 0.06537
1016.40 0.06535
1016.50 0.06533
1016.60 0.06531
1016.70 0.06529
1016.80 0.06527
1016.90 0.06525
1017.00 0.06523
1017.10 0.06521
1017.20 0.06519
1017.30 0.06516
1017.40 0.06514
1017.50 0.06512
1017.60 0.0651
1017.70 0.06508
1017.80 0.06506
1017.90 0.06504
1018.00 0.06501
1018.10 0.06499
1018.20 0.06497
1018.30 0.06495
1018.40 0.06493
1018.50 0.06491
1018.60 0.06488
1018.70 0.06486
1018.80 0.06484
1018.90 0.06482
1019.00 0.0648
1019.10 0.06477
1019.20 0.06475
1019.30 0.06473
1019.40 0.06471
1019.50 0.06468
1019.60 0.06466
1019.70 0.06464
1019.80 0.06462
1019.90 0.06459
1020.00 0.06457
1020.10 0.06455
1020.20 0.06453
1020.30 0.0645
1020.40 0.06448
1020.50 0.06446
1020.60 0.06444
1020.70 0.06441
1020.80 0.06439
1020.90 0.06437
1021.00 0.06435
1021.10 0.06432
1021.20 0.0643
1021.30 0.06428
1021.40 0.06425
1021.50 0.06423
1021.60 0.06421
1021.70 0.06419
1021.80 0.06416
1021.90 0.06414
1022.00 0.06412
1022.10 0.06409
1022.20 0.06407
1022.30 0.06405
1022.40 0.06402
1022.50 0.064
1022.60 0.06398
1022.70 0.06396
1022.80 0.06393
1022.90 0.06391
1023.00 0.06389
1023.10 0.06386
1023.20 0.06384
1023.30 0.06382
1023.40 0.06379
1023.50 0.06377
1023.60 0.06375
1023.70 0.06372
1023.80 0.0637
1023.90 0.06368
1024.00 0.06365
1024.10 0.06363
1024.20 0.06361
1024.30 0.06359
1024.40 0.06356
1024.50 0.06354
1024.60 0.06352
1024.70 0.06349
1024.80 0.06347
1024.90 0.06345
1025.00 0.06342
1025.10 0.0634
1025.20 0.06338
1025.30 0.06335
1025.40 0.06333
1025.50 0.06331
1025.60 0.06328
1025.70 0.06326
1025.80 0.06324
1025.90 0.06321
1026.00 0.06319
1026.10 0.06317
1026.20 0.06314
1026.30 0.06312
1026.40 0.0631
1026.50 0.06307
1026.60 0.06305
1026.70 0.06303
1026.80 0.063
1026.90 0.06298
1027.00 0.06296
1027.10 0.06293
1027.20 0.06291
1027.30 0.06289
1027.40 0.06286
1027.50 0.06284
1027.60 0.06282
1027.70 0.0628
1027.80 0.06277
1027.90 0.06275
1028.00 0.06273
1028.10 0.0627
1028.20 0.06268
1028.30 0.06266
1028.40 0.06263
1028.50 0.06261
1028.60 0.06259
1028.70 0.06256
1028.80 0.06254
1028.90 0.06252
1029.00 0.06249
1029.10 0.06247
1029.20 0.06245
1029.30 0.06242
1029.40 0.0624
1029.50 0.06238
1029.60 0.06235
1029.70 0.06233
1029.80 0.06231
1029.90 0.06228
1030.00 0.06226
1030.10 0.06224
1030.20 0.06221
1030.30 0.06219
1030.40 0.06217
1030.50 0.06215
1030.60 0.06212
1030.70 0.0621
1030.80 0.06208
1030.90 0.06205
1031.00 0.06203
1031.10 0.06201
1031.20 0.06198
1031.30 0.06196
1031.40 0.06194
1031.50 0.06192
1031.60 0.06189
1031.70 0.06187
1031.80 0.06185
1031.90 0.06182
1032.00 0.0618
1032.10 0.06178
1032.20 0.06175
1032.30 0.06173
1032.40 0.06171
1032.50 0.06169
1032.60 0.06166
1032.70 0.06164
1032.80 0.06162
1032.90 0.06159
1033.00 0.06157
1033.10 0.06155
1033.20 0.06152
1033.30 0.0615
1033.40 0.06148
1033.50 0.06146
1033.60 0.06143
1033.70 0.06141
1033.80 0.06139
1033.90 0.06136
1034.00 0.06134
1034.10 0.06132
1034.20 0.0613
1034.30 0.06127
1034.40 0.06125
1034.50 0.06123
1034.60 0.0612
1034.70 0.06118
1034.80 0.06116
1034.90 0.06114
1035.00 0.06111
1035.10 0.06109
1035.20 0.06107
1035.30 0.06104
1035.40 0.06102
1035.50 0.061
1035.60 0.06098
1035.70 0.06095
1035.80 0.06093
1035.90 0.06091
1036.00 0.06089
1036.10 0.06086
1036.20 0.06084
1036.30 0.06082
1036.40 0.06079
1036.50 0.06077
1036.60 0.06075
1036.70 0.06073
1036.80 0.0607
1036.90 0.06068
1037.00 0.06066
1037.10 0.06064
1037.20 0.06061
1037.30 0.06059
1037.40 0.06057
1037.50 0.06055
1037.60 0.06052
1037.70 0.0605
1037.80 0.06048
1037.90 0.06046
1038.00 0.06043
1038.10 0.06041
1038.20 0.06039
1038.30 0.06037
1038.40 0.06034
1038.50 0.06032
1038.60 0.0603
1038.70 0.06028
1038.80 0.06025
1038.90 0.06023
1039.00 0.06021
1039.10 0.06019
1039.20 0.06016
1039.30 0.06014
1039.40 0.06012
1039.50 0.0601
1039.60 0.06007
1039.70 0.06005
1039.80 0.06003
1039.90 0.06001
1040.00 0.05998
1040.10 0.05996
1040.20 0.05994
1040.30 0.05992
1040.40 0.0599
1040.50 0.05987
1040.60 0.05985
1040.70 0.05983
1040.80 0.05981
1040.90 0.05978
1041.00 0.05976
1041.10 0.05974
1041.20 0.05972
1041.30 0.05969
1041.40 0.05967
1041.50 0.05965
1041.60 0.05963
1041.70 0.05961
1041.80 0.05958
1041.90 0.05956
1042.00 0.05954
1042.10 0.05952
1042.20 0.05949
1042.30 0.05947
1042.40 0.05945
1042.50 0.05943
1042.60 0.05941
1042.70 0.05938
1042.80 0.05936
1042.90 0.05934
1043.00 0.05932
1043.10 0.0593
1043.20 0.05927
1043.30 0.05925
1043.40 0.05923
1043.50 0.05921
1043.60 0.05919
1043.70 0.05916
1043.80 0.05914
1043.90 0.05912
1044.00 0.0591
1044.10 0.05908
1044.20 0.05905
1044.30 0.05903
1044.40 0.05901
1044.50 0.05899
1044.60 0.05897
1044.70 0.05894
1044.80 0.05892
1044.90 0.0589
1045.00 0.05888
1045.10 0.05886
1045.20 0.05883
1045.30 0.05881
1045.40 0.05879
1045.50 0.05877
1045.60 0.05875
1045.70 0.05873
1045.80 0.0587
1045.90 0.05868
1046.00 0.05866
1046.10 0.05864
1046.20 0.05862
1046.30 0.05859
1046.40 0.05857
1046.50 0.05855
1046.60 0.05853
1046.70 0.05851
1046.80 0.05849
1046.90 0.05846
1047.00 0.05844
1047.10 0.05842
1047.20 0.0584
1047.30 0.05838
1047.40 0.05836
1047.50 0.05833
1047.60 0.05831
1047.70 0.05829
1047.80 0.05827
1047.90 0.05825
1048.00 0.05823
1048.10 0.0582
1048.20 0.05818
1048.30 0.05816
1048.40 0.05814
1048.50 0.05812
1048.60 0.0581
1048.70 0.05807
1048.80 0.05805
1048.90 0.05803
1049.00 0.05801
1049.10 0.05799
1049.20 0.05797
1049.30 0.05795
1049.40 0.05792
1049.50 0.0579
1049.60 0.05788
1049.70 0.05786
1049.80 0.05784
1049.90 0.05782
1050.00 0.05779
1050.10 0.05777
1050.20 0.05775
1050.30 0.05773
1050.40 0.05771
1050.50 0.05769
1050.60 0.05767
1050.70 0.05764
1050.80 0.05762
1050.90 0.0576
1051.00 0.05758
1051.10 0.05756
1051.20 0.05754
1051.30 0.05752
1051.40 0.0575
1051.50 0.05747
1051.60 0.05745
1051.70 0.05743
1051.80 0.05741
1051.90 0.05739
1052.00 0.05737
1052.10 0.05735
1052.20 0.05732
1052.30 0.0573
1052.40 0.05728
1052.50 0.05726
1052.60 0.05724
1052.70 0.05722
1052.80 0.0572
1052.90 0.05718
1053.00 0.05716
1053.10 0.05713
1053.20 0.05711
1053.30 0.05709
1053.40 0.05707
1053.50 0.05705
1053.60 0.05703
1053.70 0.05701
1053.80 0.05699
1053.90 0.05697
1054.00 0.05694
1054.10 0.05692
1054.20 0.0569
1054.30 0.05688
1054.40 0.05686
1054.50 0.05684
1054.60 0.05682
1054.70 0.0568
1054.80 0.05678
1054.90 0.05676
1055.00 0.05673
1055.10 0.05671
1055.20 0.05669
1055.30 0.05667
1055.40 0.05665
1055.50 0.05663
1055.60 0.05661
1055.70 0.05659
1055.80 0.05657
1055.90 0.05655
1056.00 0.05652
1056.10 0.0565
1056.20 0.05648
1056.30 0.05646
1056.40 0.05644
1056.50 0.05642
1056.60 0.0564
1056.70 0.05638
1056.80 0.05636
1056.90 0.05634
1057.00 0.05632
1057.10 0.05629
1057.20 0.05627
1057.30 0.05625
1057.40 0.05623
1057.50 0.05621
1057.60 0.05619
1057.70 0.05617
1057.80 0.05615
1057.90 0.05613
1058.00 0.05611
1058.10 0.05609
1058.20 0.05607
1058.30 0.05605
1058.40 0.05603
1058.50 0.056
1058.60 0.05598
1058.70 0.05596
1058.80 0.05594
1058.90 0.05592
1059.00 0.0559
1059.10 0.05588
1059.20 0.05586
1059.30 0.05584
1059.40 0.05582
1059.50 0.0558
1059.60 0.05578
1059.70 0.05576
1059.80 0.05574
1059.90 0.05572
1060.00 0.05569
1060.10 0.05567
1060.20 0.05565
1060.30 0.05563
1060.40 0.05561
1060.50 0.05559
1060.60 0.05557
1060.70 0.05555
1060.80 0.05553
1060.90 0.05551
1061.00 0.05549
1061.10 0.05547
1061.20 0.05545
1061.30 0.05543
1061.40 0.05541
1061.50 0.05539
1061.60 0.05537
1061.70 0.05535
1061.80 0.05533
1061.90 0.0553
1062.00 0.05528
1062.10 0.05526
1062.20 0.05524
1062.30 0.05522
1062.40 0.0552
1062.50 0.05518
1062.60 0.05516
1062.70 0.05514
1062.80 0.05512
1062.90 0.0551
1063.00 0.05508
1063.10 0.05506
1063.20 0.05504
1063.30 0.05502
1063.40 0.055
1063.50 0.05498
1063.60 0.05496
1063.70 0.05494
1063.80 0.05492
1063.90 0.0549
1064.00 0.05488
1064.10 0.05486
1064.20 0.05484
1064.30 0.05482
1064.40 0.0548
1064.50 0.05478
1064.60 0.05476
1064.70 0.05474
1064.80 0.05472
1064.90 0.05469
1065.00 0.05467
1065.10 0.05465
1065.20 0.05463
1065.30 0.05461
1065.40 0.05459
1065.50 0.05457
1065.60 0.05455
1065.70 0.05453
1065.80 0.05451
1065.90 0.05449
1066.00 0.05447
1066.10 0.05445
1066.20 0.05443
1066.30 0.05441
1066.40 0.05439
1066.50 0.05437
1066.60 0.05435
1066.70 0.05433
1066.80 0.05431
1066.90 0.05429
1067.00 0.05427
1067.10 0.05425
1067.20 0.05423
1067.30 0.05421
1067.40 0.05419
1067.50 0.05417
1067.60 0.05415
1067.70 0.05413
1067.80 0.05411
1067.90 0.05409
1068.00 0.05407
1068.10 0.05405
1068.20 0.05403
1068.30 0.05401
1068.40 0.05399
1068.50 0.05397
1068.60 0.05395
1068.70 0.05393
1068.80 0.05391
1068.90 0.05389
1069.00 0.05387
1069.10 0.05385
1069.20 0.05383
1069.30 0.05381
1069.40 0.05379
1069.50 0.05377
1069.60 0.05375
1069.70 0.05373
1069.80 0.05371
1069.90 0.05369
1070.00 0.05367
1070.10 0.05365
1070.20 0.05363
1070.30 0.05361
1070.40 0.05359
1070.50 0.05357
1070.60 0.05355
1070.70 0.05353
1070.80 0.05351
1070.90 0.05349
1071.00 0.05347
1071.10 0.05345
1071.20 0.05343
1071.30 0.05341
1071.40 0.05339
1071.50 0.05337
1071.60 0.05335
1071.70 0.05333
1071.80 0.05331
1071.90 0.05329
1072.00 0.05327
1072.10 0.05325
1072.20 0.05323
1072.30 0.05321
1072.40 0.05319
1072.50 0.05317
1072.60 0.05315
1072.70 0.05313
1072.80 0.05311
1072.90 0.05309
1073.00 0.05307
1073.10 0.05305
1073.20 0.05303
1073.30 0.05301
1073.40 0.05299
1073.50 0.05297
1073.60 0.05295
1073.70 0.05293
1073.80 0.05291
1073.90 0.05289
1074.00 0.05287
1074.10 0.05285
1074.20 0.05283
1074.30 0.05281
1074.40 0.05279
1074.50 0.05277
1074.60 0.05275
1074.70 0.05273
1074.80 0.05271
1074.90 0.05269
1075.00 0.05267
1075.10 0.05265
1075.20 0.05263
1075.30 0.05261
1075.40 0.05259
1075.50 0.05257
1075.60 0.05255
1075.70 0.05253
1075.80 0.05251
1075.90 0.05249
1076.00 0.05247
1076.10 0.05245
1076.20 0.05243
1076.30 0.05241
1076.40 0.05239
1076.50 0.05237
1076.60 0.05235
1076.70 0.05233
1076.80 0.05231
1076.90 0.05229
1077.00 0.05227
1077.10 0.05225
1077.20 0.05223
1077.30 0.05221
1077.40 0.05219
1077.50 0.05217
1077.60 0.05215
1077.70 0.05213
1077.80 0.05211
1077.90 0.05209
1078.00 0.05206
1078.10 0.05204
1078.20 0.05202
1078.30 0.052
1078.40 0.05198
1078.50 0.05196
1078.60 0.05194
1078.70 0.05192
1078.80 0.0519
1078.90 0.05188
1079.00 0.05186
1079.10 0.05184
1079.20 0.05182
1079.30 0.0518
1079.40 0.05178
1079.50 0.05176
1079.60 0.05173
1079.70 0.05171
1079.80 0.05169
1079.90 0.05167
1080.00 0.05165
1080.10 0.05163
1080.20 0.05161
1080.30 0.05159
1080.40 0.05156
1080.50 0.05154
1080.60 0.05152
1080.70 0.0515
1080.80 0.05148
1080.90 0.05146
1081.00 0.05144
1081.10 0.05142
1081.20 0.05139
1081.30 0.05137
1081.40 0.05135
1081.50 0.05133
1081.60 0.05131
1081.70 0.05129
1081.80 0.05126
1081.90 0.05124
1082.00 0.05122
1082.10 0.0512
1082.20 0.05117
1082.30 0.05115
1082.40 0.05113
1082.50 0.05111
1082.60 0.05108
1082.70 0.05106
1082.80 0.05104
1082.90 0.05101
1083.00 0.05099
1083.10 0.05097
1083.20 0.05095
1083.30 0.05092
1083.40 0.0509
1083.50 0.05088
1083.60 0.05085
1083.70 0.05083
1083.80 0.05081
1083.90 0.05078
1084.00 0.05076
1084.10 0.05073
1084.20 0.05071
1084.30 0.05068
1084.40 0.05066
1084.50 0.05064
1084.60 0.05061
1084.70 0.05058
1084.80 0.05056
1084.90 0.05053
1085.00 0.0505
1085.10 0.05048
1085.20 0.05045
1085.30 0.05042
1085.40 0.0504
1085.50 0.05037
1085.60 0.05034
1085.70 0.05032
1085.80 0.05029
1085.90 0.05026
1086.00 0.05024
1086.10 0.05021
1086.20 0.05018
1086.30 0.05016
1086.40 0.05013
1086.50 0.0501
1086.60 0.05007
1086.70 0.05004
1086.80 0.05001
1086.90 0.04998
1087.00 0.04995
1087.10 0.04992
1087.20 0.04989
1087.30 0.04986
1087.40 0.04982
1087.50 0.04979
1087.60 0.04976
1087.70 0.04973
1087.80 0.04969
1087.90 0.04966
1088.00 0.04963
1088.10 0.0496
1088.20 0.04956
1088.30 0.04953
1088.40 0.0495
1088.50 0.04947
1088.60 0.04943
1088.70 0.04939
1088.80 0.04935
1088.90 0.04931
1089.00 0.04927
1089.10 0.04923
1089.20 0.04919
1089.30 0.04915
1089.40 0.04911
1089.50 0.04907
1089.60 0.04904
1089.70 0.049
1089.80 0.04896
1089.90 0.04892
1090.00 0.04888
1090.10 0.04884
1090.20 0.0488
1090.30 0.04876
1090.40 0.04872
1090.50 0.04868
1090.60 0.04864
1090.70 0.0486
1090.80 0.04855
1090.90 0.04851
1091.00 0.04847
1091.10 0.04842
1091.20 0.04838
1091.30 0.04834
1091.40 0.04829
1091.50 0.04825
1091.60 0.04821
1091.70 0.04816
1091.80 0.04812
1091.90 0.04808
1092.00 0.04803
1092.10 0.048
1092.20 0.04796
1092.30 0.04792
1092.40 0.04789
1092.50 0.04785
1092.60 0.04781
1092.70 0.04778
1092.80 0.04776
1092.90 0.04774
1093.00 0.04772
1093.10 0.04771
1093.20 0.04771
1093.30 0.04771
1093.40 0.04772
1093.50 0.04774
1093.60 0.0478
1093.70 0.04785
1093.80 0.04789
1093.90 0.04788
1094.00 0.04779
1094.10 0.04771
1094.20 0.04762
1094.30 0.04755
1094.40 0.04753
1094.50 0.04751
1094.60 0.04749
1094.70 0.04747
1094.80 0.04745
1094.90 0.04743
1095.00 0.04741
1095.10 0.04742
1095.20 0.04743
1095.30 0.04743
1095.40 0.04744
1095.50 0.04745
1095.60 0.04745
1095.70 0.04746
1095.80 0.04747
1095.90 0.04747
1096.00 0.04748
1096.10 0.04749
1096.20 0.04749
1096.30 0.0475
1096.40 0.04751
1096.50 0.04752
1096.60 0.04752
1096.70 0.04753
1096.80 0.04754
1096.90 0.04755
1097.00 0.04756
1097.10 0.04757
1097.20 0.04757
1097.30 0.04758
1097.40 0.04759
1097.50 0.04759
1097.60 0.0476
1097.70 0.0476
1097.80 0.04761
1097.90 0.04762
1098.00 0.04762
1098.10 0.04763
1098.20 0.04763
1098.30 0.04764
1098.40 0.04764
1098.50 0.04765
1098.60 0.04765
1098.70 0.04765
1098.80 0.04764
1098.90 0.04764
1099.00 0.04764
1099.10 0.04764
1099.20 0.04764
1099.30 0.04764
1099.40 0.04764
1099.50 0.04764
1099.60 0.04763
1099.70 0.04763
1099.80 0.04763
1099.90 0.04763
1100.00 0.04763
1100.10 0.04763
1100.20 0.04763
1100.30 0.04763
1100.40 0.04762
1100.50 0.04762
1100.60 0.04761
1100.70 0.04761
1100.80 0.0476
1100.90 0.04759
1101.00 0.04759
1101.10 0.04758
1101.20 0.04757
1101.30 0.04757
1101.40 0.04756
1101.50 0.04755
1101.60 0.04755
1101.70 0.04754
1101.80 0.04753
1101.90 0.04753
1102.00 0.04752
1102.10 0.04751
1102.20 0.0475
1102.30 0.04749
1102.40 0.04748
1102.50 0.04747
1102.60 0.04746
1102.70 0.04745
1102.80 0.04744
1102.90 0.04743
1103.00 0.04742
1103.10 0.04741
1103.20 0.0474
1103.30 0.04739
1103.40 0.04738
1103.50 0.04737
1103.60 0.04736
1103.70 0.04734
1103.80 0.04733
1103.90 0.04732
1104.00 0.04731
1104.10 0.0473
1104.20 0.04728
1104.30 0.04727
1104.40 0.04726
1104.50 0.04725
1104.60 0.04723
1104.70 0.04722
1104.80 0.04721
1104.90 0.0472
1105.00 0.04719
1105.10 0.04717
1105.20 0.04716
1105.30 0.04715
1105.40 0.04714
1105.50 0.04712
1105.60 0.04711
1105.70 0.0471
1105.80 0.04708
1105.90 0.04707
1106.00 0.04706
1106.10 0.04704
1106.20 0.04703
1106.30 0.04701
1106.40 0.047
1106.50 0.04699
1106.60 0.04697
1106.70 0.04696
1106.80 0.04695
1106.90 0.04693
1107.00 0.04692
1107.10 0.0469
1107.20 0.04689
1107.30 0.04688
1107.40 0.04686
1107.50 0.04685
1107.60 0.04683
1107.70 0.04682
1107.80 0.0468
1107.90 0.04679
1108.00 0.04677
1108.10 0.04676
1108.20 0.04674
1108.30 0.04673
1108.40 0.04672
1108.50 0.0467
1108.60 0.04669
1108.70 0.04667
1108.80 0.04666
1108.90 0.04664
1109.00 0.04663
1109.10 0.04661
1109.20 0.0466
1109.30 0.04658
1109.40 0.04657
1109.50 0.04655
1109.60 0.04654
1109.70 0.04652
1109.80 0.04651
1109.90 0.04649
1110.00 0.04648
1110.10 0.04646
1110.20 0.04645
1110.30 0.04643
1110.40 0.04642
1110.50 0.0464
1110.60 0.04639
1110.70 0.04637
1110.80 0.04636
1110.90 0.04634
1111.00 0.04633
1111.10 0.04631
1111.20 0.0463
1111.30 0.04628
1111.40 0.04627
1111.50 0.04625
1111.60 0.04624
1111.70 0.04622
1111.80 0.04621
1111.90 0.04619
1112.00 0.04618
1112.10 0.04616
1112.20 0.04615
1112.30 0.04613
1112.40 0.04611
1112.50 0.0461
1112.60 0.04608
1112.70 0.04607
1112.80 0.04605
1112.90 0.04604
1113.00 0.04602
1113.10 0.04601
1113.20 0.04599
1113.30 0.04598
1113.40 0.04596
1113.50 0.04595
1113.60 0.04593
1113.70 0.04591
1113.80 0.0459
1113.90 0.04588
1114.00 0.04587
1114.10 0.04585
1114.20 0.04584
1114.30 0.04582
1114.40 0.04581
1114.50 0.04579
1114.60 0.04577
1114.70 0.04576
1114.80 0.04574
1114.90 0.04573
1115.00 0.04571
1115.10 0.0457
1115.20 0.04568
1115.30 0.04567
1115.40 0.04565
1115.50 0.04564
1115.60 0.04562
1115.70 0.0456
1115.80 0.04559
1115.90 0.04557
1116.00 0.04556
1116.10 0.04554
1116.20 0.04553
1116.30 0.04551
1116.40 0.0455
1116.50 0.04548
1116.60 0.04547
1116.70 0.04545
1116.80 0.04544
1116.90 0.04542
1117.00 0.0454
1117.10 0.04539
1117.20 0.04537
1117.30 0.04536
1117.40 0.04534
1117.50 0.04533
1117.60 0.04531
1117.70 0.0453
1117.80 0.04528
1117.90 0.04526
1118.00 0.04525
1118.10 0.04523
1118.20 0.04522
1118.30 0.0452
1118.40 0.04519
1118.50 0.04517
1118.60 0.04516
1118.70 0.04514
1118.80 0.04513
1118.90 0.04511
1119.00 0.04509
1119.10 0.04508
1119.20 0.04506
1119.30 0.04505
1119.40 0.04503
1119.50 0.04502
1119.60 0.045
1119.70 0.04499
1119.80 0.04497
1119.90 0.04496
1120.00 0.04494
1120.10 0.04493
1120.20 0.04491
1120.30 0.04489
1120.40 0.04488
1120.50 0.04486
1120.60 0.04485
1120.70 0.04483
1120.80 0.04482
1120.90 0.0448
1121.00 0.04479
1121.10 0.04477
1121.20 0.04476
1121.30 0.04474
1121.40 0.04473
1121.50 0.04471
1121.60 0.0447
1121.70 0.04468
1121.80 0.04466
1121.90 0.04465
1122.00 0.04463
1122.10 0.04462
1122.20 0.0446
1122.30 0.04459
1122.40 0.04457
1122.50 0.04456
1122.60 0.04454
1122.70 0.04453
1122.80 0.04451
1122.90 0.0445
1123.00 0.04448
1123.10 0.04447
1123.20 0.04445
1123.30 0.04444
1123.40 0.04442
1123.50 0.04441
1123.60 0.04439
1123.70 0.04437
1123.80 0.04436
1123.90 0.04434
1124.00 0.04433
1124.10 0.04431
1124.20 0.0443
1124.30 0.04428
1124.40 0.04427
1124.50 0.04425
1124.60 0.04424
1124.70 0.04422
1124.80 0.04421
1124.90 0.04419
1125.00 0.04418
1125.10 0.04416
1125.20 0.04415
1125.30 0.04413
1125.40 0.04412
1125.50 0.0441
1125.60 0.04409
1125.70 0.04407
1125.80 0.04406
1125.90 0.04404
1126.00 0.04403
1126.10 0.04401
1126.20 0.044
1126.30 0.04398
1126.40 0.04396
1126.50 0.04395
1126.60 0.04393
1126.70 0.04392
1126.80 0.0439
1126.90 0.04389
1127.00 0.04387
1127.10 0.04386
1127.20 0.04384
1127.30 0.04383
1127.40 0.04381
1127.50 0.0438
1127.60 0.04378
1127.70 0.04377
1127.80 0.04375
1127.90 0.04374
1128.00 0.04372
1128.10 0.04371
1128.20 0.04369
1128.30 0.04368
1128.40 0.04366
1128.50 0.04365
1128.60 0.04363
1128.70 0.04362
1128.80 0.0436
1128.90 0.04359
1129.00 0.04357
1129.10 0.04356
1129.20 0.04354
1129.30 0.04353
1129.40 0.04351
1129.50 0.0435
1129.60 0.04348
1129.70 0.04347
1129.80 0.04345
1129.90 0.04344
1130.00 0.04343
1130.10 0.04341
1130.20 0.0434
1130.30 0.04338
1130.40 0.04337
1130.50 0.04335
1130.60 0.04334
1130.70 0.04332
1130.80 0.04331
1130.90 0.04329
1131.00 0.04328
1131.10 0.04326
1131.20 0.04325
1131.30 0.04323
1131.40 0.04322
1131.50 0.0432
1131.60 0.04319
1131.70 0.04317
1131.80 0.04316
1131.90 0.04314
1132.00 0.04313
1132.10 0.04311
1132.20 0.0431
1132.30 0.04308
1132.40 0.04307
1132.50 0.04305
1132.60 0.04304
1132.70 0.04302
1132.80 0.04301
1132.90 0.043
1133.00 0.04298
1133.10 0.04297
1133.20 0.04295
1133.30 0.04294
1133.40 0.04292
1133.50 0.04291
1133.60 0.04289
1133.70 0.04288
1133.80 0.04286
1133.90 0.04285
1134.00 0.04283
1134.10 0.04282
1134.20 0.0428
1134.30 0.04279
1134.40 0.04278
1134.50 0.04276
1134.60 0.04275
1134.70 0.04273
1134.80 0.04272
1134.90 0.0427
1135.00 0.04269
1135.10 0.04267
1135.20 0.04266
1135.30 0.04264
1135.40 0.04263
1135.50 0.04261
1135.60 0.0426
1135.70 0.04258
1135.80 0.04257
1135.90 0.04256
1136.00 0.04254
1136.10 0.04253
1136.20 0.04251
1136.30 0.0425
1136.40 0.04248
1136.50 0.04247
1136.60 0.04245
1136.70 0.04244
1136.80 0.04242
1136.90 0.04241
1137.00 0.0424
1137.10 0.04238
1137.20 0.04237
1137.30 0.04235
1137.40 0.04234
1137.50 0.04232
1137.60 0.04231
1137.70 0.04229
1137.80 0.04228
1137.90 0.04227
1138.00 0.04225
1138.10 0.04224
1138.20 0.04222
1138.30 0.04221
1138.40 0.04219
1138.50 0.04218
1138.60 0.04216
1138.70 0.04215
1138.80 0.04214
1138.90 0.04212
1139.00 0.04211
1139.10 0.04209
1139.20 0.04208
1139.30 0.04206
1139.40 0.04205
1139.50 0.04204
1139.60 0.04202
1139.70 0.04201
1139.80 0.04199
1139.90 0.04198
1140.00 0.04196
1140.10 0.04195
1140.20 0.04194
1140.30 0.04192
1140.40 0.04191
1140.50 0.04189
1140.60 0.04188
1140.70 0.04186
1140.80 0.04185
1140.90 0.04184
1141.00 0.04182
1141.10 0.04181
1141.20 0.04179
1141.30 0.04178
1141.40 0.04176
1141.50 0.04175
1141.60 0.04174
1141.70 0.04172
1141.80 0.04171
1141.90 0.04169
1142.00 0.04168
1142.10 0.04166
1142.20 0.04165
1142.30 0.04164
1142.40 0.04162
1142.50 0.04161
1142.60 0.04159
1142.70 0.04158
1142.80 0.04156
1142.90 0.04155
1143.00 0.04154
1143.10 0.04152
1143.20 0.04151
1143.30 0.04149
1143.40 0.04148
1143.50 0.04147
1143.60 0.04145
1143.70 0.04144
1143.80 0.04142
1143.90 0.04141
1144.00 0.0414
1144.10 0.04138
1144.20 0.04137
1144.30 0.04135
1144.40 0.04134
1144.50 0.04133
1144.60 0.04131
1144.70 0.0413
1144.80 0.04128
1144.90 0.04127
1145.00 0.04126
1145.10 0.04124
1145.20 0.04123
1145.30 0.04121
1145.40 0.0412
1145.50 0.04119
1145.60 0.04117
1145.70 0.04116
1145.80 0.04114
1145.90 0.04113
1146.00 0.04112
1146.10 0.0411
1146.20 0.04109
1146.30 0.04107
1146.40 0.04106
1146.50 0.04105
1146.60 0.04103
1146.70 0.04102
1146.80 0.041
1146.90 0.04099
1147.00 0.04098
1147.10 0.04096
1147.20 0.04095
1147.30 0.04093
1147.40 0.04092
1147.50 0.04091
1147.60 0.04089
1147.70 0.04088
1147.80 0.04086
1147.90 0.04085
1148.00 0.04084
1148.10 0.04082
1148.20 0.04081
1148.30 0.0408
1148.40 0.04078
1148.50 0.04077
1148.60 0.04075
1148.70 0.04074
1148.80 0.04073
1148.90 0.04071
1149.00 0.0407
1149.10 0.04068
1149.20 0.04067
1149.30 0.04066
1149.40 0.04064
1149.50 0.04063
1149.60 0.04062
1149.70 0.0406
1149.80 0.04059
1149.90 0.04057
1150.00 0.04056
1150.10 0.04055
1150.20 0.04053
1150.30 0.04052
1150.40 0.04051
1150.50 0.04049
1150.60 0.04048
1150.70 0.04046
1150.80 0.04045
1150.90 0.04044
1151.00 0.04042
1151.10 0.04041
1151.20 0.0404
1151.30 0.04038
1151.40 0.04037
1151.50 0.04036
1151.60 0.04034
1151.70 0.04033
1151.80 0.04031
1151.90 0.0403
1152.00 0.04029
1152.10 0.04027
1152.20 0.04026
1152.30 0.04025
1152.40 0.04023
1152.50 0.04022
1152.60 0.04021
1152.70 0.04019
1152.80 0.04018
1152.90 0.04016
1153.00 0.04015
1153.10 0.04014
1153.20 0.04012
1153.30 0.04011
1153.40 0.0401
1153.50 0.04008
1153.60 0.04007
1153.70 0.04006
1153.80 0.04004
1153.90 0.04003
1154.00 0.04002
1154.10 0.04
1154.20 0.03999
1154.30 0.03998
1154.40 0.03996
1154.50 0.03995
1154.60 0.03994
1154.70 0.03992
1154.80 0.03991
1154.90 0.03989
1155.00 0.03988
1155.10 0.03987
1155.20 0.03985
1155.30 0.03984
1155.40 0.03983
1155.50 0.03981
1155.60 0.0398
1155.70 0.03979
1155.80 0.03977
1155.90 0.03976
1156.00 0.03975
1156.10 0.03973
1156.20 0.03972
1156.30 0.03971
1156.40 0.03969
1156.50 0.03968
1156.60 0.03967
1156.70 0.03965
1156.80 0.03964
1156.90 0.03963
1157.00 0.03961
1157.10 0.0396
1157.20 0.03959
1157.30 0.03957
1157.40 0.03956
1157.50 0.03955
1157.60 0.03953
1157.70 0.03952
1157.80 0.03951
1157.90 0.03949
1158.00 0.03948
1158.10 0.03947
1158.20 0.03945
1158.30 0.03944
1158.40 0.03943
1158.50 0.03941
1158.60 0.0394
1158.70 0.03939
1158.80 0.03937
1158.90 0.03936
1159.00 0.03935
1159.10 0.03933
1159.20 0.03932
1159.30 0.03931
1159.40 0.03929
1159.50 0.03928
1159.60 0.03927
1159.70 0.03926
1159.80 0.03924
1159.90 0.03923
1160.00 0.03922
1160.10 0.0392
1160.20 0.03919
1160.30 0.03918
1160.40 0.03916
1160.50 0.03915
1160.60 0.03914
1160.70 0.03912
1160.80 0.03911
1160.90 0.0391
1161.00 0.03908
1161.10 0.03907
1161.20 0.03906
1161.30 0.03904
1161.40 0.03903
1161.50 0.03902
1161.60 0.03901
1161.70 0.03899
1161.80 0.03898
1161.90 0.03897
1162.00 0.03895
1162.10 0.03894
1162.20 0.03893
1162.30 0.03891
1162.40 0.0389
1162.50 0.03889
1162.60 0.03887
1162.70 0.03886
1162.80 0.03885
1162.90 0.03884
1163.00 0.03882
1163.10 0.03881
1163.20 0.0388
1163.30 0.03878
1163.40 0.03877
1163.50 0.03876
1163.60 0.03874
1163.70 0.03873
1163.80 0.03872
1163.90 0.03871
1164.00 0.03869
1164.10 0.03868
1164.20 0.03867
1164.30 0.03865
1164.40 0.03864
1164.50 0.03863
1164.60 0.03862
1164.70 0.0386
1164.80 0.03859
1164.90 0.03858
1165.00 0.03856
1165.10 0.03855
1165.20 0.03854
1165.30 0.03852
1165.40 0.03851
1165.50 0.0385
1165.60 0.03849
1165.70 0.03847
1165.80 0.03846
1165.90 0.03845
1166.00 0.03843
1166.10 0.03842
1166.20 0.03841
1166.30 0.0384
1166.40 0.03838
1166.50 0.03837
1166.60 0.03836
1166.70 0.03834
1166.80 0.03833
1166.90 0.03832
1167.00 0.03831
1167.10 0.03829
1167.20 0.03828
1167.30 0.03827
1167.40 0.03826
1167.50 0.03824
1167.60 0.03823
1167.70 0.03822
1167.80 0.0382
1167.90 0.03819
1168.00 0.03818
1168.10 0.03817
1168.20 0.03815
1168.30 0.03814
1168.40 0.03813
1168.50 0.03812
1168.60 0.0381
1168.70 0.03809
1168.80 0.03808
1168.90 0.03806
1169.00 0.03805
1169.10 0.03804
1169.20 0.03803
1169.30 0.03801
1169.40 0.038
1169.50 0.03799
1169.60 0.03798
1169.70 0.03796
1169.80 0.03795
1169.90 0.03794
1170.00 0.03793
1170.10 0.03791
1170.20 0.0379
1170.30 0.03789
1170.40 0.03787
1170.50 0.03786
1170.60 0.03785
1170.70 0.03784
1170.80 0.03782
1170.90 0.03781
1171.00 0.0378
1171.10 0.03779
1171.20 0.03777
1171.30 0.03776
1171.40 0.03775
1171.50 0.03774
1171.60 0.03772
1171.70 0.03771
1171.80 0.0377
1171.90 0.03769
1172.00 0.03767
1172.10 0.03766
1172.20 0.03765
1172.30 0.03764
1172.40 0.03762
1172.50 0.03761
1172.60 0.0376
1172.70 0.03759
1172.80 0.03757
1172.90 0.03756
1173.00 0.03755
1173.10 0.03754
1173.20 0.03752
1173.30 0.03751
1173.40 0.0375
1173.50 0.03749
1173.60 0.03747
1173.70 0.03746
1173.80 0.03745
1173.90 0.03744
1174.00 0.03742
1174.10 0.03741
1174.20 0.0374
1174.30 0.03739
1174.40 0.03737
1174.50 0.03736
1174.60 0.03735
1174.70 0.03734
1174.80 0.03732
1174.90 0.03731
1175.00 0.0373
1175.10 0.03729
1175.20 0.03728
1175.30 0.03726
1175.40 0.03725
1175.50 0.03724
1175.60 0.03723
1175.70 0.03721
1175.80 0.0372
1175.90 0.03719
1176.00 0.03718
1176.10 0.03716
1176.20 0.03715
1176.30 0.03714
1176.40 0.03713
1176.50 0.03711
1176.60 0.0371
1176.70 0.03709
1176.80 0.03708
1176.90 0.03707
1177.00 0.03705
1177.10 0.03704
1177.20 0.03703
1177.30 0.03702
1177.40 0.037
1177.50 0.03699
1177.60 0.03698
1177.70 0.03697
1177.80 0.03696
1177.90 0.03694
1178.00 0.03693
1178.10 0.03692
1178.20 0.03691
1178.30 0.03689
1178.40 0.03688
1178.50 0.03687
1178.60 0.03686
1178.70 0.03685
1178.80 0.03683
1178.90 0.03682
1179.00 0.03681
1179.10 0.0368
1179.20 0.03678
1179.30 0.03677
1179.40 0.03676
1179.50 0.03675
1179.60 0.03674
1179.70 0.03672
1179.80 0.03671
1179.90 0.0367
1180.00 0.03669
1180.10 0.03668
1180.20 0.03666
1180.30 0.03665
1180.40 0.03664
1180.50 0.03663
1180.60 0.03661
1180.70 0.0366
1180.80 0.03659
1180.90 0.03658
1181.00 0.03657
1181.10 0.03655
1181.20 0.03654
1181.30 0.03653
1181.40 0.03652
1181.50 0.03651
1181.60 0.03649
1181.70 0.03648
1181.80 0.03647
1181.90 0.03646
1182.00 0.03645
1182.10 0.03643
1182.20 0.03642
1182.30 0.03641
1182.40 0.0364
1182.50 0.03639
1182.60 0.03637
1182.70 0.03636
1182.80 0.03635
1182.90 0.03634
1183.00 0.03633
1183.10 0.03631
1183.20 0.0363
1183.30 0.03629
1183.40 0.03628
1183.50 0.03627
1183.60 0.03625
1183.70 0.03624
1183.80 0.03623
1183.90 0.03622
1184.00 0.03621
1184.10 0.03619
1184.20 0.03618
1184.30 0.03617
1184.40 0.03616
1184.50 0.03615
1184.60 0.03613
1184.70 0.03612
1184.80 0.03611
1184.90 0.0361
1185.00 0.03609
1185.10 0.03608
1185.20 0.03606
1185.30 0.03605
1185.40 0.03604
1185.50 0.03603
1185.60 0.03602
1185.70 0.036
1185.80 0.03599
1185.90 0.03598
1186.00 0.03597
1186.10 0.03596
1186.20 0.03594
1186.30 0.03593
1186.40 0.03592
1186.50 0.03591
1186.60 0.0359
1186.70 0.03589
1186.80 0.03587
1186.90 0.03586
1187.00 0.03585
1187.10 0.03584
1187.20 0.03583
1187.30 0.03581
1187.40 0.0358
1187.50 0.03579
1187.60 0.03578
1187.70 0.03577
1187.80 0.03576
1187.90 0.03574
1188.00 0.03573
1188.10 0.03572
1188.20 0.03571
1188.30 0.0357
1188.40 0.03569
1188.50 0.03567
1188.60 0.03566
1188.70 0.03565
1188.80 0.03564
1188.90 0.03563
1189.00 0.03562
1189.10 0.0356
1189.20 0.03559
1189.30 0.03558
1189.40 0.03557
1189.50 0.03556
1189.60 0.03555
1189.70 0.03553
1189.80 0.03552
1189.90 0.03551
1190.00 0.0355
1190.10 0.03549
1190.20 0.03548
1190.30 0.03546
1190.40 0.03545
1190.50 0.03544
1190.60 0.03543
1190.70 0.03542
1190.80 0.03541
1190.90 0.03539
1191.00 0.03538
1191.10 0.03537
1191.20 0.03536
1191.30 0.03535
1191.40 0.03534
1191.50 0.03532
1191.60 0.03531
1191.70 0.0353
1191.80 0.03529
1191.90 0.03528
1192.00 0.03527
1192.10 0.03526
1192.20 0.03524
1192.30 0.03523
1192.40 0.03522
1192.50 0.03521
1192.60 0.0352
1192.70 0.03519
1192.80 0.03517
1192.90 0.03516
1193.00 0.03515
1193.10 0.03514
1193.20 0.03513
1193.30 0.03512
1193.40 0.03511
1193.50 0.03509
1193.60 0.03508
1193.70 0.03507
1193.80 0.03506
1193.90 0.03505
1194.00 0.03504
1194.10 0.03503
1194.20 0.03501
1194.30 0.035
1194.40 0.03499
1194.50 0.03498
1194.60 0.03497
1194.70 0.03496
1194.80 0.03495
1194.90 0.03493
1195.00 0.03492
1195.10 0.03491
1195.20 0.0349
1195.30 0.03489
1195.40 0.03488
1195.50 0.03487
1195.60 0.03485
1195.70 0.03484
1195.80 0.03483
1195.90 0.03482
1196.00 0.03481
1196.10 0.0348
1196.20 0.03479
1196.30 0.03478
1196.40 0.03476
1196.50 0.03475
1196.60 0.03474
1196.70 0.03473
1196.80 0.03472
1196.90 0.03471
1197.00 0.0347
1197.10 0.03468
1197.20 0.03467
1197.30 0.03466
1197.40 0.03465
1197.50 0.03464
1197.60 0.03463
1197.70 0.03462
1197.80 0.03461
1197.90 0.03459
1198.00 0.03458
1198.10 0.03457
1198.20 0.03456
1198.30 0.03455
1198.40 0.03454
1198.50 0.03453
1198.60 0.03452
1198.70 0.0345
1198.80 0.03449
1198.90 0.03448
1199.00 0.03447
1199.10 0.03446
1199.20 0.03445
1199.30 0.03444
1199.40 0.03443
1199.50 0.03441
1199.60 0.0344
1199.70 0.03439
1199.80 0.03438
1199.90 0.03437
1200.00 0
