# Version 2.1 - nm, norm@500 to 1, cut digits, bergeron_4250_90.dat_4250
# Wavelength(nm)  Flambda(ergs/cm^s/s/nm)
300.00 0.2376
300.10 0.238
300.20 0.2384
300.30 0.2388
300.40 0.2391
300.50 0.2395
300.60 0.2399
300.70 0.2403
300.80 0.2407
300.90 0.241
301.00 0.2414
301.10 0.2418
301.20 0.2422
301.30 0.2426
301.40 0.2429
301.50 0.2433
301.60 0.2437
301.70 0.2441
301.80 0.2445
301.90 0.2448
302.00 0.2452
302.10 0.2456
302.20 0.246
302.30 0.2464
302.40 0.2468
302.50 0.2472
302.60 0.2475
302.70 0.2479
302.80 0.2483
302.90 0.2487
303.00 0.2491
303.10 0.2495
303.20 0.2499
303.30 0.2502
303.40 0.2506
303.50 0.251
303.60 0.2514
303.70 0.2518
303.80 0.2522
303.90 0.2525
304.00 0.2529
304.10 0.2533
304.20 0.2537
304.30 0.2541
304.40 0.2545
304.50 0.2549
304.60 0.2553
304.70 0.2557
304.80 0.2561
304.90 0.2564
305.00 0.2568
305.10 0.2572
305.20 0.2576
305.30 0.258
305.40 0.2584
305.50 0.2588
305.60 0.2592
305.70 0.2595
305.80 0.2599
305.90 0.2603
306.00 0.2607
306.10 0.2611
306.20 0.2615
306.30 0.2619
306.40 0.2623
306.50 0.2627
306.60 0.2631
306.70 0.2635
306.80 0.2639
306.90 0.2643
307.00 0.2647
307.10 0.2651
307.20 0.2655
307.30 0.2658
307.40 0.2662
307.50 0.2666
307.60 0.267
307.70 0.2674
307.80 0.2678
307.90 0.2682
308.00 0.2686
308.10 0.269
308.20 0.2694
308.30 0.2698
308.40 0.2702
308.50 0.2706
308.60 0.271
308.70 0.2714
308.80 0.2718
308.90 0.2722
309.00 0.2726
309.10 0.273
309.20 0.2734
309.30 0.2738
309.40 0.2742
309.50 0.2746
309.60 0.275
309.70 0.2754
309.80 0.2757
309.90 0.2761
310.00 0.2765
310.10 0.2769
310.20 0.2773
310.30 0.2778
310.40 0.2782
310.50 0.2786
310.60 0.279
310.70 0.2794
310.80 0.2798
310.90 0.2802
311.00 0.2806
311.10 0.281
311.20 0.2814
311.30 0.2818
311.40 0.2822
311.50 0.2826
311.60 0.283
311.70 0.2834
311.80 0.2838
311.90 0.2842
312.00 0.2846
312.10 0.285
312.20 0.2854
312.30 0.2858
312.40 0.2862
312.50 0.2866
312.60 0.287
312.70 0.2874
312.80 0.2878
312.90 0.2882
313.00 0.2887
313.10 0.2891
313.20 0.2895
313.30 0.2899
313.40 0.2903
313.50 0.2907
313.60 0.2911
313.70 0.2915
313.80 0.2919
313.90 0.2923
314.00 0.2927
314.10 0.2931
314.20 0.2935
314.30 0.2939
314.40 0.2943
314.50 0.2948
314.60 0.2952
314.70 0.2956
314.80 0.296
314.90 0.2964
315.00 0.2968
315.10 0.2972
315.20 0.2976
315.30 0.298
315.40 0.2984
315.50 0.2988
315.60 0.2992
315.70 0.2997
315.80 0.3001
315.90 0.3005
316.00 0.3009
316.10 0.3013
316.20 0.3017
316.30 0.3021
316.40 0.3025
316.50 0.303
316.60 0.3034
316.70 0.3038
316.80 0.3042
316.90 0.3046
317.00 0.305
317.10 0.3054
317.20 0.3059
317.30 0.3063
317.40 0.3067
317.50 0.3071
317.60 0.3075
317.70 0.3079
317.80 0.3083
317.90 0.3087
318.00 0.3091
318.10 0.3096
318.20 0.31
318.30 0.3104
318.40 0.3108
318.50 0.3112
318.60 0.3117
318.70 0.3121
318.80 0.3125
318.90 0.3129
319.00 0.3133
319.10 0.3137
319.20 0.3142
319.30 0.3146
319.40 0.315
319.50 0.3154
319.60 0.3158
319.70 0.3162
319.80 0.3166
319.90 0.317
320.00 0.3175
320.10 0.3179
320.20 0.3183
320.30 0.3187
320.40 0.3191
320.50 0.3196
320.60 0.32
320.70 0.3204
320.80 0.3208
320.90 0.3213
321.00 0.3217
321.10 0.3221
321.20 0.3225
321.30 0.3229
321.40 0.3233
321.50 0.3238
321.60 0.3242
321.70 0.3246
321.80 0.325
321.90 0.3254
322.00 0.3258
322.10 0.3263
322.20 0.3267
322.30 0.3271
322.40 0.3275
322.50 0.328
322.60 0.3284
322.70 0.3288
322.80 0.3292
322.90 0.3297
323.00 0.3301
323.10 0.3305
323.20 0.3309
323.30 0.3314
323.40 0.3318
323.50 0.3322
323.60 0.3326
323.70 0.333
323.80 0.3335
323.90 0.3339
324.00 0.3343
324.10 0.3347
324.20 0.3351
324.30 0.3356
324.40 0.336
324.50 0.3364
324.60 0.3369
324.70 0.3373
324.80 0.3377
324.90 0.3381
325.00 0.3386
325.10 0.339
325.20 0.3394
325.30 0.3398
325.40 0.3403
325.50 0.3407
325.60 0.3411
325.70 0.3415
325.80 0.342
325.90 0.3424
326.00 0.3428
326.10 0.3432
326.20 0.3437
326.30 0.3441
326.40 0.3445
326.50 0.345
326.60 0.3454
326.70 0.3458
326.80 0.3462
326.90 0.3467
327.00 0.3471
327.10 0.3475
327.20 0.348
327.30 0.3484
327.40 0.3488
327.50 0.3492
327.60 0.3497
327.70 0.3501
327.80 0.3505
327.90 0.3509
328.00 0.3514
328.10 0.3518
328.20 0.3522
328.30 0.3527
328.40 0.3531
328.50 0.3535
328.60 0.354
328.70 0.3544
328.80 0.3548
328.90 0.3552
329.00 0.3557
329.10 0.3561
329.20 0.3565
329.30 0.357
329.40 0.3574
329.50 0.3578
329.60 0.3582
329.70 0.3587
329.80 0.3591
329.90 0.3595
330.00 0.36
330.10 0.3604
330.20 0.3608
330.30 0.3613
330.40 0.3617
330.50 0.3621
330.60 0.3626
330.70 0.363
330.80 0.3634
330.90 0.3639
331.00 0.3643
331.10 0.3647
331.20 0.3652
331.30 0.3656
331.40 0.366
331.50 0.3665
331.60 0.3669
331.70 0.3673
331.80 0.3678
331.90 0.3682
332.00 0.3686
332.10 0.3691
332.20 0.3695
332.30 0.3699
332.40 0.3704
332.50 0.3708
332.60 0.3713
332.70 0.3717
332.80 0.3721
332.90 0.3726
333.00 0.373
333.10 0.3734
333.20 0.3739
333.30 0.3743
333.40 0.3747
333.50 0.3752
333.60 0.3756
333.70 0.376
333.80 0.3765
333.90 0.3769
334.00 0.3773
334.10 0.3778
334.20 0.3782
334.30 0.3786
334.40 0.3791
334.50 0.3795
334.60 0.38
334.70 0.3804
334.80 0.3808
334.90 0.3813
335.00 0.3817
335.10 0.3821
335.20 0.3826
335.30 0.383
335.40 0.3835
335.50 0.3839
335.60 0.3843
335.70 0.3848
335.80 0.3852
335.90 0.3856
336.00 0.3861
336.10 0.3865
336.20 0.3869
336.30 0.3874
336.40 0.3878
336.50 0.3883
336.60 0.3887
336.70 0.3891
336.80 0.3896
336.90 0.39
337.00 0.3905
337.10 0.3909
337.20 0.3913
337.30 0.3918
337.40 0.3922
337.50 0.3926
337.60 0.3931
337.70 0.3935
337.80 0.3939
337.90 0.3944
338.00 0.3948
338.10 0.3953
338.20 0.3957
338.30 0.3962
338.40 0.3966
338.50 0.397
338.60 0.3975
338.70 0.3979
338.80 0.3984
338.90 0.3988
339.00 0.3992
339.10 0.3997
339.20 0.4001
339.30 0.4006
339.40 0.401
339.50 0.4014
339.60 0.4019
339.70 0.4023
339.80 0.4028
339.90 0.4032
340.00 0.4036
340.10 0.4041
340.20 0.4045
340.30 0.405
340.40 0.4054
340.50 0.4059
340.60 0.4063
340.70 0.4067
340.80 0.4072
340.90 0.4076
341.00 0.4081
341.10 0.4085
341.20 0.409
341.30 0.4094
341.40 0.4098
341.50 0.4103
341.60 0.4107
341.70 0.4112
341.80 0.4116
341.90 0.412
342.00 0.4125
342.10 0.4129
342.20 0.4134
342.30 0.4138
342.40 0.4143
342.50 0.4147
342.60 0.4152
342.70 0.4156
342.80 0.416
342.90 0.4165
343.00 0.4169
343.10 0.4174
343.20 0.4178
343.30 0.4183
343.40 0.4187
343.50 0.4191
343.60 0.4196
343.70 0.42
343.80 0.4204
343.90 0.4209
344.00 0.4213
344.10 0.4218
344.20 0.4222
344.30 0.4227
344.40 0.4231
344.50 0.4236
344.60 0.424
344.70 0.4245
344.80 0.4249
344.90 0.4254
345.00 0.4258
345.10 0.4262
345.20 0.4267
345.30 0.4271
345.40 0.4276
345.50 0.428
345.60 0.4285
345.70 0.4289
345.80 0.4293
345.90 0.4298
346.00 0.4302
346.10 0.4307
346.20 0.4311
346.30 0.4316
346.40 0.432
346.50 0.4325
346.60 0.4329
346.70 0.4334
346.80 0.4338
346.90 0.4342
347.00 0.4347
347.10 0.4351
347.20 0.4356
347.30 0.436
347.40 0.4365
347.50 0.4369
347.60 0.4374
347.70 0.4378
347.80 0.4382
347.90 0.4387
348.00 0.4391
348.10 0.4396
348.20 0.44
348.30 0.4405
348.40 0.4409
348.50 0.4414
348.60 0.4418
348.70 0.4423
348.80 0.4427
348.90 0.4432
349.00 0.4436
349.10 0.4441
349.20 0.4445
349.30 0.4449
349.40 0.4454
349.50 0.4458
349.60 0.4463
349.70 0.4467
349.80 0.4472
349.90 0.4476
350.00 0.448
350.10 0.4485
350.20 0.4489
350.30 0.4494
350.40 0.4498
350.50 0.4503
350.60 0.4507
350.70 0.4512
350.80 0.4516
350.90 0.4521
351.00 0.4525
351.10 0.453
351.20 0.4534
351.30 0.4539
351.40 0.4543
351.50 0.4548
351.60 0.4552
351.70 0.4557
351.80 0.4561
351.90 0.4565
352.00 0.457
352.10 0.4574
352.20 0.4579
352.30 0.4583
352.40 0.4588
352.50 0.4592
352.60 0.4597
352.70 0.4601
352.80 0.4606
352.90 0.461
353.00 0.4615
353.10 0.4619
353.20 0.4624
353.30 0.4628
353.40 0.4633
353.50 0.4637
353.60 0.4642
353.70 0.4646
353.80 0.465
353.90 0.4655
354.00 0.4659
354.10 0.4664
354.20 0.4668
354.30 0.4673
354.40 0.4677
354.50 0.4682
354.60 0.4686
354.70 0.4691
354.80 0.4695
354.90 0.47
355.00 0.4704
355.10 0.4709
355.20 0.4713
355.30 0.4718
355.40 0.4722
355.50 0.4727
355.60 0.4731
355.70 0.4736
355.80 0.474
355.90 0.4744
356.00 0.4749
356.10 0.4753
356.20 0.4758
356.30 0.4762
356.40 0.4767
356.50 0.4771
356.60 0.4776
356.70 0.478
356.80 0.4785
356.90 0.4789
357.00 0.4794
357.10 0.4798
357.20 0.4803
357.30 0.4807
357.40 0.4812
357.50 0.4816
357.60 0.4821
357.70 0.4825
357.80 0.483
357.90 0.4834
358.00 0.4839
358.10 0.4843
358.20 0.4848
358.30 0.4852
358.40 0.4857
358.50 0.4861
358.60 0.4866
358.70 0.487
358.80 0.4875
358.90 0.4879
359.00 0.4884
359.10 0.4888
359.20 0.4893
359.30 0.4897
359.40 0.4901
359.50 0.4906
359.60 0.491
359.70 0.4915
359.80 0.4919
359.90 0.4924
360.00 0.4928
360.10 0.4933
360.20 0.4937
360.30 0.4942
360.40 0.4946
360.50 0.4951
360.60 0.4955
360.70 0.496
360.80 0.4964
360.90 0.4969
361.00 0.4973
361.10 0.4978
361.20 0.4982
361.30 0.4987
361.40 0.4991
361.50 0.4995
361.60 0.5
361.70 0.5004
361.80 0.5009
361.90 0.5013
362.00 0.5018
362.10 0.5022
362.20 0.5027
362.30 0.5031
362.40 0.5036
362.50 0.504
362.60 0.5045
362.70 0.5049
362.80 0.5054
362.90 0.5058
363.00 0.5062
363.10 0.5067
363.20 0.5071
363.30 0.5076
363.40 0.508
363.50 0.5085
363.60 0.5089
363.70 0.5094
363.80 0.5098
363.90 0.5103
364.00 0.5107
364.10 0.5112
364.20 0.5116
364.30 0.5121
364.40 0.5125
364.50 0.513
364.60 0.5134
364.70 0.5139
364.80 0.5143
364.90 0.5148
365.00 0.5152
365.10 0.5157
365.20 0.5161
365.30 0.5165
365.40 0.517
365.50 0.5174
365.60 0.5179
365.70 0.5183
365.80 0.5188
365.90 0.5192
366.00 0.5197
366.10 0.5201
366.20 0.5206
366.30 0.521
366.40 0.5215
366.50 0.5219
366.60 0.5224
366.70 0.5228
366.80 0.5233
366.90 0.5237
367.00 0.5242
367.10 0.5246
367.20 0.5251
367.30 0.5255
367.40 0.526
367.50 0.5264
367.60 0.5268
367.70 0.5273
367.80 0.5277
367.90 0.5282
368.00 0.5286
368.10 0.5291
368.20 0.5295
368.30 0.53
368.40 0.5304
368.50 0.5309
368.60 0.5313
368.70 0.5318
368.80 0.5322
368.90 0.5327
369.00 0.5331
369.10 0.5336
369.20 0.534
369.30 0.5344
369.40 0.5349
369.50 0.5353
369.60 0.5358
369.70 0.5362
369.80 0.5367
369.90 0.5371
370.00 0.5375
370.10 0.538
370.20 0.5384
370.30 0.5389
370.40 0.5393
370.50 0.5398
370.60 0.5402
370.70 0.5407
370.80 0.5411
370.90 0.5416
371.00 0.542
371.10 0.5425
371.20 0.5429
371.30 0.5434
371.40 0.5438
371.50 0.5442
371.60 0.5447
371.70 0.5451
371.80 0.5456
371.90 0.546
372.00 0.5465
372.10 0.5469
372.20 0.5474
372.30 0.5478
372.40 0.5482
372.50 0.5487
372.60 0.5491
372.70 0.5496
372.80 0.55
372.90 0.5505
373.00 0.5509
373.10 0.5514
373.20 0.5518
373.30 0.5523
373.40 0.5527
373.50 0.5531
373.60 0.5536
373.70 0.554
373.80 0.5545
373.90 0.5549
374.00 0.5553
374.10 0.5558
374.20 0.5562
374.30 0.5567
374.40 0.5571
374.50 0.5576
374.60 0.558
374.70 0.5585
374.80 0.5589
374.90 0.5594
375.00 0.5598
375.10 0.5603
375.20 0.5607
375.30 0.5611
375.40 0.5616
375.50 0.562
375.60 0.5625
375.70 0.5629
375.80 0.5633
375.90 0.5638
376.00 0.5642
376.10 0.5647
376.20 0.5651
376.30 0.5656
376.40 0.566
376.50 0.5664
376.60 0.5669
376.70 0.5673
376.80 0.5678
376.90 0.5682
377.00 0.5687
377.10 0.5691
377.20 0.5695
377.30 0.57
377.40 0.5704
377.50 0.5709
377.60 0.5713
377.70 0.5718
377.80 0.5722
377.90 0.5726
378.00 0.5731
378.10 0.5735
378.20 0.574
378.30 0.5744
378.40 0.5748
378.50 0.5753
378.60 0.5757
378.70 0.5762
378.80 0.5766
378.90 0.5771
379.00 0.5775
379.10 0.5779
379.20 0.5784
379.30 0.5788
379.40 0.5793
379.50 0.5797
379.60 0.5801
379.70 0.5806
379.80 0.581
379.90 0.5815
380.00 0.5819
380.10 0.5823
380.20 0.5828
380.30 0.5832
380.40 0.5837
380.50 0.5841
380.60 0.5845
380.70 0.585
380.80 0.5854
380.90 0.5859
381.00 0.5863
381.10 0.5867
381.20 0.5872
381.30 0.5876
381.40 0.5881
381.50 0.5885
381.60 0.5889
381.70 0.5894
381.80 0.5898
381.90 0.5903
382.00 0.5907
382.10 0.5911
382.20 0.5916
382.30 0.592
382.40 0.5925
382.50 0.5929
382.60 0.5933
382.70 0.5938
382.80 0.5942
382.90 0.5947
383.00 0.5951
383.10 0.5955
383.20 0.596
383.30 0.5964
383.40 0.5968
383.50 0.5973
383.60 0.5977
383.70 0.5981
383.80 0.5986
383.90 0.599
384.00 0.5995
384.10 0.5999
384.20 0.6003
384.30 0.6008
384.40 0.6012
384.50 0.6017
384.60 0.6021
384.70 0.6025
384.80 0.603
384.90 0.6034
385.00 0.6038
385.10 0.6043
385.20 0.6047
385.30 0.6051
385.40 0.6056
385.50 0.606
385.60 0.6065
385.70 0.6069
385.80 0.6073
385.90 0.6078
386.00 0.6082
386.10 0.6086
386.20 0.6091
386.30 0.6095
386.40 0.6099
386.50 0.6104
386.60 0.6108
386.70 0.6112
386.80 0.6117
386.90 0.6121
387.00 0.6125
387.10 0.613
387.20 0.6134
387.30 0.6139
387.40 0.6143
387.50 0.6147
387.60 0.6151
387.70 0.6156
387.80 0.616
387.90 0.6165
388.00 0.6169
388.10 0.6173
388.20 0.6178
388.30 0.6182
388.40 0.6186
388.50 0.6191
388.60 0.6195
388.70 0.6199
388.80 0.6204
388.90 0.6208
389.00 0.6212
389.10 0.6217
389.20 0.6221
389.30 0.6225
389.40 0.623
389.50 0.6234
389.60 0.6238
389.70 0.6242
389.80 0.6247
389.90 0.6251
390.00 0.6255
390.10 0.626
390.20 0.6264
390.30 0.6268
390.40 0.6273
390.50 0.6277
390.60 0.6281
390.70 0.6286
390.80 0.629
390.90 0.6294
391.00 0.6299
391.10 0.6303
391.20 0.6307
391.30 0.6311
391.40 0.6316
391.50 0.632
391.60 0.6324
391.70 0.6329
391.80 0.6333
391.90 0.6337
392.00 0.6342
392.10 0.6346
392.20 0.635
392.30 0.6355
392.40 0.6359
392.50 0.6363
392.60 0.6367
392.70 0.6372
392.80 0.6376
392.90 0.638
393.00 0.6385
393.10 0.6389
393.20 0.6393
393.30 0.6397
393.40 0.6402
393.50 0.6406
393.60 0.641
393.70 0.6415
393.80 0.6419
393.90 0.6423
394.00 0.6427
394.10 0.6432
394.20 0.6436
394.30 0.644
394.40 0.6444
394.50 0.6449
394.60 0.6453
394.70 0.6457
394.80 0.6462
394.90 0.6466
395.00 0.647
395.10 0.6474
395.20 0.6479
395.30 0.6483
395.40 0.6487
395.50 0.6491
395.60 0.6496
395.70 0.65
395.80 0.6504
395.90 0.6508
396.00 0.6513
396.10 0.6517
396.20 0.6521
396.30 0.6525
396.40 0.653
396.50 0.6534
396.60 0.6538
396.70 0.6542
396.80 0.6547
396.90 0.6551
397.00 0.6555
397.10 0.6559
397.20 0.6564
397.30 0.6568
397.40 0.6572
397.50 0.6576
397.60 0.6581
397.70 0.6585
397.80 0.6589
397.90 0.6593
398.00 0.6598
398.10 0.6602
398.20 0.6606
398.30 0.661
398.40 0.6614
398.50 0.6619
398.60 0.6623
398.70 0.6627
398.80 0.6631
398.90 0.6636
399.00 0.664
399.10 0.6644
399.20 0.6648
399.30 0.6652
399.40 0.6657
399.50 0.6661
399.60 0.6665
399.70 0.6669
399.80 0.6673
399.90 0.6678
400.00 0.6682
400.10 0.6686
400.20 0.669
400.30 0.6695
400.40 0.6699
400.50 0.6703
400.60 0.6707
400.70 0.6711
400.80 0.6715
400.90 0.672
401.00 0.6724
401.10 0.6728
401.20 0.6732
401.30 0.6736
401.40 0.6741
401.50 0.6745
401.60 0.6749
401.70 0.6753
401.80 0.6757
401.90 0.6762
402.00 0.6766
402.10 0.677
402.20 0.6774
402.30 0.6778
402.40 0.6782
402.50 0.6787
402.60 0.6791
402.70 0.6795
402.80 0.6799
402.90 0.6803
403.00 0.6808
403.10 0.6812
403.20 0.6816
403.30 0.682
403.40 0.6824
403.50 0.6828
403.60 0.6832
403.70 0.6837
403.80 0.6841
403.90 0.6845
404.00 0.6849
404.10 0.6853
404.20 0.6857
404.30 0.6862
404.40 0.6866
404.50 0.687
404.60 0.6874
404.70 0.6878
404.80 0.6882
404.90 0.6886
405.00 0.6891
405.10 0.6895
405.20 0.6899
405.30 0.6903
405.40 0.6907
405.50 0.6911
405.60 0.6915
405.70 0.6919
405.80 0.6924
405.90 0.6928
406.00 0.6932
406.10 0.6936
406.20 0.694
406.30 0.6944
406.40 0.6948
406.50 0.6953
406.60 0.6957
406.70 0.6961
406.80 0.6965
406.90 0.6969
407.00 0.6973
407.10 0.6977
407.20 0.6981
407.30 0.6985
407.40 0.6989
407.50 0.6994
407.60 0.6998
407.70 0.7002
407.80 0.7006
407.90 0.701
408.00 0.7014
408.10 0.7018
408.20 0.7022
408.30 0.7026
408.40 0.7031
408.50 0.7035
408.60 0.7039
408.70 0.7043
408.80 0.7047
408.90 0.7051
409.00 0.7055
409.10 0.7059
409.20 0.7063
409.30 0.7067
409.40 0.7071
409.50 0.7075
409.60 0.7079
409.70 0.7084
409.80 0.7088
409.90 0.7092
410.00 0.7096
410.10 0.71
410.20 0.7104
410.30 0.7108
410.40 0.7112
410.50 0.7116
410.60 0.712
410.70 0.7124
410.80 0.7128
410.90 0.7132
411.00 0.7136
411.10 0.714
411.20 0.7145
411.30 0.7149
411.40 0.7153
411.50 0.7157
411.60 0.7161
411.70 0.7165
411.80 0.7169
411.90 0.7173
412.00 0.7177
412.10 0.7181
412.20 0.7185
412.30 0.7189
412.40 0.7193
412.50 0.7197
412.60 0.7201
412.70 0.7205
412.80 0.7209
412.90 0.7213
413.00 0.7217
413.10 0.7221
413.20 0.7225
413.30 0.7229
413.40 0.7233
413.50 0.7237
413.60 0.7241
413.70 0.7245
413.80 0.7249
413.90 0.7253
414.00 0.7257
414.10 0.7261
414.20 0.7265
414.30 0.7269
414.40 0.7273
414.50 0.7277
414.60 0.7281
414.70 0.7285
414.80 0.7289
414.90 0.7293
415.00 0.7297
415.10 0.7301
415.20 0.7305
415.30 0.7309
415.40 0.7313
415.50 0.7317
415.60 0.7321
415.70 0.7325
415.80 0.7329
415.90 0.7333
416.00 0.7337
416.10 0.7341
416.20 0.7345
416.30 0.7349
416.40 0.7353
416.50 0.7357
416.60 0.7361
416.70 0.7365
416.80 0.7369
416.90 0.7373
417.00 0.7377
417.10 0.7381
417.20 0.7385
417.30 0.7389
417.40 0.7393
417.50 0.7397
417.60 0.7401
417.70 0.7405
417.80 0.7408
417.90 0.7412
418.00 0.7416
418.10 0.742
418.20 0.7424
418.30 0.7428
418.40 0.7432
418.50 0.7436
418.60 0.744
418.70 0.7444
418.80 0.7448
418.90 0.7452
419.00 0.7456
419.10 0.746
419.20 0.7464
419.30 0.7468
419.40 0.7471
419.50 0.7475
419.60 0.7479
419.70 0.7483
419.80 0.7487
419.90 0.7491
420.00 0.7495
420.10 0.7499
420.20 0.7503
420.30 0.7507
420.40 0.7511
420.50 0.7515
420.60 0.7518
420.70 0.7522
420.80 0.7526
420.90 0.753
421.00 0.7534
421.10 0.7538
421.20 0.7542
421.30 0.7546
421.40 0.755
421.50 0.7553
421.60 0.7557
421.70 0.7561
421.80 0.7565
421.90 0.7569
422.00 0.7573
422.10 0.7577
422.20 0.7581
422.30 0.7584
422.40 0.7588
422.50 0.7592
422.60 0.7596
422.70 0.76
422.80 0.7604
422.90 0.7608
423.00 0.7612
423.10 0.7615
423.20 0.7619
423.30 0.7623
423.40 0.7627
423.50 0.7631
423.60 0.7635
423.70 0.7639
423.80 0.7642
423.90 0.7646
424.00 0.765
424.10 0.7654
424.20 0.7658
424.30 0.7662
424.40 0.7665
424.50 0.7669
424.60 0.7673
424.70 0.7677
424.80 0.7681
424.90 0.7685
425.00 0.7688
425.10 0.7692
425.20 0.7696
425.30 0.77
425.40 0.7704
425.50 0.7707
425.60 0.7711
425.70 0.7715
425.80 0.7719
425.90 0.7723
426.00 0.7727
426.10 0.773
426.20 0.7734
426.30 0.7738
426.40 0.7742
426.50 0.7746
426.60 0.7749
426.70 0.7753
426.80 0.7757
426.90 0.7761
427.00 0.7765
427.10 0.7768
427.20 0.7772
427.30 0.7776
427.40 0.778
427.50 0.7784
427.60 0.7787
427.70 0.7791
427.80 0.7795
427.90 0.7799
428.00 0.7802
428.10 0.7806
428.20 0.781
428.30 0.7814
428.40 0.7817
428.50 0.7821
428.60 0.7825
428.70 0.7829
428.80 0.7833
428.90 0.7836
429.00 0.784
429.10 0.7844
429.20 0.7848
429.30 0.7851
429.40 0.7855
429.50 0.7859
429.60 0.7863
429.70 0.7866
429.80 0.787
429.90 0.7874
430.00 0.7878
430.10 0.7881
430.20 0.7885
430.30 0.7889
430.40 0.7892
430.50 0.7896
430.60 0.79
430.70 0.7904
430.80 0.7907
430.90 0.7911
431.00 0.7915
431.10 0.7919
431.20 0.7922
431.30 0.7926
431.40 0.793
431.50 0.7933
431.60 0.7937
431.70 0.7941
431.80 0.7945
431.90 0.7948
432.00 0.7952
432.10 0.7956
432.20 0.7959
432.30 0.7963
432.40 0.7967
432.50 0.797
432.60 0.7974
432.70 0.7978
432.80 0.7981
432.90 0.7985
433.00 0.7989
433.10 0.7993
433.20 0.7996
433.30 0.8
433.40 0.8004
433.50 0.8007
433.60 0.8011
433.70 0.8015
433.80 0.8018
433.90 0.8022
434.00 0.8026
434.10 0.8029
434.20 0.8033
434.30 0.8037
434.40 0.804
434.50 0.8044
434.60 0.8048
434.70 0.8051
434.80 0.8055
434.90 0.8059
435.00 0.8062
435.10 0.8066
435.20 0.8069
435.30 0.8073
435.40 0.8077
435.50 0.808
435.60 0.8084
435.70 0.8088
435.80 0.8091
435.90 0.8095
436.00 0.8099
436.10 0.8102
436.20 0.8106
436.30 0.8109
436.40 0.8113
436.50 0.8117
436.60 0.812
436.70 0.8124
436.80 0.8127
436.90 0.8131
437.00 0.8135
437.10 0.8138
437.20 0.8142
437.30 0.8146
437.40 0.8149
437.50 0.8153
437.60 0.8156
437.70 0.816
437.80 0.8164
437.90 0.8167
438.00 0.8171
438.10 0.8174
438.20 0.8178
438.30 0.8181
438.40 0.8185
438.50 0.8189
438.60 0.8192
438.70 0.8196
438.80 0.8199
438.90 0.8203
439.00 0.8206
439.10 0.821
439.20 0.8214
439.30 0.8217
439.40 0.8221
439.50 0.8224
439.60 0.8228
439.70 0.8231
439.80 0.8235
439.90 0.8238
440.00 0.8242
440.10 0.8246
440.20 0.8249
440.30 0.8253
440.40 0.8256
440.50 0.826
440.60 0.8263
440.70 0.8267
440.80 0.827
440.90 0.8274
441.00 0.8277
441.10 0.8281
441.20 0.8285
441.30 0.8288
441.40 0.8292
441.50 0.8295
441.60 0.8299
441.70 0.8302
441.80 0.8306
441.90 0.8309
442.00 0.8313
442.10 0.8316
442.20 0.832
442.30 0.8323
442.40 0.8327
442.50 0.833
442.60 0.8334
442.70 0.8337
442.80 0.8341
442.90 0.8344
443.00 0.8348
443.10 0.8351
443.20 0.8355
443.30 0.8358
443.40 0.8362
443.50 0.8365
443.60 0.8369
443.70 0.8372
443.80 0.8376
443.90 0.8379
444.00 0.8382
444.10 0.8386
444.20 0.8389
444.30 0.8393
444.40 0.8396
444.50 0.84
444.60 0.8403
444.70 0.8407
444.80 0.841
444.90 0.8414
445.00 0.8417
445.10 0.8421
445.20 0.8424
445.30 0.8427
445.40 0.8431
445.50 0.8434
445.60 0.8438
445.70 0.8441
445.80 0.8445
445.90 0.8448
446.00 0.8452
446.10 0.8455
446.20 0.8458
446.30 0.8462
446.40 0.8465
446.50 0.8469
446.60 0.8472
446.70 0.8476
446.80 0.8479
446.90 0.8482
447.00 0.8486
447.10 0.8489
447.20 0.8493
447.30 0.8496
447.40 0.8499
447.50 0.8503
447.60 0.8506
447.70 0.851
447.80 0.8513
447.90 0.8516
448.00 0.852
448.10 0.8523
448.20 0.8527
448.30 0.853
448.40 0.8533
448.50 0.8537
448.60 0.854
448.70 0.8543
448.80 0.8547
448.90 0.855
449.00 0.8554
449.10 0.8557
449.20 0.856
449.30 0.8564
449.40 0.8567
449.50 0.857
449.60 0.8574
449.70 0.8577
449.80 0.858
449.90 0.8584
450.00 0.8587
450.10 0.8591
450.20 0.8594
450.30 0.8597
450.40 0.8601
450.50 0.8604
450.60 0.8607
450.70 0.8611
450.80 0.8614
450.90 0.8617
451.00 0.8621
451.10 0.8624
451.20 0.8627
451.30 0.8631
451.40 0.8634
451.50 0.8637
451.60 0.8641
451.70 0.8644
451.80 0.8647
451.90 0.8651
452.00 0.8654
452.10 0.8657
452.20 0.866
452.30 0.8664
452.40 0.8667
452.50 0.867
452.60 0.8674
452.70 0.8677
452.80 0.868
452.90 0.8684
453.00 0.8687
453.10 0.869
453.20 0.8693
453.30 0.8697
453.40 0.87
453.50 0.8703
453.60 0.8707
453.70 0.871
453.80 0.8713
453.90 0.8716
454.00 0.872
454.10 0.8723
454.20 0.8726
454.30 0.8729
454.40 0.8733
454.50 0.8736
454.60 0.8739
454.70 0.8743
454.80 0.8746
454.90 0.8749
455.00 0.8752
455.10 0.8756
455.20 0.8759
455.30 0.8762
455.40 0.8765
455.50 0.8769
455.60 0.8772
455.70 0.8775
455.80 0.8778
455.90 0.8781
456.00 0.8785
456.10 0.8788
456.20 0.8791
456.30 0.8794
456.40 0.8798
456.50 0.8801
456.60 0.8804
456.70 0.8807
456.80 0.881
456.90 0.8814
457.00 0.8817
457.10 0.882
457.20 0.8823
457.30 0.8826
457.40 0.883
457.50 0.8833
457.60 0.8836
457.70 0.8839
457.80 0.8842
457.90 0.8846
458.00 0.8849
458.10 0.8852
458.20 0.8855
458.30 0.8858
458.40 0.8862
458.50 0.8865
458.60 0.8868
458.70 0.8871
458.80 0.8874
458.90 0.8877
459.00 0.8881
459.10 0.8884
459.20 0.8887
459.30 0.889
459.40 0.8893
459.50 0.8896
459.60 0.89
459.70 0.8903
459.80 0.8906
459.90 0.8909
460.00 0.8912
460.10 0.8915
460.20 0.8918
460.30 0.8922
460.40 0.8925
460.50 0.8928
460.60 0.8931
460.70 0.8934
460.80 0.8937
460.90 0.894
461.00 0.8944
461.10 0.8947
461.20 0.895
461.30 0.8953
461.40 0.8956
461.50 0.8959
461.60 0.8962
461.70 0.8965
461.80 0.8968
461.90 0.8972
462.00 0.8975
462.10 0.8978
462.20 0.8981
462.30 0.8984
462.40 0.8987
462.50 0.899
462.60 0.8993
462.70 0.8996
462.80 0.8999
462.90 0.9002
463.00 0.9006
463.10 0.9009
463.20 0.9012
463.30 0.9015
463.40 0.9018
463.50 0.9021
463.60 0.9024
463.70 0.9027
463.80 0.903
463.90 0.9033
464.00 0.9036
464.10 0.9039
464.20 0.9042
464.30 0.9046
464.40 0.9049
464.50 0.9052
464.60 0.9055
464.70 0.9058
464.80 0.9061
464.90 0.9064
465.00 0.9067
465.10 0.907
465.20 0.9073
465.30 0.9076
465.40 0.9079
465.50 0.9082
465.60 0.9085
465.70 0.9088
465.80 0.9091
465.90 0.9094
466.00 0.9097
466.10 0.91
466.20 0.9103
466.30 0.9106
466.40 0.9109
466.50 0.9112
466.60 0.9115
466.70 0.9118
466.80 0.9121
466.90 0.9124
467.00 0.9127
467.10 0.913
467.20 0.9133
467.30 0.9136
467.40 0.9139
467.50 0.9142
467.60 0.9145
467.70 0.9148
467.80 0.9151
467.90 0.9154
468.00 0.9157
468.10 0.916
468.20 0.9163
468.30 0.9166
468.40 0.9169
468.50 0.9172
468.60 0.9175
468.70 0.9178
468.80 0.9181
468.90 0.9184
469.00 0.9187
469.10 0.919
469.20 0.9193
469.30 0.9196
469.40 0.9199
469.50 0.9202
469.60 0.9205
469.70 0.9208
469.80 0.921
469.90 0.9213
470.00 0.9216
470.10 0.9219
470.20 0.9222
470.30 0.9225
470.40 0.9228
470.50 0.9231
470.60 0.9234
470.70 0.9237
470.80 0.924
470.90 0.9243
471.00 0.9245
471.10 0.9248
471.20 0.9251
471.30 0.9254
471.40 0.9257
471.50 0.926
471.60 0.9263
471.70 0.9266
471.80 0.9269
471.90 0.9272
472.00 0.9274
472.10 0.9277
472.20 0.928
472.30 0.9283
472.40 0.9286
472.50 0.9289
472.60 0.9292
472.70 0.9295
472.80 0.9297
472.90 0.93
473.00 0.9303
473.10 0.9306
473.20 0.9309
473.30 0.9312
473.40 0.9315
473.50 0.9317
473.60 0.932
473.70 0.9323
473.80 0.9326
473.90 0.9329
474.00 0.9332
474.10 0.9334
474.20 0.9337
474.30 0.934
474.40 0.9343
474.50 0.9346
474.60 0.9349
474.70 0.9352
474.80 0.9355
474.90 0.9358
475.00 0.9361
475.10 0.9363
475.20 0.9366
475.30 0.9369
475.40 0.9372
475.50 0.9375
475.60 0.9377
475.70 0.938
475.80 0.9383
475.90 0.9386
476.00 0.9388
476.10 0.9391
476.20 0.9394
476.30 0.9397
476.40 0.94
476.50 0.9402
476.60 0.9405
476.70 0.9408
476.80 0.9411
476.90 0.9414
477.00 0.9417
477.10 0.9419
477.20 0.9422
477.30 0.9425
477.40 0.9428
477.50 0.943
477.60 0.9433
477.70 0.9436
477.80 0.9438
477.90 0.9441
478.00 0.9444
478.10 0.9447
478.20 0.9449
478.30 0.9452
478.40 0.9455
478.50 0.9458
478.60 0.946
478.70 0.9463
478.80 0.9466
478.90 0.9469
479.00 0.9471
479.10 0.9474
479.20 0.9477
479.30 0.948
479.40 0.9483
479.50 0.9485
479.60 0.9488
479.70 0.9491
479.80 0.9494
479.90 0.9496
480.00 0.9499
480.10 0.9502
480.20 0.9504
480.30 0.9507
480.40 0.951
480.50 0.9513
480.60 0.9515
480.70 0.9518
480.80 0.9521
480.90 0.9523
481.00 0.9526
481.10 0.9529
481.20 0.9531
481.30 0.9534
481.40 0.9537
481.50 0.9539
481.60 0.9542
481.70 0.9545
481.80 0.9547
481.90 0.955
482.00 0.9553
482.10 0.9555
482.20 0.9558
482.30 0.9561
482.40 0.9563
482.50 0.9566
482.60 0.9569
482.70 0.9571
482.80 0.9574
482.90 0.9577
483.00 0.9579
483.10 0.9582
483.20 0.9585
483.30 0.9587
483.40 0.959
483.50 0.9593
483.60 0.9595
483.70 0.9598
483.80 0.9601
483.90 0.9603
484.00 0.9606
484.10 0.9609
484.20 0.9611
484.30 0.9614
484.40 0.9616
484.50 0.9619
484.60 0.9621
484.70 0.9624
484.80 0.9627
484.90 0.9629
485.00 0.9632
485.10 0.9635
485.20 0.9637
485.30 0.964
485.40 0.9643
485.50 0.9645
485.60 0.9648
485.70 0.9651
485.80 0.9653
485.90 0.9656
486.00 0.9658
486.10 0.966
486.20 0.9663
486.30 0.9666
486.40 0.9669
486.50 0.9671
486.60 0.9674
486.70 0.9676
486.80 0.9679
486.90 0.9682
487.00 0.9684
487.10 0.9686
487.20 0.9689
487.30 0.9692
487.40 0.9694
487.50 0.9697
487.60 0.9699
487.70 0.9702
487.80 0.9704
487.90 0.9707
488.00 0.971
488.10 0.9712
488.20 0.9715
488.30 0.9717
488.40 0.972
488.50 0.9722
488.60 0.9725
488.70 0.9728
488.80 0.973
488.90 0.9733
489.00 0.9735
489.10 0.9738
489.20 0.974
489.30 0.9743
489.40 0.9745
489.50 0.9748
489.60 0.975
489.70 0.9753
489.80 0.9755
489.90 0.9758
490.00 0.976
490.10 0.9763
490.20 0.9765
490.30 0.9768
490.40 0.977
490.50 0.9773
490.60 0.9775
490.70 0.9778
490.80 0.978
490.90 0.9783
491.00 0.9785
491.10 0.9788
491.20 0.979
491.30 0.9793
491.40 0.9795
491.50 0.9797
491.60 0.98
491.70 0.9802
491.80 0.9805
491.90 0.9807
492.00 0.9809
492.10 0.9812
492.20 0.9814
492.30 0.9817
492.40 0.9819
492.50 0.9822
492.60 0.9824
492.70 0.9827
492.80 0.9829
492.90 0.9832
493.00 0.9834
493.10 0.9837
493.20 0.9839
493.30 0.9842
493.40 0.9844
493.50 0.9847
493.60 0.9849
493.70 0.9851
493.80 0.9854
493.90 0.9856
494.00 0.9859
494.10 0.9861
494.20 0.9863
494.30 0.9866
494.40 0.9868
494.50 0.9871
494.60 0.9873
494.70 0.9875
494.80 0.9878
494.90 0.988
495.00 0.9882
495.10 0.9885
495.20 0.9887
495.30 0.989
495.40 0.9892
495.50 0.9895
495.60 0.9897
495.70 0.9899
495.80 0.9902
495.90 0.9904
496.00 0.9907
496.10 0.9909
496.20 0.9912
496.30 0.9914
496.40 0.9916
496.50 0.9919
496.60 0.9921
496.70 0.9923
496.80 0.9926
496.90 0.9928
497.00 0.993
497.10 0.9932
497.20 0.9935
497.30 0.9937
497.40 0.9939
497.50 0.9942
497.60 0.9944
497.70 0.9946
497.80 0.9949
497.90 0.9951
498.00 0.9953
498.10 0.9955
498.20 0.9958
498.30 0.996
498.40 0.9963
498.50 0.9965
498.60 0.9967
498.70 0.997
498.80 0.9972
498.90 0.9974
499.00 0.9977
499.10 0.9979
499.20 0.9981
499.30 0.9984
499.40 0.9986
499.50 0.9988
499.60 0.9991
499.70 0.9993
499.80 0.9995
499.90 0.9998
500.00 1
500.10 1
500.20 1
500.30 1.001
500.40 1.001
500.50 1.001
500.60 1.001
500.70 1.002
500.80 1.002
500.90 1.002
501.00 1.002
501.10 1.002
501.20 1.003
501.30 1.003
501.40 1.003
501.50 1.003
501.60 1.004
501.70 1.004
501.80 1.004
501.90 1.004
502.00 1.005
502.10 1.005
502.20 1.005
502.30 1.005
502.40 1.005
502.50 1.006
502.60 1.006
502.70 1.006
502.80 1.006
502.90 1.007
503.00 1.007
503.10 1.007
503.20 1.007
503.30 1.007
503.40 1.008
503.50 1.008
503.60 1.008
503.70 1.008
503.80 1.009
503.90 1.009
504.00 1.009
504.10 1.009
504.20 1.009
504.30 1.01
504.40 1.01
504.50 1.01
504.60 1.01
504.70 1.01
504.80 1.011
504.90 1.011
505.00 1.011
505.10 1.011
505.20 1.012
505.30 1.012
505.40 1.012
505.50 1.012
505.60 1.012
505.70 1.013
505.80 1.013
505.90 1.013
506.00 1.013
506.10 1.014
506.20 1.014
506.30 1.014
506.40 1.014
506.50 1.014
506.60 1.015
506.70 1.015
506.80 1.015
506.90 1.015
507.00 1.015
507.10 1.016
507.20 1.016
507.30 1.016
507.40 1.016
507.50 1.017
507.60 1.017
507.70 1.017
507.80 1.017
507.90 1.017
508.00 1.018
508.10 1.018
508.20 1.018
508.30 1.018
508.40 1.018
508.50 1.019
508.60 1.019
508.70 1.019
508.80 1.019
508.90 1.019
509.00 1.02
509.10 1.02
509.20 1.02
509.30 1.02
509.40 1.021
509.50 1.021
509.60 1.021
509.70 1.021
509.80 1.021
509.90 1.022
510.00 1.022
510.10 1.022
510.20 1.022
510.30 1.022
510.40 1.023
510.50 1.023
510.60 1.023
510.70 1.023
510.80 1.023
510.90 1.024
511.00 1.024
511.10 1.024
511.20 1.024
511.30 1.024
511.40 1.025
511.50 1.025
511.60 1.025
511.70 1.025
511.80 1.026
511.90 1.026
512.00 1.026
512.10 1.026
512.20 1.026
512.30 1.027
512.40 1.027
512.50 1.027
512.60 1.027
512.70 1.027
512.80 1.028
512.90 1.028
513.00 1.028
513.10 1.028
513.20 1.028
513.30 1.029
513.40 1.029
513.50 1.029
513.60 1.029
513.70 1.029
513.80 1.029
513.90 1.03
514.00 1.03
514.10 1.03
514.20 1.03
514.30 1.03
514.40 1.031
514.50 1.031
514.60 1.031
514.70 1.031
514.80 1.032
514.90 1.032
515.00 1.032
515.10 1.032
515.20 1.032
515.30 1.033
515.40 1.033
515.50 1.033
515.60 1.033
515.70 1.033
515.80 1.033
515.90 1.034
516.00 1.034
516.10 1.034
516.20 1.034
516.30 1.034
516.40 1.035
516.50 1.035
516.60 1.035
516.70 1.035
516.80 1.035
516.90 1.036
517.00 1.036
517.10 1.036
517.20 1.036
517.30 1.036
517.40 1.037
517.50 1.037
517.60 1.037
517.70 1.037
517.80 1.037
517.90 1.038
518.00 1.038
518.10 1.038
518.20 1.038
518.30 1.038
518.40 1.038
518.50 1.039
518.60 1.039
518.70 1.039
518.80 1.039
518.90 1.039
519.00 1.04
519.10 1.04
519.20 1.04
519.30 1.04
519.40 1.04
519.50 1.041
519.60 1.041
519.70 1.041
519.80 1.041
519.90 1.041
520.00 1.041
520.10 1.042
520.20 1.042
520.30 1.042
520.40 1.042
520.50 1.042
520.60 1.043
520.70 1.043
520.80 1.043
520.90 1.043
521.00 1.043
521.10 1.044
521.20 1.044
521.30 1.044
521.40 1.044
521.50 1.044
521.60 1.044
521.70 1.045
521.80 1.045
521.90 1.045
522.00 1.045
522.10 1.045
522.20 1.046
522.30 1.046
522.40 1.046
522.50 1.046
522.60 1.046
522.70 1.046
522.80 1.047
522.90 1.047
523.00 1.047
523.10 1.047
523.20 1.047
523.30 1.048
523.40 1.048
523.50 1.048
523.60 1.048
523.70 1.048
523.80 1.048
523.90 1.049
524.00 1.049
524.10 1.049
524.20 1.049
524.30 1.049
524.40 1.049
524.50 1.05
524.60 1.05
524.70 1.05
524.80 1.05
524.90 1.05
525.00 1.051
525.10 1.051
525.20 1.051
525.30 1.051
525.40 1.051
525.50 1.051
525.60 1.052
525.70 1.052
525.80 1.052
525.90 1.052
526.00 1.052
526.10 1.052
526.20 1.053
526.30 1.053
526.40 1.053
526.50 1.053
526.60 1.053
526.70 1.054
526.80 1.054
526.90 1.054
527.00 1.054
527.10 1.054
527.20 1.054
527.30 1.055
527.40 1.055
527.50 1.055
527.60 1.055
527.70 1.055
527.80 1.055
527.90 1.056
528.00 1.056
528.10 1.056
528.20 1.056
528.30 1.056
528.40 1.056
528.50 1.057
528.60 1.057
528.70 1.057
528.80 1.057
528.90 1.057
529.00 1.057
529.10 1.058
529.20 1.058
529.30 1.058
529.40 1.058
529.50 1.058
529.60 1.058
529.70 1.059
529.80 1.059
529.90 1.059
530.00 1.059
530.10 1.059
530.20 1.059
530.30 1.06
530.40 1.06
530.50 1.06
530.60 1.06
530.70 1.06
530.80 1.06
530.90 1.061
531.00 1.061
531.10 1.061
531.20 1.061
531.30 1.061
531.40 1.061
531.50 1.062
531.60 1.062
531.70 1.062
531.80 1.062
531.90 1.062
532.00 1.062
532.10 1.063
532.20 1.063
532.30 1.063
532.40 1.063
532.50 1.063
532.60 1.063
532.70 1.064
532.80 1.064
532.90 1.064
533.00 1.064
533.10 1.064
533.20 1.064
533.30 1.064
533.40 1.065
533.50 1.065
533.60 1.065
533.70 1.065
533.80 1.065
533.90 1.065
534.00 1.066
534.10 1.066
534.20 1.066
534.30 1.066
534.40 1.066
534.50 1.066
534.60 1.067
534.70 1.067
534.80 1.067
534.90 1.067
535.00 1.067
535.10 1.067
535.20 1.067
535.30 1.068
535.40 1.068
535.50 1.068
535.60 1.068
535.70 1.068
535.80 1.068
535.90 1.069
536.00 1.069
536.10 1.069
536.20 1.069
536.30 1.069
536.40 1.069
536.50 1.069
536.60 1.07
536.70 1.07
536.80 1.07
536.90 1.07
537.00 1.07
537.10 1.07
537.20 1.071
537.30 1.071
537.40 1.071
537.50 1.071
537.60 1.071
537.70 1.071
537.80 1.071
537.90 1.072
538.00 1.072
538.10 1.072
538.20 1.072
538.30 1.072
538.40 1.072
538.50 1.073
538.60 1.073
538.70 1.073
538.80 1.073
538.90 1.073
539.00 1.073
539.10 1.073
539.20 1.074
539.30 1.074
539.40 1.074
539.50 1.074
539.60 1.074
539.70 1.074
539.80 1.074
539.90 1.075
540.00 1.075
540.10 1.075
540.20 1.075
540.30 1.075
540.40 1.075
540.50 1.075
540.60 1.076
540.70 1.076
540.80 1.076
540.90 1.076
541.00 1.076
541.10 1.076
541.20 1.076
541.30 1.077
541.40 1.077
541.50 1.077
541.60 1.077
541.70 1.077
541.80 1.077
541.90 1.077
542.00 1.078
542.10 1.078
542.20 1.078
542.30 1.078
542.40 1.078
542.50 1.078
542.60 1.078
542.70 1.079
542.80 1.079
542.90 1.079
543.00 1.079
543.10 1.079
543.20 1.079
543.30 1.079
543.40 1.08
543.50 1.08
543.60 1.08
543.70 1.08
543.80 1.08
543.90 1.08
544.00 1.08
544.10 1.081
544.20 1.081
544.30 1.081
544.40 1.081
544.50 1.081
544.60 1.081
544.70 1.081
544.80 1.082
544.90 1.082
545.00 1.082
545.10 1.082
545.20 1.082
545.30 1.082
545.40 1.082
545.50 1.082
545.60 1.083
545.70 1.083
545.80 1.083
545.90 1.083
546.00 1.083
546.10 1.083
546.20 1.083
546.30 1.084
546.40 1.084
546.50 1.084
546.60 1.084
546.70 1.084
546.80 1.084
546.90 1.084
547.00 1.084
547.10 1.085
547.20 1.085
547.30 1.085
547.40 1.085
547.50 1.085
547.60 1.085
547.70 1.085
547.80 1.086
547.90 1.086
548.00 1.086
548.10 1.086
548.20 1.086
548.30 1.086
548.40 1.086
548.50 1.086
548.60 1.087
548.70 1.087
548.80 1.087
548.90 1.087
549.00 1.087
549.10 1.087
549.20 1.087
549.30 1.087
549.40 1.088
549.50 1.088
549.60 1.088
549.70 1.088
549.80 1.088
549.90 1.088
550.00 1.088
550.10 1.089
550.20 1.089
550.30 1.089
550.40 1.089
550.50 1.089
550.60 1.089
550.70 1.089
550.80 1.089
550.90 1.09
551.00 1.09
551.10 1.09
551.20 1.09
551.30 1.09
551.40 1.09
551.50 1.09
551.60 1.09
551.70 1.091
551.80 1.091
551.90 1.091
552.00 1.091
552.10 1.091
552.20 1.091
552.30 1.091
552.40 1.091
552.50 1.092
552.60 1.092
552.70 1.092
552.80 1.092
552.90 1.092
553.00 1.092
553.10 1.092
553.20 1.092
553.30 1.092
553.40 1.093
553.50 1.093
553.60 1.093
553.70 1.093
553.80 1.093
553.90 1.093
554.00 1.093
554.10 1.093
554.20 1.094
554.30 1.094
554.40 1.094
554.50 1.094
554.60 1.094
554.70 1.094
554.80 1.094
554.90 1.094
555.00 1.095
555.10 1.095
555.20 1.095
555.30 1.095
555.40 1.095
555.50 1.095
555.60 1.095
555.70 1.095
555.80 1.095
555.90 1.096
556.00 1.096
556.10 1.096
556.20 1.096
556.30 1.096
556.40 1.096
556.50 1.096
556.60 1.096
556.70 1.096
556.80 1.097
556.90 1.097
557.00 1.097
557.10 1.097
557.20 1.097
557.30 1.097
557.40 1.097
557.50 1.097
557.60 1.097
557.70 1.098
557.80 1.098
557.90 1.098
558.00 1.098
558.10 1.098
558.20 1.098
558.30 1.098
558.40 1.098
558.50 1.098
558.60 1.099
558.70 1.099
558.80 1.099
558.90 1.099
559.00 1.099
559.10 1.099
559.20 1.099
559.30 1.099
559.40 1.099
559.50 1.1
559.60 1.1
559.70 1.1
559.80 1.1
559.90 1.1
560.00 1.1
560.10 1.1
560.20 1.1
560.30 1.1
560.40 1.101
560.50 1.101
560.60 1.101
560.70 1.101
560.80 1.101
560.90 1.101
561.00 1.101
561.10 1.101
561.20 1.101
561.30 1.102
561.40 1.102
561.50 1.102
561.60 1.102
561.70 1.102
561.80 1.102
561.90 1.102
562.00 1.102
562.10 1.102
562.20 1.102
562.30 1.103
562.40 1.103
562.50 1.103
562.60 1.103
562.70 1.103
562.80 1.103
562.90 1.103
563.00 1.103
563.10 1.103
563.20 1.104
563.30 1.104
563.40 1.104
563.50 1.104
563.60 1.104
563.70 1.104
563.80 1.104
563.90 1.104
564.00 1.104
564.10 1.104
564.20 1.104
564.30 1.105
564.40 1.105
564.50 1.105
564.60 1.105
564.70 1.105
564.80 1.105
564.90 1.105
565.00 1.105
565.10 1.105
565.20 1.105
565.30 1.106
565.40 1.106
565.50 1.106
565.60 1.106
565.70 1.106
565.80 1.106
565.90 1.106
566.00 1.106
566.10 1.106
566.20 1.107
566.30 1.107
566.40 1.107
566.50 1.107
566.60 1.107
566.70 1.107
566.80 1.107
566.90 1.107
567.00 1.107
567.10 1.107
567.20 1.107
567.30 1.108
567.40 1.108
567.50 1.108
567.60 1.108
567.70 1.108
567.80 1.108
567.90 1.108
568.00 1.108
568.10 1.108
568.20 1.108
568.30 1.108
568.40 1.109
568.50 1.109
568.60 1.109
568.70 1.109
568.80 1.109
568.90 1.109
569.00 1.109
569.10 1.109
569.20 1.109
569.30 1.109
569.40 1.109
569.50 1.11
569.60 1.11
569.70 1.11
569.80 1.11
569.90 1.11
570.00 1.11
570.10 1.11
570.20 1.11
570.30 1.11
570.40 1.11
570.50 1.11
570.60 1.111
570.70 1.111
570.80 1.111
570.90 1.111
571.00 1.111
571.10 1.111
571.20 1.111
571.30 1.111
571.40 1.111
571.50 1.111
571.60 1.111
571.70 1.112
571.80 1.112
571.90 1.112
572.00 1.112
572.10 1.112
572.20 1.112
572.30 1.112
572.40 1.112
572.50 1.112
572.60 1.112
572.70 1.112
572.80 1.113
572.90 1.113
573.00 1.113
573.10 1.113
573.20 1.113
573.30 1.113
573.40 1.113
573.50 1.113
573.60 1.113
573.70 1.113
573.80 1.113
573.90 1.113
574.00 1.114
574.10 1.114
574.20 1.114
574.30 1.114
574.40 1.114
574.50 1.114
574.60 1.114
574.70 1.114
574.80 1.114
574.90 1.114
575.00 1.114
575.10 1.114
575.20 1.115
575.30 1.115
575.40 1.115
575.50 1.115
575.60 1.115
575.70 1.115
575.80 1.115
575.90 1.115
576.00 1.115
576.10 1.115
576.20 1.115
576.30 1.115
576.40 1.115
576.50 1.116
576.60 1.116
576.70 1.116
576.80 1.116
576.90 1.116
577.00 1.116
577.10 1.116
577.20 1.116
577.30 1.116
577.40 1.116
577.50 1.116
577.60 1.116
577.70 1.116
577.80 1.117
577.90 1.117
578.00 1.117
578.10 1.117
578.20 1.117
578.30 1.117
578.40 1.117
578.50 1.117
578.60 1.117
578.70 1.117
578.80 1.117
578.90 1.117
579.00 1.117
579.10 1.118
579.20 1.118
579.30 1.118
579.40 1.118
579.50 1.118
579.60 1.118
579.70 1.118
579.80 1.118
579.90 1.118
580.00 1.118
580.10 1.118
580.20 1.118
580.30 1.118
580.40 1.119
580.50 1.119
580.60 1.119
580.70 1.119
580.80 1.119
580.90 1.119
581.00 1.119
581.10 1.119
581.20 1.119
581.30 1.119
581.40 1.119
581.50 1.119
581.60 1.119
581.70 1.119
581.80 1.12
581.90 1.12
582.00 1.12
582.10 1.12
582.20 1.12
582.30 1.12
582.40 1.12
582.50 1.12
582.60 1.12
582.70 1.12
582.80 1.12
582.90 1.12
583.00 1.12
583.10 1.12
583.20 1.12
583.30 1.121
583.40 1.121
583.50 1.121
583.60 1.121
583.70 1.121
583.80 1.121
583.90 1.121
584.00 1.121
584.10 1.121
584.20 1.121
584.30 1.121
584.40 1.121
584.50 1.121
584.60 1.121
584.70 1.121
584.80 1.122
584.90 1.122
585.00 1.122
585.10 1.122
585.20 1.122
585.30 1.122
585.40 1.122
585.50 1.122
585.60 1.122
585.70 1.122
585.80 1.122
585.90 1.122
586.00 1.122
586.10 1.122
586.20 1.122
586.30 1.122
586.40 1.123
586.50 1.123
586.60 1.123
586.70 1.123
586.80 1.123
586.90 1.123
587.00 1.123
587.10 1.123
587.20 1.123
587.30 1.123
587.40 1.123
587.50 1.123
587.60 1.123
587.70 1.123
587.80 1.123
587.90 1.123
588.00 1.124
588.10 1.124
588.20 1.124
588.30 1.124
588.40 1.124
588.50 1.124
588.60 1.124
588.70 1.124
588.80 1.124
588.90 1.124
589.00 1.124
589.10 1.124
589.20 1.124
589.30 1.124
589.40 1.124
589.50 1.124
589.60 1.124
589.70 1.125
589.80 1.125
589.90 1.125
590.00 1.125
590.10 1.125
590.20 1.125
590.30 1.125
590.40 1.125
590.50 1.125
590.60 1.125
590.70 1.125
590.80 1.125
590.90 1.125
591.00 1.125
591.10 1.125
591.20 1.125
591.30 1.125
591.40 1.125
591.50 1.126
591.60 1.126
591.70 1.126
591.80 1.126
591.90 1.126
592.00 1.126
592.10 1.126
592.20 1.126
592.30 1.126
592.40 1.126
592.50 1.126
592.60 1.126
592.70 1.126
592.80 1.126
592.90 1.126
593.00 1.126
593.10 1.126
593.20 1.126
593.30 1.126
593.40 1.127
593.50 1.127
593.60 1.127
593.70 1.127
593.80 1.127
593.90 1.127
594.00 1.127
594.10 1.127
594.20 1.127
594.30 1.127
594.40 1.127
594.50 1.127
594.60 1.127
594.70 1.127
594.80 1.127
594.90 1.127
595.00 1.127
595.10 1.127
595.20 1.127
595.30 1.127
595.40 1.128
595.50 1.128
595.60 1.128
595.70 1.128
595.80 1.128
595.90 1.128
596.00 1.128
596.10 1.128
596.20 1.128
596.30 1.128
596.40 1.128
596.50 1.128
596.60 1.128
596.70 1.128
596.80 1.128
596.90 1.128
597.00 1.128
597.10 1.128
597.20 1.128
597.30 1.128
597.40 1.128
597.50 1.129
597.60 1.129
597.70 1.129
597.80 1.129
597.90 1.129
598.00 1.129
598.10 1.129
598.20 1.129
598.30 1.129
598.40 1.129
598.50 1.129
598.60 1.129
598.70 1.129
598.80 1.129
598.90 1.129
599.00 1.129
599.10 1.129
599.20 1.129
599.30 1.129
599.40 1.129
599.50 1.129
599.60 1.129
599.70 1.129
599.80 1.13
599.90 1.13
600.00 1.13
600.10 1.13
600.20 1.13
600.30 1.13
600.40 1.13
600.50 1.13
600.60 1.13
600.70 1.13
600.80 1.13
600.90 1.13
601.00 1.13
601.10 1.13
601.20 1.13
601.30 1.13
601.40 1.13
601.50 1.13
601.60 1.13
601.70 1.13
601.80 1.13
601.90 1.13
602.00 1.13
602.10 1.13
602.20 1.13
602.30 1.131
602.40 1.131
602.50 1.131
602.60 1.131
602.70 1.131
602.80 1.131
602.90 1.131
603.00 1.131
603.10 1.131
603.20 1.131
603.30 1.131
603.40 1.131
603.50 1.131
603.60 1.131
603.70 1.131
603.80 1.131
603.90 1.131
604.00 1.131
604.10 1.131
604.20 1.131
604.30 1.131
604.40 1.131
604.50 1.131
604.60 1.131
604.70 1.131
604.80 1.131
604.90 1.131
605.00 1.131
605.10 1.131
605.20 1.132
605.30 1.132
605.40 1.132
605.50 1.132
605.60 1.132
605.70 1.132
605.80 1.132
605.90 1.132
606.00 1.132
606.10 1.132
606.20 1.132
606.30 1.132
606.40 1.132
606.50 1.132
606.60 1.132
606.70 1.132
606.80 1.132
606.90 1.132
607.00 1.132
607.10 1.132
607.20 1.132
607.30 1.132
607.40 1.132
607.50 1.132
607.60 1.132
607.70 1.132
607.80 1.132
607.90 1.132
608.00 1.132
608.10 1.132
608.20 1.133
608.30 1.133
608.40 1.133
608.50 1.133
608.60 1.133
608.70 1.133
608.80 1.133
608.90 1.133
609.00 1.133
609.10 1.133
609.20 1.133
609.30 1.133
609.40 1.133
609.50 1.133
609.60 1.133
609.70 1.133
609.80 1.133
609.90 1.133
610.00 1.133
610.10 1.133
610.20 1.133
610.30 1.133
610.40 1.133
610.50 1.133
610.60 1.133
610.70 1.133
610.80 1.133
610.90 1.133
611.00 1.133
611.10 1.133
611.20 1.133
611.30 1.133
611.40 1.133
611.50 1.133
611.60 1.133
611.70 1.133
611.80 1.133
611.90 1.133
612.00 1.134
612.10 1.134
612.20 1.134
612.30 1.134
612.40 1.134
612.50 1.134
612.60 1.134
612.70 1.134
612.80 1.134
612.90 1.134
613.00 1.134
613.10 1.134
613.20 1.134
613.30 1.134
613.40 1.134
613.50 1.134
613.60 1.134
613.70 1.134
613.80 1.134
613.90 1.134
614.00 1.134
614.10 1.134
614.20 1.134
614.30 1.134
614.40 1.134
614.50 1.134
614.60 1.134
614.70 1.134
614.80 1.134
614.90 1.134
615.00 1.134
615.10 1.134
615.20 1.134
615.30 1.134
615.40 1.134
615.50 1.134
615.60 1.134
615.70 1.134
615.80 1.134
615.90 1.134
616.00 1.134
616.10 1.134
616.20 1.134
616.30 1.134
616.40 1.134
616.50 1.134
616.60 1.134
616.70 1.134
616.80 1.134
616.90 1.134
617.00 1.134
617.10 1.134
617.20 1.135
617.30 1.135
617.40 1.135
617.50 1.135
617.60 1.135
617.70 1.135
617.80 1.135
617.90 1.135
618.00 1.135
618.10 1.135
618.20 1.135
618.30 1.135
618.40 1.135
618.50 1.135
618.60 1.135
618.70 1.135
618.80 1.135
618.90 1.135
619.00 1.135
619.10 1.135
619.20 1.135
619.30 1.135
619.40 1.135
619.50 1.135
619.60 1.135
619.70 1.135
619.80 1.135
619.90 1.135
620.00 1.135
620.10 1.135
620.20 1.135
620.30 1.135
620.40 1.135
620.50 1.135
620.60 1.135
620.70 1.135
620.80 1.135
620.90 1.135
621.00 1.135
621.10 1.135
621.20 1.135
621.30 1.135
621.40 1.135
621.50 1.135
621.60 1.135
621.70 1.135
621.80 1.135
621.90 1.135
622.00 1.135
622.10 1.135
622.20 1.135
622.30 1.135
622.40 1.135
622.50 1.135
622.60 1.135
622.70 1.135
622.80 1.135
622.90 1.135
623.00 1.135
623.10 1.135
623.20 1.135
623.30 1.135
623.40 1.135
623.50 1.135
623.60 1.135
623.70 1.135
623.80 1.135
623.90 1.135
624.00 1.135
624.10 1.135
624.20 1.135
624.30 1.135
624.40 1.135
624.50 1.135
624.60 1.135
624.70 1.135
624.80 1.135
624.90 1.135
625.00 1.135
625.10 1.135
625.20 1.135
625.30 1.135
625.40 1.135
625.50 1.135
625.60 1.135
625.70 1.135
625.80 1.135
625.90 1.135
626.00 1.135
626.10 1.135
626.20 1.135
626.30 1.135
626.40 1.135
626.50 1.135
626.60 1.135
626.70 1.135
626.80 1.135
626.90 1.135
627.00 1.135
627.10 1.135
627.20 1.135
627.30 1.135
627.40 1.135
627.50 1.135
627.60 1.135
627.70 1.135
627.80 1.135
627.90 1.135
628.00 1.135
628.10 1.136
628.20 1.136
628.30 1.136
628.40 1.136
628.50 1.136
628.60 1.136
628.70 1.136
628.80 1.136
628.90 1.136
629.00 1.136
629.10 1.136
629.20 1.136
629.30 1.136
629.40 1.136
629.50 1.136
629.60 1.136
629.70 1.136
629.80 1.136
629.90 1.136
630.00 1.136
630.10 1.136
630.20 1.136
630.30 1.136
630.40 1.136
630.50 1.136
630.60 1.136
630.70 1.136
630.80 1.136
630.90 1.136
631.00 1.136
631.10 1.136
631.20 1.136
631.30 1.135
631.40 1.135
631.50 1.135
631.60 1.135
631.70 1.135
631.80 1.135
631.90 1.135
632.00 1.135
632.10 1.135
632.20 1.135
632.30 1.135
632.40 1.135
632.50 1.135
632.60 1.135
632.70 1.135
632.80 1.135
632.90 1.135
633.00 1.135
633.10 1.135
633.20 1.135
633.30 1.135
633.40 1.135
633.50 1.135
633.60 1.135
633.70 1.135
633.80 1.135
633.90 1.135
634.00 1.135
634.10 1.135
634.20 1.135
634.30 1.135
634.40 1.135
634.50 1.135
634.60 1.135
634.70 1.135
634.80 1.135
634.90 1.135
635.00 1.135
635.10 1.135
635.20 1.135
635.30 1.135
635.40 1.135
635.50 1.135
635.60 1.135
635.70 1.135
635.80 1.135
635.90 1.135
636.00 1.135
636.10 1.135
636.20 1.135
636.30 1.135
636.40 1.135
636.50 1.135
636.60 1.135
636.70 1.135
636.80 1.135
636.90 1.135
637.00 1.135
637.10 1.135
637.20 1.135
637.30 1.135
637.40 1.135
637.50 1.135
637.60 1.135
637.70 1.135
637.80 1.135
637.90 1.135
638.00 1.135
638.10 1.135
638.20 1.135
638.30 1.135
638.40 1.135
638.50 1.135
638.60 1.135
638.70 1.135
638.80 1.135
638.90 1.135
639.00 1.135
639.10 1.135
639.20 1.135
639.30 1.135
639.40 1.135
639.50 1.135
639.60 1.135
639.70 1.135
639.80 1.135
639.90 1.135
640.00 1.135
640.10 1.135
640.20 1.135
640.30 1.135
640.40 1.135
640.50 1.135
640.60 1.135
640.70 1.135
640.80 1.135
640.90 1.135
641.00 1.135
641.10 1.135
641.20 1.135
641.30 1.135
641.40 1.135
641.50 1.135
641.60 1.135
641.70 1.135
641.80 1.135
641.90 1.135
642.00 1.135
642.10 1.135
642.20 1.135
642.30 1.134
642.40 1.134
642.50 1.134
642.60 1.134
642.70 1.134
642.80 1.134
642.90 1.134
643.00 1.134
643.10 1.134
643.20 1.134
643.30 1.134
643.40 1.134
643.50 1.134
643.60 1.134
643.70 1.134
643.80 1.134
643.90 1.134
644.00 1.134
644.10 1.134
644.20 1.134
644.30 1.134
644.40 1.134
644.50 1.134
644.60 1.134
644.70 1.134
644.80 1.134
644.90 1.134
645.00 1.134
645.10 1.134
645.20 1.134
645.30 1.134
645.40 1.134
645.50 1.134
645.60 1.134
645.70 1.134
645.80 1.134
645.90 1.134
646.00 1.134
646.10 1.134
646.20 1.134
646.30 1.134
646.40 1.134
646.50 1.134
646.60 1.134
646.70 1.134
646.80 1.134
646.90 1.134
647.00 1.134
647.10 1.134
647.20 1.134
647.30 1.134
647.40 1.134
647.50 1.134
647.60 1.133
647.70 1.133
647.80 1.133
647.90 1.133
648.00 1.133
648.10 1.133
648.20 1.133
648.30 1.133
648.40 1.133
648.50 1.133
648.60 1.133
648.70 1.133
648.80 1.133
648.90 1.133
649.00 1.133
649.10 1.133
649.20 1.133
649.30 1.133
649.40 1.133
649.50 1.133
649.60 1.133
649.70 1.133
649.80 1.133
649.90 1.133
650.00 1.133
650.10 1.133
650.20 1.133
650.30 1.133
650.40 1.133
650.50 1.133
650.60 1.133
650.70 1.133
650.80 1.133
650.90 1.133
651.00 1.133
651.10 1.133
651.20 1.133
651.30 1.133
651.40 1.133
651.50 1.133
651.60 1.132
651.70 1.132
651.80 1.132
651.90 1.132
652.00 1.132
652.10 1.132
652.20 1.132
652.30 1.132
652.40 1.132
652.50 1.132
652.60 1.132
652.70 1.132
652.80 1.132
652.90 1.132
653.00 1.132
653.10 1.132
653.20 1.132
653.30 1.132
653.40 1.132
653.50 1.132
653.60 1.132
653.70 1.132
653.80 1.132
653.90 1.132
654.00 1.132
654.10 1.132
654.20 1.132
654.30 1.132
654.40 1.132
654.50 1.132
654.60 1.132
654.70 1.132
654.80 1.132
654.90 1.131
655.00 1.131
655.10 1.131
655.20 1.131
655.30 1.131
655.40 1.131
655.50 1.131
655.60 1.131
655.70 1.131
655.80 1.131
655.90 1.131
656.00 1.131
656.10 1.131
656.20 1.131
656.30 1.131
656.40 1.131
656.50 1.131
656.60 1.131
656.70 1.131
656.80 1.131
656.90 1.131
657.00 1.131
657.10 1.131
657.20 1.131
657.30 1.131
657.40 1.131
657.50 1.131
657.60 1.131
657.70 1.131
657.80 1.131
657.90 1.131
658.00 1.13
658.10 1.13
658.20 1.13
658.30 1.13
658.40 1.13
658.50 1.13
658.60 1.13
658.70 1.13
658.80 1.13
658.90 1.13
659.00 1.13
659.10 1.13
659.20 1.13
659.30 1.13
659.40 1.13
659.50 1.13
659.60 1.13
659.70 1.13
659.80 1.13
659.90 1.13
660.00 1.13
660.10 1.13
660.20 1.13
660.30 1.13
660.40 1.13
660.50 1.13
660.60 1.13
660.70 1.13
660.80 1.13
660.90 1.13
661.00 1.13
661.10 1.129
661.20 1.129
661.30 1.129
661.40 1.129
661.50 1.129
661.60 1.129
661.70 1.129
661.80 1.129
661.90 1.129
662.00 1.129
662.10 1.129
662.20 1.129
662.30 1.129
662.40 1.129
662.50 1.129
662.60 1.129
662.70 1.129
662.80 1.129
662.90 1.129
663.00 1.129
663.10 1.129
663.20 1.129
663.30 1.129
663.40 1.129
663.50 1.129
663.60 1.128
663.70 1.128
663.80 1.128
663.90 1.128
664.00 1.128
664.10 1.128
664.20 1.128
664.30 1.128
664.40 1.128
664.50 1.128
664.60 1.128
664.70 1.128
664.80 1.128
664.90 1.128
665.00 1.128
665.10 1.128
665.20 1.128
665.30 1.128
665.40 1.128
665.50 1.128
665.60 1.128
665.70 1.128
665.80 1.128
665.90 1.128
666.00 1.127
666.10 1.127
666.20 1.127
666.30 1.127
666.40 1.127
666.50 1.127
666.60 1.127
666.70 1.127
666.80 1.127
666.90 1.127
667.00 1.127
667.10 1.127
667.20 1.127
667.30 1.127
667.40 1.127
667.50 1.127
667.60 1.127
667.70 1.127
667.80 1.127
667.90 1.127
668.00 1.127
668.10 1.127
668.20 1.127
668.30 1.126
668.40 1.126
668.50 1.126
668.60 1.126
668.70 1.126
668.80 1.126
668.90 1.126
669.00 1.126
669.10 1.126
669.20 1.126
669.30 1.126
669.40 1.126
669.50 1.126
669.60 1.126
669.70 1.126
669.80 1.126
669.90 1.126
670.00 1.126
670.10 1.126
670.20 1.126
670.30 1.126
670.40 1.126
670.50 1.125
670.60 1.125
670.70 1.125
670.80 1.125
670.90 1.125
671.00 1.125
671.10 1.125
671.20 1.125
671.30 1.125
671.40 1.125
671.50 1.125
671.60 1.125
671.70 1.125
671.80 1.125
671.90 1.125
672.00 1.125
672.10 1.125
672.20 1.125
672.30 1.125
672.40 1.125
672.50 1.125
672.60 1.124
672.70 1.124
672.80 1.124
672.90 1.124
673.00 1.124
673.10 1.124
673.20 1.124
673.30 1.124
673.40 1.124
673.50 1.124
673.60 1.124
673.70 1.124
673.80 1.124
673.90 1.124
674.00 1.124
674.10 1.124
674.20 1.124
674.30 1.124
674.40 1.124
674.50 1.124
674.60 1.123
674.70 1.123
674.80 1.123
674.90 1.123
675.00 1.123
675.10 1.123
675.20 1.123
675.30 1.123
675.40 1.123
675.50 1.123
675.60 1.123
675.70 1.123
675.80 1.123
675.90 1.123
676.00 1.123
676.10 1.123
676.20 1.123
676.30 1.123
676.40 1.123
676.50 1.122
676.60 1.122
676.70 1.122
676.80 1.122
676.90 1.122
677.00 1.122
677.10 1.122
677.20 1.122
677.30 1.122
677.40 1.122
677.50 1.122
677.60 1.122
677.70 1.122
677.80 1.122
677.90 1.122
678.00 1.122
678.10 1.122
678.20 1.122
678.30 1.122
678.40 1.121
678.50 1.121
678.60 1.121
678.70 1.121
678.80 1.121
678.90 1.121
679.00 1.121
679.10 1.121
679.20 1.121
679.30 1.121
679.40 1.121
679.50 1.121
679.60 1.121
679.70 1.121
679.80 1.121
679.90 1.121
680.00 1.121
680.10 1.12
680.20 1.12
680.30 1.12
680.40 1.12
680.50 1.12
680.60 1.12
680.70 1.12
680.80 1.12
680.90 1.12
681.00 1.12
681.10 1.12
681.20 1.12
681.30 1.12
681.40 1.12
681.50 1.12
681.60 1.12
681.70 1.12
681.80 1.12
681.90 1.119
682.00 1.119
682.10 1.119
682.20 1.119
682.30 1.119
682.40 1.119
682.50 1.119
682.60 1.119
682.70 1.119
682.80 1.119
682.90 1.119
683.00 1.119
683.10 1.119
683.20 1.119
683.30 1.119
683.40 1.119
683.50 1.119
683.60 1.118
683.70 1.118
683.80 1.118
683.90 1.118
684.00 1.118
684.10 1.118
684.20 1.118
684.30 1.118
684.40 1.118
684.50 1.118
684.60 1.118
684.70 1.118
684.80 1.118
684.90 1.118
685.00 1.118
685.10 1.118
685.20 1.117
685.30 1.117
685.40 1.117
685.50 1.117
685.60 1.117
685.70 1.117
685.80 1.117
685.90 1.117
686.00 1.117
686.10 1.117
686.20 1.117
686.30 1.117
686.40 1.117
686.50 1.117
686.60 1.117
686.70 1.117
686.80 1.116
686.90 1.116
687.00 1.116
687.10 1.116
687.20 1.116
687.30 1.116
687.40 1.116
687.50 1.116
687.60 1.116
687.70 1.116
687.80 1.116
687.90 1.116
688.00 1.116
688.10 1.116
688.20 1.116
688.30 1.116
688.40 1.115
688.50 1.115
688.60 1.115
688.70 1.115
688.80 1.115
688.90 1.115
689.00 1.115
689.10 1.115
689.20 1.115
689.30 1.115
689.40 1.115
689.50 1.115
689.60 1.115
689.70 1.115
689.80 1.115
689.90 1.114
690.00 1.114
690.10 1.114
690.20 1.114
690.30 1.114
690.40 1.114
690.50 1.114
690.60 1.114
690.70 1.114
690.80 1.114
690.90 1.114
691.00 1.114
691.10 1.114
691.20 1.114
691.30 1.114
691.40 1.113
691.50 1.113
691.60 1.113
691.70 1.113
691.80 1.113
691.90 1.113
692.00 1.113
692.10 1.113
692.20 1.113
692.30 1.113
692.40 1.113
692.50 1.113
692.60 1.113
692.70 1.113
692.80 1.112
692.90 1.112
693.00 1.112
693.10 1.112
693.20 1.112
693.30 1.112
693.40 1.112
693.50 1.112
693.60 1.112
693.70 1.112
693.80 1.112
693.90 1.112
694.00 1.112
694.10 1.112
694.20 1.112
694.30 1.111
694.40 1.111
694.50 1.111
694.60 1.111
694.70 1.111
694.80 1.111
694.90 1.111
695.00 1.111
695.10 1.111
695.20 1.111
695.30 1.111
695.40 1.111
695.50 1.111
695.60 1.111
695.70 1.11
695.80 1.11
695.90 1.11
696.00 1.11
696.10 1.11
696.20 1.11
696.30 1.11
696.40 1.11
696.50 1.11
696.60 1.11
696.70 1.11
696.80 1.11
696.90 1.11
697.00 1.11
697.10 1.109
697.20 1.109
697.30 1.109
697.40 1.109
697.50 1.109
697.60 1.109
697.70 1.109
697.80 1.109
697.90 1.109
698.00 1.109
698.10 1.109
698.20 1.109
698.30 1.109
698.40 1.108
698.50 1.108
698.60 1.108
698.70 1.108
698.80 1.108
698.90 1.108
699.00 1.108
699.10 1.108
699.20 1.108
699.30 1.108
699.40 1.108
699.50 1.108
699.60 1.108
699.70 1.108
699.80 1.107
699.90 1.107
700.00 1.107
700.10 1.107
700.20 1.107
700.30 1.107
700.40 1.107
700.50 1.107
700.60 1.107
700.70 1.107
700.80 1.107
700.90 1.107
701.00 1.107
701.10 1.106
701.20 1.106
701.30 1.106
701.40 1.106
701.50 1.106
701.60 1.106
701.70 1.106
701.80 1.106
701.90 1.106
702.00 1.106
702.10 1.106
702.20 1.106
702.30 1.106
702.40 1.105
702.50 1.105
702.60 1.105
702.70 1.105
702.80 1.105
702.90 1.105
703.00 1.105
703.10 1.105
703.20 1.105
703.30 1.105
703.40 1.105
703.50 1.105
703.60 1.105
703.70 1.104
703.80 1.104
703.90 1.104
704.00 1.104
704.10 1.104
704.20 1.104
704.30 1.104
704.40 1.104
704.50 1.104
704.60 1.104
704.70 1.104
704.80 1.104
704.90 1.103
705.00 1.103
705.10 1.103
705.20 1.103
705.30 1.103
705.40 1.103
705.50 1.103
705.60 1.103
705.70 1.103
705.80 1.103
705.90 1.103
706.00 1.103
706.10 1.103
706.20 1.102
706.30 1.102
706.40 1.102
706.50 1.102
706.60 1.102
706.70 1.102
706.80 1.102
706.90 1.102
707.00 1.102
707.10 1.102
707.20 1.102
707.30 1.102
707.40 1.101
707.50 1.101
707.60 1.101
707.70 1.101
707.80 1.101
707.90 1.101
708.00 1.101
708.10 1.101
708.20 1.101
708.30 1.101
708.40 1.101
708.50 1.101
708.60 1.1
708.70 1.1
708.80 1.1
708.90 1.1
709.00 1.1
709.10 1.1
709.20 1.1
709.30 1.1
709.40 1.1
709.50 1.1
709.60 1.1
709.70 1.1
709.80 1.099
709.90 1.099
710.00 1.099
710.10 1.099
710.20 1.099
710.30 1.099
710.40 1.099
710.50 1.099
710.60 1.099
710.70 1.099
710.80 1.099
710.90 1.099
711.00 1.098
711.10 1.098
711.20 1.098
711.30 1.098
711.40 1.098
711.50 1.098
711.60 1.098
711.70 1.098
711.80 1.098
711.90 1.098
712.00 1.098
712.10 1.098
712.20 1.097
712.30 1.097
712.40 1.097
712.50 1.097
712.60 1.097
712.70 1.097
712.80 1.097
712.90 1.097
713.00 1.097
713.10 1.097
713.20 1.097
713.30 1.096
713.40 1.096
713.50 1.096
713.60 1.096
713.70 1.096
713.80 1.096
713.90 1.096
714.00 1.096
714.10 1.096
714.20 1.096
714.30 1.096
714.40 1.096
714.50 1.095
714.60 1.095
714.70 1.095
714.80 1.095
714.90 1.095
715.00 1.095
715.10 1.095
715.20 1.095
715.30 1.095
715.40 1.095
715.50 1.095
715.60 1.094
715.70 1.094
715.80 1.094
715.90 1.094
716.00 1.094
716.10 1.094
716.20 1.094
716.30 1.094
716.40 1.094
716.50 1.094
716.60 1.094
716.70 1.093
716.80 1.093
716.90 1.093
717.00 1.093
717.10 1.093
717.20 1.093
717.30 1.093
717.40 1.093
717.50 1.093
717.60 1.093
717.70 1.093
717.80 1.092
717.90 1.092
718.00 1.092
718.10 1.092
718.20 1.092
718.30 1.092
718.40 1.092
718.50 1.092
718.60 1.092
718.70 1.092
718.80 1.092
718.90 1.091
719.00 1.091
719.10 1.091
719.20 1.091
719.30 1.091
719.40 1.091
719.50 1.091
719.60 1.091
719.70 1.091
719.80 1.091
719.90 1.091
720.00 1.091
720.10 1.09
720.20 1.09
720.30 1.09
720.40 1.09
720.50 1.09
720.60 1.09
720.70 1.09
720.80 1.09
720.90 1.09
721.00 1.09
721.10 1.089
721.20 1.089
721.30 1.089
721.40 1.089
721.50 1.089
721.60 1.089
721.70 1.089
721.80 1.089
721.90 1.089
722.00 1.089
722.10 1.089
722.20 1.088
722.30 1.088
722.40 1.088
722.50 1.088
722.60 1.088
722.70 1.088
722.80 1.088
722.90 1.088
723.00 1.088
723.10 1.088
723.20 1.088
723.30 1.087
723.40 1.087
723.50 1.087
723.60 1.087
723.70 1.087
723.80 1.087
723.90 1.087
724.00 1.087
724.10 1.087
724.20 1.087
724.30 1.086
724.40 1.086
724.50 1.086
724.60 1.086
724.70 1.086
724.80 1.086
724.90 1.086
725.00 1.086
725.10 1.086
725.20 1.086
725.30 1.086
725.40 1.085
725.50 1.085
725.60 1.085
725.70 1.085
725.80 1.085
725.90 1.085
726.00 1.085
726.10 1.085
726.20 1.085
726.30 1.085
726.40 1.084
726.50 1.084
726.60 1.084
726.70 1.084
726.80 1.084
726.90 1.084
727.00 1.084
727.10 1.084
727.20 1.084
727.30 1.084
727.40 1.084
727.50 1.083
727.60 1.083
727.70 1.083
727.80 1.083
727.90 1.083
728.00 1.083
728.10 1.083
728.20 1.083
728.30 1.083
728.40 1.083
728.50 1.082
728.60 1.082
728.70 1.082
728.80 1.082
728.90 1.082
729.00 1.082
729.10 1.082
729.20 1.082
729.30 1.082
729.40 1.082
729.50 1.081
729.60 1.081
729.70 1.081
729.80 1.081
729.90 1.081
730.00 1.081
730.10 1.081
730.20 1.081
730.30 1.081
730.40 1.081
730.50 1.081
730.60 1.08
730.70 1.08
730.80 1.08
730.90 1.08
731.00 1.08
731.10 1.08
731.20 1.08
731.30 1.08
731.40 1.08
731.50 1.08
731.60 1.079
731.70 1.079
731.80 1.079
731.90 1.079
732.00 1.079
732.10 1.079
732.20 1.079
732.30 1.079
732.40 1.079
732.50 1.079
732.60 1.078
732.70 1.078
732.80 1.078
732.90 1.078
733.00 1.078
733.10 1.078
733.20 1.078
733.30 1.078
733.40 1.078
733.50 1.078
733.60 1.077
733.70 1.077
733.80 1.077
733.90 1.077
734.00 1.077
734.10 1.077
734.20 1.077
734.30 1.077
734.40 1.077
734.50 1.077
734.60 1.076
734.70 1.076
734.80 1.076
734.90 1.076
735.00 1.076
735.10 1.076
735.20 1.076
735.30 1.076
735.40 1.076
735.50 1.076
735.60 1.075
735.70 1.075
735.80 1.075
735.90 1.075
736.00 1.075
736.10 1.075
736.20 1.075
736.30 1.075
736.40 1.075
736.50 1.075
736.60 1.074
736.70 1.074
736.80 1.074
736.90 1.074
737.00 1.074
737.10 1.074
737.20 1.074
737.30 1.074
737.40 1.074
737.50 1.074
737.60 1.073
737.70 1.073
737.80 1.073
737.90 1.073
738.00 1.073
738.10 1.073
738.20 1.073
738.30 1.073
738.40 1.073
738.50 1.073
738.60 1.072
738.70 1.072
738.80 1.072
738.90 1.072
739.00 1.072
739.10 1.072
739.20 1.072
739.30 1.072
739.40 1.072
739.50 1.072
739.60 1.071
739.70 1.071
739.80 1.071
739.90 1.071
740.00 1.071
740.10 1.071
740.20 1.071
740.30 1.071
740.40 1.071
740.50 1.07
740.60 1.07
740.70 1.07
740.80 1.07
740.90 1.07
741.00 1.07
741.10 1.07
741.20 1.07
741.30 1.07
741.40 1.07
741.50 1.069
741.60 1.069
741.70 1.069
741.80 1.069
741.90 1.069
742.00 1.069
742.10 1.069
742.20 1.069
742.30 1.069
742.40 1.069
742.50 1.068
742.60 1.068
742.70 1.068
742.80 1.068
742.90 1.068
743.00 1.068
743.10 1.068
743.20 1.068
743.30 1.068
743.40 1.067
743.50 1.067
743.60 1.067
743.70 1.067
743.80 1.067
743.90 1.067
744.00 1.067
744.10 1.067
744.20 1.067
744.30 1.067
744.40 1.066
744.50 1.066
744.60 1.066
744.70 1.066
744.80 1.066
744.90 1.066
745.00 1.066
745.10 1.066
745.20 1.066
745.30 1.065
745.40 1.065
745.50 1.065
745.60 1.065
745.70 1.065
745.80 1.065
745.90 1.065
746.00 1.065
746.10 1.065
746.20 1.065
746.30 1.064
746.40 1.064
746.50 1.064
746.60 1.064
746.70 1.064
746.80 1.064
746.90 1.064
747.00 1.064
747.10 1.064
747.20 1.064
747.30 1.063
747.40 1.063
747.50 1.063
747.60 1.063
747.70 1.063
747.80 1.063
747.90 1.063
748.00 1.063
748.10 1.063
748.20 1.062
748.30 1.062
748.40 1.062
748.50 1.062
748.60 1.062
748.70 1.062
748.80 1.062
748.90 1.062
749.00 1.062
749.10 1.062
749.20 1.061
749.30 1.061
749.40 1.061
749.50 1.061
749.60 1.061
749.70 1.061
749.80 1.061
749.90 1.061
750.00 1.061
750.10 1.06
750.20 1.06
750.30 1.06
750.40 1.06
750.50 1.06
750.60 1.06
750.70 1.06
750.80 1.06
750.90 1.06
751.00 1.06
751.10 1.059
751.20 1.059
751.30 1.059
751.40 1.059
751.50 1.059
751.60 1.059
751.70 1.059
751.80 1.059
751.90 1.059
752.00 1.058
752.10 1.058
752.20 1.058
752.30 1.058
752.40 1.058
752.50 1.058
752.60 1.058
752.70 1.058
752.80 1.058
752.90 1.057
753.00 1.057
753.10 1.057
753.20 1.057
753.30 1.057
753.40 1.057
753.50 1.057
753.60 1.057
753.70 1.057
753.80 1.056
753.90 1.056
754.00 1.056
754.10 1.056
754.20 1.056
754.30 1.056
754.40 1.056
754.50 1.056
754.60 1.056
754.70 1.056
754.80 1.055
754.90 1.055
755.00 1.055
755.10 1.055
755.20 1.055
755.30 1.055
755.40 1.055
755.50 1.055
755.60 1.055
755.70 1.054
755.80 1.054
755.90 1.054
756.00 1.054
756.10 1.054
756.20 1.054
756.30 1.054
756.40 1.054
756.50 1.054
756.60 1.053
756.70 1.053
756.80 1.053
756.90 1.053
757.00 1.053
757.10 1.053
757.20 1.053
757.30 1.053
757.40 1.053
757.50 1.052
757.60 1.052
757.70 1.052
757.80 1.052
757.90 1.052
758.00 1.052
758.10 1.052
758.20 1.052
758.30 1.052
758.40 1.052
758.50 1.051
758.60 1.051
758.70 1.051
758.80 1.051
758.90 1.051
759.00 1.051
759.10 1.051
759.20 1.051
759.30 1.051
759.40 1.05
759.50 1.05
759.60 1.05
759.70 1.05
759.80 1.05
759.90 1.05
760.00 1.05
760.10 1.05
760.20 1.05
760.30 1.049
760.40 1.049
760.50 1.049
760.60 1.049
760.70 1.049
760.80 1.049
760.90 1.049
761.00 1.049
761.10 1.049
761.20 1.048
761.30 1.048
761.40 1.048
761.50 1.048
761.60 1.048
761.70 1.048
761.80 1.048
761.90 1.048
762.00 1.048
762.10 1.047
762.20 1.047
762.30 1.047
762.40 1.047
762.50 1.047
762.60 1.047
762.70 1.047
762.80 1.047
762.90 1.047
763.00 1.046
763.10 1.046
763.20 1.046
763.30 1.046
763.40 1.046
763.50 1.046
763.60 1.046
763.70 1.046
763.80 1.046
763.90 1.045
764.00 1.045
764.10 1.045
764.20 1.045
764.30 1.045
764.40 1.045
764.50 1.045
764.60 1.045
764.70 1.045
764.80 1.044
764.90 1.044
765.00 1.044
765.10 1.044
765.20 1.044
765.30 1.044
765.40 1.044
765.50 1.044
765.60 1.044
765.70 1.043
765.80 1.043
765.90 1.043
766.00 1.043
766.10 1.043
766.20 1.043
766.30 1.043
766.40 1.043
766.50 1.043
766.60 1.042
766.70 1.042
766.80 1.042
766.90 1.042
767.00 1.042
767.10 1.042
767.20 1.042
767.30 1.042
767.40 1.042
767.50 1.041
767.60 1.041
767.70 1.041
767.80 1.041
767.90 1.041
768.00 1.041
768.10 1.041
768.20 1.041
768.30 1.041
768.40 1.04
768.50 1.04
768.60 1.04
768.70 1.04
768.80 1.04
768.90 1.04
769.00 1.04
769.10 1.04
769.20 1.04
769.30 1.039
769.40 1.039
769.50 1.039
769.60 1.039
769.70 1.039
769.80 1.039
769.90 1.039
770.00 1.039
770.10 1.039
770.20 1.038
770.30 1.038
770.40 1.038
770.50 1.038
770.60 1.038
770.70 1.038
770.80 1.038
770.90 1.038
771.00 1.037
771.10 1.037
771.20 1.037
771.30 1.037
771.40 1.037
771.50 1.037
771.60 1.037
771.70 1.037
771.80 1.037
771.90 1.036
772.00 1.036
772.10 1.036
772.20 1.036
772.30 1.036
772.40 1.036
772.50 1.036
772.60 1.036
772.70 1.036
772.80 1.035
772.90 1.035
773.00 1.035
773.10 1.035
773.20 1.035
773.30 1.035
773.40 1.035
773.50 1.035
773.60 1.034
773.70 1.034
773.80 1.034
773.90 1.034
774.00 1.034
774.10 1.034
774.20 1.034
774.30 1.034
774.40 1.034
774.50 1.033
774.60 1.033
774.70 1.033
774.80 1.033
774.90 1.033
775.00 1.033
775.10 1.033
775.20 1.033
775.30 1.033
775.40 1.032
775.50 1.032
775.60 1.032
775.70 1.032
775.80 1.032
775.90 1.032
776.00 1.032
776.10 1.032
776.20 1.032
776.30 1.031
776.40 1.031
776.50 1.031
776.60 1.031
776.70 1.031
776.80 1.031
776.90 1.031
777.00 1.031
777.10 1.031
777.20 1.03
777.30 1.03
777.40 1.03
777.50 1.03
777.60 1.03
777.70 1.03
777.80 1.03
777.90 1.03
778.00 1.029
778.10 1.029
778.20 1.029
778.30 1.029
778.40 1.029
778.50 1.029
778.60 1.029
778.70 1.029
778.80 1.029
778.90 1.028
779.00 1.028
779.10 1.028
779.20 1.028
779.30 1.028
779.40 1.028
779.50 1.028
779.60 1.028
779.70 1.028
779.80 1.027
779.90 1.027
780.00 1.027
780.10 1.027
780.20 1.027
780.30 1.027
780.40 1.027
780.50 1.027
780.60 1.027
780.70 1.026
780.80 1.026
780.90 1.026
781.00 1.026
781.10 1.026
781.20 1.026
781.30 1.026
781.40 1.026
781.50 1.025
781.60 1.025
781.70 1.025
781.80 1.025
781.90 1.025
782.00 1.025
782.10 1.025
782.20 1.025
782.30 1.025
782.40 1.024
782.50 1.024
782.60 1.024
782.70 1.024
782.80 1.024
782.90 1.024
783.00 1.024
783.10 1.024
783.20 1.023
783.30 1.023
783.40 1.023
783.50 1.023
783.60 1.023
783.70 1.023
783.80 1.023
783.90 1.023
784.00 1.023
784.10 1.022
784.20 1.022
784.30 1.022
784.40 1.022
784.50 1.022
784.60 1.022
784.70 1.022
784.80 1.022
784.90 1.021
785.00 1.021
785.10 1.021
785.20 1.021
785.30 1.021
785.40 1.021
785.50 1.021
785.60 1.021
785.70 1.021
785.80 1.02
785.90 1.02
786.00 1.02
786.10 1.02
786.20 1.02
786.30 1.02
786.40 1.02
786.50 1.02
786.60 1.019
786.70 1.019
786.80 1.019
786.90 1.019
787.00 1.019
787.10 1.019
787.20 1.019
787.30 1.019
787.40 1.019
787.50 1.018
787.60 1.018
787.70 1.018
787.80 1.018
787.90 1.018
788.00 1.018
788.10 1.018
788.20 1.018
788.30 1.018
788.40 1.017
788.50 1.017
788.60 1.017
788.70 1.017
788.80 1.017
788.90 1.017
789.00 1.017
789.10 1.017
789.20 1.016
789.30 1.016
789.40 1.016
789.50 1.016
789.60 1.016
789.70 1.016
789.80 1.016
789.90 1.016
790.00 1.016
790.10 1.015
790.20 1.015
790.30 1.015
790.40 1.015
790.50 1.015
790.60 1.015
790.70 1.015
790.80 1.015
790.90 1.014
791.00 1.014
791.10 1.014
791.20 1.014
791.30 1.014
791.40 1.014
791.50 1.014
791.60 1.014
791.70 1.013
791.80 1.013
791.90 1.013
792.00 1.013
792.10 1.013
792.20 1.013
792.30 1.013
792.40 1.013
792.50 1.013
792.60 1.012
792.70 1.012
792.80 1.012
792.90 1.012
793.00 1.012
793.10 1.012
793.20 1.012
793.30 1.012
793.40 1.011
793.50 1.011
793.60 1.011
793.70 1.011
793.80 1.011
793.90 1.011
794.00 1.011
794.10 1.011
794.20 1.01
794.30 1.01
794.40 1.01
794.50 1.01
794.60 1.01
794.70 1.01
794.80 1.01
794.90 1.01
795.00 1.01
795.10 1.009
795.20 1.009
795.30 1.009
795.40 1.009
795.50 1.009
795.60 1.009
795.70 1.009
795.80 1.009
795.90 1.008
796.00 1.008
796.10 1.008
796.20 1.008
796.30 1.008
796.40 1.008
796.50 1.008
796.60 1.008
796.70 1.007
796.80 1.007
796.90 1.007
797.00 1.007
797.10 1.007
797.20 1.007
797.30 1.007
797.40 1.007
797.50 1.007
797.60 1.006
797.70 1.006
797.80 1.006
797.90 1.006
798.00 1.006
798.10 1.006
798.20 1.006
798.30 1.006
798.40 1.005
798.50 1.005
798.60 1.005
798.70 1.005
798.80 1.005
798.90 1.005
799.00 1.005
799.10 1.005
799.20 1.005
799.30 1.004
799.40 1.004
799.50 1.004
799.60 1.004
799.70 1.004
799.80 1.004
799.90 1.004
800.00 1.004
800.10 1.003
800.20 1.003
800.30 1.003
800.40 1.003
800.50 1.003
800.60 1.003
800.70 1.003
800.80 1.003
800.90 1.002
801.00 1.002
801.10 1.002
801.20 1.002
801.30 1.002
801.40 1.002
801.50 1.002
801.60 1.002
801.70 1.001
801.80 1.001
801.90 1.001
802.00 1.001
802.10 1.001
802.20 1.001
802.30 1.001
802.40 1.001
802.50 1
802.60 1
802.70 1
802.80 1
802.90 0.9999
803.00 0.9998
803.10 0.9997
803.20 0.9996
803.30 0.9994
803.40 0.9993
803.50 0.9992
803.60 0.9991
803.70 0.999
803.80 0.9988
803.90 0.9987
804.00 0.9986
804.10 0.9985
804.20 0.9983
804.30 0.9982
804.40 0.9981
804.50 0.998
804.60 0.9978
804.70 0.9977
804.80 0.9976
804.90 0.9975
805.00 0.9973
805.10 0.9972
805.20 0.9971
805.30 0.997
805.40 0.9969
805.50 0.9967
805.60 0.9966
805.70 0.9965
805.80 0.9964
805.90 0.9962
806.00 0.9961
806.10 0.996
806.20 0.9959
806.30 0.9957
806.40 0.9956
806.50 0.9955
806.60 0.9954
806.70 0.9953
806.80 0.9951
806.90 0.995
807.00 0.9949
807.10 0.9948
807.20 0.9946
807.30 0.9945
807.40 0.9944
807.50 0.9943
807.60 0.9941
807.70 0.994
807.80 0.9939
807.90 0.9938
808.00 0.9937
808.10 0.9935
808.20 0.9934
808.30 0.9933
808.40 0.9932
808.50 0.993
808.60 0.9929
808.70 0.9928
808.80 0.9927
808.90 0.9926
809.00 0.9924
809.10 0.9923
809.20 0.9922
809.30 0.9921
809.40 0.9919
809.50 0.9918
809.60 0.9917
809.70 0.9916
809.80 0.9915
809.90 0.9913
810.00 0.9912
810.10 0.9911
810.20 0.991
810.30 0.9908
810.40 0.9907
810.50 0.9906
810.60 0.9904
810.70 0.9903
810.80 0.9902
810.90 0.9901
811.00 0.9899
811.10 0.9898
811.20 0.9897
811.30 0.9895
811.40 0.9894
811.50 0.9893
811.60 0.9892
811.70 0.989
811.80 0.9889
811.90 0.9888
812.00 0.9886
812.10 0.9885
812.20 0.9884
812.30 0.9883
812.40 0.9881
812.50 0.988
812.60 0.9879
812.70 0.9877
812.80 0.9876
812.90 0.9875
813.00 0.9874
813.10 0.9872
813.20 0.9871
813.30 0.987
813.40 0.9869
813.50 0.9867
813.60 0.9866
813.70 0.9865
813.80 0.9863
813.90 0.9862
814.00 0.9861
814.10 0.986
814.20 0.9858
814.30 0.9857
814.40 0.9856
814.50 0.9855
814.60 0.9853
814.70 0.9852
814.80 0.9851
814.90 0.9849
815.00 0.9848
815.10 0.9847
815.20 0.9846
815.30 0.9844
815.40 0.9843
815.50 0.9842
815.60 0.9841
815.70 0.9839
815.80 0.9838
815.90 0.9837
816.00 0.9835
816.10 0.9834
816.20 0.9833
816.30 0.9832
816.40 0.983
816.50 0.9829
816.60 0.9828
816.70 0.9827
816.80 0.9825
816.90 0.9824
817.00 0.9823
817.10 0.9822
817.20 0.982
817.30 0.9819
817.40 0.9818
817.50 0.9816
817.60 0.9815
817.70 0.9814
817.80 0.9813
817.90 0.9811
818.00 0.981
818.10 0.9809
818.20 0.9808
818.30 0.9806
818.40 0.9805
818.50 0.9804
818.60 0.9803
818.70 0.9801
818.80 0.98
818.90 0.9799
819.00 0.9798
819.10 0.9796
819.20 0.9795
819.30 0.9794
819.40 0.9793
819.50 0.9791
819.60 0.979
819.70 0.9789
819.80 0.9788
819.90 0.9786
820.00 0.9785
820.10 0.9784
820.20 0.9783
820.30 0.9781
820.40 0.978
820.50 0.9779
820.60 0.9777
820.70 0.9776
820.80 0.9775
820.90 0.9773
821.00 0.9772
821.10 0.9771
821.20 0.977
821.30 0.9768
821.40 0.9767
821.50 0.9766
821.60 0.9764
821.70 0.9763
821.80 0.9762
821.90 0.976
822.00 0.9759
822.10 0.9758
822.20 0.9757
822.30 0.9755
822.40 0.9754
822.50 0.9753
822.60 0.9751
822.70 0.975
822.80 0.9749
822.90 0.9747
823.00 0.9746
823.10 0.9745
823.20 0.9743
823.30 0.9742
823.40 0.9741
823.50 0.974
823.60 0.9738
823.70 0.9737
823.80 0.9736
823.90 0.9734
824.00 0.9733
824.10 0.9732
824.20 0.973
824.30 0.9729
824.40 0.9728
824.50 0.9727
824.60 0.9725
824.70 0.9724
824.80 0.9723
824.90 0.9721
825.00 0.972
825.10 0.9719
825.20 0.9717
825.30 0.9716
825.40 0.9715
825.50 0.9714
825.60 0.9712
825.70 0.9711
825.80 0.971
825.90 0.9708
826.00 0.9707
826.10 0.9706
826.20 0.9704
826.30 0.9703
826.40 0.9702
826.50 0.9701
826.60 0.9699
826.70 0.9698
826.80 0.9697
826.90 0.9695
827.00 0.9694
827.10 0.9693
827.20 0.9691
827.30 0.969
827.40 0.9689
827.50 0.9688
827.60 0.9686
827.70 0.9685
827.80 0.9684
827.90 0.9682
828.00 0.9681
828.10 0.968
828.20 0.9678
828.30 0.9677
828.40 0.9676
828.50 0.9674
828.60 0.9673
828.70 0.9672
828.80 0.967
828.90 0.9669
829.00 0.9668
829.10 0.9666
829.20 0.9665
829.30 0.9664
829.40 0.9662
829.50 0.9661
829.60 0.966
829.70 0.9658
829.80 0.9657
829.90 0.9656
830.00 0.9654
830.10 0.9653
830.20 0.9652
830.30 0.9651
830.40 0.9649
830.50 0.9648
830.60 0.9647
830.70 0.9645
830.80 0.9644
830.90 0.9643
831.00 0.9641
831.10 0.964
831.20 0.9639
831.30 0.9637
831.40 0.9636
831.50 0.9635
831.60 0.9633
831.70 0.9632
831.80 0.9631
831.90 0.963
832.00 0.9628
832.10 0.9627
832.20 0.9626
832.30 0.9624
832.40 0.9623
832.50 0.9622
832.60 0.962
832.70 0.9619
832.80 0.9618
832.90 0.9616
833.00 0.9615
833.10 0.9614
833.20 0.9612
833.30 0.9611
833.40 0.961
833.50 0.9608
833.60 0.9607
833.70 0.9606
833.80 0.9604
833.90 0.9603
834.00 0.9602
834.10 0.96
834.20 0.9599
834.30 0.9598
834.40 0.9596
834.50 0.9595
834.60 0.9594
834.70 0.9592
834.80 0.9591
834.90 0.959
835.00 0.9588
835.10 0.9587
835.20 0.9586
835.30 0.9584
835.40 0.9583
835.50 0.9582
835.60 0.958
835.70 0.9579
835.80 0.9578
835.90 0.9576
836.00 0.9575
836.10 0.9574
836.20 0.9572
836.30 0.9571
836.40 0.957
836.50 0.9568
836.60 0.9567
836.70 0.9566
836.80 0.9564
836.90 0.9563
837.00 0.9562
837.10 0.956
837.20 0.9559
837.30 0.9558
837.40 0.9556
837.50 0.9555
837.60 0.9554
837.70 0.9552
837.80 0.9551
837.90 0.955
838.00 0.9548
838.10 0.9547
838.20 0.9546
838.30 0.9544
838.40 0.9543
838.50 0.9542
838.60 0.954
838.70 0.9539
838.80 0.9537
838.90 0.9536
839.00 0.9535
839.10 0.9533
839.20 0.9532
839.30 0.9531
839.40 0.9529
839.50 0.9528
839.60 0.9527
839.70 0.9525
839.80 0.9524
839.90 0.9523
840.00 0.9521
840.10 0.952
840.20 0.9519
840.30 0.9517
840.40 0.9516
840.50 0.9515
840.60 0.9513
840.70 0.9512
840.80 0.9511
840.90 0.9509
841.00 0.9508
841.10 0.9507
841.20 0.9505
841.30 0.9504
841.40 0.9503
841.50 0.9501
841.60 0.95
841.70 0.9499
841.80 0.9497
841.90 0.9496
842.00 0.9495
842.10 0.9493
842.20 0.9492
842.30 0.949
842.40 0.9489
842.50 0.9488
842.60 0.9486
842.70 0.9485
842.80 0.9484
842.90 0.9482
843.00 0.9481
843.10 0.9479
843.20 0.9478
843.30 0.9477
843.40 0.9475
843.50 0.9474
843.60 0.9473
843.70 0.9471
843.80 0.947
843.90 0.9469
844.00 0.9467
844.10 0.9466
844.20 0.9464
844.30 0.9463
844.40 0.9462
844.50 0.946
844.60 0.9459
844.70 0.9458
844.80 0.9456
844.90 0.9455
845.00 0.9454
845.10 0.9452
845.20 0.9451
845.30 0.945
845.40 0.9448
845.50 0.9447
845.60 0.9445
845.70 0.9444
845.80 0.9443
845.90 0.9441
846.00 0.944
846.10 0.9439
846.20 0.9437
846.30 0.9436
846.40 0.9435
846.50 0.9433
846.60 0.9432
846.70 0.9431
846.80 0.9429
846.90 0.9428
847.00 0.9427
847.10 0.9425
847.20 0.9424
847.30 0.9422
847.40 0.9421
847.50 0.942
847.60 0.9418
847.70 0.9417
847.80 0.9416
847.90 0.9414
848.00 0.9413
848.10 0.9411
848.20 0.941
848.30 0.9409
848.40 0.9407
848.50 0.9406
848.60 0.9405
848.70 0.9403
848.80 0.9402
848.90 0.94
849.00 0.9399
849.10 0.9398
849.20 0.9396
849.30 0.9395
849.40 0.9394
849.50 0.9392
849.60 0.9391
849.70 0.939
849.80 0.9388
849.90 0.9387
850.00 0.9385
850.10 0.9384
850.20 0.9383
850.30 0.9381
850.40 0.938
850.50 0.9379
850.60 0.9377
850.70 0.9376
850.80 0.9375
850.90 0.9373
851.00 0.9372
851.10 0.9371
851.20 0.9369
851.30 0.9368
851.40 0.9366
851.50 0.9365
851.60 0.9364
851.70 0.9362
851.80 0.9361
851.90 0.936
852.00 0.9358
852.10 0.9357
852.20 0.9356
852.30 0.9354
852.40 0.9353
852.50 0.9351
852.60 0.935
852.70 0.9349
852.80 0.9347
852.90 0.9346
853.00 0.9344
853.10 0.9343
853.20 0.9342
853.30 0.934
853.40 0.9339
853.50 0.9337
853.60 0.9336
853.70 0.9335
853.80 0.9333
853.90 0.9332
854.00 0.9331
854.10 0.9329
854.20 0.9328
854.30 0.9326
854.40 0.9325
854.50 0.9324
854.60 0.9322
854.70 0.9321
854.80 0.932
854.90 0.9318
855.00 0.9317
855.10 0.9315
855.20 0.9314
855.30 0.9313
855.40 0.9311
855.50 0.931
855.60 0.9308
855.70 0.9307
855.80 0.9306
855.90 0.9304
856.00 0.9303
856.10 0.9302
856.20 0.93
856.30 0.9299
856.40 0.9297
856.50 0.9296
856.60 0.9295
856.70 0.9293
856.80 0.9292
856.90 0.9291
857.00 0.9289
857.10 0.9288
857.20 0.9286
857.30 0.9285
857.40 0.9284
857.50 0.9282
857.60 0.9281
857.70 0.9279
857.80 0.9278
857.90 0.9277
858.00 0.9275
858.10 0.9274
858.20 0.9272
858.30 0.9271
858.40 0.927
858.50 0.9268
858.60 0.9267
858.70 0.9265
858.80 0.9264
858.90 0.9263
859.00 0.9261
859.10 0.926
859.20 0.9259
859.30 0.9257
859.40 0.9256
859.50 0.9254
859.60 0.9253
859.70 0.9252
859.80 0.925
859.90 0.9249
860.00 0.9247
860.10 0.9246
860.20 0.9245
860.30 0.9243
860.40 0.9242
860.50 0.924
860.60 0.9239
860.70 0.9238
860.80 0.9236
860.90 0.9235
861.00 0.9234
861.10 0.9232
861.20 0.9231
861.30 0.9229
861.40 0.9228
861.50 0.9227
861.60 0.9225
861.70 0.9224
861.80 0.9222
861.90 0.9221
862.00 0.922
862.10 0.9218
862.20 0.9217
862.30 0.9215
862.40 0.9214
862.50 0.9213
862.60 0.9211
862.70 0.921
862.80 0.9208
862.90 0.9207
863.00 0.9206
863.10 0.9204
863.20 0.9203
863.30 0.9201
863.40 0.92
863.50 0.9199
863.60 0.9197
863.70 0.9196
863.80 0.9194
863.90 0.9193
864.00 0.9192
864.10 0.919
864.20 0.9189
864.30 0.9187
864.40 0.9186
864.50 0.9185
864.60 0.9183
864.70 0.9182
864.80 0.918
864.90 0.9179
865.00 0.9178
865.10 0.9176
865.20 0.9175
865.30 0.9173
865.40 0.9172
865.50 0.9171
865.60 0.9169
865.70 0.9168
865.80 0.9166
865.90 0.9165
866.00 0.9164
866.10 0.9162
866.20 0.9161
866.30 0.9159
866.40 0.9158
866.50 0.9157
866.60 0.9155
866.70 0.9154
866.80 0.9152
866.90 0.9151
867.00 0.915
867.10 0.9148
867.20 0.9147
867.30 0.9145
867.40 0.9144
867.50 0.9142
867.60 0.9141
867.70 0.914
867.80 0.9138
867.90 0.9137
868.00 0.9135
868.10 0.9134
868.20 0.9132
868.30 0.9131
868.40 0.913
868.50 0.9128
868.60 0.9127
868.70 0.9125
868.80 0.9124
868.90 0.9122
869.00 0.9121
869.10 0.912
869.20 0.9118
869.30 0.9117
869.40 0.9115
869.50 0.9114
869.60 0.9113
869.70 0.9111
869.80 0.911
869.90 0.9108
870.00 0.9107
870.10 0.9105
870.20 0.9104
870.30 0.9103
870.40 0.9101
870.50 0.91
870.60 0.9098
870.70 0.9097
870.80 0.9096
870.90 0.9094
871.00 0.9093
871.10 0.9091
871.20 0.909
871.30 0.9088
871.40 0.9087
871.50 0.9086
871.60 0.9084
871.70 0.9083
871.80 0.9081
871.90 0.908
872.00 0.9079
872.10 0.9077
872.20 0.9076
872.30 0.9074
872.40 0.9073
872.50 0.9071
872.60 0.907
872.70 0.9069
872.80 0.9067
872.90 0.9066
873.00 0.9064
873.10 0.9063
873.20 0.9061
873.30 0.906
873.40 0.9058
873.50 0.9057
873.60 0.9056
873.70 0.9054
873.80 0.9053
873.90 0.9051
874.00 0.905
874.10 0.9048
874.20 0.9047
874.30 0.9046
874.40 0.9044
874.50 0.9043
874.60 0.9041
874.70 0.904
874.80 0.9038
874.90 0.9037
875.00 0.9036
875.10 0.9034
875.20 0.9033
875.30 0.9031
875.40 0.903
875.50 0.9028
875.60 0.9027
875.70 0.9026
875.80 0.9024
875.90 0.9023
876.00 0.9021
876.10 0.902
876.20 0.9018
876.30 0.9017
876.40 0.9016
876.50 0.9014
876.60 0.9013
876.70 0.9011
876.80 0.901
876.90 0.9009
877.00 0.9007
877.10 0.9006
877.20 0.9004
877.30 0.9003
877.40 0.9001
877.50 0.9
877.60 0.8998
877.70 0.8997
877.80 0.8996
877.90 0.8994
878.00 0.8993
878.10 0.8991
878.20 0.899
878.30 0.8988
878.40 0.8987
878.50 0.8985
878.60 0.8984
878.70 0.8982
878.80 0.8981
878.90 0.898
879.00 0.8978
879.10 0.8977
879.20 0.8975
879.30 0.8974
879.40 0.8972
879.50 0.8971
879.60 0.897
879.70 0.8968
879.80 0.8967
879.90 0.8965
880.00 0.8964
880.10 0.8962
880.20 0.8961
880.30 0.8959
880.40 0.8958
880.50 0.8957
880.60 0.8955
880.70 0.8954
880.80 0.8952
880.90 0.8951
881.00 0.8949
881.10 0.8948
881.20 0.8947
881.30 0.8945
881.40 0.8944
881.50 0.8942
881.60 0.8941
881.70 0.8939
881.80 0.8938
881.90 0.8937
882.00 0.8935
882.10 0.8934
882.20 0.8932
882.30 0.8931
882.40 0.8929
882.50 0.8928
882.60 0.8926
882.70 0.8925
882.80 0.8923
882.90 0.8922
883.00 0.892
883.10 0.8919
883.20 0.8917
883.30 0.8916
883.40 0.8914
883.50 0.8913
883.60 0.8912
883.70 0.891
883.80 0.8909
883.90 0.8907
884.00 0.8906
884.10 0.8904
884.20 0.8903
884.30 0.8901
884.40 0.89
884.50 0.8898
884.60 0.8897
884.70 0.8895
884.80 0.8894
884.90 0.8892
885.00 0.8891
885.10 0.889
885.20 0.8888
885.30 0.8887
885.40 0.8885
885.50 0.8884
885.60 0.8882
885.70 0.8881
885.80 0.8879
885.90 0.8878
886.00 0.8876
886.10 0.8875
886.20 0.8873
886.30 0.8872
886.40 0.8871
886.50 0.8869
886.60 0.8868
886.70 0.8866
886.80 0.8865
886.90 0.8863
887.00 0.8862
887.10 0.886
887.20 0.8859
887.30 0.8857
887.40 0.8856
887.50 0.8854
887.60 0.8853
887.70 0.8851
887.80 0.885
887.90 0.8848
888.00 0.8847
888.10 0.8845
888.20 0.8844
888.30 0.8842
888.40 0.8841
888.50 0.8839
888.60 0.8838
888.70 0.8836
888.80 0.8835
888.90 0.8833
889.00 0.8832
889.10 0.883
889.20 0.8829
889.30 0.8827
889.40 0.8826
889.50 0.8824
889.60 0.8823
889.70 0.8821
889.80 0.882
889.90 0.8819
890.00 0.8817
890.10 0.8816
890.20 0.8814
890.30 0.8813
890.40 0.8811
890.50 0.881
890.60 0.8808
890.70 0.8807
890.80 0.8805
890.90 0.8804
891.00 0.8802
891.10 0.8801
891.20 0.8799
891.30 0.8798
891.40 0.8796
891.50 0.8795
891.60 0.8793
891.70 0.8792
891.80 0.879
891.90 0.8789
892.00 0.8787
892.10 0.8786
892.20 0.8784
892.30 0.8783
892.40 0.8782
892.50 0.878
892.60 0.8779
892.70 0.8777
892.80 0.8776
892.90 0.8774
893.00 0.8773
893.10 0.8772
893.20 0.877
893.30 0.8769
893.40 0.8767
893.50 0.8766
893.60 0.8764
893.70 0.8763
893.80 0.8761
893.90 0.876
894.00 0.8759
894.10 0.8757
894.20 0.8756
894.30 0.8754
894.40 0.8753
894.50 0.8751
894.60 0.875
894.70 0.8749
894.80 0.8747
894.90 0.8746
895.00 0.8744
895.10 0.8743
895.20 0.8741
895.30 0.874
895.40 0.8739
895.50 0.8737
895.60 0.8736
895.70 0.8734
895.80 0.8733
895.90 0.8731
896.00 0.873
896.10 0.8729
896.20 0.8727
896.30 0.8726
896.40 0.8724
896.50 0.8723
896.60 0.8721
896.70 0.872
896.80 0.8719
896.90 0.8717
897.00 0.8716
897.10 0.8714
897.20 0.8713
897.30 0.8711
897.40 0.871
897.50 0.8708
897.60 0.8706
897.70 0.8705
897.80 0.8703
897.90 0.8702
898.00 0.87
898.10 0.8699
898.20 0.8697
898.30 0.8696
898.40 0.8694
898.50 0.8692
898.60 0.8691
898.70 0.8689
898.80 0.8688
898.90 0.8686
899.00 0.8685
899.10 0.8683
899.20 0.8682
899.30 0.868
899.40 0.8679
899.50 0.8677
899.60 0.8675
899.70 0.8674
899.80 0.8672
899.90 0.8671
900.00 0.8669
900.10 0.8668
900.20 0.8666
900.30 0.8665
900.40 0.8663
900.50 0.8662
900.60 0.866
900.70 0.8659
900.80 0.8657
900.90 0.8655
901.00 0.8654
901.10 0.8652
901.20 0.8651
901.30 0.8649
901.40 0.8648
901.50 0.8646
901.60 0.8645
901.70 0.8643
901.80 0.8642
901.90 0.864
902.00 0.8639
902.10 0.8637
902.20 0.8635
902.30 0.8633
902.40 0.8632
902.50 0.863
902.60 0.8628
902.70 0.8626
902.80 0.8625
902.90 0.8623
903.00 0.8621
903.10 0.8619
903.20 0.8618
903.30 0.8616
903.40 0.8614
903.50 0.8612
903.60 0.8611
903.70 0.8609
903.80 0.8607
903.90 0.8605
904.00 0.8604
904.10 0.8602
904.20 0.86
904.30 0.8598
904.40 0.8597
904.50 0.8595
904.60 0.8593
904.70 0.8591
904.80 0.859
904.90 0.8588
905.00 0.8586
905.10 0.8584
905.20 0.8583
905.30 0.8581
905.40 0.8579
905.50 0.8577
905.60 0.8576
905.70 0.8574
905.80 0.8572
905.90 0.857
906.00 0.8569
906.10 0.8567
906.20 0.8565
906.30 0.8564
906.40 0.8562
906.50 0.856
906.60 0.8558
906.70 0.8557
906.80 0.8555
906.90 0.8553
907.00 0.8551
907.10 0.855
907.20 0.8548
907.30 0.8546
907.40 0.8545
907.50 0.8543
907.60 0.8542
907.70 0.854
907.80 0.8538
907.90 0.8537
908.00 0.8535
908.10 0.8533
908.20 0.8532
908.30 0.853
908.40 0.8528
908.50 0.8527
908.60 0.8525
908.70 0.8523
908.80 0.8522
908.90 0.852
909.00 0.8519
909.10 0.8517
909.20 0.8515
909.30 0.8514
909.40 0.8512
909.50 0.851
909.60 0.8509
909.70 0.8507
909.80 0.8505
909.90 0.8504
910.00 0.8502
910.10 0.8501
910.20 0.8499
910.30 0.8497
910.40 0.8496
910.50 0.8494
910.60 0.8492
910.70 0.8491
910.80 0.8489
910.90 0.8488
911.00 0.8486
911.10 0.8484
911.20 0.8483
911.30 0.8481
911.40 0.8479
911.50 0.8478
911.60 0.8476
911.70 0.8475
911.80 0.8473
911.90 0.8471
912.00 0.847
912.10 0.8468
912.20 0.8467
912.30 0.8465
912.40 0.8463
912.50 0.8462
912.60 0.846
912.70 0.8459
912.80 0.8457
912.90 0.8456
913.00 0.8454
913.10 0.8453
913.20 0.8451
913.30 0.845
913.40 0.8448
913.50 0.8447
913.60 0.8445
913.70 0.8443
913.80 0.8442
913.90 0.844
914.00 0.8439
914.10 0.8437
914.20 0.8436
914.30 0.8434
914.40 0.8433
914.50 0.8431
914.60 0.843
914.70 0.8428
914.80 0.8427
914.90 0.8425
915.00 0.8424
915.10 0.8422
915.20 0.842
915.30 0.8419
915.40 0.8417
915.50 0.8416
915.60 0.8414
915.70 0.8413
915.80 0.8411
915.90 0.841
916.00 0.8408
916.10 0.8407
916.20 0.8405
916.30 0.8404
916.40 0.8402
916.50 0.8401
916.60 0.8399
916.70 0.8398
916.80 0.8396
916.90 0.8395
917.00 0.8393
917.10 0.8391
917.20 0.839
917.30 0.8388
917.40 0.8387
917.50 0.8385
917.60 0.8383
917.70 0.8382
917.80 0.838
917.90 0.8378
918.00 0.8377
918.10 0.8375
918.20 0.8374
918.30 0.8372
918.40 0.837
918.50 0.8369
918.60 0.8367
918.70 0.8366
918.80 0.8364
918.90 0.8362
919.00 0.8361
919.10 0.8359
919.20 0.8357
919.30 0.8356
919.40 0.8354
919.50 0.8353
919.60 0.8351
919.70 0.8349
919.80 0.8348
919.90 0.8346
920.00 0.8345
920.10 0.8343
920.20 0.8341
920.30 0.834
920.40 0.8338
920.50 0.8337
920.60 0.8335
920.70 0.8333
920.80 0.8332
920.90 0.833
921.00 0.8329
921.10 0.8327
921.20 0.8325
921.30 0.8324
921.40 0.8322
921.50 0.8321
921.60 0.8319
921.70 0.8317
921.80 0.8316
921.90 0.8314
922.00 0.8313
922.10 0.8311
922.20 0.8309
922.30 0.8308
922.40 0.8306
922.50 0.8304
922.60 0.8303
922.70 0.8301
922.80 0.83
922.90 0.8298
923.00 0.8296
923.10 0.8295
923.20 0.8293
923.30 0.8291
923.40 0.829
923.50 0.8288
923.60 0.8286
923.70 0.8285
923.80 0.8283
923.90 0.8282
924.00 0.828
924.10 0.8278
924.20 0.8277
924.30 0.8275
924.40 0.8274
924.50 0.8272
924.60 0.827
924.70 0.8269
924.80 0.8267
924.90 0.8265
925.00 0.8264
925.10 0.8262
925.20 0.8261
925.30 0.8259
925.40 0.8257
925.50 0.8256
925.60 0.8254
925.70 0.8252
925.80 0.8251
925.90 0.8249
926.00 0.8248
926.10 0.8246
926.20 0.8244
926.30 0.8243
926.40 0.8241
926.50 0.824
926.60 0.8238
926.70 0.8236
926.80 0.8235
926.90 0.8233
927.00 0.8232
927.10 0.823
927.20 0.8228
927.30 0.8227
927.40 0.8225
927.50 0.8223
927.60 0.8222
927.70 0.822
927.80 0.8218
927.90 0.8217
928.00 0.8215
928.10 0.8213
928.20 0.8212
928.30 0.821
928.40 0.8208
928.50 0.8207
928.60 0.8205
928.70 0.8204
928.80 0.8202
928.90 0.82
929.00 0.8199
929.10 0.8197
929.20 0.8195
929.30 0.8194
929.40 0.8192
929.50 0.819
929.60 0.8189
929.70 0.8187
929.80 0.8186
929.90 0.8184
930.00 0.8182
930.10 0.8181
930.20 0.8179
930.30 0.8177
930.40 0.8176
930.50 0.8174
930.60 0.8172
930.70 0.8171
930.80 0.8169
930.90 0.8168
931.00 0.8166
931.10 0.8164
931.20 0.8163
931.30 0.8161
931.40 0.8159
931.50 0.8158
931.60 0.8156
931.70 0.8155
931.80 0.8153
931.90 0.8151
932.00 0.815
932.10 0.8148
932.20 0.8146
932.30 0.8145
932.40 0.8143
932.50 0.8141
932.60 0.814
932.70 0.8138
932.80 0.8136
932.90 0.8135
933.00 0.8133
933.10 0.8131
933.20 0.813
933.30 0.8128
933.40 0.8126
933.50 0.8125
933.60 0.8123
933.70 0.8122
933.80 0.812
933.90 0.8118
934.00 0.8117
934.10 0.8115
934.20 0.8113
934.30 0.8112
934.40 0.811
934.50 0.8108
934.60 0.8107
934.70 0.8105
934.80 0.8103
934.90 0.8102
935.00 0.81
935.10 0.8098
935.20 0.8097
935.30 0.8095
935.40 0.8093
935.50 0.8092
935.60 0.809
935.70 0.8088
935.80 0.8087
935.90 0.8085
936.00 0.8083
936.10 0.8082
936.20 0.808
936.30 0.8078
936.40 0.8077
936.50 0.8075
936.60 0.8073
936.70 0.8072
936.80 0.807
936.90 0.8068
937.00 0.8067
937.10 0.8065
937.20 0.8063
937.30 0.8062
937.40 0.806
937.50 0.8058
937.60 0.8057
937.70 0.8055
937.80 0.8053
937.90 0.8052
938.00 0.805
938.10 0.8048
938.20 0.8047
938.30 0.8045
938.40 0.8043
938.50 0.8042
938.60 0.804
938.70 0.8038
938.80 0.8037
938.90 0.8035
939.00 0.8033
939.10 0.8032
939.20 0.803
939.30 0.8028
939.40 0.8027
939.50 0.8025
939.60 0.8023
939.70 0.8021
939.80 0.802
939.90 0.8018
940.00 0.8016
940.10 0.8015
940.20 0.8013
940.30 0.8011
940.40 0.801
940.50 0.8008
940.60 0.8006
940.70 0.8005
940.80 0.8003
940.90 0.8001
941.00 0.8
941.10 0.7998
941.20 0.7996
941.30 0.7995
941.40 0.7993
941.50 0.7991
941.60 0.799
941.70 0.7988
941.80 0.7986
941.90 0.7985
942.00 0.7983
942.10 0.7981
942.20 0.798
942.30 0.7978
942.40 0.7976
942.50 0.7974
942.60 0.7973
942.70 0.7971
942.80 0.7969
942.90 0.7968
943.00 0.7966
943.10 0.7964
943.20 0.7963
943.30 0.7961
943.40 0.7959
943.50 0.7957
943.60 0.7956
943.70 0.7954
943.80 0.7952
943.90 0.7951
944.00 0.7949
944.10 0.7947
944.20 0.7946
944.30 0.7944
944.40 0.7942
944.50 0.7941
944.60 0.7939
944.70 0.7937
944.80 0.7935
944.90 0.7934
945.00 0.7932
945.10 0.793
945.20 0.7929
945.30 0.7927
945.40 0.7925
945.50 0.7924
945.60 0.7922
945.70 0.792
945.80 0.7919
945.90 0.7917
946.00 0.7915
946.10 0.7913
946.20 0.7912
946.30 0.791
946.40 0.7908
946.50 0.7907
946.60 0.7905
946.70 0.7903
946.80 0.7901
946.90 0.79
947.00 0.7898
947.10 0.7896
947.20 0.7895
947.30 0.7893
947.40 0.7891
947.50 0.789
947.60 0.7888
947.70 0.7886
947.80 0.7884
947.90 0.7883
948.00 0.7881
948.10 0.7879
948.20 0.7877
948.30 0.7876
948.40 0.7874
948.50 0.7872
948.60 0.7871
948.70 0.7869
948.80 0.7867
948.90 0.7865
949.00 0.7864
949.10 0.7862
949.20 0.786
949.30 0.7859
949.40 0.7857
949.50 0.7855
949.60 0.7854
949.70 0.7852
949.80 0.785
949.90 0.7848
950.00 0.7847
950.10 0.7845
950.20 0.7843
950.30 0.7842
950.40 0.784
950.50 0.7838
950.60 0.7836
950.70 0.7835
950.80 0.7833
950.90 0.7831
951.00 0.783
951.10 0.7828
951.20 0.7826
951.30 0.7825
951.40 0.7823
951.50 0.7821
951.60 0.7819
951.70 0.7818
951.80 0.7816
951.90 0.7814
952.00 0.7812
952.10 0.7811
952.20 0.7809
952.30 0.7807
952.40 0.7805
952.50 0.7804
952.60 0.7802
952.70 0.78
952.80 0.7799
952.90 0.7797
953.00 0.7795
953.10 0.7793
953.20 0.7792
953.30 0.779
953.40 0.7788
953.50 0.7787
953.60 0.7785
953.70 0.7783
953.80 0.7781
953.90 0.778
954.00 0.7778
954.10 0.7776
954.20 0.7775
954.30 0.7773
954.40 0.7771
954.50 0.7769
954.60 0.7768
954.70 0.7766
954.80 0.7764
954.90 0.7762
955.00 0.7761
955.10 0.7759
955.20 0.7757
955.30 0.7756
955.40 0.7754
955.50 0.7752
955.60 0.775
955.70 0.7749
955.80 0.7747
955.90 0.7745
956.00 0.7743
956.10 0.7742
956.20 0.774
956.30 0.7738
956.40 0.7736
956.50 0.7735
956.60 0.7733
956.70 0.7731
956.80 0.773
956.90 0.7728
957.00 0.7726
957.10 0.7724
957.20 0.7723
957.30 0.7721
957.40 0.7719
957.50 0.7717
957.60 0.7716
957.70 0.7714
957.80 0.7712
957.90 0.771
958.00 0.7709
958.10 0.7707
958.20 0.7705
958.30 0.7704
958.40 0.7702
958.50 0.77
958.60 0.7698
958.70 0.7697
958.80 0.7695
958.90 0.7693
959.00 0.7691
959.10 0.769
959.20 0.7688
959.30 0.7686
959.40 0.7685
959.50 0.7683
959.60 0.7681
959.70 0.7679
959.80 0.7678
959.90 0.7676
960.00 0.7674
960.10 0.7672
960.20 0.7671
960.30 0.7669
960.40 0.7667
960.50 0.7665
960.60 0.7664
960.70 0.7662
960.80 0.766
960.90 0.7658
961.00 0.7657
961.10 0.7655
961.20 0.7653
961.30 0.7652
961.40 0.765
961.50 0.7648
961.60 0.7646
961.70 0.7645
961.80 0.7643
961.90 0.7641
962.00 0.7639
962.10 0.7638
962.20 0.7636
962.30 0.7634
962.40 0.7632
962.50 0.7631
962.60 0.7629
962.70 0.7627
962.80 0.7625
962.90 0.7624
963.00 0.7622
963.10 0.762
963.20 0.7619
963.30 0.7617
963.40 0.7615
963.50 0.7613
963.60 0.7612
963.70 0.761
963.80 0.7608
963.90 0.7606
964.00 0.7605
964.10 0.7603
964.20 0.7601
964.30 0.7599
964.40 0.7598
964.50 0.7596
964.60 0.7594
964.70 0.7592
964.80 0.7591
964.90 0.7589
965.00 0.7587
965.10 0.7585
965.20 0.7584
965.30 0.7582
965.40 0.758
965.50 0.7578
965.60 0.7577
965.70 0.7575
965.80 0.7573
965.90 0.7571
966.00 0.757
966.10 0.7568
966.20 0.7566
966.30 0.7564
966.40 0.7563
966.50 0.7561
966.60 0.7559
966.70 0.7557
966.80 0.7556
966.90 0.7554
967.00 0.7552
967.10 0.755
967.20 0.7549
967.30 0.7547
967.40 0.7545
967.50 0.7543
967.60 0.7542
967.70 0.754
967.80 0.7538
967.90 0.7536
968.00 0.7535
968.10 0.7533
968.20 0.7531
968.30 0.7529
968.40 0.7528
968.50 0.7526
968.60 0.7524
968.70 0.7522
968.80 0.7521
968.90 0.7519
969.00 0.7517
969.10 0.7515
969.20 0.7514
969.30 0.7512
969.40 0.751
969.50 0.7508
969.60 0.7507
969.70 0.7505
969.80 0.7503
969.90 0.7501
970.00 0.75
970.10 0.7498
970.20 0.7496
970.30 0.7495
970.40 0.7493
970.50 0.7491
970.60 0.7489
970.70 0.7488
970.80 0.7486
970.90 0.7484
971.00 0.7482
971.10 0.7481
971.20 0.7479
971.30 0.7477
971.40 0.7475
971.50 0.7474
971.60 0.7472
971.70 0.747
971.80 0.7468
971.90 0.7467
972.00 0.7465
972.10 0.7463
972.20 0.7461
972.30 0.746
972.40 0.7458
972.50 0.7456
972.60 0.7454
972.70 0.7453
972.80 0.7451
972.90 0.7449
973.00 0.7448
973.10 0.7446
973.20 0.7444
973.30 0.7442
973.40 0.7441
973.50 0.7439
973.60 0.7437
973.70 0.7435
973.80 0.7434
973.90 0.7432
974.00 0.743
974.10 0.7428
974.20 0.7427
974.30 0.7425
974.40 0.7423
974.50 0.7421
974.60 0.742
974.70 0.7418
974.80 0.7416
974.90 0.7414
975.00 0.7413
975.10 0.7411
975.20 0.7409
975.30 0.7407
975.40 0.7406
975.50 0.7404
975.60 0.7402
975.70 0.74
975.80 0.7399
975.90 0.7397
976.00 0.7395
976.10 0.7393
976.20 0.7392
976.30 0.739
976.40 0.7388
976.50 0.7386
976.60 0.7385
976.70 0.7383
976.80 0.7381
976.90 0.7379
977.00 0.7378
977.10 0.7376
977.20 0.7374
977.30 0.7372
977.40 0.7371
977.50 0.7369
977.60 0.7367
977.70 0.7365
977.80 0.7364
977.90 0.7362
978.00 0.736
978.10 0.7358
978.20 0.7357
978.30 0.7355
978.40 0.7353
978.50 0.7351
978.60 0.735
978.70 0.7348
978.80 0.7346
978.90 0.7345
979.00 0.7343
979.10 0.7341
979.20 0.7339
979.30 0.7338
979.40 0.7336
979.50 0.7334
979.60 0.7332
979.70 0.7331
979.80 0.7329
979.90 0.7327
980.00 0.7325
980.10 0.7324
980.20 0.7322
980.30 0.732
980.40 0.7319
980.50 0.7317
980.60 0.7315
980.70 0.7313
980.80 0.7312
980.90 0.731
981.00 0.7308
981.10 0.7306
981.20 0.7305
981.30 0.7303
981.40 0.7301
981.50 0.73
981.60 0.7298
981.70 0.7296
981.80 0.7294
981.90 0.7293
982.00 0.7291
982.10 0.7289
982.20 0.7287
982.30 0.7286
982.40 0.7284
982.50 0.7282
982.60 0.728
982.70 0.7279
982.80 0.7277
982.90 0.7275
983.00 0.7274
983.10 0.7272
983.20 0.727
983.30 0.7268
983.40 0.7267
983.50 0.7265
983.60 0.7263
983.70 0.7261
983.80 0.726
983.90 0.7258
984.00 0.7256
984.10 0.7255
984.20 0.7253
984.30 0.7251
984.40 0.7249
984.50 0.7248
984.60 0.7246
984.70 0.7244
984.80 0.7242
984.90 0.7241
985.00 0.7239
985.10 0.7237
985.20 0.7236
985.30 0.7234
985.40 0.7232
985.50 0.723
985.60 0.7229
985.70 0.7227
985.80 0.7225
985.90 0.7223
986.00 0.7222
986.10 0.722
986.20 0.7218
986.30 0.7217
986.40 0.7215
986.50 0.7213
986.60 0.7211
986.70 0.721
986.80 0.7208
986.90 0.7206
987.00 0.7204
987.10 0.7203
987.20 0.7201
987.30 0.7199
987.40 0.7198
987.50 0.7196
987.60 0.7194
987.70 0.7192
987.80 0.7191
987.90 0.7189
988.00 0.7187
988.10 0.7186
988.20 0.7184
988.30 0.7182
988.40 0.718
988.50 0.7179
988.60 0.7177
988.70 0.7175
988.80 0.7174
988.90 0.7172
989.00 0.717
989.10 0.7168
989.20 0.7167
989.30 0.7165
989.40 0.7163
989.50 0.7162
989.60 0.716
989.70 0.7158
989.80 0.7157
989.90 0.7155
990.00 0.7153
990.10 0.7151
990.20 0.715
990.30 0.7148
990.40 0.7146
990.50 0.7145
990.60 0.7143
990.70 0.7141
990.80 0.7139
990.90 0.7138
991.00 0.7136
991.10 0.7134
991.20 0.7133
991.30 0.7131
991.40 0.7129
991.50 0.7128
991.60 0.7126
991.70 0.7124
991.80 0.7122
991.90 0.7121
992.00 0.7119
992.10 0.7117
992.20 0.7116
992.30 0.7114
992.40 0.7112
992.50 0.7111
992.60 0.7109
992.70 0.7107
992.80 0.7105
992.90 0.7104
993.00 0.7102
993.10 0.71
993.20 0.7099
993.30 0.7097
993.40 0.7095
993.50 0.7094
993.60 0.7092
993.70 0.709
993.80 0.7088
993.90 0.7087
994.00 0.7085
994.10 0.7083
994.20 0.7082
994.30 0.708
994.40 0.7078
994.50 0.7077
994.60 0.7075
994.70 0.7073
994.80 0.7071
994.90 0.707
995.00 0.7068
995.10 0.7066
995.20 0.7065
995.30 0.7063
995.40 0.7061
995.50 0.706
995.60 0.7058
995.70 0.7056
995.80 0.7055
995.90 0.7053
996.00 0.7051
996.10 0.705
996.20 0.7048
996.30 0.7046
996.40 0.7044
996.50 0.7043
996.60 0.7041
996.70 0.7039
996.80 0.7038
996.90 0.7036
997.00 0.7034
997.10 0.7033
997.20 0.7031
997.30 0.7029
997.40 0.7028
997.50 0.7026
997.60 0.7024
997.70 0.7023
997.80 0.7021
997.90 0.7019
998.00 0.7018
998.10 0.7016
998.20 0.7014
998.30 0.7013
998.40 0.7011
998.50 0.7009
998.60 0.7008
998.70 0.7006
998.80 0.7004
998.90 0.7003
999.00 0.7001
999.10 0.6999
999.20 0.6998
999.30 0.6996
999.40 0.6994
999.50 0.6993
999.60 0.6991
999.70 0.6989
999.80 0.6988
999.90 0.6986
1000.00 0.6984
1000.10 0.6983
1000.20 0.6981
1000.30 0.6979
1000.40 0.6978
1000.50 0.6976
1000.60 0.6974
1000.70 0.6973
1000.80 0.6971
1000.90 0.6969
1001.00 0.6968
1001.10 0.6966
1001.20 0.6964
1001.30 0.6963
1001.40 0.6961
1001.50 0.6959
1001.60 0.6958
1001.70 0.6956
1001.80 0.6954
1001.90 0.6953
1002.00 0.6951
1002.10 0.695
1002.20 0.6948
1002.30 0.6946
1002.40 0.6944
1002.50 0.6943
1002.60 0.6941
1002.70 0.6939
1002.80 0.6938
1002.90 0.6936
1003.00 0.6934
1003.10 0.6933
1003.20 0.6931
1003.30 0.693
1003.40 0.6928
1003.50 0.6926
1003.60 0.6925
1003.70 0.6923
1003.80 0.6921
1003.90 0.692
1004.00 0.6918
1004.10 0.6916
1004.20 0.6915
1004.30 0.6913
1004.40 0.6912
1004.50 0.691
1004.60 0.6908
1004.70 0.6907
1004.80 0.6905
1004.90 0.6903
1005.00 0.6902
1005.10 0.69
1005.20 0.6899
1005.30 0.6897
1005.40 0.6895
1005.50 0.6894
1005.60 0.6892
1005.70 0.689
1005.80 0.6889
1005.90 0.6887
1006.00 0.6885
1006.10 0.6884
1006.20 0.6882
1006.30 0.6881
1006.40 0.6879
1006.50 0.6877
1006.60 0.6876
1006.70 0.6874
1006.80 0.6872
1006.90 0.6871
1007.00 0.6869
1007.10 0.6867
1007.20 0.6866
1007.30 0.6864
1007.40 0.6863
1007.50 0.6861
1007.60 0.6859
1007.70 0.6858
1007.80 0.6856
1007.90 0.6855
1008.00 0.6853
1008.10 0.6851
1008.20 0.685
1008.30 0.6848
1008.40 0.6846
1008.50 0.6845
1008.60 0.6843
1008.70 0.6842
1008.80 0.684
1008.90 0.6838
1009.00 0.6837
1009.10 0.6835
1009.20 0.6833
1009.30 0.6832
1009.40 0.683
1009.50 0.6829
1009.60 0.6827
1009.70 0.6825
1009.80 0.6824
1009.90 0.6822
1010.00 0.6821
1010.10 0.6819
1010.20 0.6817
1010.30 0.6816
1010.40 0.6814
1010.50 0.6812
1010.60 0.6811
1010.70 0.6809
1010.80 0.6808
1010.90 0.6806
1011.00 0.6804
1011.10 0.6803
1011.20 0.6801
1011.30 0.68
1011.40 0.6798
1011.50 0.6796
1011.60 0.6795
1011.70 0.6793
1011.80 0.6792
1011.90 0.679
1012.00 0.6788
1012.10 0.6787
1012.20 0.6785
1012.30 0.6784
1012.40 0.6782
1012.50 0.678
1012.60 0.6779
1012.70 0.6777
1012.80 0.6775
1012.90 0.6774
1013.00 0.6772
1013.10 0.6771
1013.20 0.6769
1013.30 0.6767
1013.40 0.6766
1013.50 0.6764
1013.60 0.6763
1013.70 0.6761
1013.80 0.6759
1013.90 0.6758
1014.00 0.6756
1014.10 0.6755
1014.20 0.6753
1014.30 0.6751
1014.40 0.675
1014.50 0.6748
1014.60 0.6747
1014.70 0.6745
1014.80 0.6743
1014.90 0.6742
1015.00 0.674
1015.10 0.6739
1015.20 0.6737
1015.30 0.6736
1015.40 0.6734
1015.50 0.6732
1015.60 0.6731
1015.70 0.6729
1015.80 0.6728
1015.90 0.6726
1016.00 0.6724
1016.10 0.6723
1016.20 0.6721
1016.30 0.672
1016.40 0.6718
1016.50 0.6716
1016.60 0.6715
1016.70 0.6713
1016.80 0.6712
1016.90 0.671
1017.00 0.6709
1017.10 0.6707
1017.20 0.6705
1017.30 0.6704
1017.40 0.6702
1017.50 0.6701
1017.60 0.6699
1017.70 0.6698
1017.80 0.6696
1017.90 0.6694
1018.00 0.6693
1018.10 0.6691
1018.20 0.669
1018.30 0.6688
1018.40 0.6686
1018.50 0.6685
1018.60 0.6683
1018.70 0.6682
1018.80 0.668
1018.90 0.6679
1019.00 0.6677
1019.10 0.6676
1019.20 0.6674
1019.30 0.6672
1019.40 0.6671
1019.50 0.6669
1019.60 0.6668
1019.70 0.6666
1019.80 0.6665
1019.90 0.6663
1020.00 0.6662
1020.10 0.666
1020.20 0.6658
1020.30 0.6657
1020.40 0.6655
1020.50 0.6654
1020.60 0.6652
1020.70 0.6651
1020.80 0.6649
1020.90 0.6648
1021.00 0.6646
1021.10 0.6644
1021.20 0.6643
1021.30 0.6641
1021.40 0.664
1021.50 0.6638
1021.60 0.6637
1021.70 0.6635
1021.80 0.6634
1021.90 0.6632
1022.00 0.663
1022.10 0.6629
1022.20 0.6627
1022.30 0.6626
1022.40 0.6624
1022.50 0.6623
1022.60 0.6621
1022.70 0.662
1022.80 0.6618
1022.90 0.6617
1023.00 0.6615
1023.10 0.6613
1023.20 0.6612
1023.30 0.661
1023.40 0.6609
1023.50 0.6607
1023.60 0.6606
1023.70 0.6604
1023.80 0.6603
1023.90 0.6601
1024.00 0.66
1024.10 0.6598
1024.20 0.6597
1024.30 0.6595
1024.40 0.6594
1024.50 0.6592
1024.60 0.659
1024.70 0.6589
1024.80 0.6587
1024.90 0.6586
1025.00 0.6584
1025.10 0.6583
1025.20 0.6581
1025.30 0.658
1025.40 0.6578
1025.50 0.6577
1025.60 0.6575
1025.70 0.6574
1025.80 0.6572
1025.90 0.657
1026.00 0.6569
1026.10 0.6567
1026.20 0.6566
1026.30 0.6564
1026.40 0.6563
1026.50 0.6561
1026.60 0.656
1026.70 0.6558
1026.80 0.6557
1026.90 0.6555
1027.00 0.6554
1027.10 0.6552
1027.20 0.6551
1027.30 0.6549
1027.40 0.6548
1027.50 0.6546
1027.60 0.6545
1027.70 0.6543
1027.80 0.6542
1027.90 0.654
1028.00 0.6539
1028.10 0.6537
1028.20 0.6535
1028.30 0.6534
1028.40 0.6532
1028.50 0.6531
1028.60 0.6529
1028.70 0.6528
1028.80 0.6526
1028.90 0.6525
1029.00 0.6523
1029.10 0.6522
1029.20 0.6521
1029.30 0.6519
1029.40 0.6518
1029.50 0.6516
1029.60 0.6515
1029.70 0.6513
1029.80 0.6512
1029.90 0.651
1030.00 0.6509
1030.10 0.6507
1030.20 0.6506
1030.30 0.6504
1030.40 0.6503
1030.50 0.6501
1030.60 0.65
1030.70 0.6498
1030.80 0.6497
1030.90 0.6495
1031.00 0.6494
1031.10 0.6492
1031.20 0.6491
1031.30 0.6489
1031.40 0.6488
1031.50 0.6486
1031.60 0.6485
1031.70 0.6483
1031.80 0.6482
1031.90 0.648
1032.00 0.6479
1032.10 0.6477
1032.20 0.6476
1032.30 0.6474
1032.40 0.6473
1032.50 0.6471
1032.60 0.647
1032.70 0.6468
1032.80 0.6467
1032.90 0.6466
1033.00 0.6464
1033.10 0.6463
1033.20 0.6461
1033.30 0.646
1033.40 0.6458
1033.50 0.6457
1033.60 0.6455
1033.70 0.6454
1033.80 0.6452
1033.90 0.6451
1034.00 0.6449
1034.10 0.6448
1034.20 0.6446
1034.30 0.6445
1034.40 0.6444
1034.50 0.6442
1034.60 0.6441
1034.70 0.6439
1034.80 0.6438
1034.90 0.6436
1035.00 0.6435
1035.10 0.6433
1035.20 0.6432
1035.30 0.643
1035.40 0.6429
1035.50 0.6427
1035.60 0.6426
1035.70 0.6425
1035.80 0.6423
1035.90 0.6422
1036.00 0.642
1036.10 0.6419
1036.20 0.6417
1036.30 0.6416
1036.40 0.6414
1036.50 0.6413
1036.60 0.6411
1036.70 0.641
1036.80 0.6409
1036.90 0.6407
1037.00 0.6406
1037.10 0.6404
1037.20 0.6403
1037.30 0.6401
1037.40 0.64
1037.50 0.6398
1037.60 0.6397
1037.70 0.6396
1037.80 0.6394
1037.90 0.6393
1038.00 0.6391
1038.10 0.639
1038.20 0.6388
1038.30 0.6387
1038.40 0.6386
1038.50 0.6384
1038.60 0.6383
1038.70 0.6381
1038.80 0.638
1038.90 0.6378
1039.00 0.6377
1039.10 0.6376
1039.20 0.6374
1039.30 0.6373
1039.40 0.6371
1039.50 0.637
1039.60 0.6368
1039.70 0.6367
1039.80 0.6366
1039.90 0.6364
1040.00 0.6363
1040.10 0.6361
1040.20 0.636
1040.30 0.6358
1040.40 0.6357
1040.50 0.6356
1040.60 0.6354
1040.70 0.6353
1040.80 0.6351
1040.90 0.635
1041.00 0.6349
1041.10 0.6347
1041.20 0.6346
1041.30 0.6344
1041.40 0.6343
1041.50 0.6341
1041.60 0.634
1041.70 0.6339
1041.80 0.6337
1041.90 0.6336
1042.00 0.6334
1042.10 0.6333
1042.20 0.6332
1042.30 0.633
1042.40 0.6329
1042.50 0.6327
1042.60 0.6326
1042.70 0.6325
1042.80 0.6323
1042.90 0.6322
1043.00 0.632
1043.10 0.6319
1043.20 0.6318
1043.30 0.6316
1043.40 0.6315
1043.50 0.6314
1043.60 0.6312
1043.70 0.6311
1043.80 0.6309
1043.90 0.6308
1044.00 0.6307
1044.10 0.6305
1044.20 0.6304
1044.30 0.6302
1044.40 0.6301
1044.50 0.63
1044.60 0.6298
1044.70 0.6297
1044.80 0.6296
1044.90 0.6294
1045.00 0.6293
1045.10 0.6291
1045.20 0.629
1045.30 0.6289
1045.40 0.6287
1045.50 0.6286
1045.60 0.6285
1045.70 0.6283
1045.80 0.6282
1045.90 0.628
1046.00 0.6279
1046.10 0.6278
1046.20 0.6276
1046.30 0.6275
1046.40 0.6274
1046.50 0.6272
1046.60 0.6271
1046.70 0.6269
1046.80 0.6268
1046.90 0.6267
1047.00 0.6265
1047.10 0.6264
1047.20 0.6263
1047.30 0.6261
1047.40 0.626
1047.50 0.6258
1047.60 0.6257
1047.70 0.6256
1047.80 0.6254
1047.90 0.6253
1048.00 0.6252
1048.10 0.625
1048.20 0.6249
1048.30 0.6248
1048.40 0.6246
1048.50 0.6245
1048.60 0.6244
1048.70 0.6242
1048.80 0.6241
1048.90 0.624
1049.00 0.6238
1049.10 0.6237
1049.20 0.6235
1049.30 0.6234
1049.40 0.6233
1049.50 0.6231
1049.60 0.623
1049.70 0.6229
1049.80 0.6227
1049.90 0.6226
1050.00 0.6225
1050.10 0.6223
1050.20 0.6222
1050.30 0.6221
1050.40 0.6219
1050.50 0.6218
1050.60 0.6217
1050.70 0.6215
1050.80 0.6214
1050.90 0.6213
1051.00 0.6211
1051.10 0.621
1051.20 0.6209
1051.30 0.6207
1051.40 0.6206
1051.50 0.6205
1051.60 0.6203
1051.70 0.6202
1051.80 0.6201
1051.90 0.6199
1052.00 0.6198
1052.10 0.6197
1052.20 0.6195
1052.30 0.6194
1052.40 0.6193
1052.50 0.6191
1052.60 0.619
1052.70 0.6189
1052.80 0.6187
1052.90 0.6186
1053.00 0.6185
1053.10 0.6183
1053.20 0.6182
1053.30 0.6181
1053.40 0.618
1053.50 0.6178
1053.60 0.6177
1053.70 0.6176
1053.80 0.6174
1053.90 0.6173
1054.00 0.6172
1054.10 0.617
1054.20 0.6169
1054.30 0.6168
1054.40 0.6166
1054.50 0.6165
1054.60 0.6164
1054.70 0.6163
1054.80 0.6161
1054.90 0.616
1055.00 0.6159
1055.10 0.6157
1055.20 0.6156
1055.30 0.6155
1055.40 0.6153
1055.50 0.6152
1055.60 0.6151
1055.70 0.6149
1055.80 0.6148
1055.90 0.6147
1056.00 0.6146
1056.10 0.6144
1056.20 0.6143
1056.30 0.6142
1056.40 0.614
1056.50 0.6139
1056.60 0.6138
1056.70 0.6136
1056.80 0.6135
1056.90 0.6134
1057.00 0.6133
1057.10 0.6131
1057.20 0.613
1057.30 0.6129
1057.40 0.6128
1057.50 0.6126
1057.60 0.6125
1057.70 0.6124
1057.80 0.6122
1057.90 0.6121
1058.00 0.612
1058.10 0.6119
1058.20 0.6117
1058.30 0.6116
1058.40 0.6115
1058.50 0.6114
1058.60 0.6112
1058.70 0.6111
1058.80 0.611
1058.90 0.6108
1059.00 0.6107
1059.10 0.6106
1059.20 0.6105
1059.30 0.6103
1059.40 0.6102
1059.50 0.6101
1059.60 0.61
1059.70 0.6098
1059.80 0.6097
1059.90 0.6096
1060.00 0.6095
1060.10 0.6093
1060.20 0.6092
1060.30 0.6091
1060.40 0.6089
1060.50 0.6088
1060.60 0.6087
1060.70 0.6086
1060.80 0.6084
1060.90 0.6083
1061.00 0.6082
1061.10 0.6081
1061.20 0.6079
1061.30 0.6078
1061.40 0.6077
1061.50 0.6076
1061.60 0.6074
1061.70 0.6073
1061.80 0.6072
1061.90 0.6071
1062.00 0.6069
1062.10 0.6068
1062.20 0.6067
1062.30 0.6066
1062.40 0.6064
1062.50 0.6063
1062.60 0.6062
1062.70 0.6061
1062.80 0.6059
1062.90 0.6058
1063.00 0.6057
1063.10 0.6056
1063.20 0.6054
1063.30 0.6053
1063.40 0.6052
1063.50 0.6051
1063.60 0.605
1063.70 0.6048
1063.80 0.6047
1063.90 0.6046
1064.00 0.6045
1064.10 0.6043
1064.20 0.6042
1064.30 0.6041
1064.40 0.604
1064.50 0.6038
1064.60 0.6037
1064.70 0.6036
1064.80 0.6035
1064.90 0.6034
1065.00 0.6032
1065.10 0.6031
1065.20 0.603
1065.30 0.6029
1065.40 0.6027
1065.50 0.6026
1065.60 0.6025
1065.70 0.6024
1065.80 0.6023
1065.90 0.6021
1066.00 0.602
1066.10 0.6019
1066.20 0.6018
1066.30 0.6016
1066.40 0.6015
1066.50 0.6014
1066.60 0.6013
1066.70 0.6011
1066.80 0.601
1066.90 0.6009
1067.00 0.6008
1067.10 0.6007
1067.20 0.6005
1067.30 0.6004
1067.40 0.6003
1067.50 0.6002
1067.60 0.6001
1067.70 0.5999
1067.80 0.5998
1067.90 0.5997
1068.00 0.5996
1068.10 0.5995
1068.20 0.5993
1068.30 0.5992
1068.40 0.5991
1068.50 0.599
1068.60 0.5989
1068.70 0.5988
1068.80 0.5986
1068.90 0.5985
1069.00 0.5984
1069.10 0.5983
1069.20 0.5982
1069.30 0.598
1069.40 0.5979
1069.50 0.5978
1069.60 0.5977
1069.70 0.5976
1069.80 0.5974
1069.90 0.5973
1070.00 0.5972
1070.10 0.5971
1070.20 0.597
1070.30 0.5969
1070.40 0.5967
1070.50 0.5966
1070.60 0.5965
1070.70 0.5964
1070.80 0.5963
1070.90 0.5961
1071.00 0.596
1071.10 0.5959
1071.20 0.5958
1071.30 0.5957
1071.40 0.5956
1071.50 0.5954
1071.60 0.5953
1071.70 0.5952
1071.80 0.5951
1071.90 0.595
1072.00 0.5948
1072.10 0.5947
1072.20 0.5946
1072.30 0.5945
1072.40 0.5944
1072.50 0.5943
1072.60 0.5941
1072.70 0.594
1072.80 0.5939
1072.90 0.5938
1073.00 0.5937
1073.10 0.5935
1073.20 0.5934
1073.30 0.5933
1073.40 0.5932
1073.50 0.5931
1073.60 0.593
1073.70 0.5928
1073.80 0.5927
1073.90 0.5926
1074.00 0.5925
1074.10 0.5924
1074.20 0.5923
1074.30 0.5921
1074.40 0.592
1074.50 0.5919
1074.60 0.5918
1074.70 0.5917
1074.80 0.5916
1074.90 0.5914
1075.00 0.5913
1075.10 0.5912
1075.20 0.5911
1075.30 0.591
1075.40 0.5909
1075.50 0.5907
1075.60 0.5906
1075.70 0.5905
1075.80 0.5904
1075.90 0.5903
1076.00 0.5902
1076.10 0.59
1076.20 0.5899
1076.30 0.5898
1076.40 0.5897
1076.50 0.5896
1076.60 0.5895
1076.70 0.5894
1076.80 0.5892
1076.90 0.5891
1077.00 0.589
1077.10 0.5889
1077.20 0.5888
1077.30 0.5887
1077.40 0.5885
1077.50 0.5884
1077.60 0.5883
1077.70 0.5882
1077.80 0.5881
1077.90 0.588
1078.00 0.5879
1078.10 0.5877
1078.20 0.5876
1078.30 0.5875
1078.40 0.5874
1078.50 0.5873
1078.60 0.5872
1078.70 0.5871
1078.80 0.5869
1078.90 0.5868
1079.00 0.5867
1079.10 0.5866
1079.20 0.5865
1079.30 0.5864
1079.40 0.5863
1079.50 0.5861
1079.60 0.586
1079.70 0.5859
1079.80 0.5858
1079.90 0.5857
1080.00 0.5856
1080.10 0.5855
1080.20 0.5854
1080.30 0.5852
1080.40 0.5851
1080.50 0.585
1080.60 0.5849
1080.70 0.5848
1080.80 0.5847
1080.90 0.5846
1081.00 0.5845
1081.10 0.5843
1081.20 0.5842
1081.30 0.5841
1081.40 0.584
1081.50 0.5839
1081.60 0.5838
1081.70 0.5837
1081.80 0.5835
1081.90 0.5834
1082.00 0.5833
1082.10 0.5832
1082.20 0.5831
1082.30 0.583
1082.40 0.5829
1082.50 0.5828
1082.60 0.5826
1082.70 0.5825
1082.80 0.5824
1082.90 0.5823
1083.00 0.5822
1083.10 0.5821
1083.20 0.582
1083.30 0.5819
1083.40 0.5817
1083.50 0.5816
1083.60 0.5815
1083.70 0.5814
1083.80 0.5813
1083.90 0.5812
1084.00 0.5811
1084.10 0.581
1084.20 0.5808
1084.30 0.5807
1084.40 0.5806
1084.50 0.5805
1084.60 0.5804
1084.70 0.5803
1084.80 0.5802
1084.90 0.5801
1085.00 0.58
1085.10 0.5798
1085.20 0.5797
1085.30 0.5796
1085.40 0.5795
1085.50 0.5794
1085.60 0.5793
1085.70 0.5792
1085.80 0.5791
1085.90 0.579
1086.00 0.5788
1086.10 0.5787
1086.20 0.5786
1086.30 0.5785
1086.40 0.5784
1086.50 0.5783
1086.60 0.5782
1086.70 0.5781
1086.80 0.578
1086.90 0.5779
1087.00 0.5777
1087.10 0.5776
1087.20 0.5775
1087.30 0.5774
1087.40 0.5773
1087.50 0.5772
1087.60 0.5771
1087.70 0.577
1087.80 0.5769
1087.90 0.5767
1088.00 0.5766
1088.10 0.5765
1088.20 0.5764
1088.30 0.5763
1088.40 0.5762
1088.50 0.5761
1088.60 0.576
1088.70 0.5759
1088.80 0.5758
1088.90 0.5756
1089.00 0.5755
1089.10 0.5754
1089.20 0.5753
1089.30 0.5752
1089.40 0.5751
1089.50 0.575
1089.60 0.5749
1089.70 0.5748
1089.80 0.5747
1089.90 0.5745
1090.00 0.5744
1090.10 0.5743
1090.20 0.5742
1090.30 0.5741
1090.40 0.574
1090.50 0.5739
1090.60 0.5738
1090.70 0.5737
1090.80 0.5736
1090.90 0.5735
1091.00 0.5733
1091.10 0.5732
1091.20 0.5731
1091.30 0.573
1091.40 0.5729
1091.50 0.5728
1091.60 0.5727
1091.70 0.5726
1091.80 0.5725
1091.90 0.5724
1092.00 0.5723
1092.10 0.5722
1092.20 0.5721
1092.30 0.5719
1092.40 0.5718
1092.50 0.5717
1092.60 0.5716
1092.70 0.5715
1092.80 0.5714
1092.90 0.5713
1093.00 0.5712
1093.10 0.5711
1093.20 0.571
1093.30 0.5709
1093.40 0.5708
1093.50 0.5707
1093.60 0.5706
1093.70 0.5705
1093.80 0.5703
1093.90 0.5702
1094.00 0.5701
1094.10 0.57
1094.20 0.5699
1094.30 0.5698
1094.40 0.5697
1094.50 0.5696
1094.60 0.5695
1094.70 0.5694
1094.80 0.5693
1094.90 0.5692
1095.00 0.569
1095.10 0.5689
1095.20 0.5688
1095.30 0.5687
1095.40 0.5686
1095.50 0.5685
1095.60 0.5684
1095.70 0.5683
1095.80 0.5682
1095.90 0.5681
1096.00 0.568
1096.10 0.5679
1096.20 0.5678
1096.30 0.5677
1096.40 0.5675
1096.50 0.5674
1096.60 0.5673
1096.70 0.5672
1096.80 0.5671
1096.90 0.567
1097.00 0.5669
1097.10 0.5668
1097.20 0.5667
1097.30 0.5666
1097.40 0.5665
1097.50 0.5664
1097.60 0.5663
1097.70 0.5662
1097.80 0.5661
1097.90 0.566
1098.00 0.5658
1098.10 0.5657
1098.20 0.5656
1098.30 0.5655
1098.40 0.5654
1098.50 0.5653
1098.60 0.5652
1098.70 0.5651
1098.80 0.565
1098.90 0.5649
1099.00 0.5648
1099.10 0.5647
1099.20 0.5646
1099.30 0.5645
1099.40 0.5643
1099.50 0.5642
1099.60 0.5641
1099.70 0.564
1099.80 0.5639
1099.90 0.5638
1100.00 0.5637
1100.10 0.5636
1100.20 0.5635
1100.30 0.5634
1100.40 0.5633
1100.50 0.5632
1100.60 0.5631
1100.70 0.563
1100.80 0.5629
1100.90 0.5628
1101.00 0.5626
1101.10 0.5625
1101.20 0.5624
1101.30 0.5623
1101.40 0.5622
1101.50 0.5621
1101.60 0.562
1101.70 0.5619
1101.80 0.5618
1101.90 0.5617
1102.00 0.5616
1102.10 0.5615
1102.20 0.5614
1102.30 0.5613
1102.40 0.5612
1102.50 0.5611
1102.60 0.561
1102.70 0.5609
1102.80 0.5608
1102.90 0.5606
1103.00 0.5605
1103.10 0.5604
1103.20 0.5603
1103.30 0.5602
1103.40 0.5601
1103.50 0.56
1103.60 0.5599
1103.70 0.5598
1103.80 0.5597
1103.90 0.5596
1104.00 0.5595
1104.10 0.5594
1104.20 0.5593
1104.30 0.5592
1104.40 0.5591
1104.50 0.559
1104.60 0.5589
1104.70 0.5588
1104.80 0.5586
1104.90 0.5585
1105.00 0.5584
1105.10 0.5583
1105.20 0.5582
1105.30 0.5581
1105.40 0.558
1105.50 0.5579
1105.60 0.5578
1105.70 0.5577
1105.80 0.5576
1105.90 0.5575
1106.00 0.5574
1106.10 0.5573
1106.20 0.5572
1106.30 0.5571
1106.40 0.557
1106.50 0.5569
1106.60 0.5568
1106.70 0.5567
1106.80 0.5566
1106.90 0.5565
1107.00 0.5564
1107.10 0.5563
1107.20 0.5561
1107.30 0.556
1107.40 0.5559
1107.50 0.5558
1107.60 0.5557
1107.70 0.5556
1107.80 0.5555
1107.90 0.5554
1108.00 0.5553
1108.10 0.5552
1108.20 0.5551
1108.30 0.555
1108.40 0.5549
1108.50 0.5548
1108.60 0.5547
1108.70 0.5546
1108.80 0.5545
1108.90 0.5544
1109.00 0.5543
1109.10 0.5542
1109.20 0.5541
1109.30 0.554
1109.40 0.5539
1109.50 0.5538
1109.60 0.5536
1109.70 0.5535
1109.80 0.5534
1109.90 0.5533
1110.00 0.5532
1110.10 0.5531
1110.20 0.553
1110.30 0.5529
1110.40 0.5528
1110.50 0.5527
1110.60 0.5526
1110.70 0.5525
1110.80 0.5524
1110.90 0.5523
1111.00 0.5522
1111.10 0.5521
1111.20 0.552
1111.30 0.5519
1111.40 0.5518
1111.50 0.5517
1111.60 0.5516
1111.70 0.5515
1111.80 0.5514
1111.90 0.5513
1112.00 0.5512
1112.10 0.5511
1112.20 0.551
1112.30 0.5509
1112.40 0.5508
1112.50 0.5507
1112.60 0.5506
1112.70 0.5505
1112.80 0.5504
1112.90 0.5502
1113.00 0.5501
1113.10 0.55
1113.20 0.5499
1113.30 0.5498
1113.40 0.5497
1113.50 0.5496
1113.60 0.5495
1113.70 0.5494
1113.80 0.5493
1113.90 0.5492
1114.00 0.5491
1114.10 0.549
1114.20 0.5489
1114.30 0.5488
1114.40 0.5487
1114.50 0.5486
1114.60 0.5485
1114.70 0.5484
1114.80 0.5483
1114.90 0.5482
1115.00 0.5481
1115.10 0.548
1115.20 0.5479
1115.30 0.5478
1115.40 0.5477
1115.50 0.5476
1115.60 0.5475
1115.70 0.5474
1115.80 0.5473
1115.90 0.5472
1116.00 0.5471
1116.10 0.547
1116.20 0.5469
1116.30 0.5468
1116.40 0.5467
1116.50 0.5466
1116.60 0.5465
1116.70 0.5464
1116.80 0.5463
1116.90 0.5462
1117.00 0.5461
1117.10 0.546
1117.20 0.5459
1117.30 0.5457
1117.40 0.5456
1117.50 0.5455
1117.60 0.5454
1117.70 0.5453
1117.80 0.5452
1117.90 0.5451
1118.00 0.545
1118.10 0.5449
1118.20 0.5448
1118.30 0.5447
1118.40 0.5446
1118.50 0.5445
1118.60 0.5444
1118.70 0.5443
1118.80 0.5442
1118.90 0.5441
1119.00 0.544
1119.10 0.5439
1119.20 0.5438
1119.30 0.5437
1119.40 0.5436
1119.50 0.5435
1119.60 0.5434
1119.70 0.5433
1119.80 0.5432
1119.90 0.5431
1120.00 0.543
1120.10 0.5429
1120.20 0.5428
1120.30 0.5427
1120.40 0.5426
1120.50 0.5425
1120.60 0.5424
1120.70 0.5423
1120.80 0.5422
1120.90 0.5421
1121.00 0.542
1121.10 0.5419
1121.20 0.5418
1121.30 0.5417
1121.40 0.5416
1121.50 0.5415
1121.60 0.5414
1121.70 0.5413
1121.80 0.5412
1121.90 0.5411
1122.00 0.541
1122.10 0.5409
1122.20 0.5408
1122.30 0.5407
1122.40 0.5406
1122.50 0.5405
1122.60 0.5404
1122.70 0.5403
1122.80 0.5402
1122.90 0.5401
1123.00 0.54
1123.10 0.5399
1123.20 0.5398
1123.30 0.5397
1123.40 0.5396
1123.50 0.5395
1123.60 0.5394
1123.70 0.5393
1123.80 0.5392
1123.90 0.5391
1124.00 0.539
1124.10 0.5389
1124.20 0.5388
1124.30 0.5387
1124.40 0.5386
1124.50 0.5385
1124.60 0.5384
1124.70 0.5383
1124.80 0.5382
1124.90 0.5381
1125.00 0.538
1125.10 0.5379
1125.20 0.5378
1125.30 0.5377
1125.40 0.5376
1125.50 0.5375
1125.60 0.5374
1125.70 0.5373
1125.80 0.5372
1125.90 0.5371
1126.00 0.537
1126.10 0.5369
1126.20 0.5368
1126.30 0.5367
1126.40 0.5366
1126.50 0.5365
1126.60 0.5364
1126.70 0.5363
1126.80 0.5362
1126.90 0.5361
1127.00 0.536
1127.10 0.5359
1127.20 0.5358
1127.30 0.5357
1127.40 0.5356
1127.50 0.5355
1127.60 0.5354
1127.70 0.5353
1127.80 0.5352
1127.90 0.5351
1128.00 0.535
1128.10 0.5349
1128.20 0.5348
1128.30 0.5347
1128.40 0.5346
1128.50 0.5345
1128.60 0.5344
1128.70 0.5343
1128.80 0.5342
1128.90 0.5341
1129.00 0.534
1129.10 0.5339
1129.20 0.5338
1129.30 0.5337
1129.40 0.5336
1129.50 0.5335
1129.60 0.5334
1129.70 0.5333
1129.80 0.5332
1129.90 0.5331
1130.00 0.533
1130.10 0.5329
1130.20 0.5328
1130.30 0.5327
1130.40 0.5326
1130.50 0.5325
1130.60 0.5324
1130.70 0.5323
1130.80 0.5322
1130.90 0.5321
1131.00 0.532
1131.10 0.5319
1131.20 0.5318
1131.30 0.5317
1131.40 0.5316
1131.50 0.5315
1131.60 0.5314
1131.70 0.5313
1131.80 0.5312
1131.90 0.5311
1132.00 0.531
1132.10 0.5309
1132.20 0.5308
1132.30 0.5307
1132.40 0.5306
1132.50 0.5305
1132.60 0.5304
1132.70 0.5303
1132.80 0.5302
1132.90 0.5301
1133.00 0.53
1133.10 0.5299
1133.20 0.5298
1133.30 0.5297
1133.40 0.5296
1133.50 0.5295
1133.60 0.5294
1133.70 0.5293
1133.80 0.5292
1133.90 0.5291
1134.00 0.529
1134.10 0.5289
1134.20 0.5288
1134.30 0.5287
1134.40 0.5286
1134.50 0.5285
1134.60 0.5284
1134.70 0.5283
1134.80 0.5282
1134.90 0.5281
1135.00 0.528
1135.10 0.5279
1135.20 0.5278
1135.30 0.5277
1135.40 0.5276
1135.50 0.5275
1135.60 0.5274
1135.70 0.5273
1135.80 0.5272
1135.90 0.5271
1136.00 0.527
1136.10 0.5269
1136.20 0.5268
1136.30 0.5267
1136.40 0.5266
1136.50 0.5265
1136.60 0.5264
1136.70 0.5263
1136.80 0.5262
1136.90 0.5261
1137.00 0.526
1137.10 0.5259
1137.20 0.5258
1137.30 0.5257
1137.40 0.5256
1137.50 0.5255
1137.60 0.5254
1137.70 0.5253
1137.80 0.5252
1137.90 0.5251
1138.00 0.525
1138.10 0.5249
1138.20 0.5248
1138.30 0.5247
1138.40 0.5246
1138.50 0.5245
1138.60 0.5244
1138.70 0.5243
1138.80 0.5242
1138.90 0.5241
1139.00 0.524
1139.10 0.5239
1139.20 0.5238
1139.30 0.5237
1139.40 0.5236
1139.50 0.5235
1139.60 0.5234
1139.70 0.5233
1139.80 0.5232
1139.90 0.5232
1140.00 0.5231
1140.10 0.523
1140.20 0.5229
1140.30 0.5228
1140.40 0.5227
1140.50 0.5226
1140.60 0.5225
1140.70 0.5224
1140.80 0.5223
1140.90 0.5222
1141.00 0.5221
1141.10 0.522
1141.20 0.5219
1141.30 0.5218
1141.40 0.5217
1141.50 0.5216
1141.60 0.5215
1141.70 0.5214
1141.80 0.5213
1141.90 0.5212
1142.00 0.5211
1142.10 0.521
1142.20 0.5209
1142.30 0.5208
1142.40 0.5207
1142.50 0.5206
1142.60 0.5205
1142.70 0.5204
1142.80 0.5203
1142.90 0.5202
1143.00 0.5201
1143.10 0.52
1143.20 0.5199
1143.30 0.5198
1143.40 0.5197
1143.50 0.5196
1143.60 0.5195
1143.70 0.5194
1143.80 0.5193
1143.90 0.5192
1144.00 0.5191
1144.10 0.519
1144.20 0.5189
1144.30 0.5188
1144.40 0.5187
1144.50 0.5186
1144.60 0.5185
1144.70 0.5184
1144.80 0.5183
1144.90 0.5182
1145.00 0.5181
1145.10 0.518
1145.20 0.5179
1145.30 0.5178
1145.40 0.5177
1145.50 0.5176
1145.60 0.5175
1145.70 0.5174
1145.80 0.5173
1145.90 0.5172
1146.00 0.5171
1146.10 0.517
1146.20 0.5169
1146.30 0.5168
1146.40 0.5167
1146.50 0.5166
1146.60 0.5165
1146.70 0.5164
1146.80 0.5163
1146.90 0.5162
1147.00 0.5161
1147.10 0.516
1147.20 0.5159
1147.30 0.5158
1147.40 0.5157
1147.50 0.5156
1147.60 0.5155
1147.70 0.5154
1147.80 0.5153
1147.90 0.5152
1148.00 0.5151
1148.10 0.5151
1148.20 0.515
1148.30 0.5149
1148.40 0.5148
1148.50 0.5147
1148.60 0.5146
1148.70 0.5145
1148.80 0.5144
1148.90 0.5143
1149.00 0.5142
1149.10 0.5141
1149.20 0.514
1149.30 0.5139
1149.40 0.5138
1149.50 0.5137
1149.60 0.5136
1149.70 0.5135
1149.80 0.5134
1149.90 0.5133
1150.00 0.5132
1150.10 0.5131
1150.20 0.513
1150.30 0.5129
1150.40 0.5128
1150.50 0.5127
1150.60 0.5126
1150.70 0.5125
1150.80 0.5124
1150.90 0.5123
1151.00 0.5122
1151.10 0.5121
1151.20 0.512
1151.30 0.5119
1151.40 0.5118
1151.50 0.5117
1151.60 0.5116
1151.70 0.5115
1151.80 0.5114
1151.90 0.5113
1152.00 0.5112
1152.10 0.5111
1152.20 0.511
1152.30 0.5109
1152.40 0.5108
1152.50 0.5107
1152.60 0.5106
1152.70 0.5105
1152.80 0.5104
1152.90 0.5103
1153.00 0.5102
1153.10 0.5101
1153.20 0.51
1153.30 0.5099
1153.40 0.5098
1153.50 0.5097
1153.60 0.5096
1153.70 0.5095
1153.80 0.5094
1153.90 0.5093
1154.00 0.5092
1154.10 0.5091
1154.20 0.509
1154.30 0.5089
1154.40 0.5088
1154.50 0.5087
1154.60 0.5086
1154.70 0.5085
1154.80 0.5084
1154.90 0.5083
1155.00 0.5082
1155.10 0.5081
1155.20 0.508
1155.30 0.5079
1155.40 0.5078
1155.50 0.5077
1155.60 0.5076
1155.70 0.5075
1155.80 0.5074
1155.90 0.5073
1156.00 0.5072
1156.10 0.5071
1156.20 0.507
1156.30 0.5069
1156.40 0.5068
1156.50 0.5067
1156.60 0.5066
1156.70 0.5065
1156.80 0.5064
1156.90 0.5063
1157.00 0.5062
1157.10 0.5061
1157.20 0.506
1157.30 0.5059
1157.40 0.5058
1157.50 0.5057
1157.60 0.5056
1157.70 0.5055
1157.80 0.5054
1157.90 0.5053
1158.00 0.5052
1158.10 0.5051
1158.20 0.505
1158.30 0.5049
1158.40 0.5048
1158.50 0.5047
1158.60 0.5046
1158.70 0.5045
1158.80 0.5044
1158.90 0.5043
1159.00 0.5042
1159.10 0.5041
1159.20 0.504
1159.30 0.5039
1159.40 0.5038
1159.50 0.5037
1159.60 0.5036
1159.70 0.5035
1159.80 0.5034
1159.90 0.5033
1160.00 0.5032
1160.10 0.5031
1160.20 0.503
1160.30 0.5029
1160.40 0.5029
1160.50 0.5028
1160.60 0.5027
1160.70 0.5026
1160.80 0.5025
1160.90 0.5024
1161.00 0.5023
1161.10 0.5022
1161.20 0.5021
1161.30 0.502
1161.40 0.5019
1161.50 0.5018
1161.60 0.5017
1161.70 0.5016
1161.80 0.5015
1161.90 0.5014
1162.00 0.5013
1162.10 0.5012
1162.20 0.5011
1162.30 0.501
1162.40 0.5009
1162.50 0.5008
1162.60 0.5007
1162.70 0.5006
1162.80 0.5005
1162.90 0.5004
1163.00 0.5003
1163.10 0.5002
1163.20 0.5001
1163.30 0.5
1163.40 0.4999
1163.50 0.4998
1163.60 0.4997
1163.70 0.4996
1163.80 0.4995
1163.90 0.4994
1164.00 0.4993
1164.10 0.4992
1164.20 0.4991
1164.30 0.499
1164.40 0.4989
1164.50 0.4988
1164.60 0.4987
1164.70 0.4986
1164.80 0.4985
1164.90 0.4984
1165.00 0.4983
1165.10 0.4982
1165.20 0.4981
1165.30 0.498
1165.40 0.4979
1165.50 0.4978
1165.60 0.4977
1165.70 0.4976
1165.80 0.4975
1165.90 0.4974
1166.00 0.4973
1166.10 0.4972
1166.20 0.4971
1166.30 0.497
1166.40 0.4969
1166.50 0.4968
1166.60 0.4967
1166.70 0.4966
1166.80 0.4965
1166.90 0.4964
1167.00 0.4963
1167.10 0.4962
1167.20 0.4961
1167.30 0.496
1167.40 0.4959
1167.50 0.4958
1167.60 0.4957
1167.70 0.4956
1167.80 0.4955
1167.90 0.4954
1168.00 0.4953
1168.10 0.4952
1168.20 0.4951
1168.30 0.495
1168.40 0.4949
1168.50 0.4948
1168.60 0.4947
1168.70 0.4946
1168.80 0.4945
1168.90 0.4944
1169.00 0.4943
1169.10 0.4942
1169.20 0.4941
1169.30 0.494
1169.40 0.4939
1169.50 0.4938
1169.60 0.4937
1169.70 0.4936
1169.80 0.4935
1169.90 0.4934
1170.00 0.4933
1170.10 0.4932
1170.20 0.4931
1170.30 0.493
1170.40 0.4929
1170.50 0.4928
1170.60 0.4927
1170.70 0.4926
1170.80 0.4925
1170.90 0.4924
1171.00 0.4923
1171.10 0.4922
1171.20 0.4921
1171.30 0.492
1171.40 0.4919
1171.50 0.4918
1171.60 0.4917
1171.70 0.4916
1171.80 0.4915
1171.90 0.4914
1172.00 0.4913
1172.10 0.4912
1172.20 0.4911
1172.30 0.491
1172.40 0.4909
1172.50 0.4908
1172.60 0.4907
1172.70 0.4906
1172.80 0.4905
1172.90 0.4904
1173.00 0.4903
1173.10 0.4902
1173.20 0.4901
1173.30 0.49
1173.40 0.4899
1173.50 0.4898
1173.60 0.4897
1173.70 0.4896
1173.80 0.4895
1173.90 0.4894
1174.00 0.4893
1174.10 0.4892
1174.20 0.4891
1174.30 0.489
1174.40 0.4889
1174.50 0.4888
1174.60 0.4887
1174.70 0.4886
1174.80 0.4885
1174.90 0.4884
1175.00 0.4883
1175.10 0.4882
1175.20 0.4881
1175.30 0.488
1175.40 0.4879
1175.50 0.4878
1175.60 0.4877
1175.70 0.4876
1175.80 0.4875
1175.90 0.4874
1176.00 0.4873
1176.10 0.4872
1176.20 0.4871
1176.30 0.487
1176.40 0.4869
1176.50 0.4868
1176.60 0.4867
1176.70 0.4866
1176.80 0.4865
1176.90 0.4864
1177.00 0.4863
1177.10 0.4862
1177.20 0.4861
1177.30 0.486
1177.40 0.4859
1177.50 0.4858
1177.60 0.4857
1177.70 0.4856
1177.80 0.4855
1177.90 0.4854
1178.00 0.4853
1178.10 0.4852
1178.20 0.4851
1178.30 0.485
1178.40 0.4849
1178.50 0.4848
1178.60 0.4847
1178.70 0.4846
1178.80 0.4845
1178.90 0.4844
1179.00 0.4843
1179.10 0.4842
1179.20 0.4841
1179.30 0.484
1179.40 0.4839
1179.50 0.4838
1179.60 0.4837
1179.70 0.4836
1179.80 0.4835
1179.90 0.4834
1180.00 0.4833
1180.10 0.4832
1180.20 0.4831
1180.30 0.483
1180.40 0.4829
1180.50 0.4828
1180.60 0.4827
1180.70 0.4826
1180.80 0.4825
1180.90 0.4824
1181.00 0.4823
1181.10 0.4822
1181.20 0.4821
1181.30 0.482
1181.40 0.4819
1181.50 0.4818
1181.60 0.4817
1181.70 0.4816
1181.80 0.4815
1181.90 0.4814
1182.00 0.4813
1182.10 0.4812
1182.20 0.4811
1182.30 0.481
1182.40 0.4809
1182.50 0.4808
1182.60 0.4807
1182.70 0.4806
1182.80 0.4805
1182.90 0.4804
1183.00 0.4803
1183.10 0.4802
1183.20 0.4801
1183.30 0.48
1183.40 0.4799
1183.50 0.4798
1183.60 0.4797
1183.70 0.4796
1183.80 0.4795
1183.90 0.4794
1184.00 0.4793
1184.10 0.4792
1184.20 0.4791
1184.30 0.479
1184.40 0.4789
1184.50 0.4788
1184.60 0.4787
1184.70 0.4786
1184.80 0.4785
1184.90 0.4784
1185.00 0.4783
1185.10 0.4782
1185.20 0.4781
1185.30 0.478
1185.40 0.4779
1185.50 0.4778
1185.60 0.4777
1185.70 0.4776
1185.80 0.4775
1185.90 0.4774
1186.00 0.4773
1186.10 0.4772
1186.20 0.4771
1186.30 0.477
1186.40 0.4769
1186.50 0.4768
1186.60 0.4767
1186.70 0.4766
1186.80 0.4765
1186.90 0.4764
1187.00 0.4763
1187.10 0.4762
1187.20 0.4761
1187.30 0.476
1187.40 0.4759
1187.50 0.4758
1187.60 0.4756
1187.70 0.4755
1187.80 0.4754
1187.90 0.4753
1188.00 0.4752
1188.10 0.4751
1188.20 0.475
1188.30 0.4749
1188.40 0.4748
1188.50 0.4747
1188.60 0.4746
1188.70 0.4745
1188.80 0.4744
1188.90 0.4743
1189.00 0.4742
1189.10 0.4741
1189.20 0.474
1189.30 0.4739
1189.40 0.4738
1189.50 0.4737
1189.60 0.4736
1189.70 0.4735
1189.80 0.4734
1189.90 0.4733
1190.00 0.4732
1190.10 0.4731
1190.20 0.473
1190.30 0.4729
1190.40 0.4728
1190.50 0.4727
1190.60 0.4726
1190.70 0.4725
1190.80 0.4724
1190.90 0.4723
1191.00 0.4722
1191.10 0.4721
1191.20 0.472
1191.30 0.4719
1191.40 0.4718
1191.50 0.4717
1191.60 0.4716
1191.70 0.4715
1191.80 0.4714
1191.90 0.4713
1192.00 0.4712
1192.10 0.4711
1192.20 0.471
1192.30 0.4709
1192.40 0.4708
1192.50 0.4707
1192.60 0.4706
1192.70 0.4705
1192.80 0.4704
1192.90 0.4703
1193.00 0.4702
1193.10 0.4701
1193.20 0.47
1193.30 0.4699
1193.40 0.4698
1193.50 0.4697
1193.60 0.4696
1193.70 0.4695
1193.80 0.4694
1193.90 0.4693
1194.00 0.4692
1194.10 0.4691
1194.20 0.469
1194.30 0.4689
1194.40 0.4688
1194.50 0.4687
1194.60 0.4686
1194.70 0.4685
1194.80 0.4684
1194.90 0.4683
1195.00 0.4682
1195.10 0.4681
1195.20 0.468
1195.30 0.4679
1195.40 0.4678
1195.50 0.4677
1195.60 0.4676
1195.70 0.4675
1195.80 0.4674
1195.90 0.4673
1196.00 0.4672
1196.10 0.4671
1196.20 0.467
1196.30 0.4669
1196.40 0.4668
1196.50 0.4667
1196.60 0.4666
1196.70 0.4665
1196.80 0.4664
1196.90 0.4663
1197.00 0.4662
1197.10 0.4661
1197.20 0.466
1197.30 0.4659
1197.40 0.4658
1197.50 0.4657
1197.60 0.4656
1197.70 0.4655
1197.80 0.4654
1197.90 0.4653
1198.00 0.4652
1198.10 0.4651
1198.20 0.465
1198.30 0.4649
1198.40 0.4648
1198.50 0.4647
1198.60 0.4646
1198.70 0.4645
1198.80 0.4644
1198.90 0.4643
1199.00 0.4642
1199.10 0.4641
1199.20 0.464
1199.30 0.4639
1199.40 0.4638
1199.50 0.4637
1199.60 0.4636
1199.70 0.4635
1199.80 0.4634
1199.90 0.4633
1200.00 0
