# Version 2.1 - nm, norm@500 to 1, cut digits, bergeron_4500_90.dat_4500
# Wavelength(nm)  Flambda(ergs/cm^s/s/nm)
300.00 0.2735
300.10 0.2739
300.20 0.2744
300.30 0.2748
300.40 0.2752
300.50 0.2756
300.60 0.276
300.70 0.2764
300.80 0.2768
300.90 0.2772
301.00 0.2776
301.10 0.278
301.20 0.2784
301.30 0.2788
301.40 0.2792
301.50 0.2796
301.60 0.28
301.70 0.2804
301.80 0.2808
301.90 0.2812
302.00 0.2816
302.10 0.282
302.20 0.2825
302.30 0.2829
302.40 0.2833
302.50 0.2837
302.60 0.2841
302.70 0.2845
302.80 0.2849
302.90 0.2853
303.00 0.2857
303.10 0.2861
303.20 0.2866
303.30 0.287
303.40 0.2874
303.50 0.2878
303.60 0.2882
303.70 0.2886
303.80 0.289
303.90 0.2894
304.00 0.2898
304.10 0.2902
304.20 0.2906
304.30 0.291
304.40 0.2915
304.50 0.2919
304.60 0.2923
304.70 0.2927
304.80 0.2931
304.90 0.2935
305.00 0.2939
305.10 0.2944
305.20 0.2948
305.30 0.2952
305.40 0.2956
305.50 0.296
305.60 0.2964
305.70 0.2968
305.80 0.2972
305.90 0.2976
306.00 0.2981
306.10 0.2985
306.20 0.2989
306.30 0.2993
306.40 0.2997
306.50 0.3001
306.60 0.3006
306.70 0.301
306.80 0.3014
306.90 0.3018
307.00 0.3022
307.10 0.3026
307.20 0.3031
307.30 0.3035
307.40 0.3039
307.50 0.3043
307.60 0.3047
307.70 0.3051
307.80 0.3055
307.90 0.3059
308.00 0.3064
308.10 0.3068
308.20 0.3072
308.30 0.3076
308.40 0.308
308.50 0.3085
308.60 0.3089
308.70 0.3093
308.80 0.3097
308.90 0.3102
309.00 0.3106
309.10 0.311
309.20 0.3114
309.30 0.3118
309.40 0.3122
309.50 0.3127
309.60 0.3131
309.70 0.3135
309.80 0.3139
309.90 0.3143
310.00 0.3147
310.10 0.3152
310.20 0.3156
310.30 0.316
310.40 0.3164
310.50 0.3169
310.60 0.3173
310.70 0.3177
310.80 0.3181
310.90 0.3186
311.00 0.319
311.10 0.3194
311.20 0.3198
311.30 0.3202
311.40 0.3207
311.50 0.3211
311.60 0.3215
311.70 0.3219
311.80 0.3223
311.90 0.3228
312.00 0.3232
312.10 0.3236
312.20 0.324
312.30 0.3244
312.40 0.3249
312.50 0.3253
312.60 0.3257
312.70 0.3262
312.80 0.3266
312.90 0.327
313.00 0.3274
313.10 0.3279
313.20 0.3283
313.30 0.3287
313.40 0.3291
313.50 0.3296
313.60 0.33
313.70 0.3304
313.80 0.3308
313.90 0.3312
314.00 0.3317
314.10 0.3321
314.20 0.3325
314.30 0.333
314.40 0.3334
314.50 0.3338
314.60 0.3342
314.70 0.3347
314.80 0.3351
314.90 0.3355
315.00 0.336
315.10 0.3364
315.20 0.3368
315.30 0.3372
315.40 0.3377
315.50 0.3381
315.60 0.3385
315.70 0.3389
315.80 0.3394
315.90 0.3398
316.00 0.3402
316.10 0.3406
316.20 0.3411
316.30 0.3415
316.40 0.3419
316.50 0.3424
316.60 0.3428
316.70 0.3432
316.80 0.3437
316.90 0.3441
317.00 0.3445
317.10 0.345
317.20 0.3454
317.30 0.3458
317.40 0.3463
317.50 0.3467
317.60 0.3471
317.70 0.3475
317.80 0.348
317.90 0.3484
318.00 0.3488
318.10 0.3492
318.20 0.3497
318.30 0.3501
318.40 0.3506
318.50 0.351
318.60 0.3514
318.70 0.3519
318.80 0.3523
318.90 0.3527
319.00 0.3532
319.10 0.3536
319.20 0.354
319.30 0.3545
319.40 0.3549
319.50 0.3553
319.60 0.3557
319.70 0.3562
319.80 0.3566
319.90 0.357
320.00 0.3575
320.10 0.3579
320.20 0.3583
320.30 0.3588
320.40 0.3592
320.50 0.3596
320.60 0.3601
320.70 0.3605
320.80 0.361
320.90 0.3614
321.00 0.3618
321.10 0.3623
321.20 0.3627
321.30 0.3631
321.40 0.3636
321.50 0.364
321.60 0.3644
321.70 0.3649
321.80 0.3653
321.90 0.3657
322.00 0.3662
322.10 0.3666
322.20 0.367
322.30 0.3675
322.40 0.3679
322.50 0.3684
322.60 0.3688
322.70 0.3692
322.80 0.3697
322.90 0.3701
323.00 0.3705
323.10 0.371
323.20 0.3714
323.30 0.3718
323.40 0.3723
323.50 0.3727
323.60 0.3732
323.70 0.3736
323.80 0.374
323.90 0.3744
324.00 0.3749
324.10 0.3753
324.20 0.3758
324.30 0.3762
324.40 0.3767
324.50 0.3771
324.60 0.3775
324.70 0.378
324.80 0.3784
324.90 0.3789
325.00 0.3793
325.10 0.3797
325.20 0.3802
325.30 0.3806
325.40 0.381
325.50 0.3815
325.60 0.3819
325.70 0.3823
325.80 0.3828
325.90 0.3832
326.00 0.3837
326.10 0.3841
326.20 0.3845
326.30 0.385
326.40 0.3854
326.50 0.3859
326.60 0.3863
326.70 0.3868
326.80 0.3872
326.90 0.3876
327.00 0.3881
327.10 0.3885
327.20 0.389
327.30 0.3894
327.40 0.3898
327.50 0.3903
327.60 0.3907
327.70 0.3911
327.80 0.3916
327.90 0.392
328.00 0.3925
328.10 0.3929
328.20 0.3933
328.30 0.3938
328.40 0.3942
328.50 0.3947
328.60 0.3951
328.70 0.3956
328.80 0.396
328.90 0.3964
329.00 0.3969
329.10 0.3973
329.20 0.3978
329.30 0.3982
329.40 0.3986
329.50 0.3991
329.60 0.3995
329.70 0.4
329.80 0.4004
329.90 0.4008
330.00 0.4013
330.10 0.4017
330.20 0.4022
330.30 0.4026
330.40 0.4031
330.50 0.4035
330.60 0.404
330.70 0.4044
330.80 0.4048
330.90 0.4053
331.00 0.4057
331.10 0.4062
331.20 0.4066
331.30 0.4071
331.40 0.4075
331.50 0.4079
331.60 0.4084
331.70 0.4088
331.80 0.4092
331.90 0.4097
332.00 0.4101
332.10 0.4106
332.20 0.411
332.30 0.4115
332.40 0.4119
332.50 0.4124
332.60 0.4128
332.70 0.4133
332.80 0.4137
332.90 0.4141
333.00 0.4146
333.10 0.415
333.20 0.4155
333.30 0.4159
333.40 0.4164
333.50 0.4168
333.60 0.4172
333.70 0.4177
333.80 0.4181
333.90 0.4186
334.00 0.419
334.10 0.4194
334.20 0.4199
334.30 0.4203
334.40 0.4208
334.50 0.4212
334.60 0.4217
334.70 0.4221
334.80 0.4226
334.90 0.423
335.00 0.4235
335.10 0.4239
335.20 0.4244
335.30 0.4248
335.40 0.4252
335.50 0.4257
335.60 0.4261
335.70 0.4266
335.80 0.427
335.90 0.4275
336.00 0.4279
336.10 0.4283
336.20 0.4288
336.30 0.4292
336.40 0.4297
336.50 0.4301
336.60 0.4306
336.70 0.431
336.80 0.4315
336.90 0.4319
337.00 0.4324
337.10 0.4328
337.20 0.4333
337.30 0.4337
337.40 0.4341
337.50 0.4346
337.60 0.435
337.70 0.4355
337.80 0.4359
337.90 0.4364
338.00 0.4368
338.10 0.4372
338.20 0.4377
338.30 0.4381
338.40 0.4386
338.50 0.439
338.60 0.4395
338.70 0.4399
338.80 0.4404
338.90 0.4408
339.00 0.4413
339.10 0.4417
339.20 0.4422
339.30 0.4426
339.40 0.4431
339.50 0.4435
339.60 0.444
339.70 0.4444
339.80 0.4448
339.90 0.4453
340.00 0.4457
340.10 0.4462
340.20 0.4466
340.30 0.4471
340.40 0.4475
340.50 0.448
340.60 0.4484
340.70 0.4489
340.80 0.4493
340.90 0.4498
341.00 0.4502
341.10 0.4507
341.20 0.4511
341.30 0.4515
341.40 0.452
341.50 0.4524
341.60 0.4529
341.70 0.4533
341.80 0.4538
341.90 0.4542
342.00 0.4546
342.10 0.4551
342.20 0.4556
342.30 0.456
342.40 0.4565
342.50 0.4569
342.60 0.4574
342.70 0.4578
342.80 0.4583
342.90 0.4587
343.00 0.4591
343.10 0.4596
343.20 0.46
343.30 0.4605
343.40 0.4609
343.50 0.4614
343.60 0.4618
343.70 0.4623
343.80 0.4627
343.90 0.4631
344.00 0.4636
344.10 0.464
344.20 0.4645
344.30 0.4649
344.40 0.4654
344.50 0.4658
344.60 0.4663
344.70 0.4667
344.80 0.4672
344.90 0.4676
345.00 0.4681
345.10 0.4685
345.20 0.469
345.30 0.4694
345.40 0.4699
345.50 0.4703
345.60 0.4708
345.70 0.4712
345.80 0.4716
345.90 0.4721
346.00 0.4725
346.10 0.473
346.20 0.4734
346.30 0.4739
346.40 0.4743
346.50 0.4748
346.60 0.4752
346.70 0.4757
346.80 0.4761
346.90 0.4766
347.00 0.477
347.10 0.4775
347.20 0.4779
347.30 0.4784
347.40 0.4788
347.50 0.4792
347.60 0.4797
347.70 0.4801
347.80 0.4806
347.90 0.481
348.00 0.4815
348.10 0.4819
348.20 0.4824
348.30 0.4828
348.40 0.4833
348.50 0.4837
348.60 0.4842
348.70 0.4846
348.80 0.4851
348.90 0.4855
349.00 0.486
349.10 0.4864
349.20 0.4868
349.30 0.4873
349.40 0.4877
349.50 0.4882
349.60 0.4886
349.70 0.4891
349.80 0.4895
349.90 0.49
350.00 0.4904
350.10 0.4908
350.20 0.4913
350.30 0.4917
350.40 0.4922
350.50 0.4926
350.60 0.4931
350.70 0.4935
350.80 0.494
350.90 0.4944
351.00 0.4949
351.10 0.4953
351.20 0.4958
351.30 0.4962
351.40 0.4967
351.50 0.4971
351.60 0.4975
351.70 0.498
351.80 0.4984
351.90 0.4989
352.00 0.4993
352.10 0.4998
352.20 0.5002
352.30 0.5007
352.40 0.5011
352.50 0.5016
352.60 0.502
352.70 0.5025
352.80 0.5029
352.90 0.5034
353.00 0.5038
353.10 0.5042
353.20 0.5047
353.30 0.5051
353.40 0.5056
353.50 0.506
353.60 0.5065
353.70 0.5069
353.80 0.5073
353.90 0.5078
354.00 0.5082
354.10 0.5087
354.20 0.5091
354.30 0.5096
354.40 0.51
354.50 0.5105
354.60 0.5109
354.70 0.5114
354.80 0.5118
354.90 0.5123
355.00 0.5127
355.10 0.5132
355.20 0.5136
355.30 0.514
355.40 0.5145
355.50 0.5149
355.60 0.5154
355.70 0.5158
355.80 0.5163
355.90 0.5167
356.00 0.5171
356.10 0.5176
356.20 0.518
356.30 0.5185
356.40 0.5189
356.50 0.5194
356.60 0.5198
356.70 0.5203
356.80 0.5207
356.90 0.5212
357.00 0.5216
357.10 0.522
357.20 0.5225
357.30 0.5229
357.40 0.5234
357.50 0.5238
357.60 0.5243
357.70 0.5247
357.80 0.5251
357.90 0.5256
358.00 0.526
358.10 0.5265
358.20 0.5269
358.30 0.5274
358.40 0.5278
358.50 0.5283
358.60 0.5287
358.70 0.5291
358.80 0.5296
358.90 0.53
359.00 0.5305
359.10 0.5309
359.20 0.5314
359.30 0.5318
359.40 0.5322
359.50 0.5327
359.60 0.5331
359.70 0.5336
359.80 0.534
359.90 0.5344
360.00 0.5349
360.10 0.5353
360.20 0.5358
360.30 0.5362
360.40 0.5367
360.50 0.5371
360.60 0.5376
360.70 0.538
360.80 0.5384
360.90 0.5389
361.00 0.5393
361.10 0.5398
361.20 0.5402
361.30 0.5407
361.40 0.5411
361.50 0.5415
361.60 0.542
361.70 0.5424
361.80 0.5429
361.90 0.5433
362.00 0.5437
362.10 0.5442
362.20 0.5446
362.30 0.5451
362.40 0.5455
362.50 0.5459
362.60 0.5464
362.70 0.5468
362.80 0.5473
362.90 0.5477
363.00 0.5481
363.10 0.5486
363.20 0.549
363.30 0.5495
363.40 0.5499
363.50 0.5504
363.60 0.5508
363.70 0.5512
363.80 0.5517
363.90 0.5521
364.00 0.5526
364.10 0.553
364.20 0.5534
364.30 0.5539
364.40 0.5543
364.50 0.5547
364.60 0.5552
364.70 0.5556
364.80 0.5561
364.90 0.5565
365.00 0.557
365.10 0.5574
365.20 0.5578
365.30 0.5583
365.40 0.5587
365.50 0.5592
365.60 0.5596
365.70 0.56
365.80 0.5605
365.90 0.5609
366.00 0.5613
366.10 0.5618
366.20 0.5622
366.30 0.5627
366.40 0.5631
366.50 0.5636
366.60 0.564
366.70 0.5644
366.80 0.5649
366.90 0.5653
367.00 0.5657
367.10 0.5662
367.20 0.5666
367.30 0.5671
367.40 0.5675
367.50 0.5679
367.60 0.5684
367.70 0.5688
367.80 0.5692
367.90 0.5697
368.00 0.5701
368.10 0.5705
368.20 0.571
368.30 0.5714
368.40 0.5719
368.50 0.5723
368.60 0.5727
368.70 0.5732
368.80 0.5736
368.90 0.5741
369.00 0.5745
369.10 0.5749
369.20 0.5754
369.30 0.5758
369.40 0.5762
369.50 0.5767
369.60 0.5771
369.70 0.5775
369.80 0.578
369.90 0.5784
370.00 0.5788
370.10 0.5793
370.20 0.5797
370.30 0.5802
370.40 0.5806
370.50 0.581
370.60 0.5815
370.70 0.5819
370.80 0.5823
370.90 0.5828
371.00 0.5832
371.10 0.5836
371.20 0.5841
371.30 0.5845
371.40 0.5849
371.50 0.5854
371.60 0.5858
371.70 0.5862
371.80 0.5867
371.90 0.5871
372.00 0.5875
372.10 0.588
372.20 0.5884
372.30 0.5888
372.40 0.5893
372.50 0.5897
372.60 0.5902
372.70 0.5906
372.80 0.591
372.90 0.5915
373.00 0.5919
373.10 0.5923
373.20 0.5928
373.30 0.5932
373.40 0.5936
373.50 0.594
373.60 0.5945
373.70 0.5949
373.80 0.5953
373.90 0.5958
374.00 0.5962
374.10 0.5966
374.20 0.5971
374.30 0.5975
374.40 0.5979
374.50 0.5984
374.60 0.5988
374.70 0.5992
374.80 0.5997
374.90 0.6001
375.00 0.6005
375.10 0.601
375.20 0.6014
375.30 0.6018
375.40 0.6023
375.50 0.6027
375.60 0.6031
375.70 0.6035
375.80 0.604
375.90 0.6044
376.00 0.6048
376.10 0.6052
376.20 0.6057
376.30 0.6061
376.40 0.6065
376.50 0.607
376.60 0.6074
376.70 0.6078
376.80 0.6083
376.90 0.6087
377.00 0.6091
377.10 0.6095
377.20 0.61
377.30 0.6104
377.40 0.6108
377.50 0.6113
377.60 0.6117
377.70 0.6121
377.80 0.6125
377.90 0.613
378.00 0.6134
378.10 0.6138
378.20 0.6142
378.30 0.6147
378.40 0.6151
378.50 0.6155
378.60 0.616
378.70 0.6164
378.80 0.6168
378.90 0.6172
379.00 0.6177
379.10 0.6181
379.20 0.6185
379.30 0.6189
379.40 0.6194
379.50 0.6198
379.60 0.6202
379.70 0.6207
379.80 0.6211
379.90 0.6215
380.00 0.6219
380.10 0.6224
380.20 0.6228
380.30 0.6232
380.40 0.6236
380.50 0.6241
380.60 0.6245
380.70 0.6249
380.80 0.6253
380.90 0.6257
381.00 0.6262
381.10 0.6266
381.20 0.627
381.30 0.6274
381.40 0.6279
381.50 0.6283
381.60 0.6287
381.70 0.6291
381.80 0.6296
381.90 0.63
382.00 0.6304
382.10 0.6308
382.20 0.6312
382.30 0.6317
382.40 0.6321
382.50 0.6325
382.60 0.6329
382.70 0.6334
382.80 0.6338
382.90 0.6342
383.00 0.6346
383.10 0.6351
383.20 0.6355
383.30 0.6359
383.40 0.6363
383.50 0.6367
383.60 0.6372
383.70 0.6376
383.80 0.638
383.90 0.6384
384.00 0.6388
384.10 0.6393
384.20 0.6397
384.30 0.6401
384.40 0.6405
384.50 0.6409
384.60 0.6414
384.70 0.6418
384.80 0.6422
384.90 0.6426
385.00 0.643
385.10 0.6435
385.20 0.6439
385.30 0.6443
385.40 0.6447
385.50 0.6451
385.60 0.6455
385.70 0.646
385.80 0.6464
385.90 0.6468
386.00 0.6472
386.10 0.6476
386.20 0.6481
386.30 0.6485
386.40 0.6489
386.50 0.6493
386.60 0.6497
386.70 0.6501
386.80 0.6506
386.90 0.651
387.00 0.6514
387.10 0.6518
387.20 0.6522
387.30 0.6526
387.40 0.6531
387.50 0.6535
387.60 0.6539
387.70 0.6543
387.80 0.6547
387.90 0.6551
388.00 0.6555
388.10 0.656
388.20 0.6564
388.30 0.6568
388.40 0.6572
388.50 0.6576
388.60 0.658
388.70 0.6585
388.80 0.6589
388.90 0.6593
389.00 0.6597
389.10 0.6601
389.20 0.6605
389.30 0.6609
389.40 0.6614
389.50 0.6618
389.60 0.6622
389.70 0.6626
389.80 0.663
389.90 0.6634
390.00 0.6638
390.10 0.6642
390.20 0.6647
390.30 0.6651
390.40 0.6655
390.50 0.6659
390.60 0.6663
390.70 0.6667
390.80 0.6671
390.90 0.6675
391.00 0.6679
391.10 0.6684
391.20 0.6688
391.30 0.6692
391.40 0.6696
391.50 0.67
391.60 0.6704
391.70 0.6708
391.80 0.6712
391.90 0.6716
392.00 0.672
392.10 0.6724
392.20 0.6729
392.30 0.6733
392.40 0.6737
392.50 0.6741
392.60 0.6745
392.70 0.6749
392.80 0.6753
392.90 0.6757
393.00 0.6761
393.10 0.6765
393.20 0.6769
393.30 0.6774
393.40 0.6778
393.50 0.6782
393.60 0.6786
393.70 0.679
393.80 0.6794
393.90 0.6798
394.00 0.6802
394.10 0.6806
394.20 0.681
394.30 0.6814
394.40 0.6818
394.50 0.6822
394.60 0.6826
394.70 0.683
394.80 0.6834
394.90 0.6838
395.00 0.6843
395.10 0.6847
395.20 0.6851
395.30 0.6855
395.40 0.6859
395.50 0.6863
395.60 0.6867
395.70 0.6871
395.80 0.6875
395.90 0.6879
396.00 0.6883
396.10 0.6887
396.20 0.6891
396.30 0.6895
396.40 0.6899
396.50 0.6903
396.60 0.6907
396.70 0.6911
396.80 0.6915
396.90 0.6919
397.00 0.6923
397.10 0.6927
397.20 0.6931
397.30 0.6935
397.40 0.6939
397.50 0.6943
397.60 0.6947
397.70 0.6951
397.80 0.6955
397.90 0.6959
398.00 0.6963
398.10 0.6967
398.20 0.6971
398.30 0.6975
398.40 0.6979
398.50 0.6983
398.60 0.6987
398.70 0.6991
398.80 0.6995
398.90 0.6999
399.00 0.7003
399.10 0.7007
399.20 0.7011
399.30 0.7015
399.40 0.7019
399.50 0.7023
399.60 0.7027
399.70 0.7031
399.80 0.7035
399.90 0.7039
400.00 0.7043
400.10 0.7047
400.20 0.7051
400.30 0.7055
400.40 0.7059
400.50 0.7063
400.60 0.7067
400.70 0.7071
400.80 0.7075
400.90 0.7079
401.00 0.7083
401.10 0.7087
401.20 0.7091
401.30 0.7095
401.40 0.7098
401.50 0.7102
401.60 0.7106
401.70 0.711
401.80 0.7114
401.90 0.7118
402.00 0.7122
402.10 0.7126
402.20 0.713
402.30 0.7134
402.40 0.7138
402.50 0.7142
402.60 0.7146
402.70 0.715
402.80 0.7153
402.90 0.7157
403.00 0.7161
403.10 0.7165
403.20 0.7169
403.30 0.7173
403.40 0.7177
403.50 0.7181
403.60 0.7185
403.70 0.7189
403.80 0.7193
403.90 0.7197
404.00 0.72
404.10 0.7204
404.20 0.7208
404.30 0.7212
404.40 0.7216
404.50 0.722
404.60 0.7224
404.70 0.7228
404.80 0.7232
404.90 0.7235
405.00 0.7239
405.10 0.7243
405.20 0.7247
405.30 0.7251
405.40 0.7255
405.50 0.7259
405.60 0.7263
405.70 0.7267
405.80 0.727
405.90 0.7274
406.00 0.7278
406.10 0.7282
406.20 0.7286
406.30 0.729
406.40 0.7294
406.50 0.7297
406.60 0.7301
406.70 0.7305
406.80 0.7309
406.90 0.7313
407.00 0.7317
407.10 0.7321
407.20 0.7324
407.30 0.7328
407.40 0.7332
407.50 0.7336
407.60 0.734
407.70 0.7344
407.80 0.7347
407.90 0.7351
408.00 0.7355
408.10 0.7359
408.20 0.7363
408.30 0.7367
408.40 0.737
408.50 0.7374
408.60 0.7378
408.70 0.7382
408.80 0.7386
408.90 0.739
409.00 0.7393
409.10 0.7397
409.20 0.7401
409.30 0.7405
409.40 0.7409
409.50 0.7412
409.60 0.7416
409.70 0.742
409.80 0.7424
409.90 0.7428
410.00 0.7431
410.10 0.7435
410.20 0.7439
410.30 0.7443
410.40 0.7447
410.50 0.745
410.60 0.7454
410.70 0.7458
410.80 0.7462
410.90 0.7465
411.00 0.7469
411.10 0.7473
411.20 0.7477
411.30 0.7481
411.40 0.7484
411.50 0.7488
411.60 0.7492
411.70 0.7496
411.80 0.7499
411.90 0.7503
412.00 0.7507
412.10 0.7511
412.20 0.7514
412.30 0.7518
412.40 0.7522
412.50 0.7526
412.60 0.7529
412.70 0.7533
412.80 0.7537
412.90 0.7541
413.00 0.7544
413.10 0.7548
413.20 0.7552
413.30 0.7556
413.40 0.7559
413.50 0.7563
413.60 0.7567
413.70 0.7571
413.80 0.7574
413.90 0.7578
414.00 0.7582
414.10 0.7585
414.20 0.7589
414.30 0.7593
414.40 0.7597
414.50 0.76
414.60 0.7604
414.70 0.7608
414.80 0.7611
414.90 0.7615
415.00 0.7619
415.10 0.7623
415.20 0.7626
415.30 0.763
415.40 0.7634
415.50 0.7637
415.60 0.7641
415.70 0.7645
415.80 0.7648
415.90 0.7652
416.00 0.7656
416.10 0.7659
416.20 0.7663
416.30 0.7667
416.40 0.767
416.50 0.7674
416.60 0.7678
416.70 0.7682
416.80 0.7685
416.90 0.7689
417.00 0.7692
417.10 0.7696
417.20 0.77
417.30 0.7703
417.40 0.7707
417.50 0.7711
417.60 0.7714
417.70 0.7718
417.80 0.7722
417.90 0.7725
418.00 0.7729
418.10 0.7733
418.20 0.7736
418.30 0.774
418.40 0.7744
418.50 0.7747
418.60 0.7751
418.70 0.7755
418.80 0.7758
418.90 0.7762
419.00 0.7765
419.10 0.7769
419.20 0.7773
419.30 0.7776
419.40 0.778
419.50 0.7784
419.60 0.7787
419.70 0.7791
419.80 0.7794
419.90 0.7798
420.00 0.7802
420.10 0.7805
420.20 0.7809
420.30 0.7812
420.40 0.7816
420.50 0.782
420.60 0.7823
420.70 0.7827
420.80 0.783
420.90 0.7834
421.00 0.7837
421.10 0.7841
421.20 0.7845
421.30 0.7848
421.40 0.7852
421.50 0.7855
421.60 0.7859
421.70 0.7863
421.80 0.7866
421.90 0.787
422.00 0.7873
422.10 0.7877
422.20 0.788
422.30 0.7884
422.40 0.7887
422.50 0.7891
422.60 0.7895
422.70 0.7898
422.80 0.7902
422.90 0.7905
423.00 0.7909
423.10 0.7912
423.20 0.7916
423.30 0.7919
423.40 0.7923
423.50 0.7927
423.60 0.793
423.70 0.7934
423.80 0.7937
423.90 0.7941
424.00 0.7944
424.10 0.7948
424.20 0.7951
424.30 0.7955
424.40 0.7958
424.50 0.7962
424.60 0.7965
424.70 0.7969
424.80 0.7972
424.90 0.7976
425.00 0.7979
425.10 0.7983
425.20 0.7986
425.30 0.799
425.40 0.7993
425.50 0.7997
425.60 0.8
425.70 0.8004
425.80 0.8007
425.90 0.8011
426.00 0.8014
426.10 0.8018
426.20 0.8021
426.30 0.8025
426.40 0.8028
426.50 0.8032
426.60 0.8035
426.70 0.8039
426.80 0.8042
426.90 0.8046
427.00 0.8049
427.10 0.8053
427.20 0.8056
427.30 0.8059
427.40 0.8063
427.50 0.8066
427.60 0.807
427.70 0.8073
427.80 0.8077
427.90 0.808
428.00 0.8084
428.10 0.8087
428.20 0.8091
428.30 0.8094
428.40 0.8097
428.50 0.8101
428.60 0.8104
428.70 0.8108
428.80 0.8111
428.90 0.8115
429.00 0.8118
429.10 0.8121
429.20 0.8125
429.30 0.8128
429.40 0.8132
429.50 0.8135
429.60 0.8138
429.70 0.8142
429.80 0.8145
429.90 0.8149
430.00 0.8152
430.10 0.8156
430.20 0.8159
430.30 0.8162
430.40 0.8166
430.50 0.8169
430.60 0.8172
430.70 0.8176
430.80 0.8179
430.90 0.8183
431.00 0.8186
431.10 0.8189
431.20 0.8193
431.30 0.8196
431.40 0.82
431.50 0.8203
431.60 0.8206
431.70 0.821
431.80 0.8213
431.90 0.8216
432.00 0.822
432.10 0.8223
432.20 0.8226
432.30 0.823
432.40 0.8233
432.50 0.8237
432.60 0.824
432.70 0.8243
432.80 0.8247
432.90 0.825
433.00 0.8253
433.10 0.8257
433.20 0.826
433.30 0.8263
433.40 0.8267
433.50 0.827
433.60 0.8273
433.70 0.8277
433.80 0.828
433.90 0.8283
434.00 0.8287
434.10 0.829
434.20 0.8293
434.30 0.8296
434.40 0.83
434.50 0.8303
434.60 0.8306
434.70 0.831
434.80 0.8313
434.90 0.8316
435.00 0.832
435.10 0.8323
435.20 0.8326
435.30 0.833
435.40 0.8333
435.50 0.8336
435.60 0.8339
435.70 0.8343
435.80 0.8346
435.90 0.8349
436.00 0.8353
436.10 0.8356
436.20 0.8359
436.30 0.8362
436.40 0.8365
436.50 0.8369
436.60 0.8372
436.70 0.8376
436.80 0.8379
436.90 0.8382
437.00 0.8385
437.10 0.8388
437.20 0.8392
437.30 0.8395
437.40 0.8398
437.50 0.8402
437.60 0.8405
437.70 0.8408
437.80 0.8411
437.90 0.8414
438.00 0.8417
438.10 0.8421
438.20 0.8424
438.30 0.8427
438.40 0.8431
438.50 0.8434
438.60 0.8437
438.70 0.8441
438.80 0.8443
438.90 0.8446
439.00 0.845
439.10 0.8453
439.20 0.8456
439.30 0.8459
439.40 0.8463
439.50 0.8466
439.60 0.8469
439.70 0.8473
439.80 0.8476
439.90 0.8479
440.00 0.8482
440.10 0.8485
440.20 0.8488
440.30 0.8491
440.40 0.8494
440.50 0.8498
440.60 0.8501
440.70 0.8504
440.80 0.8507
440.90 0.851
441.00 0.8514
441.10 0.8517
441.20 0.852
441.30 0.8523
441.40 0.8526
441.50 0.853
441.60 0.8533
441.70 0.8536
441.80 0.8539
441.90 0.8542
442.00 0.8546
442.10 0.8549
442.20 0.8552
442.30 0.8555
442.40 0.8558
442.50 0.8561
442.60 0.8565
442.70 0.8568
442.80 0.8571
442.90 0.8574
443.00 0.8577
443.10 0.858
443.20 0.8583
443.30 0.8586
443.40 0.859
443.50 0.8593
443.60 0.8596
443.70 0.8599
443.80 0.8602
443.90 0.8605
444.00 0.8608
444.10 0.8611
444.20 0.8614
444.30 0.8617
444.40 0.8621
444.50 0.8624
444.60 0.8627
444.70 0.863
444.80 0.8633
444.90 0.8636
445.00 0.8639
445.10 0.8642
445.20 0.8645
445.30 0.8648
445.40 0.8651
445.50 0.8654
445.60 0.8657
445.70 0.866
445.80 0.8663
445.90 0.8666
446.00 0.8669
446.10 0.8672
446.20 0.8675
446.30 0.8678
446.40 0.8682
446.50 0.8685
446.60 0.8688
446.70 0.8691
446.80 0.8694
446.90 0.8697
447.00 0.87
447.10 0.8703
447.20 0.8706
447.30 0.8709
447.40 0.8712
447.50 0.8715
447.60 0.8718
447.70 0.8721
447.80 0.8725
447.90 0.8728
448.00 0.8731
448.10 0.8734
448.20 0.8737
448.30 0.874
448.40 0.8742
448.50 0.8745
448.60 0.8748
448.70 0.8751
448.80 0.8754
448.90 0.8757
449.00 0.8761
449.10 0.8764
449.20 0.8767
449.30 0.877
449.40 0.8772
449.50 0.8775
449.60 0.8778
449.70 0.8781
449.80 0.8784
449.90 0.8787
450.00 0.8791
450.10 0.8793
450.20 0.8796
450.30 0.8799
450.40 0.8802
450.50 0.8805
450.60 0.8808
450.70 0.8811
450.80 0.8814
450.90 0.8817
451.00 0.882
451.10 0.8823
451.20 0.8826
451.30 0.8829
451.40 0.8832
451.50 0.8835
451.60 0.8838
451.70 0.8841
451.80 0.8843
451.90 0.8846
452.00 0.8849
452.10 0.8852
452.20 0.8855
452.30 0.8858
452.40 0.8861
452.50 0.8864
452.60 0.8867
452.70 0.887
452.80 0.8873
452.90 0.8876
453.00 0.8879
453.10 0.8882
453.20 0.8885
453.30 0.8887
453.40 0.889
453.50 0.8893
453.60 0.8896
453.70 0.8899
453.80 0.8902
453.90 0.8905
454.00 0.8908
454.10 0.891
454.20 0.8913
454.30 0.8916
454.40 0.8919
454.50 0.8922
454.60 0.8925
454.70 0.8928
454.80 0.8931
454.90 0.8933
455.00 0.8936
455.10 0.8939
455.20 0.8942
455.30 0.8945
455.40 0.8948
455.50 0.8951
455.60 0.8954
455.70 0.8956
455.80 0.8959
455.90 0.8962
456.00 0.8965
456.10 0.8968
456.20 0.8971
456.30 0.8974
456.40 0.8976
456.50 0.8979
456.60 0.8982
456.70 0.8985
456.80 0.8988
456.90 0.8991
457.00 0.8993
457.10 0.8996
457.20 0.8999
457.30 0.9002
457.40 0.9005
457.50 0.9007
457.60 0.901
457.70 0.9013
457.80 0.9016
457.90 0.9019
458.00 0.9021
458.10 0.9024
458.20 0.9027
458.30 0.903
458.40 0.9033
458.50 0.9035
458.60 0.9038
458.70 0.9041
458.80 0.9044
458.90 0.9046
459.00 0.9049
459.10 0.9052
459.20 0.9055
459.30 0.9057
459.40 0.906
459.50 0.9063
459.60 0.9066
459.70 0.9068
459.80 0.9071
459.90 0.9074
460.00 0.9076
460.10 0.9079
460.20 0.9082
460.30 0.9085
460.40 0.9087
460.50 0.909
460.60 0.9093
460.70 0.9096
460.80 0.9099
460.90 0.9101
461.00 0.9104
461.10 0.9107
461.20 0.911
461.30 0.9112
461.40 0.9115
461.50 0.9118
461.60 0.912
461.70 0.9123
461.80 0.9126
461.90 0.9128
462.00 0.9131
462.10 0.9134
462.20 0.9136
462.30 0.9139
462.40 0.9142
462.50 0.9145
462.60 0.9147
462.70 0.915
462.80 0.9153
462.90 0.9155
463.00 0.9158
463.10 0.9161
463.20 0.9164
463.30 0.9166
463.40 0.9169
463.50 0.9172
463.60 0.9174
463.70 0.9177
463.80 0.918
463.90 0.9182
464.00 0.9185
464.10 0.9188
464.20 0.919
464.30 0.9193
464.40 0.9196
464.50 0.9198
464.60 0.9201
464.70 0.9204
464.80 0.9206
464.90 0.9209
465.00 0.9212
465.10 0.9214
465.20 0.9217
465.30 0.9219
465.40 0.9222
465.50 0.9225
465.60 0.9227
465.70 0.923
465.80 0.9233
465.90 0.9235
466.00 0.9238
466.10 0.924
466.20 0.9243
466.30 0.9246
466.40 0.9248
466.50 0.9251
466.60 0.9253
466.70 0.9256
466.80 0.9259
466.90 0.9261
467.00 0.9264
467.10 0.9266
467.20 0.9269
467.30 0.9272
467.40 0.9274
467.50 0.9277
467.60 0.9279
467.70 0.9282
467.80 0.9285
467.90 0.9287
468.00 0.929
468.10 0.9293
468.20 0.9295
468.30 0.9298
468.40 0.93
468.50 0.9303
468.60 0.9305
468.70 0.9308
468.80 0.931
468.90 0.9313
469.00 0.9315
469.10 0.9318
469.20 0.932
469.30 0.9323
469.40 0.9325
469.50 0.9328
469.60 0.9331
469.70 0.9333
469.80 0.9336
469.90 0.9338
470.00 0.9341
470.10 0.9343
470.20 0.9346
470.30 0.9348
470.40 0.9351
470.50 0.9353
470.60 0.9356
470.70 0.9358
470.80 0.9361
470.90 0.9363
471.00 0.9366
471.10 0.9368
471.20 0.9371
471.30 0.9373
471.40 0.9376
471.50 0.9378
471.60 0.9381
471.70 0.9383
471.80 0.9386
471.90 0.9388
472.00 0.9391
472.10 0.9393
472.20 0.9396
472.30 0.9398
472.40 0.9401
472.50 0.9403
472.60 0.9406
472.70 0.9408
472.80 0.9411
472.90 0.9413
473.00 0.9416
473.10 0.9418
473.20 0.9421
473.30 0.9423
473.40 0.9426
473.50 0.9428
473.60 0.9431
473.70 0.9433
473.80 0.9435
473.90 0.9438
474.00 0.944
474.10 0.9443
474.20 0.9445
474.30 0.9448
474.40 0.945
474.50 0.9452
474.60 0.9455
474.70 0.9457
474.80 0.946
474.90 0.9462
475.00 0.9465
475.10 0.9467
475.20 0.9469
475.30 0.9472
475.40 0.9474
475.50 0.9477
475.60 0.9479
475.70 0.9481
475.80 0.9484
475.90 0.9486
476.00 0.9489
476.10 0.9491
476.20 0.9493
476.30 0.9496
476.40 0.9498
476.50 0.95
476.60 0.9503
476.70 0.9505
476.80 0.9507
476.90 0.951
477.00 0.9512
477.10 0.9515
477.20 0.9517
477.30 0.9519
477.40 0.9522
477.50 0.9524
477.60 0.9527
477.70 0.9529
477.80 0.9531
477.90 0.9534
478.00 0.9536
478.10 0.9539
478.20 0.9541
478.30 0.9543
478.40 0.9546
478.50 0.9548
478.60 0.955
478.70 0.9553
478.80 0.9555
478.90 0.9557
479.00 0.9559
479.10 0.9562
479.20 0.9564
479.30 0.9566
479.40 0.9569
479.50 0.9571
479.60 0.9573
479.70 0.9576
479.80 0.9578
479.90 0.958
480.00 0.9582
480.10 0.9585
480.20 0.9587
480.30 0.9589
480.40 0.9592
480.50 0.9594
480.60 0.9596
480.70 0.9599
480.80 0.9601
480.90 0.9603
481.00 0.9605
481.10 0.9608
481.20 0.961
481.30 0.9612
481.40 0.9615
481.50 0.9617
481.60 0.9619
481.70 0.9622
481.80 0.9624
481.90 0.9626
482.00 0.9628
482.10 0.9631
482.20 0.9633
482.30 0.9635
482.40 0.9637
482.50 0.964
482.60 0.9642
482.70 0.9644
482.80 0.9646
482.90 0.9648
483.00 0.9651
483.10 0.9653
483.20 0.9655
483.30 0.9657
483.40 0.9659
483.50 0.9662
483.60 0.9664
483.70 0.9666
483.80 0.9668
483.90 0.9671
484.00 0.9673
484.10 0.9675
484.20 0.9677
484.30 0.968
484.40 0.9682
484.50 0.9684
484.60 0.9686
484.70 0.9688
484.80 0.9691
484.90 0.9693
485.00 0.9695
485.10 0.9697
485.20 0.9699
485.30 0.9701
485.40 0.9704
485.50 0.9706
485.60 0.9708
485.70 0.971
485.80 0.9712
485.90 0.9714
486.00 0.9716
486.10 0.9718
486.20 0.972
486.30 0.9723
486.40 0.9725
486.50 0.9727
486.60 0.9729
486.70 0.9731
486.80 0.9734
486.90 0.9736
487.00 0.9738
487.10 0.974
487.20 0.9742
487.30 0.9745
487.40 0.9747
487.50 0.9749
487.60 0.9751
487.70 0.9754
487.80 0.9756
487.90 0.9758
488.00 0.976
488.10 0.9762
488.20 0.9764
488.30 0.9766
488.40 0.9769
488.50 0.9771
488.60 0.9773
488.70 0.9775
488.80 0.9777
488.90 0.9779
489.00 0.9781
489.10 0.9783
489.20 0.9785
489.30 0.9787
489.40 0.979
489.50 0.9792
489.60 0.9794
489.70 0.9796
489.80 0.9798
489.90 0.98
490.00 0.9802
490.10 0.9804
490.20 0.9806
490.30 0.9808
490.40 0.981
490.50 0.9812
490.60 0.9815
490.70 0.9817
490.80 0.9819
490.90 0.9821
491.00 0.9823
491.10 0.9825
491.20 0.9827
491.30 0.9829
491.40 0.9831
491.50 0.9833
491.60 0.9835
491.70 0.9837
491.80 0.9839
491.90 0.9841
492.00 0.9843
492.10 0.9845
492.20 0.9847
492.30 0.9849
492.40 0.9851
492.50 0.9854
492.60 0.9856
492.70 0.9858
492.80 0.986
492.90 0.9862
493.00 0.9864
493.10 0.9866
493.20 0.9868
493.30 0.987
493.40 0.9872
493.50 0.9874
493.60 0.9876
493.70 0.9878
493.80 0.988
493.90 0.9882
494.00 0.9884
494.10 0.9886
494.20 0.9888
494.30 0.989
494.40 0.9892
494.50 0.9894
494.60 0.9896
494.70 0.9898
494.80 0.99
494.90 0.9901
495.00 0.9903
495.10 0.9905
495.20 0.9907
495.30 0.9909
495.40 0.9911
495.50 0.9913
495.60 0.9915
495.70 0.9917
495.80 0.9919
495.90 0.9921
496.00 0.9923
496.10 0.9925
496.20 0.9927
496.30 0.9929
496.40 0.9931
496.50 0.9933
496.60 0.9935
496.70 0.9937
496.80 0.9939
496.90 0.9941
497.00 0.9943
497.10 0.9945
497.20 0.9947
497.30 0.9948
497.40 0.995
497.50 0.9952
497.60 0.9954
497.70 0.9956
497.80 0.9958
497.90 0.996
498.00 0.9962
498.10 0.9964
498.20 0.9966
498.30 0.9968
498.40 0.997
498.50 0.9972
498.60 0.9974
498.70 0.9975
498.80 0.9977
498.90 0.9979
499.00 0.9981
499.10 0.9983
499.20 0.9985
499.30 0.9987
499.40 0.9989
499.50 0.999
499.60 0.9992
499.70 0.9994
499.80 0.9996
499.90 0.9998
500.00 1
500.10 1
500.20 1
500.30 1.001
500.40 1.001
500.50 1.001
500.60 1.001
500.70 1.001
500.80 1.001
500.90 1.002
501.00 1.002
501.10 1.002
501.20 1.002
501.30 1.002
501.40 1.003
501.50 1.003
501.60 1.003
501.70 1.003
501.80 1.003
501.90 1.003
502.00 1.004
502.10 1.004
502.20 1.004
502.30 1.004
502.40 1.004
502.50 1.005
502.60 1.005
502.70 1.005
502.80 1.005
502.90 1.005
503.00 1.005
503.10 1.006
503.20 1.006
503.30 1.006
503.40 1.006
503.50 1.006
503.60 1.007
503.70 1.007
503.80 1.007
503.90 1.007
504.00 1.007
504.10 1.007
504.20 1.008
504.30 1.008
504.40 1.008
504.50 1.008
504.60 1.008
504.70 1.009
504.80 1.009
504.90 1.009
505.00 1.009
505.10 1.009
505.20 1.009
505.30 1.01
505.40 1.01
505.50 1.01
505.60 1.01
505.70 1.01
505.80 1.01
505.90 1.011
506.00 1.011
506.10 1.011
506.20 1.011
506.30 1.011
506.40 1.012
506.50 1.012
506.60 1.012
506.70 1.012
506.80 1.012
506.90 1.012
507.00 1.013
507.10 1.013
507.20 1.013
507.30 1.013
507.40 1.013
507.50 1.013
507.60 1.014
507.70 1.014
507.80 1.014
507.90 1.014
508.00 1.014
508.10 1.014
508.20 1.015
508.30 1.015
508.40 1.015
508.50 1.015
508.60 1.015
508.70 1.015
508.80 1.016
508.90 1.016
509.00 1.016
509.10 1.016
509.20 1.016
509.30 1.016
509.40 1.017
509.50 1.017
509.60 1.017
509.70 1.017
509.80 1.017
509.90 1.017
510.00 1.018
510.10 1.018
510.20 1.018
510.30 1.018
510.40 1.018
510.50 1.018
510.60 1.019
510.70 1.019
510.80 1.019
510.90 1.019
511.00 1.019
511.10 1.019
511.20 1.02
511.30 1.02
511.40 1.02
511.50 1.02
511.60 1.02
511.70 1.02
511.80 1.021
511.90 1.021
512.00 1.021
512.10 1.021
512.20 1.021
512.30 1.021
512.40 1.021
512.50 1.022
512.60 1.022
512.70 1.022
512.80 1.022
512.90 1.022
513.00 1.022
513.10 1.023
513.20 1.023
513.30 1.023
513.40 1.023
513.50 1.023
513.60 1.023
513.70 1.024
513.80 1.024
513.90 1.024
514.00 1.024
514.10 1.024
514.20 1.024
514.30 1.025
514.40 1.025
514.50 1.025
514.60 1.025
514.70 1.025
514.80 1.025
514.90 1.025
515.00 1.026
515.10 1.026
515.20 1.026
515.30 1.026
515.40 1.026
515.50 1.026
515.60 1.027
515.70 1.027
515.80 1.027
515.90 1.027
516.00 1.027
516.10 1.027
516.20 1.027
516.30 1.028
516.40 1.028
516.50 1.028
516.60 1.028
516.70 1.028
516.80 1.028
516.90 1.029
517.00 1.029
517.10 1.029
517.20 1.029
517.30 1.029
517.40 1.029
517.50 1.029
517.60 1.03
517.70 1.03
517.80 1.03
517.90 1.03
518.00 1.03
518.10 1.03
518.20 1.03
518.30 1.031
518.40 1.031
518.50 1.031
518.60 1.031
518.70 1.031
518.80 1.031
518.90 1.032
519.00 1.032
519.10 1.032
519.20 1.032
519.30 1.032
519.40 1.032
519.50 1.032
519.60 1.033
519.70 1.033
519.80 1.033
519.90 1.033
520.00 1.033
520.10 1.033
520.20 1.033
520.30 1.034
520.40 1.034
520.50 1.034
520.60 1.034
520.70 1.034
520.80 1.034
520.90 1.034
521.00 1.035
521.10 1.035
521.20 1.035
521.30 1.035
521.40 1.035
521.50 1.035
521.60 1.035
521.70 1.036
521.80 1.036
521.90 1.036
522.00 1.036
522.10 1.036
522.20 1.036
522.30 1.036
522.40 1.037
522.50 1.037
522.60 1.037
522.70 1.037
522.80 1.037
522.90 1.037
523.00 1.037
523.10 1.038
523.20 1.038
523.30 1.038
523.40 1.038
523.50 1.038
523.60 1.038
523.70 1.038
523.80 1.038
523.90 1.039
524.00 1.039
524.10 1.039
524.20 1.039
524.30 1.039
524.40 1.039
524.50 1.039
524.60 1.04
524.70 1.04
524.80 1.04
524.90 1.04
525.00 1.04
525.10 1.04
525.20 1.04
525.30 1.041
525.40 1.041
525.50 1.041
525.60 1.041
525.70 1.041
525.80 1.041
525.90 1.041
526.00 1.041
526.10 1.042
526.20 1.042
526.30 1.042
526.40 1.042
526.50 1.042
526.60 1.042
526.70 1.042
526.80 1.043
526.90 1.043
527.00 1.043
527.10 1.043
527.20 1.043
527.30 1.043
527.40 1.043
527.50 1.043
527.60 1.044
527.70 1.044
527.80 1.044
527.90 1.044
528.00 1.044
528.10 1.044
528.20 1.044
528.30 1.044
528.40 1.045
528.50 1.045
528.60 1.045
528.70 1.045
528.80 1.045
528.90 1.045
529.00 1.045
529.10 1.045
529.20 1.046
529.30 1.046
529.40 1.046
529.50 1.046
529.60 1.046
529.70 1.046
529.80 1.046
529.90 1.046
530.00 1.047
530.10 1.047
530.20 1.047
530.30 1.047
530.40 1.047
530.50 1.047
530.60 1.047
530.70 1.047
530.80 1.048
530.90 1.048
531.00 1.048
531.10 1.048
531.20 1.048
531.30 1.048
531.40 1.048
531.50 1.048
531.60 1.049
531.70 1.049
531.80 1.049
531.90 1.049
532.00 1.049
532.10 1.049
532.20 1.049
532.30 1.049
532.40 1.05
532.50 1.05
532.60 1.05
532.70 1.05
532.80 1.05
532.90 1.05
533.00 1.05
533.10 1.05
533.20 1.051
533.30 1.051
533.40 1.051
533.50 1.051
533.60 1.051
533.70 1.051
533.80 1.051
533.90 1.051
534.00 1.051
534.10 1.052
534.20 1.052
534.30 1.052
534.40 1.052
534.50 1.052
534.60 1.052
534.70 1.052
534.80 1.052
534.90 1.053
535.00 1.053
535.10 1.053
535.20 1.053
535.30 1.053
535.40 1.053
535.50 1.053
535.60 1.053
535.70 1.053
535.80 1.054
535.90 1.054
536.00 1.054
536.10 1.054
536.20 1.054
536.30 1.054
536.40 1.054
536.50 1.054
536.60 1.054
536.70 1.055
536.80 1.055
536.90 1.055
537.00 1.055
537.10 1.055
537.20 1.055
537.30 1.055
537.40 1.055
537.50 1.055
537.60 1.056
537.70 1.056
537.80 1.056
537.90 1.056
538.00 1.056
538.10 1.056
538.20 1.056
538.30 1.056
538.40 1.056
538.50 1.057
538.60 1.057
538.70 1.057
538.80 1.057
538.90 1.057
539.00 1.057
539.10 1.057
539.20 1.057
539.30 1.057
539.40 1.058
539.50 1.058
539.60 1.058
539.70 1.058
539.80 1.058
539.90 1.058
540.00 1.058
540.10 1.058
540.20 1.058
540.30 1.059
540.40 1.059
540.50 1.059
540.60 1.059
540.70 1.059
540.80 1.059
540.90 1.059
541.00 1.059
541.10 1.059
541.20 1.059
541.30 1.06
541.40 1.06
541.50 1.06
541.60 1.06
541.70 1.06
541.80 1.06
541.90 1.06
542.00 1.06
542.10 1.06
542.20 1.06
542.30 1.061
542.40 1.061
542.50 1.061
542.60 1.061
542.70 1.061
542.80 1.061
542.90 1.061
543.00 1.061
543.10 1.061
543.20 1.061
543.30 1.062
543.40 1.062
543.50 1.062
543.60 1.062
543.70 1.062
543.80 1.062
543.90 1.062
544.00 1.062
544.10 1.062
544.20 1.062
544.30 1.063
544.40 1.063
544.50 1.063
544.60 1.063
544.70 1.063
544.80 1.063
544.90 1.063
545.00 1.063
545.10 1.063
545.20 1.063
545.30 1.064
545.40 1.064
545.50 1.064
545.60 1.064
545.70 1.064
545.80 1.064
545.90 1.064
546.00 1.064
546.10 1.064
546.20 1.064
546.30 1.065
546.40 1.065
546.50 1.065
546.60 1.065
546.70 1.065
546.80 1.065
546.90 1.065
547.00 1.065
547.10 1.065
547.20 1.065
547.30 1.065
547.40 1.066
547.50 1.066
547.60 1.066
547.70 1.066
547.80 1.066
547.90 1.066
548.00 1.066
548.10 1.066
548.20 1.066
548.30 1.066
548.40 1.066
548.50 1.067
548.60 1.067
548.70 1.067
548.80 1.067
548.90 1.067
549.00 1.067
549.10 1.067
549.20 1.067
549.30 1.067
549.40 1.067
549.50 1.067
549.60 1.067
549.70 1.068
549.80 1.068
549.90 1.068
550.00 1.068
550.10 1.068
550.20 1.068
550.30 1.068
550.40 1.068
550.50 1.068
550.60 1.068
550.70 1.068
550.80 1.069
550.90 1.069
551.00 1.069
551.10 1.069
551.20 1.069
551.30 1.069
551.40 1.069
551.50 1.069
551.60 1.069
551.70 1.069
551.80 1.069
551.90 1.069
552.00 1.07
552.10 1.07
552.20 1.07
552.30 1.07
552.40 1.07
552.50 1.07
552.60 1.07
552.70 1.07
552.80 1.07
552.90 1.07
553.00 1.07
553.10 1.07
553.20 1.071
553.30 1.071
553.40 1.071
553.50 1.071
553.60 1.071
553.70 1.071
553.80 1.071
553.90 1.071
554.00 1.071
554.10 1.071
554.20 1.071
554.30 1.071
554.40 1.072
554.50 1.072
554.60 1.072
554.70 1.072
554.80 1.072
554.90 1.072
555.00 1.072
555.10 1.072
555.20 1.072
555.30 1.072
555.40 1.072
555.50 1.072
555.60 1.072
555.70 1.073
555.80 1.073
555.90 1.073
556.00 1.073
556.10 1.073
556.20 1.073
556.30 1.073
556.40 1.073
556.50 1.073
556.60 1.073
556.70 1.073
556.80 1.073
556.90 1.073
557.00 1.074
557.10 1.074
557.20 1.074
557.30 1.074
557.40 1.074
557.50 1.074
557.60 1.074
557.70 1.074
557.80 1.074
557.90 1.074
558.00 1.074
558.10 1.074
558.20 1.074
558.30 1.074
558.40 1.075
558.50 1.075
558.60 1.075
558.70 1.075
558.80 1.075
558.90 1.075
559.00 1.075
559.10 1.075
559.20 1.075
559.30 1.075
559.40 1.075
559.50 1.075
559.60 1.075
559.70 1.075
559.80 1.076
559.90 1.076
560.00 1.076
560.10 1.076
560.20 1.076
560.30 1.076
560.40 1.076
560.50 1.076
560.60 1.076
560.70 1.076
560.80 1.076
560.90 1.076
561.00 1.076
561.10 1.076
561.20 1.077
561.30 1.077
561.40 1.077
561.50 1.077
561.60 1.077
561.70 1.077
561.80 1.077
561.90 1.077
562.00 1.077
562.10 1.077
562.20 1.077
562.30 1.077
562.40 1.077
562.50 1.077
562.60 1.077
562.70 1.078
562.80 1.078
562.90 1.078
563.00 1.078
563.10 1.078
563.20 1.078
563.30 1.078
563.40 1.078
563.50 1.078
563.60 1.078
563.70 1.078
563.80 1.078
563.90 1.078
564.00 1.078
564.10 1.078
564.20 1.079
564.30 1.079
564.40 1.079
564.50 1.079
564.60 1.079
564.70 1.079
564.80 1.079
564.90 1.079
565.00 1.079
565.10 1.079
565.20 1.079
565.30 1.079
565.40 1.079
565.50 1.079
565.60 1.079
565.70 1.079
565.80 1.079
565.90 1.08
566.00 1.08
566.10 1.08
566.20 1.08
566.30 1.08
566.40 1.08
566.50 1.08
566.60 1.08
566.70 1.08
566.80 1.08
566.90 1.08
567.00 1.08
567.10 1.08
567.20 1.08
567.30 1.08
567.40 1.08
567.50 1.08
567.60 1.081
567.70 1.081
567.80 1.081
567.90 1.081
568.00 1.081
568.10 1.081
568.20 1.081
568.30 1.081
568.40 1.081
568.50 1.081
568.60 1.081
568.70 1.081
568.80 1.081
568.90 1.081
569.00 1.081
569.10 1.081
569.20 1.081
569.30 1.082
569.40 1.082
569.50 1.082
569.60 1.082
569.70 1.082
569.80 1.082
569.90 1.082
570.00 1.082
570.10 1.082
570.20 1.082
570.30 1.082
570.40 1.082
570.50 1.082
570.60 1.082
570.70 1.082
570.80 1.082
570.90 1.082
571.00 1.082
571.10 1.082
571.20 1.083
571.30 1.083
571.40 1.083
571.50 1.083
571.60 1.083
571.70 1.083
571.80 1.083
571.90 1.083
572.00 1.083
572.10 1.083
572.20 1.083
572.30 1.083
572.40 1.083
572.50 1.083
572.60 1.083
572.70 1.083
572.80 1.083
572.90 1.083
573.00 1.083
573.10 1.083
573.20 1.084
573.30 1.084
573.40 1.084
573.50 1.084
573.60 1.084
573.70 1.084
573.80 1.084
573.90 1.084
574.00 1.084
574.10 1.084
574.20 1.084
574.30 1.084
574.40 1.084
574.50 1.084
574.60 1.084
574.70 1.084
574.80 1.084
574.90 1.084
575.00 1.084
575.10 1.084
575.20 1.084
575.30 1.085
575.40 1.085
575.50 1.085
575.60 1.085
575.70 1.085
575.80 1.085
575.90 1.085
576.00 1.085
576.10 1.085
576.20 1.085
576.30 1.085
576.40 1.085
576.50 1.085
576.60 1.085
576.70 1.085
576.80 1.085
576.90 1.085
577.00 1.085
577.10 1.085
577.20 1.085
577.30 1.085
577.40 1.085
577.50 1.085
577.60 1.086
577.70 1.086
577.80 1.086
577.90 1.086
578.00 1.086
578.10 1.086
578.20 1.086
578.30 1.086
578.40 1.086
578.50 1.086
578.60 1.086
578.70 1.086
578.80 1.086
578.90 1.086
579.00 1.086
579.10 1.086
579.20 1.086
579.30 1.086
579.40 1.086
579.50 1.086
579.60 1.086
579.70 1.086
579.80 1.086
579.90 1.086
580.00 1.086
580.10 1.086
580.20 1.087
580.30 1.087
580.40 1.087
580.50 1.087
580.60 1.087
580.70 1.087
580.80 1.087
580.90 1.087
581.00 1.087
581.10 1.087
581.20 1.087
581.30 1.087
581.40 1.087
581.50 1.087
581.60 1.087
581.70 1.087
581.80 1.087
581.90 1.087
582.00 1.087
582.10 1.087
582.20 1.087
582.30 1.087
582.40 1.087
582.50 1.087
582.60 1.087
582.70 1.087
582.80 1.087
582.90 1.087
583.00 1.087
583.10 1.088
583.20 1.088
583.30 1.088
583.40 1.088
583.50 1.088
583.60 1.088
583.70 1.088
583.80 1.088
583.90 1.088
584.00 1.088
584.10 1.088
584.20 1.088
584.30 1.088
584.40 1.088
584.50 1.088
584.60 1.088
584.70 1.088
584.80 1.088
584.90 1.088
585.00 1.088
585.10 1.088
585.20 1.088
585.30 1.088
585.40 1.088
585.50 1.088
585.60 1.088
585.70 1.088
585.80 1.088
585.90 1.088
586.00 1.088
586.10 1.088
586.20 1.088
586.30 1.089
586.40 1.089
586.50 1.089
586.60 1.089
586.70 1.089
586.80 1.089
586.90 1.089
587.00 1.089
587.10 1.089
587.20 1.089
587.30 1.089
587.40 1.089
587.50 1.089
587.60 1.089
587.70 1.089
587.80 1.089
587.90 1.089
588.00 1.089
588.10 1.089
588.20 1.089
588.30 1.089
588.40 1.089
588.50 1.089
588.60 1.089
588.70 1.089
588.80 1.089
588.90 1.089
589.00 1.089
589.10 1.089
589.20 1.089
589.30 1.089
589.40 1.089
589.50 1.089
589.60 1.089
589.70 1.089
589.80 1.089
589.90 1.089
590.00 1.089
590.10 1.089
590.20 1.089
590.30 1.09
590.40 1.09
590.50 1.09
590.60 1.09
590.70 1.09
590.80 1.09
590.90 1.09
591.00 1.09
591.10 1.09
591.20 1.09
591.30 1.09
591.40 1.09
591.50 1.09
591.60 1.09
591.70 1.09
591.80 1.09
591.90 1.09
592.00 1.09
592.10 1.09
592.20 1.09
592.30 1.09
592.40 1.09
592.50 1.09
592.60 1.09
592.70 1.09
592.80 1.09
592.90 1.09
593.00 1.09
593.10 1.09
593.20 1.09
593.30 1.09
593.40 1.09
593.50 1.09
593.60 1.09
593.70 1.09
593.80 1.09
593.90 1.09
594.00 1.09
594.10 1.09
594.20 1.09
594.30 1.09
594.40 1.09
594.50 1.09
594.60 1.09
594.70 1.09
594.80 1.09
594.90 1.09
595.00 1.09
595.10 1.09
595.20 1.09
595.30 1.09
595.40 1.09
595.50 1.091
595.60 1.091
595.70 1.091
595.80 1.091
595.90 1.091
596.00 1.091
596.10 1.091
596.20 1.091
596.30 1.091
596.40 1.091
596.50 1.091
596.60 1.091
596.70 1.091
596.80 1.091
596.90 1.091
597.00 1.091
597.10 1.091
597.20 1.091
597.30 1.091
597.40 1.091
597.50 1.091
597.60 1.091
597.70 1.091
597.80 1.091
597.90 1.091
598.00 1.091
598.10 1.091
598.20 1.091
598.30 1.091
598.40 1.091
598.50 1.091
598.60 1.091
598.70 1.091
598.80 1.091
598.90 1.091
599.00 1.091
599.10 1.091
599.20 1.091
599.30 1.091
599.40 1.091
599.50 1.091
599.60 1.091
599.70 1.091
599.80 1.091
599.90 1.091
600.00 1.091
600.10 1.091
600.20 1.091
600.30 1.091
600.40 1.091
600.50 1.091
600.60 1.091
600.70 1.091
600.80 1.091
600.90 1.091
601.00 1.091
601.10 1.091
601.20 1.091
601.30 1.091
601.40 1.091
601.50 1.091
601.60 1.091
601.70 1.091
601.80 1.091
601.90 1.091
602.00 1.091
602.10 1.091
602.20 1.091
602.30 1.091
602.40 1.091
602.50 1.091
602.60 1.091
602.70 1.091
602.80 1.091
602.90 1.091
603.00 1.091
603.10 1.091
603.20 1.091
603.30 1.091
603.40 1.091
603.50 1.091
603.60 1.091
603.70 1.091
603.80 1.091
603.90 1.091
604.00 1.091
604.10 1.091
604.20 1.091
604.30 1.091
604.40 1.091
604.50 1.091
604.60 1.091
604.70 1.091
604.80 1.091
604.90 1.091
605.00 1.091
605.10 1.091
605.20 1.091
605.30 1.091
605.40 1.091
605.50 1.091
605.60 1.091
605.70 1.091
605.80 1.091
605.90 1.091
606.00 1.091
606.10 1.091
606.20 1.091
606.30 1.091
606.40 1.091
606.50 1.091
606.60 1.091
606.70 1.091
606.80 1.091
606.90 1.091
607.00 1.091
607.10 1.091
607.20 1.091
607.30 1.091
607.40 1.091
607.50 1.091
607.60 1.091
607.70 1.091
607.80 1.091
607.90 1.091
608.00 1.091
608.10 1.091
608.20 1.091
608.30 1.091
608.40 1.091
608.50 1.091
608.60 1.091
608.70 1.091
608.80 1.091
608.90 1.091
609.00 1.091
609.10 1.091
609.20 1.091
609.30 1.091
609.40 1.091
609.50 1.091
609.60 1.091
609.70 1.091
609.80 1.091
609.90 1.091
610.00 1.091
610.10 1.091
610.20 1.091
610.30 1.091
610.40 1.091
610.50 1.091
610.60 1.091
610.70 1.091
610.80 1.091
610.90 1.091
611.00 1.091
611.10 1.091
611.20 1.091
611.30 1.091
611.40 1.091
611.50 1.091
611.60 1.091
611.70 1.091
611.80 1.091
611.90 1.091
612.00 1.091
612.10 1.091
612.20 1.091
612.30 1.091
612.40 1.091
612.50 1.091
612.60 1.091
612.70 1.091
612.80 1.091
612.90 1.091
613.00 1.091
613.10 1.091
613.20 1.091
613.30 1.091
613.40 1.091
613.50 1.091
613.60 1.091
613.70 1.091
613.80 1.091
613.90 1.091
614.00 1.091
614.10 1.091
614.20 1.091
614.30 1.091
614.40 1.091
614.50 1.091
614.60 1.091
614.70 1.091
614.80 1.091
614.90 1.091
615.00 1.091
615.10 1.091
615.20 1.091
615.30 1.091
615.40 1.091
615.50 1.091
615.60 1.091
615.70 1.091
615.80 1.091
615.90 1.091
616.00 1.091
616.10 1.091
616.20 1.091
616.30 1.091
616.40 1.091
616.50 1.091
616.60 1.091
616.70 1.091
616.80 1.091
616.90 1.091
617.00 1.091
617.10 1.091
617.20 1.091
617.30 1.091
617.40 1.091
617.50 1.091
617.60 1.091
617.70 1.091
617.80 1.091
617.90 1.09
618.00 1.09
618.10 1.09
618.20 1.09
618.30 1.09
618.40 1.09
618.50 1.09
618.60 1.09
618.70 1.09
618.80 1.09
618.90 1.09
619.00 1.09
619.10 1.09
619.20 1.09
619.30 1.09
619.40 1.09
619.50 1.09
619.60 1.09
619.70 1.09
619.80 1.09
619.90 1.09
620.00 1.09
620.10 1.09
620.20 1.09
620.30 1.09
620.40 1.09
620.50 1.09
620.60 1.09
620.70 1.09
620.80 1.09
620.90 1.09
621.00 1.09
621.10 1.09
621.20 1.09
621.30 1.09
621.40 1.09
621.50 1.09
621.60 1.09
621.70 1.09
621.80 1.09
621.90 1.09
622.00 1.09
622.10 1.09
622.20 1.09
622.30 1.09
622.40 1.09
622.50 1.09
622.60 1.09
622.70 1.09
622.80 1.09
622.90 1.09
623.00 1.09
623.10 1.09
623.20 1.09
623.30 1.09
623.40 1.09
623.50 1.089
623.60 1.089
623.70 1.089
623.80 1.089
623.90 1.089
624.00 1.089
624.10 1.089
624.20 1.089
624.30 1.089
624.40 1.089
624.50 1.089
624.60 1.089
624.70 1.089
624.80 1.089
624.90 1.089
625.00 1.089
625.10 1.089
625.20 1.089
625.30 1.089
625.40 1.089
625.50 1.089
625.60 1.089
625.70 1.089
625.80 1.089
625.90 1.089
626.00 1.089
626.10 1.089
626.20 1.089
626.30 1.089
626.40 1.089
626.50 1.089
626.60 1.089
626.70 1.089
626.80 1.089
626.90 1.089
627.00 1.089
627.10 1.089
627.20 1.089
627.30 1.089
627.40 1.089
627.50 1.089
627.60 1.089
627.70 1.089
627.80 1.089
627.90 1.088
628.00 1.088
628.10 1.088
628.20 1.088
628.30 1.088
628.40 1.088
628.50 1.088
628.60 1.088
628.70 1.088
628.80 1.088
628.90 1.088
629.00 1.088
629.10 1.088
629.20 1.088
629.30 1.088
629.40 1.088
629.50 1.088
629.60 1.088
629.70 1.088
629.80 1.088
629.90 1.088
630.00 1.088
630.10 1.088
630.20 1.088
630.30 1.088
630.40 1.088
630.50 1.088
630.60 1.088
630.70 1.088
630.80 1.088
630.90 1.088
631.00 1.088
631.10 1.088
631.20 1.088
631.30 1.088
631.40 1.088
631.50 1.087
631.60 1.087
631.70 1.087
631.80 1.087
631.90 1.087
632.00 1.087
632.10 1.087
632.20 1.087
632.30 1.087
632.40 1.087
632.50 1.087
632.60 1.087
632.70 1.087
632.80 1.087
632.90 1.087
633.00 1.087
633.10 1.087
633.20 1.087
633.30 1.087
633.40 1.087
633.50 1.087
633.60 1.087
633.70 1.087
633.80 1.087
633.90 1.087
634.00 1.087
634.10 1.087
634.20 1.087
634.30 1.087
634.40 1.087
634.50 1.087
634.60 1.086
634.70 1.086
634.80 1.086
634.90 1.086
635.00 1.086
635.10 1.086
635.20 1.086
635.30 1.086
635.40 1.086
635.50 1.086
635.60 1.086
635.70 1.086
635.80 1.086
635.90 1.086
636.00 1.086
636.10 1.086
636.20 1.086
636.30 1.086
636.40 1.086
636.50 1.086
636.60 1.086
636.70 1.086
636.80 1.086
636.90 1.086
637.00 1.086
637.10 1.086
637.20 1.086
637.30 1.086
637.40 1.086
637.50 1.085
637.60 1.085
637.70 1.085
637.80 1.085
637.90 1.085
638.00 1.085
638.10 1.085
638.20 1.085
638.30 1.085
638.40 1.085
638.50 1.085
638.60 1.085
638.70 1.085
638.80 1.085
638.90 1.085
639.00 1.085
639.10 1.085
639.20 1.085
639.30 1.085
639.40 1.085
639.50 1.085
639.60 1.085
639.70 1.085
639.80 1.085
639.90 1.085
640.00 1.085
640.10 1.084
640.20 1.084
640.30 1.084
640.40 1.084
640.50 1.084
640.60 1.084
640.70 1.084
640.80 1.084
640.90 1.084
641.00 1.084
641.10 1.084
641.20 1.084
641.30 1.084
641.40 1.084
641.50 1.084
641.60 1.084
641.70 1.084
641.80 1.084
641.90 1.084
642.00 1.084
642.10 1.084
642.20 1.084
642.30 1.084
642.40 1.084
642.50 1.084
642.60 1.083
642.70 1.083
642.80 1.083
642.90 1.083
643.00 1.083
643.10 1.083
643.20 1.083
643.30 1.083
643.40 1.083
643.50 1.083
643.60 1.083
643.70 1.083
643.80 1.083
643.90 1.083
644.00 1.083
644.10 1.083
644.20 1.083
644.30 1.083
644.40 1.083
644.50 1.083
644.60 1.083
644.70 1.083
644.80 1.083
644.90 1.082
645.00 1.082
645.10 1.082
645.20 1.082
645.30 1.082
645.40 1.082
645.50 1.082
645.60 1.082
645.70 1.082
645.80 1.082
645.90 1.082
646.00 1.082
646.10 1.082
646.20 1.082
646.30 1.082
646.40 1.082
646.50 1.082
646.60 1.082
646.70 1.082
646.80 1.082
646.90 1.082
647.00 1.082
647.10 1.081
647.20 1.081
647.30 1.081
647.40 1.081
647.50 1.081
647.60 1.081
647.70 1.081
647.80 1.081
647.90 1.081
648.00 1.081
648.10 1.081
648.20 1.081
648.30 1.081
648.40 1.081
648.50 1.081
648.60 1.081
648.70 1.081
648.80 1.081
648.90 1.081
649.00 1.081
649.10 1.081
649.20 1.08
649.30 1.08
649.40 1.08
649.50 1.08
649.60 1.08
649.70 1.08
649.80 1.08
649.90 1.08
650.00 1.08
650.10 1.08
650.20 1.08
650.30 1.08
650.40 1.08
650.50 1.08
650.60 1.08
650.70 1.08
650.80 1.08
650.90 1.08
651.00 1.08
651.10 1.08
651.20 1.08
651.30 1.079
651.40 1.079
651.50 1.079
651.60 1.079
651.70 1.079
651.80 1.079
651.90 1.079
652.00 1.079
652.10 1.079
652.20 1.079
652.30 1.079
652.40 1.079
652.50 1.079
652.60 1.079
652.70 1.079
652.80 1.079
652.90 1.079
653.00 1.079
653.10 1.078
653.20 1.078
653.30 1.078
653.40 1.078
653.50 1.078
653.60 1.078
653.70 1.078
653.80 1.078
653.90 1.078
654.00 1.078
654.10 1.078
654.20 1.078
654.30 1.078
654.40 1.078
654.50 1.078
654.60 1.078
654.70 1.078
654.80 1.077
654.90 1.077
655.00 1.077
655.10 1.077
655.20 1.077
655.30 1.077
655.40 1.077
655.50 1.077
655.60 1.077
655.70 1.077
655.80 1.077
655.90 1.077
656.00 1.077
656.10 1.076
656.20 1.076
656.30 1.076
656.40 1.076
656.50 1.076
656.60 1.076
656.70 1.076
656.80 1.076
656.90 1.076
657.00 1.076
657.10 1.076
657.20 1.076
657.30 1.076
657.40 1.076
657.50 1.076
657.60 1.076
657.70 1.076
657.80 1.076
657.90 1.076
658.00 1.076
658.10 1.076
658.20 1.076
658.30 1.076
658.40 1.076
658.50 1.076
658.60 1.075
658.70 1.075
658.80 1.075
658.90 1.075
659.00 1.075
659.10 1.075
659.20 1.075
659.30 1.075
659.40 1.075
659.50 1.075
659.60 1.075
659.70 1.075
659.80 1.075
659.90 1.075
660.00 1.075
660.10 1.075
660.20 1.075
660.30 1.075
660.40 1.074
660.50 1.074
660.60 1.074
660.70 1.074
660.80 1.074
660.90 1.074
661.00 1.074
661.10 1.074
661.20 1.074
661.30 1.074
661.40 1.074
661.50 1.074
661.60 1.074
661.70 1.074
661.80 1.074
661.90 1.074
662.00 1.074
662.10 1.074
662.20 1.073
662.30 1.073
662.40 1.073
662.50 1.073
662.60 1.073
662.70 1.073
662.80 1.073
662.90 1.073
663.00 1.073
663.10 1.073
663.20 1.073
663.30 1.073
663.40 1.073
663.50 1.073
663.60 1.073
663.70 1.073
663.80 1.072
663.90 1.072
664.00 1.072
664.10 1.072
664.20 1.072
664.30 1.072
664.40 1.072
664.50 1.072
664.60 1.072
664.70 1.072
664.80 1.072
664.90 1.072
665.00 1.072
665.10 1.072
665.20 1.072
665.30 1.072
665.40 1.071
665.50 1.071
665.60 1.071
665.70 1.071
665.80 1.071
665.90 1.071
666.00 1.071
666.10 1.071
666.20 1.071
666.30 1.071
666.40 1.071
666.50 1.071
666.60 1.071
666.70 1.071
666.80 1.071
666.90 1.071
667.00 1.07
667.10 1.07
667.20 1.07
667.30 1.07
667.40 1.07
667.50 1.07
667.60 1.07
667.70 1.07
667.80 1.07
667.90 1.07
668.00 1.07
668.10 1.07
668.20 1.07
668.30 1.07
668.40 1.07
668.50 1.07
668.60 1.069
668.70 1.069
668.80 1.069
668.90 1.069
669.00 1.069
669.10 1.069
669.20 1.069
669.30 1.069
669.40 1.069
669.50 1.069
669.60 1.069
669.70 1.069
669.80 1.069
669.90 1.069
670.00 1.069
670.10 1.068
670.20 1.068
670.30 1.068
670.40 1.068
670.50 1.068
670.60 1.068
670.70 1.068
670.80 1.068
670.90 1.068
671.00 1.068
671.10 1.068
671.20 1.068
671.30 1.068
671.40 1.068
671.50 1.068
671.60 1.067
671.70 1.067
671.80 1.067
671.90 1.067
672.00 1.067
672.10 1.067
672.20 1.067
672.30 1.067
672.40 1.067
672.50 1.067
672.60 1.067
672.70 1.067
672.80 1.067
672.90 1.067
673.00 1.066
673.10 1.066
673.20 1.066
673.30 1.066
673.40 1.066
673.50 1.066
673.60 1.066
673.70 1.066
673.80 1.066
673.90 1.066
674.00 1.066
674.10 1.066
674.20 1.066
674.30 1.066
674.40 1.065
674.50 1.065
674.60 1.065
674.70 1.065
674.80 1.065
674.90 1.065
675.00 1.065
675.10 1.065
675.20 1.065
675.30 1.065
675.40 1.065
675.50 1.065
675.60 1.065
675.70 1.065
675.80 1.065
675.90 1.064
676.00 1.064
676.10 1.064
676.20 1.064
676.30 1.064
676.40 1.064
676.50 1.064
676.60 1.064
676.70 1.064
676.80 1.064
676.90 1.064
677.00 1.064
677.10 1.064
677.20 1.064
677.30 1.063
677.40 1.063
677.50 1.063
677.60 1.063
677.70 1.063
677.80 1.063
677.90 1.063
678.00 1.063
678.10 1.063
678.20 1.063
678.30 1.063
678.40 1.063
678.50 1.063
678.60 1.062
678.70 1.062
678.80 1.062
678.90 1.062
679.00 1.062
679.10 1.062
679.20 1.062
679.30 1.062
679.40 1.062
679.50 1.062
679.60 1.062
679.70 1.062
679.80 1.062
679.90 1.062
680.00 1.061
680.10 1.061
680.20 1.061
680.30 1.061
680.40 1.061
680.50 1.061
680.60 1.061
680.70 1.061
680.80 1.061
680.90 1.061
681.00 1.061
681.10 1.061
681.20 1.061
681.30 1.06
681.40 1.06
681.50 1.06
681.60 1.06
681.70 1.06
681.80 1.06
681.90 1.06
682.00 1.06
682.10 1.06
682.20 1.06
682.30 1.06
682.40 1.06
682.50 1.06
682.60 1.059
682.70 1.059
682.80 1.059
682.90 1.059
683.00 1.059
683.10 1.059
683.20 1.059
683.30 1.059
683.40 1.059
683.50 1.059
683.60 1.059
683.70 1.059
683.80 1.059
683.90 1.058
684.00 1.058
684.10 1.058
684.20 1.058
684.30 1.058
684.40 1.058
684.50 1.058
684.60 1.058
684.70 1.058
684.80 1.058
684.90 1.058
685.00 1.058
685.10 1.058
685.20 1.057
685.30 1.057
685.40 1.057
685.50 1.057
685.60 1.057
685.70 1.057
685.80 1.057
685.90 1.057
686.00 1.057
686.10 1.057
686.20 1.057
686.30 1.057
686.40 1.057
686.50 1.056
686.60 1.056
686.70 1.056
686.80 1.056
686.90 1.056
687.00 1.056
687.10 1.056
687.20 1.056
687.30 1.056
687.40 1.056
687.50 1.056
687.60 1.056
687.70 1.055
687.80 1.055
687.90 1.055
688.00 1.055
688.10 1.055
688.20 1.055
688.30 1.055
688.40 1.055
688.50 1.055
688.60 1.055
688.70 1.055
688.80 1.055
688.90 1.055
689.00 1.054
689.10 1.054
689.20 1.054
689.30 1.054
689.40 1.054
689.50 1.054
689.60 1.054
689.70 1.054
689.80 1.054
689.90 1.054
690.00 1.054
690.10 1.054
690.20 1.053
690.30 1.053
690.40 1.053
690.50 1.053
690.60 1.053
690.70 1.053
690.80 1.053
690.90 1.053
691.00 1.053
691.10 1.053
691.20 1.053
691.30 1.053
691.40 1.052
691.50 1.052
691.60 1.052
691.70 1.052
691.80 1.052
691.90 1.052
692.00 1.052
692.10 1.052
692.20 1.052
692.30 1.052
692.40 1.052
692.50 1.052
692.60 1.051
692.70 1.051
692.80 1.051
692.90 1.051
693.00 1.051
693.10 1.051
693.20 1.051
693.30 1.051
693.40 1.051
693.50 1.051
693.60 1.051
693.70 1.051
693.80 1.05
693.90 1.05
694.00 1.05
694.10 1.05
694.20 1.05
694.30 1.05
694.40 1.05
694.50 1.05
694.60 1.05
694.70 1.05
694.80 1.05
694.90 1.05
695.00 1.049
695.10 1.049
695.20 1.049
695.30 1.049
695.40 1.049
695.50 1.049
695.60 1.049
695.70 1.049
695.80 1.049
695.90 1.049
696.00 1.049
696.10 1.048
696.20 1.048
696.30 1.048
696.40 1.048
696.50 1.048
696.60 1.048
696.70 1.048
696.80 1.048
696.90 1.048
697.00 1.048
697.10 1.048
697.20 1.048
697.30 1.047
697.40 1.047
697.50 1.047
697.60 1.047
697.70 1.047
697.80 1.047
697.90 1.047
698.00 1.047
698.10 1.047
698.20 1.047
698.30 1.047
698.40 1.046
698.50 1.046
698.60 1.046
698.70 1.046
698.80 1.046
698.90 1.046
699.00 1.046
699.10 1.046
699.20 1.046
699.30 1.046
699.40 1.046
699.50 1.046
699.60 1.045
699.70 1.045
699.80 1.045
699.90 1.045
700.00 1.045
700.10 1.045
700.20 1.045
700.30 1.045
700.40 1.045
700.50 1.045
700.60 1.045
700.70 1.044
700.80 1.044
700.90 1.044
701.00 1.044
701.10 1.044
701.20 1.044
701.30 1.044
701.40 1.044
701.50 1.044
701.60 1.044
701.70 1.044
701.80 1.043
701.90 1.043
702.00 1.043
702.10 1.043
702.20 1.043
702.30 1.043
702.40 1.043
702.50 1.043
702.60 1.043
702.70 1.043
702.80 1.043
702.90 1.042
703.00 1.042
703.10 1.042
703.20 1.042
703.30 1.042
703.40 1.042
703.50 1.042
703.60 1.042
703.70 1.042
703.80 1.042
703.90 1.042
704.00 1.041
704.10 1.041
704.20 1.041
704.30 1.041
704.40 1.041
704.50 1.041
704.60 1.041
704.70 1.041
704.80 1.041
704.90 1.041
705.00 1.041
705.10 1.04
705.20 1.04
705.30 1.04
705.40 1.04
705.50 1.04
705.60 1.04
705.70 1.04
705.80 1.04
705.90 1.04
706.00 1.04
706.10 1.04
706.20 1.039
706.30 1.039
706.40 1.039
706.50 1.039
706.60 1.039
706.70 1.039
706.80 1.039
706.90 1.039
707.00 1.039
707.10 1.039
707.20 1.039
707.30 1.038
707.40 1.038
707.50 1.038
707.60 1.038
707.70 1.038
707.80 1.038
707.90 1.038
708.00 1.038
708.10 1.038
708.20 1.038
708.30 1.037
708.40 1.037
708.50 1.037
708.60 1.037
708.70 1.037
708.80 1.037
708.90 1.037
709.00 1.037
709.10 1.037
709.20 1.037
709.30 1.037
709.40 1.036
709.50 1.036
709.60 1.036
709.70 1.036
709.80 1.036
709.90 1.036
710.00 1.036
710.10 1.036
710.20 1.036
710.30 1.036
710.40 1.036
710.50 1.035
710.60 1.035
710.70 1.035
710.80 1.035
710.90 1.035
711.00 1.035
711.10 1.035
711.20 1.035
711.30 1.035
711.40 1.035
711.50 1.034
711.60 1.034
711.70 1.034
711.80 1.034
711.90 1.034
712.00 1.034
712.10 1.034
712.20 1.034
712.30 1.034
712.40 1.034
712.50 1.033
712.60 1.033
712.70 1.033
712.80 1.033
712.90 1.033
713.00 1.033
713.10 1.033
713.20 1.033
713.30 1.033
713.40 1.033
713.50 1.033
713.60 1.032
713.70 1.032
713.80 1.032
713.90 1.032
714.00 1.032
714.10 1.032
714.20 1.032
714.30 1.032
714.40 1.032
714.50 1.032
714.60 1.031
714.70 1.031
714.80 1.031
714.90 1.031
715.00 1.031
715.10 1.031
715.20 1.031
715.30 1.031
715.40 1.031
715.50 1.031
715.60 1.031
715.70 1.03
715.80 1.03
715.90 1.03
716.00 1.03
716.10 1.03
716.20 1.03
716.30 1.03
716.40 1.03
716.50 1.03
716.60 1.03
716.70 1.029
716.80 1.029
716.90 1.029
717.00 1.029
717.10 1.029
717.20 1.029
717.30 1.029
717.40 1.029
717.50 1.029
717.60 1.029
717.70 1.028
717.80 1.028
717.90 1.028
718.00 1.028
718.10 1.028
718.20 1.028
718.30 1.028
718.40 1.028
718.50 1.028
718.60 1.028
718.70 1.027
718.80 1.027
718.90 1.027
719.00 1.027
719.10 1.027
719.20 1.027
719.30 1.027
719.40 1.027
719.50 1.027
719.60 1.027
719.70 1.026
719.80 1.026
719.90 1.026
720.00 1.026
720.10 1.026
720.20 1.026
720.30 1.026
720.40 1.026
720.50 1.026
720.60 1.026
720.70 1.025
720.80 1.025
720.90 1.025
721.00 1.025
721.10 1.025
721.20 1.025
721.30 1.025
721.40 1.025
721.50 1.025
721.60 1.025
721.70 1.024
721.80 1.024
721.90 1.024
722.00 1.024
722.10 1.024
722.20 1.024
722.30 1.024
722.40 1.024
722.50 1.024
722.60 1.024
722.70 1.023
722.80 1.023
722.90 1.023
723.00 1.023
723.10 1.023
723.20 1.023
723.30 1.023
723.40 1.023
723.50 1.023
723.60 1.022
723.70 1.022
723.80 1.022
723.90 1.022
724.00 1.022
724.10 1.022
724.20 1.022
724.30 1.022
724.40 1.022
724.50 1.022
724.60 1.021
724.70 1.021
724.80 1.021
724.90 1.021
725.00 1.021
725.10 1.021
725.20 1.021
725.30 1.021
725.40 1.021
725.50 1.021
725.60 1.02
725.70 1.02
725.80 1.02
725.90 1.02
726.00 1.02
726.10 1.02
726.20 1.02
726.30 1.02
726.40 1.02
726.50 1.02
726.60 1.019
726.70 1.019
726.80 1.019
726.90 1.019
727.00 1.019
727.10 1.019
727.20 1.019
727.30 1.019
727.40 1.019
727.50 1.018
727.60 1.018
727.70 1.018
727.80 1.018
727.90 1.018
728.00 1.018
728.10 1.018
728.20 1.018
728.30 1.018
728.40 1.018
728.50 1.017
728.60 1.017
728.70 1.017
728.80 1.017
728.90 1.017
729.00 1.017
729.10 1.017
729.20 1.017
729.30 1.017
729.40 1.017
729.50 1.016
729.60 1.016
729.70 1.016
729.80 1.016
729.90 1.016
730.00 1.016
730.10 1.016
730.20 1.016
730.30 1.016
730.40 1.015
730.50 1.015
730.60 1.015
730.70 1.015
730.80 1.015
730.90 1.015
731.00 1.015
731.10 1.015
731.20 1.015
731.30 1.014
731.40 1.014
731.50 1.014
731.60 1.014
731.70 1.014
731.80 1.014
731.90 1.014
732.00 1.014
732.10 1.014
732.20 1.014
732.30 1.013
732.40 1.013
732.50 1.013
732.60 1.013
732.70 1.013
732.80 1.013
732.90 1.013
733.00 1.013
733.10 1.013
733.20 1.012
733.30 1.012
733.40 1.012
733.50 1.012
733.60 1.012
733.70 1.012
733.80 1.012
733.90 1.012
734.00 1.012
734.10 1.011
734.20 1.011
734.30 1.011
734.40 1.011
734.50 1.011
734.60 1.011
734.70 1.011
734.80 1.011
734.90 1.011
735.00 1.011
735.10 1.01
735.20 1.01
735.30 1.01
735.40 1.01
735.50 1.01
735.60 1.01
735.70 1.01
735.80 1.01
735.90 1.01
736.00 1.009
736.10 1.009
736.20 1.009
736.30 1.009
736.40 1.009
736.50 1.009
736.60 1.009
736.70 1.009
736.80 1.009
736.90 1.008
737.00 1.008
737.10 1.008
737.20 1.008
737.30 1.008
737.40 1.008
737.50 1.008
737.60 1.008
737.70 1.008
737.80 1.008
737.90 1.007
738.00 1.007
738.10 1.007
738.20 1.007
738.30 1.007
738.40 1.007
738.50 1.007
738.60 1.007
738.70 1.007
738.80 1.006
738.90 1.006
739.00 1.006
739.10 1.006
739.20 1.006
739.30 1.006
739.40 1.006
739.50 1.006
739.60 1.006
739.70 1.006
739.80 1.005
739.90 1.005
740.00 1.005
740.10 1.005
740.20 1.005
740.30 1.005
740.40 1.005
740.50 1.005
740.60 1.005
740.70 1.004
740.80 1.004
740.90 1.004
741.00 1.004
741.10 1.004
741.20 1.004
741.30 1.004
741.40 1.004
741.50 1.004
741.60 1.003
741.70 1.003
741.80 1.003
741.90 1.003
742.00 1.003
742.10 1.003
742.20 1.003
742.30 1.003
742.40 1.003
742.50 1.002
742.60 1.002
742.70 1.002
742.80 1.002
742.90 1.002
743.00 1.002
743.10 1.002
743.20 1.002
743.30 1.002
743.40 1.001
743.50 1.001
743.60 1.001
743.70 1.001
743.80 1.001
743.90 1.001
744.00 1.001
744.10 1.001
744.20 1.001
744.30 1
744.40 1
744.50 1
744.60 1
744.70 1
744.80 0.9998
744.90 0.9997
745.00 0.9996
745.10 0.9995
745.20 0.9994
745.30 0.9993
745.40 0.9992
745.50 0.9991
745.60 0.999
745.70 0.9989
745.80 0.9987
745.90 0.9986
746.00 0.9985
746.10 0.9984
746.20 0.9983
746.30 0.9982
746.40 0.9981
746.50 0.998
746.60 0.9979
746.70 0.9977
746.80 0.9976
746.90 0.9975
747.00 0.9974
747.10 0.9973
747.20 0.9972
747.30 0.9971
747.40 0.997
747.50 0.9969
747.60 0.9968
747.70 0.9966
747.80 0.9965
747.90 0.9964
748.00 0.9963
748.10 0.9962
748.20 0.9961
748.30 0.996
748.40 0.9959
748.50 0.9958
748.60 0.9957
748.70 0.9955
748.80 0.9954
748.90 0.9953
749.00 0.9952
749.10 0.9951
749.20 0.995
749.30 0.9949
749.40 0.9948
749.50 0.9947
749.60 0.9946
749.70 0.9945
749.80 0.9943
749.90 0.9942
750.00 0.9941
750.10 0.994
750.20 0.9939
750.30 0.9938
750.40 0.9937
750.50 0.9935
750.60 0.9934
750.70 0.9933
750.80 0.9932
750.90 0.9931
751.00 0.993
751.10 0.9929
751.20 0.9927
751.30 0.9926
751.40 0.9925
751.50 0.9924
751.60 0.9923
751.70 0.9922
751.80 0.9921
751.90 0.9919
752.00 0.9918
752.10 0.9917
752.20 0.9916
752.30 0.9915
752.40 0.9914
752.50 0.9913
752.60 0.9911
752.70 0.991
752.80 0.9909
752.90 0.9908
753.00 0.9907
753.10 0.9906
753.20 0.9905
753.30 0.9903
753.40 0.9902
753.50 0.9901
753.60 0.99
753.70 0.9899
753.80 0.9898
753.90 0.9897
754.00 0.9895
754.10 0.9894
754.20 0.9893
754.30 0.9892
754.40 0.9891
754.50 0.989
754.60 0.9889
754.70 0.9887
754.80 0.9886
754.90 0.9885
755.00 0.9884
755.10 0.9883
755.20 0.9882
755.30 0.9881
755.40 0.9879
755.50 0.9878
755.60 0.9877
755.70 0.9876
755.80 0.9875
755.90 0.9874
756.00 0.9873
756.10 0.9872
756.20 0.987
756.30 0.9869
756.40 0.9868
756.50 0.9867
756.60 0.9866
756.70 0.9865
756.80 0.9864
756.90 0.9862
757.00 0.9861
757.10 0.986
757.20 0.9859
757.30 0.9858
757.40 0.9857
757.50 0.9856
757.60 0.9855
757.70 0.9853
757.80 0.9852
757.90 0.9851
758.00 0.985
758.10 0.9849
758.20 0.9848
758.30 0.9847
758.40 0.9845
758.50 0.9844
758.60 0.9843
758.70 0.9842
758.80 0.9841
758.90 0.984
759.00 0.9839
759.10 0.9838
759.20 0.9836
759.30 0.9835
759.40 0.9834
759.50 0.9833
759.60 0.9832
759.70 0.9831
759.80 0.983
759.90 0.9829
760.00 0.9827
760.10 0.9826
760.20 0.9825
760.30 0.9824
760.40 0.9823
760.50 0.9822
760.60 0.982
760.70 0.9819
760.80 0.9818
760.90 0.9817
761.00 0.9816
761.10 0.9814
761.20 0.9813
761.30 0.9812
761.40 0.9811
761.50 0.981
761.60 0.9809
761.70 0.9807
761.80 0.9806
761.90 0.9805
762.00 0.9804
762.10 0.9803
762.20 0.9801
762.30 0.98
762.40 0.9799
762.50 0.9798
762.60 0.9797
762.70 0.9796
762.80 0.9794
762.90 0.9793
763.00 0.9792
763.10 0.9791
763.20 0.979
763.30 0.9789
763.40 0.9787
763.50 0.9786
763.60 0.9785
763.70 0.9784
763.80 0.9783
763.90 0.9782
764.00 0.978
764.10 0.9779
764.20 0.9778
764.30 0.9777
764.40 0.9776
764.50 0.9774
764.60 0.9773
764.70 0.9772
764.80 0.9771
764.90 0.977
765.00 0.9769
765.10 0.9767
765.20 0.9766
765.30 0.9765
765.40 0.9764
765.50 0.9763
765.60 0.9762
765.70 0.976
765.80 0.9759
765.90 0.9758
766.00 0.9757
766.10 0.9756
766.20 0.9755
766.30 0.9753
766.40 0.9752
766.50 0.9751
766.60 0.975
766.70 0.9749
766.80 0.9748
766.90 0.9746
767.00 0.9745
767.10 0.9744
767.20 0.9743
767.30 0.9742
767.40 0.9741
767.50 0.9739
767.60 0.9738
767.70 0.9737
767.80 0.9736
767.90 0.9735
768.00 0.9734
768.10 0.9733
768.20 0.9731
768.30 0.973
768.40 0.9729
768.50 0.9728
768.60 0.9727
768.70 0.9726
768.80 0.9724
768.90 0.9723
769.00 0.9722
769.10 0.9721
769.20 0.972
769.30 0.9719
769.40 0.9717
769.50 0.9716
769.60 0.9715
769.70 0.9714
769.80 0.9713
769.90 0.9712
770.00 0.9711
770.10 0.9709
770.20 0.9708
770.30 0.9707
770.40 0.9706
770.50 0.9704
770.60 0.9703
770.70 0.9702
770.80 0.9701
770.90 0.97
771.00 0.9698
771.10 0.9697
771.20 0.9696
771.30 0.9695
771.40 0.9694
771.50 0.9692
771.60 0.9691
771.70 0.969
771.80 0.9689
771.90 0.9688
772.00 0.9686
772.10 0.9685
772.20 0.9684
772.30 0.9683
772.40 0.9682
772.50 0.968
772.60 0.9679
772.70 0.9678
772.80 0.9677
772.90 0.9676
773.00 0.9674
773.10 0.9673
773.20 0.9672
773.30 0.9671
773.40 0.967
773.50 0.9668
773.60 0.9667
773.70 0.9666
773.80 0.9665
773.90 0.9664
774.00 0.9663
774.10 0.9661
774.20 0.966
774.30 0.9659
774.40 0.9658
774.50 0.9657
774.60 0.9655
774.70 0.9654
774.80 0.9653
774.90 0.9652
775.00 0.9651
775.10 0.9649
775.20 0.9648
775.30 0.9647
775.40 0.9646
775.50 0.9645
775.60 0.9643
775.70 0.9642
775.80 0.9641
775.90 0.964
776.00 0.9639
776.10 0.9637
776.20 0.9636
776.30 0.9635
776.40 0.9634
776.50 0.9633
776.60 0.9632
776.70 0.963
776.80 0.9629
776.90 0.9628
777.00 0.9627
777.10 0.9626
777.20 0.9624
777.30 0.9623
777.40 0.9622
777.50 0.9621
777.60 0.962
777.70 0.9619
777.80 0.9617
777.90 0.9616
778.00 0.9615
778.10 0.9614
778.20 0.9613
778.30 0.9611
778.40 0.961
778.50 0.9609
778.60 0.9608
778.70 0.9607
778.80 0.9606
778.90 0.9604
779.00 0.9603
779.10 0.9602
779.20 0.9601
779.30 0.96
779.40 0.9598
779.50 0.9597
779.60 0.9596
779.70 0.9595
779.80 0.9594
779.90 0.9593
780.00 0.9591
780.10 0.959
780.20 0.9589
780.30 0.9588
780.40 0.9586
780.50 0.9585
780.60 0.9584
780.70 0.9583
780.80 0.9582
780.90 0.958
781.00 0.9579
781.10 0.9578
781.20 0.9577
781.30 0.9575
781.40 0.9574
781.50 0.9573
781.60 0.9572
781.70 0.9571
781.80 0.9569
781.90 0.9568
782.00 0.9567
782.10 0.9566
782.20 0.9564
782.30 0.9563
782.40 0.9562
782.50 0.9561
782.60 0.956
782.70 0.9558
782.80 0.9557
782.90 0.9556
783.00 0.9555
783.10 0.9553
783.20 0.9552
783.30 0.9551
783.40 0.955
783.50 0.9549
783.60 0.9547
783.70 0.9546
783.80 0.9545
783.90 0.9544
784.00 0.9542
784.10 0.9541
784.20 0.954
784.30 0.9539
784.40 0.9538
784.50 0.9536
784.60 0.9535
784.70 0.9534
784.80 0.9533
784.90 0.9532
785.00 0.953
785.10 0.9529
785.20 0.9528
785.30 0.9527
785.40 0.9525
785.50 0.9524
785.60 0.9523
785.70 0.9522
785.80 0.9521
785.90 0.9519
786.00 0.9518
786.10 0.9517
786.20 0.9516
786.30 0.9515
786.40 0.9513
786.50 0.9512
786.60 0.9511
786.70 0.951
786.80 0.9509
786.90 0.9507
787.00 0.9506
787.10 0.9505
787.20 0.9504
787.30 0.9502
787.40 0.9501
787.50 0.95
787.60 0.9499
787.70 0.9498
787.80 0.9496
787.90 0.9495
788.00 0.9494
788.10 0.9493
788.20 0.9492
788.30 0.949
788.40 0.9489
788.50 0.9488
788.60 0.9487
788.70 0.9486
788.80 0.9484
788.90 0.9483
789.00 0.9482
789.10 0.9481
789.20 0.948
789.30 0.9478
789.40 0.9477
789.50 0.9476
789.60 0.9475
789.70 0.9474
789.80 0.9472
789.90 0.9471
790.00 0.947
790.10 0.9469
790.20 0.9468
790.30 0.9466
790.40 0.9465
790.50 0.9464
790.60 0.9463
790.70 0.9461
790.80 0.946
790.90 0.9459
791.00 0.9458
791.10 0.9456
791.20 0.9455
791.30 0.9454
791.40 0.9453
791.50 0.9451
791.60 0.945
791.70 0.9449
791.80 0.9448
791.90 0.9446
792.00 0.9445
792.10 0.9444
792.20 0.9443
792.30 0.9441
792.40 0.944
792.50 0.9439
792.60 0.9438
792.70 0.9436
792.80 0.9435
792.90 0.9434
793.00 0.9433
793.10 0.9431
793.20 0.943
793.30 0.9429
793.40 0.9428
793.50 0.9427
793.60 0.9425
793.70 0.9424
793.80 0.9423
793.90 0.9422
794.00 0.942
794.10 0.9419
794.20 0.9418
794.30 0.9417
794.40 0.9415
794.50 0.9414
794.60 0.9413
794.70 0.9412
794.80 0.941
794.90 0.9409
795.00 0.9408
795.10 0.9407
795.20 0.9406
795.30 0.9404
795.40 0.9403
795.50 0.9402
795.60 0.9401
795.70 0.9399
795.80 0.9398
795.90 0.9397
796.00 0.9396
796.10 0.9394
796.20 0.9393
796.30 0.9392
796.40 0.9391
796.50 0.939
796.60 0.9388
796.70 0.9387
796.80 0.9386
796.90 0.9385
797.00 0.9383
797.10 0.9382
797.20 0.9381
797.30 0.938
797.40 0.9379
797.50 0.9377
797.60 0.9376
797.70 0.9375
797.80 0.9374
797.90 0.9372
798.00 0.9371
798.10 0.937
798.20 0.9369
798.30 0.9367
798.40 0.9366
798.50 0.9365
798.60 0.9364
798.70 0.9363
798.80 0.9361
798.90 0.936
799.00 0.9359
799.10 0.9358
799.20 0.9357
799.30 0.9355
799.40 0.9354
799.50 0.9353
799.60 0.9352
799.70 0.935
799.80 0.9349
799.90 0.9348
800.00 0.9347
800.10 0.9345
800.20 0.9344
800.30 0.9343
800.40 0.9342
800.50 0.934
800.60 0.9339
800.70 0.9338
800.80 0.9337
800.90 0.9335
801.00 0.9334
801.10 0.9333
801.20 0.9332
801.30 0.933
801.40 0.9329
801.50 0.9328
801.60 0.9327
801.70 0.9325
801.80 0.9324
801.90 0.9323
802.00 0.9321
802.10 0.932
802.20 0.9319
802.30 0.9318
802.40 0.9316
802.50 0.9315
802.60 0.9314
802.70 0.9313
802.80 0.9311
802.90 0.931
803.00 0.9309
803.10 0.9308
803.20 0.9306
803.30 0.9305
803.40 0.9304
803.50 0.9303
803.60 0.9301
803.70 0.93
803.80 0.9299
803.90 0.9298
804.00 0.9296
804.10 0.9295
804.20 0.9294
804.30 0.9293
804.40 0.9291
804.50 0.929
804.60 0.9289
804.70 0.9288
804.80 0.9286
804.90 0.9285
805.00 0.9284
805.10 0.9283
805.20 0.9281
805.30 0.928
805.40 0.9279
805.50 0.9278
805.60 0.9276
805.70 0.9275
805.80 0.9274
805.90 0.9273
806.00 0.9271
806.10 0.927
806.20 0.9269
806.30 0.9268
806.40 0.9266
806.50 0.9265
806.60 0.9264
806.70 0.9263
806.80 0.9261
806.90 0.926
807.00 0.9259
807.10 0.9258
807.20 0.9256
807.30 0.9255
807.40 0.9254
807.50 0.9253
807.60 0.9251
807.70 0.925
807.80 0.9249
807.90 0.9248
808.00 0.9246
808.10 0.9245
808.20 0.9244
808.30 0.9243
808.40 0.9241
808.50 0.924
808.60 0.9239
808.70 0.9238
808.80 0.9236
808.90 0.9235
809.00 0.9234
809.10 0.9233
809.20 0.9231
809.30 0.923
809.40 0.9229
809.50 0.9228
809.60 0.9227
809.70 0.9225
809.80 0.9224
809.90 0.9223
810.00 0.9222
810.10 0.922
810.20 0.9219
810.30 0.9218
810.40 0.9216
810.50 0.9215
810.60 0.9214
810.70 0.9213
810.80 0.9211
810.90 0.921
811.00 0.9209
811.10 0.9207
811.20 0.9206
811.30 0.9205
811.40 0.9204
811.50 0.9202
811.60 0.9201
811.70 0.92
811.80 0.9198
811.90 0.9197
812.00 0.9196
812.10 0.9195
812.20 0.9193
812.30 0.9192
812.40 0.9191
812.50 0.919
812.60 0.9188
812.70 0.9187
812.80 0.9186
812.90 0.9184
813.00 0.9183
813.10 0.9182
813.20 0.9181
813.30 0.9179
813.40 0.9178
813.50 0.9177
813.60 0.9175
813.70 0.9174
813.80 0.9173
813.90 0.9172
814.00 0.917
814.10 0.9169
814.20 0.9168
814.30 0.9167
814.40 0.9165
814.50 0.9164
814.60 0.9163
814.70 0.9161
814.80 0.916
814.90 0.9159
815.00 0.9158
815.10 0.9156
815.20 0.9155
815.30 0.9154
815.40 0.9153
815.50 0.9151
815.60 0.915
815.70 0.9149
815.80 0.9147
815.90 0.9146
816.00 0.9145
816.10 0.9144
816.20 0.9142
816.30 0.9141
816.40 0.914
816.50 0.9139
816.60 0.9137
816.70 0.9136
816.80 0.9135
816.90 0.9134
817.00 0.9132
817.10 0.9131
817.20 0.913
817.30 0.9129
817.40 0.9127
817.50 0.9126
817.60 0.9125
817.70 0.9123
817.80 0.9122
817.90 0.9121
818.00 0.912
818.10 0.9118
818.20 0.9117
818.30 0.9116
818.40 0.9115
818.50 0.9113
818.60 0.9112
818.70 0.9111
818.80 0.911
818.90 0.9108
819.00 0.9107
819.10 0.9106
819.20 0.9105
819.30 0.9103
819.40 0.9102
819.50 0.9101
819.60 0.91
819.70 0.9098
819.80 0.9097
819.90 0.9096
820.00 0.9095
820.10 0.9093
820.20 0.9092
820.30 0.9091
820.40 0.909
820.50 0.9088
820.60 0.9087
820.70 0.9086
820.80 0.9084
820.90 0.9083
821.00 0.9082
821.10 0.9081
821.20 0.9079
821.30 0.9078
821.40 0.9077
821.50 0.9075
821.60 0.9074
821.70 0.9073
821.80 0.9072
821.90 0.907
822.00 0.9069
822.10 0.9068
822.20 0.9067
822.30 0.9065
822.40 0.9064
822.50 0.9063
822.60 0.9061
822.70 0.906
822.80 0.9059
822.90 0.9057
823.00 0.9056
823.10 0.9055
823.20 0.9054
823.30 0.9052
823.40 0.9051
823.50 0.905
823.60 0.9048
823.70 0.9047
823.80 0.9046
823.90 0.9045
824.00 0.9043
824.10 0.9042
824.20 0.9041
824.30 0.9039
824.40 0.9038
824.50 0.9037
824.60 0.9036
824.70 0.9034
824.80 0.9033
824.90 0.9032
825.00 0.9031
825.10 0.9029
825.20 0.9028
825.30 0.9027
825.40 0.9025
825.50 0.9024
825.60 0.9023
825.70 0.9022
825.80 0.902
825.90 0.9019
826.00 0.9018
826.10 0.9016
826.20 0.9015
826.30 0.9014
826.40 0.9013
826.50 0.9011
826.60 0.901
826.70 0.9009
826.80 0.9008
826.90 0.9006
827.00 0.9005
827.10 0.9004
827.20 0.9002
827.30 0.9001
827.40 0.9
827.50 0.8998
827.60 0.8997
827.70 0.8996
827.80 0.8995
827.90 0.8993
828.00 0.8992
828.10 0.8991
828.20 0.8989
828.30 0.8988
828.40 0.8987
828.50 0.8986
828.60 0.8984
828.70 0.8983
828.80 0.8982
828.90 0.898
829.00 0.8979
829.10 0.8978
829.20 0.8977
829.30 0.8975
829.40 0.8974
829.50 0.8973
829.60 0.8971
829.70 0.897
829.80 0.8969
829.90 0.8968
830.00 0.8966
830.10 0.8965
830.20 0.8964
830.30 0.8962
830.40 0.8961
830.50 0.896
830.60 0.8959
830.70 0.8957
830.80 0.8956
830.90 0.8955
831.00 0.8953
831.10 0.8952
831.20 0.8951
831.30 0.895
831.40 0.8948
831.50 0.8947
831.60 0.8946
831.70 0.8944
831.80 0.8943
831.90 0.8942
832.00 0.8941
832.10 0.8939
832.20 0.8938
832.30 0.8937
832.40 0.8935
832.50 0.8934
832.60 0.8933
832.70 0.8931
832.80 0.893
832.90 0.8929
833.00 0.8928
833.10 0.8926
833.20 0.8925
833.30 0.8924
833.40 0.8922
833.50 0.8921
833.60 0.892
833.70 0.8918
833.80 0.8917
833.90 0.8916
834.00 0.8915
834.10 0.8913
834.20 0.8912
834.30 0.8911
834.40 0.8909
834.50 0.8908
834.60 0.8907
834.70 0.8905
834.80 0.8904
834.90 0.8903
835.00 0.8902
835.10 0.89
835.20 0.8899
835.30 0.8898
835.40 0.8896
835.50 0.8895
835.60 0.8894
835.70 0.8893
835.80 0.8891
835.90 0.889
836.00 0.8889
836.10 0.8887
836.20 0.8886
836.30 0.8885
836.40 0.8883
836.50 0.8882
836.60 0.8881
836.70 0.888
836.80 0.8878
836.90 0.8877
837.00 0.8876
837.10 0.8874
837.20 0.8873
837.30 0.8872
837.40 0.8871
837.50 0.8869
837.60 0.8868
837.70 0.8867
837.80 0.8865
837.90 0.8864
838.00 0.8863
838.10 0.8861
838.20 0.886
838.30 0.8859
838.40 0.8858
838.50 0.8856
838.60 0.8855
838.70 0.8854
838.80 0.8852
838.90 0.8851
839.00 0.885
839.10 0.8848
839.20 0.8847
839.30 0.8846
839.40 0.8845
839.50 0.8843
839.60 0.8842
839.70 0.8841
839.80 0.8839
839.90 0.8838
840.00 0.8837
840.10 0.8835
840.20 0.8834
840.30 0.8833
840.40 0.8832
840.50 0.883
840.60 0.8829
840.70 0.8828
840.80 0.8826
840.90 0.8825
841.00 0.8824
841.10 0.8823
841.20 0.8821
841.30 0.882
841.40 0.8819
841.50 0.8817
841.60 0.8816
841.70 0.8815
841.80 0.8813
841.90 0.8812
842.00 0.8811
842.10 0.881
842.20 0.8808
842.30 0.8807
842.40 0.8806
842.50 0.8804
842.60 0.8803
842.70 0.8802
842.80 0.88
842.90 0.8799
843.00 0.8798
843.10 0.8796
843.20 0.8795
843.30 0.8794
843.40 0.8793
843.50 0.8791
843.60 0.879
843.70 0.8789
843.80 0.8787
843.90 0.8786
844.00 0.8785
844.10 0.8783
844.20 0.8782
844.30 0.8781
844.40 0.8779
844.50 0.8778
844.60 0.8777
844.70 0.8776
844.80 0.8774
844.90 0.8773
845.00 0.8772
845.10 0.877
845.20 0.8769
845.30 0.8768
845.40 0.8766
845.50 0.8765
845.60 0.8764
845.70 0.8763
845.80 0.8761
845.90 0.876
846.00 0.8759
846.10 0.8757
846.20 0.8756
846.30 0.8755
846.40 0.8753
846.50 0.8752
846.60 0.8751
846.70 0.875
846.80 0.8748
846.90 0.8747
847.00 0.8746
847.10 0.8744
847.20 0.8743
847.30 0.8742
847.40 0.874
847.50 0.8739
847.60 0.8738
847.70 0.8736
847.80 0.8735
847.90 0.8734
848.00 0.8733
848.10 0.8731
848.20 0.873
848.30 0.8729
848.40 0.8727
848.50 0.8726
848.60 0.8725
848.70 0.8723
848.80 0.8722
848.90 0.8721
849.00 0.8719
849.10 0.8718
849.20 0.8717
849.30 0.8715
849.40 0.8714
849.50 0.8713
849.60 0.8712
849.70 0.871
849.80 0.8709
849.90 0.8708
850.00 0.8706
850.10 0.8705
850.20 0.8704
850.30 0.8702
850.40 0.8701
850.50 0.87
850.60 0.8698
850.70 0.8697
850.80 0.8696
850.90 0.8695
851.00 0.8693
851.10 0.8692
851.20 0.8691
851.30 0.8689
851.40 0.8688
851.50 0.8687
851.60 0.8685
851.70 0.8684
851.80 0.8683
851.90 0.8682
852.00 0.868
852.10 0.8679
852.20 0.8678
852.30 0.8676
852.40 0.8675
852.50 0.8674
852.60 0.8672
852.70 0.8671
852.80 0.867
852.90 0.8668
853.00 0.8667
853.10 0.8666
853.20 0.8664
853.30 0.8663
853.40 0.8662
853.50 0.8661
853.60 0.8659
853.70 0.8658
853.80 0.8657
853.90 0.8655
854.00 0.8654
854.10 0.8653
854.20 0.8651
854.30 0.865
854.40 0.8649
854.50 0.8647
854.60 0.8646
854.70 0.8645
854.80 0.8644
854.90 0.8642
855.00 0.8641
855.10 0.864
855.20 0.8638
855.30 0.8637
855.40 0.8636
855.50 0.8634
855.60 0.8633
855.70 0.8632
855.80 0.863
855.90 0.8629
856.00 0.8628
856.10 0.8627
856.20 0.8625
856.30 0.8624
856.40 0.8623
856.50 0.8621
856.60 0.862
856.70 0.8619
856.80 0.8617
856.90 0.8616
857.00 0.8615
857.10 0.8614
857.20 0.8612
857.30 0.8611
857.40 0.861
857.50 0.8608
857.60 0.8607
857.70 0.8606
857.80 0.8604
857.90 0.8603
858.00 0.8602
858.10 0.86
858.20 0.8599
858.30 0.8598
858.40 0.8596
858.50 0.8595
858.60 0.8594
858.70 0.8592
858.80 0.8591
858.90 0.859
859.00 0.8588
859.10 0.8587
859.20 0.8586
859.30 0.8585
859.40 0.8583
859.50 0.8582
859.60 0.8581
859.70 0.8579
859.80 0.8578
859.90 0.8577
860.00 0.8575
860.10 0.8574
860.20 0.8573
860.30 0.8571
860.40 0.857
860.50 0.8569
860.60 0.8567
860.70 0.8566
860.80 0.8565
860.90 0.8564
861.00 0.8562
861.10 0.8561
861.20 0.856
861.30 0.8558
861.40 0.8557
861.50 0.8556
861.60 0.8554
861.70 0.8553
861.80 0.8552
861.90 0.855
862.00 0.8549
862.10 0.8548
862.20 0.8547
862.30 0.8545
862.40 0.8544
862.50 0.8543
862.60 0.8541
862.70 0.854
862.80 0.8539
862.90 0.8537
863.00 0.8536
863.10 0.8535
863.20 0.8533
863.30 0.8532
863.40 0.8531
863.50 0.8529
863.60 0.8528
863.70 0.8527
863.80 0.8525
863.90 0.8524
864.00 0.8523
864.10 0.8521
864.20 0.852
864.30 0.8519
864.40 0.8517
864.50 0.8516
864.60 0.8515
864.70 0.8513
864.80 0.8512
864.90 0.8511
865.00 0.851
865.10 0.8508
865.20 0.8507
865.30 0.8506
865.40 0.8504
865.50 0.8503
865.60 0.8502
865.70 0.85
865.80 0.8499
865.90 0.8498
866.00 0.8496
866.10 0.8495
866.20 0.8494
866.30 0.8492
866.40 0.8491
866.50 0.849
866.60 0.8489
866.70 0.8487
866.80 0.8486
866.90 0.8485
867.00 0.8483
867.10 0.8482
867.20 0.8481
867.30 0.8479
867.40 0.8478
867.50 0.8477
867.60 0.8475
867.70 0.8474
867.80 0.8473
867.90 0.8471
868.00 0.847
868.10 0.8469
868.20 0.8467
868.30 0.8466
868.40 0.8465
868.50 0.8463
868.60 0.8462
868.70 0.8461
868.80 0.8459
868.90 0.8458
869.00 0.8457
869.10 0.8456
869.20 0.8454
869.30 0.8453
869.40 0.8452
869.50 0.845
869.60 0.8449
869.70 0.8448
869.80 0.8446
869.90 0.8445
870.00 0.8444
870.10 0.8442
870.20 0.8441
870.30 0.844
870.40 0.8438
870.50 0.8437
870.60 0.8436
870.70 0.8434
870.80 0.8433
870.90 0.8432
871.00 0.8431
871.10 0.8429
871.20 0.8428
871.30 0.8427
871.40 0.8425
871.50 0.8424
871.60 0.8423
871.70 0.8421
871.80 0.842
871.90 0.8419
872.00 0.8417
872.10 0.8416
872.20 0.8415
872.30 0.8413
872.40 0.8412
872.50 0.8411
872.60 0.8409
872.70 0.8408
872.80 0.8407
872.90 0.8405
873.00 0.8404
873.10 0.8403
873.20 0.8401
873.30 0.84
873.40 0.8399
873.50 0.8397
873.60 0.8396
873.70 0.8395
873.80 0.8394
873.90 0.8392
874.00 0.8391
874.10 0.839
874.20 0.8388
874.30 0.8387
874.40 0.8386
874.50 0.8384
874.60 0.8383
874.70 0.8382
874.80 0.838
874.90 0.8379
875.00 0.8378
875.10 0.8376
875.20 0.8375
875.30 0.8374
875.40 0.8372
875.50 0.8371
875.60 0.837
875.70 0.8368
875.80 0.8367
875.90 0.8366
876.00 0.8365
876.10 0.8363
876.20 0.8362
876.30 0.8361
876.40 0.8359
876.50 0.8358
876.60 0.8357
876.70 0.8355
876.80 0.8354
876.90 0.8353
877.00 0.8351
877.10 0.835
877.20 0.8349
877.30 0.8347
877.40 0.8346
877.50 0.8345
877.60 0.8343
877.70 0.8342
877.80 0.8341
877.90 0.8339
878.00 0.8338
878.10 0.8337
878.20 0.8335
878.30 0.8334
878.40 0.8333
878.50 0.8331
878.60 0.833
878.70 0.8329
878.80 0.8327
878.90 0.8326
879.00 0.8325
879.10 0.8323
879.20 0.8322
879.30 0.8321
879.40 0.8319
879.50 0.8318
879.60 0.8317
879.70 0.8315
879.80 0.8314
879.90 0.8313
880.00 0.8311
880.10 0.831
880.20 0.8309
880.30 0.8308
880.40 0.8306
880.50 0.8305
880.60 0.8304
880.70 0.8302
880.80 0.8301
880.90 0.83
881.00 0.8298
881.10 0.8297
881.20 0.8296
881.30 0.8294
881.40 0.8293
881.50 0.8292
881.60 0.829
881.70 0.8289
881.80 0.8288
881.90 0.8286
882.00 0.8285
882.10 0.8284
882.20 0.8282
882.30 0.8281
882.40 0.828
882.50 0.8278
882.60 0.8277
882.70 0.8276
882.80 0.8274
882.90 0.8273
883.00 0.8272
883.10 0.827
883.20 0.8269
883.30 0.8268
883.40 0.8266
883.50 0.8265
883.60 0.8264
883.70 0.8262
883.80 0.8261
883.90 0.826
884.00 0.8258
884.10 0.8257
884.20 0.8256
884.30 0.8254
884.40 0.8253
884.50 0.8252
884.60 0.825
884.70 0.8249
884.80 0.8248
884.90 0.8247
885.00 0.8245
885.10 0.8244
885.20 0.8243
885.30 0.8241
885.40 0.824
885.50 0.8239
885.60 0.8237
885.70 0.8236
885.80 0.8235
885.90 0.8233
886.00 0.8232
886.10 0.8231
886.20 0.8229
886.30 0.8228
886.40 0.8227
886.50 0.8225
886.60 0.8224
886.70 0.8223
886.80 0.8221
886.90 0.822
887.00 0.8219
887.10 0.8217
887.20 0.8216
887.30 0.8215
887.40 0.8213
887.50 0.8212
887.60 0.8211
887.70 0.8209
887.80 0.8208
887.90 0.8207
888.00 0.8205
888.10 0.8204
888.20 0.8203
888.30 0.8201
888.40 0.82
888.50 0.8199
888.60 0.8197
888.70 0.8196
888.80 0.8195
888.90 0.8193
889.00 0.8192
889.10 0.8191
889.20 0.8189
889.30 0.8188
889.40 0.8187
889.50 0.8185
889.60 0.8184
889.70 0.8183
889.80 0.8181
889.90 0.818
890.00 0.8179
890.10 0.8177
890.20 0.8176
890.30 0.8175
890.40 0.8173
890.50 0.8172
890.60 0.8171
890.70 0.8169
890.80 0.8168
890.90 0.8167
891.00 0.8165
891.10 0.8164
891.20 0.8163
891.30 0.8161
891.40 0.816
891.50 0.8159
891.60 0.8157
891.70 0.8156
891.80 0.8155
891.90 0.8154
892.00 0.8152
892.10 0.8151
892.20 0.815
892.30 0.8148
892.40 0.8147
892.50 0.8146
892.60 0.8144
892.70 0.8143
892.80 0.8142
892.90 0.814
893.00 0.8139
893.10 0.8138
893.20 0.8136
893.30 0.8135
893.40 0.8134
893.50 0.8132
893.60 0.8131
893.70 0.813
893.80 0.8128
893.90 0.8127
894.00 0.8126
894.10 0.8124
894.20 0.8123
894.30 0.8122
894.40 0.812
894.50 0.8119
894.60 0.8118
894.70 0.8117
894.80 0.8115
894.90 0.8114
895.00 0.8113
895.10 0.8111
895.20 0.811
895.30 0.8109
895.40 0.8107
895.50 0.8106
895.60 0.8105
895.70 0.8103
895.80 0.8102
895.90 0.8101
896.00 0.8099
896.10 0.8098
896.20 0.8097
896.30 0.8096
896.40 0.8094
896.50 0.8093
896.60 0.8092
896.70 0.809
896.80 0.8089
896.90 0.8088
897.00 0.8086
897.10 0.8085
897.20 0.8084
897.30 0.8082
897.40 0.8081
897.50 0.808
897.60 0.8078
897.70 0.8077
897.80 0.8076
897.90 0.8074
898.00 0.8073
898.10 0.8072
898.20 0.807
898.30 0.8069
898.40 0.8067
898.50 0.8066
898.60 0.8065
898.70 0.8063
898.80 0.8062
898.90 0.8061
899.00 0.8059
899.10 0.8058
899.20 0.8057
899.30 0.8055
899.40 0.8054
899.50 0.8053
899.60 0.8051
899.70 0.805
899.80 0.8049
899.90 0.8047
900.00 0.8046
900.10 0.8045
900.20 0.8043
900.30 0.8042
900.40 0.8041
900.50 0.8039
900.60 0.8038
900.70 0.8037
900.80 0.8035
900.90 0.8034
901.00 0.8033
901.10 0.8031
901.20 0.803
901.30 0.8029
901.40 0.8027
901.50 0.8026
901.60 0.8025
901.70 0.8023
901.80 0.8022
901.90 0.8021
902.00 0.8019
902.10 0.8018
902.20 0.8016
902.30 0.8015
902.40 0.8014
902.50 0.8012
902.60 0.8011
902.70 0.8009
902.80 0.8008
902.90 0.8007
903.00 0.8005
903.10 0.8004
903.20 0.8002
903.30 0.8001
903.40 0.7999
903.50 0.7998
903.60 0.7997
903.70 0.7995
903.80 0.7994
903.90 0.7992
904.00 0.7991
904.10 0.799
904.20 0.7988
904.30 0.7987
904.40 0.7985
904.50 0.7984
904.60 0.7983
904.70 0.7981
904.80 0.798
904.90 0.7978
905.00 0.7977
905.10 0.7976
905.20 0.7974
905.30 0.7973
905.40 0.7971
905.50 0.797
905.60 0.7969
905.70 0.7967
905.80 0.7966
905.90 0.7964
906.00 0.7963
906.10 0.7962
906.20 0.796
906.30 0.7959
906.40 0.7957
906.50 0.7956
906.60 0.7955
906.70 0.7953
906.80 0.7952
906.90 0.795
907.00 0.7949
907.10 0.7948
907.20 0.7946
907.30 0.7945
907.40 0.7943
907.50 0.7942
907.60 0.7941
907.70 0.7939
907.80 0.7938
907.90 0.7937
908.00 0.7935
908.10 0.7934
908.20 0.7932
908.30 0.7931
908.40 0.793
908.50 0.7928
908.60 0.7927
908.70 0.7926
908.80 0.7924
908.90 0.7923
909.00 0.7921
909.10 0.792
909.20 0.7919
909.30 0.7917
909.40 0.7916
909.50 0.7915
909.60 0.7913
909.70 0.7912
909.80 0.7911
909.90 0.7909
910.00 0.7908
910.10 0.7906
910.20 0.7905
910.30 0.7904
910.40 0.7902
910.50 0.7901
910.60 0.79
910.70 0.7898
910.80 0.7897
910.90 0.7896
911.00 0.7894
911.10 0.7893
911.20 0.7891
911.30 0.789
911.40 0.7889
911.50 0.7887
911.60 0.7886
911.70 0.7885
911.80 0.7883
911.90 0.7882
912.00 0.7881
912.10 0.7879
912.20 0.7878
912.30 0.7877
912.40 0.7875
912.50 0.7874
912.60 0.7873
912.70 0.7871
912.80 0.787
912.90 0.7869
913.00 0.7867
913.10 0.7866
913.20 0.7865
913.30 0.7863
913.40 0.7862
913.50 0.7861
913.60 0.7859
913.70 0.7858
913.80 0.7857
913.90 0.7855
914.00 0.7854
914.10 0.7853
914.20 0.7851
914.30 0.785
914.40 0.7849
914.50 0.7847
914.60 0.7846
914.70 0.7845
914.80 0.7843
914.90 0.7842
915.00 0.7841
915.10 0.7839
915.20 0.7838
915.30 0.7837
915.40 0.7835
915.50 0.7834
915.60 0.7833
915.70 0.7831
915.80 0.783
915.90 0.7829
916.00 0.7827
916.10 0.7826
916.20 0.7825
916.30 0.7823
916.40 0.7822
916.50 0.7821
916.60 0.7819
916.70 0.7818
916.80 0.7817
916.90 0.7815
917.00 0.7814
917.10 0.7813
917.20 0.7811
917.30 0.781
917.40 0.7809
917.50 0.7807
917.60 0.7806
917.70 0.7805
917.80 0.7803
917.90 0.7802
918.00 0.7801
918.10 0.7799
918.20 0.7798
918.30 0.7796
918.40 0.7795
918.50 0.7794
918.60 0.7792
918.70 0.7791
918.80 0.779
918.90 0.7788
919.00 0.7787
919.10 0.7786
919.20 0.7784
919.30 0.7783
919.40 0.7782
919.50 0.778
919.60 0.7779
919.70 0.7777
919.80 0.7776
919.90 0.7775
920.00 0.7773
920.10 0.7772
920.20 0.7771
920.30 0.7769
920.40 0.7768
920.50 0.7767
920.60 0.7765
920.70 0.7764
920.80 0.7763
920.90 0.7761
921.00 0.776
921.10 0.7759
921.20 0.7757
921.30 0.7756
921.40 0.7755
921.50 0.7753
921.60 0.7752
921.70 0.7751
921.80 0.7749
921.90 0.7748
922.00 0.7747
922.10 0.7745
922.20 0.7744
922.30 0.7742
922.40 0.7741
922.50 0.774
922.60 0.7738
922.70 0.7737
922.80 0.7736
922.90 0.7734
923.00 0.7733
923.10 0.7732
923.20 0.773
923.30 0.7729
923.40 0.7728
923.50 0.7726
923.60 0.7725
923.70 0.7723
923.80 0.7722
923.90 0.7721
924.00 0.7719
924.10 0.7718
924.20 0.7717
924.30 0.7715
924.40 0.7714
924.50 0.7713
924.60 0.7711
924.70 0.771
924.80 0.7709
924.90 0.7707
925.00 0.7706
925.10 0.7705
925.20 0.7703
925.30 0.7702
925.40 0.7701
925.50 0.7699
925.60 0.7698
925.70 0.7697
925.80 0.7695
925.90 0.7694
926.00 0.7692
926.10 0.7691
926.20 0.769
926.30 0.7688
926.40 0.7687
926.50 0.7686
926.60 0.7684
926.70 0.7683
926.80 0.7682
926.90 0.768
927.00 0.7679
927.10 0.7678
927.20 0.7676
927.30 0.7675
927.40 0.7674
927.50 0.7672
927.60 0.7671
927.70 0.767
927.80 0.7668
927.90 0.7667
928.00 0.7665
928.10 0.7664
928.20 0.7663
928.30 0.7661
928.40 0.766
928.50 0.7659
928.60 0.7657
928.70 0.7656
928.80 0.7655
928.90 0.7653
929.00 0.7652
929.10 0.7651
929.20 0.7649
929.30 0.7648
929.40 0.7647
929.50 0.7645
929.60 0.7644
929.70 0.7642
929.80 0.7641
929.90 0.764
930.00 0.7638
930.10 0.7637
930.20 0.7636
930.30 0.7634
930.40 0.7633
930.50 0.7632
930.60 0.763
930.70 0.7629
930.80 0.7628
930.90 0.7626
931.00 0.7625
931.10 0.7624
931.20 0.7622
931.30 0.7621
931.40 0.762
931.50 0.7618
931.60 0.7617
931.70 0.7616
931.80 0.7614
931.90 0.7613
932.00 0.7612
932.10 0.761
932.20 0.7609
932.30 0.7607
932.40 0.7606
932.50 0.7605
932.60 0.7603
932.70 0.7602
932.80 0.7601
932.90 0.7599
933.00 0.7598
933.10 0.7597
933.20 0.7595
933.30 0.7594
933.40 0.7592
933.50 0.7591
933.60 0.759
933.70 0.7588
933.80 0.7587
933.90 0.7586
934.00 0.7584
934.10 0.7583
934.20 0.7582
934.30 0.758
934.40 0.7579
934.50 0.7578
934.60 0.7576
934.70 0.7575
934.80 0.7573
934.90 0.7572
935.00 0.7571
935.10 0.7569
935.20 0.7568
935.30 0.7567
935.40 0.7565
935.50 0.7564
935.60 0.7563
935.70 0.7561
935.80 0.756
935.90 0.7559
936.00 0.7557
936.10 0.7556
936.20 0.7555
936.30 0.7553
936.40 0.7552
936.50 0.7551
936.60 0.7549
936.70 0.7548
936.80 0.7547
936.90 0.7545
937.00 0.7544
937.10 0.7543
937.20 0.7541
937.30 0.754
937.40 0.7538
937.50 0.7537
937.60 0.7536
937.70 0.7534
937.80 0.7533
937.90 0.7532
938.00 0.753
938.10 0.7529
938.20 0.7528
938.30 0.7526
938.40 0.7525
938.50 0.7523
938.60 0.7522
938.70 0.7521
938.80 0.7519
938.90 0.7518
939.00 0.7517
939.10 0.7515
939.20 0.7514
939.30 0.7513
939.40 0.7511
939.50 0.751
939.60 0.7509
939.70 0.7507
939.80 0.7506
939.90 0.7504
940.00 0.7503
940.10 0.7502
940.20 0.75
940.30 0.7499
940.40 0.7498
940.50 0.7496
940.60 0.7495
940.70 0.7494
940.80 0.7492
940.90 0.7491
941.00 0.749
941.10 0.7488
941.20 0.7487
941.30 0.7485
941.40 0.7484
941.50 0.7483
941.60 0.7481
941.70 0.748
941.80 0.7479
941.90 0.7477
942.00 0.7476
942.10 0.7475
942.20 0.7473
942.30 0.7472
942.40 0.7471
942.50 0.7469
942.60 0.7468
942.70 0.7466
942.80 0.7465
942.90 0.7464
943.00 0.7462
943.10 0.7461
943.20 0.746
943.30 0.7458
943.40 0.7457
943.50 0.7456
943.60 0.7454
943.70 0.7453
943.80 0.7452
943.90 0.745
944.00 0.7449
944.10 0.7447
944.20 0.7446
944.30 0.7445
944.40 0.7443
944.50 0.7442
944.60 0.7441
944.70 0.7439
944.80 0.7438
944.90 0.7437
945.00 0.7435
945.10 0.7434
945.20 0.7432
945.30 0.7431
945.40 0.743
945.50 0.7428
945.60 0.7427
945.70 0.7426
945.80 0.7424
945.90 0.7423
946.00 0.7422
946.10 0.742
946.20 0.7419
946.30 0.7418
946.40 0.7416
946.50 0.7415
946.60 0.7413
946.70 0.7412
946.80 0.7411
946.90 0.7409
947.00 0.7408
947.10 0.7407
947.20 0.7405
947.30 0.7404
947.40 0.7403
947.50 0.7401
947.60 0.74
947.70 0.7399
947.80 0.7397
947.90 0.7396
948.00 0.7394
948.10 0.7393
948.20 0.7392
948.30 0.739
948.40 0.7389
948.50 0.7388
948.60 0.7386
948.70 0.7385
948.80 0.7384
948.90 0.7382
949.00 0.7381
949.10 0.7379
949.20 0.7378
949.30 0.7377
949.40 0.7375
949.50 0.7374
949.60 0.7373
949.70 0.7371
949.80 0.737
949.90 0.7369
950.00 0.7367
950.10 0.7366
950.20 0.7365
950.30 0.7363
950.40 0.7362
950.50 0.736
950.60 0.7359
950.70 0.7358
950.80 0.7356
950.90 0.7355
951.00 0.7354
951.10 0.7352
951.20 0.7351
951.30 0.735
951.40 0.7348
951.50 0.7347
951.60 0.7346
951.70 0.7344
951.80 0.7343
951.90 0.7342
952.00 0.734
952.10 0.7339
952.20 0.7337
952.30 0.7336
952.40 0.7335
952.50 0.7333
952.60 0.7332
952.70 0.7331
952.80 0.7329
952.90 0.7328
953.00 0.7327
953.10 0.7325
953.20 0.7324
953.30 0.7322
953.40 0.7321
953.50 0.732
953.60 0.7318
953.70 0.7317
953.80 0.7316
953.90 0.7314
954.00 0.7313
954.10 0.7312
954.20 0.731
954.30 0.7309
954.40 0.7308
954.50 0.7306
954.60 0.7305
954.70 0.7303
954.80 0.7302
954.90 0.7301
955.00 0.7299
955.10 0.7298
955.20 0.7297
955.30 0.7295
955.40 0.7294
955.50 0.7293
955.60 0.7291
955.70 0.729
955.80 0.7289
955.90 0.7287
956.00 0.7286
956.10 0.7284
956.20 0.7283
956.30 0.7282
956.40 0.728
956.50 0.7279
956.60 0.7278
956.70 0.7276
956.80 0.7275
956.90 0.7274
957.00 0.7272
957.10 0.7271
957.20 0.7269
957.30 0.7268
957.40 0.7267
957.50 0.7265
957.60 0.7264
957.70 0.7263
957.80 0.7261
957.90 0.726
958.00 0.7259
958.10 0.7257
958.20 0.7256
958.30 0.7255
958.40 0.7253
958.50 0.7252
958.60 0.725
958.70 0.7249
958.80 0.7248
958.90 0.7246
959.00 0.7245
959.10 0.7244
959.20 0.7242
959.30 0.7241
959.40 0.724
959.50 0.7238
959.60 0.7237
959.70 0.7236
959.80 0.7234
959.90 0.7233
960.00 0.7231
960.10 0.723
960.20 0.7229
960.30 0.7227
960.40 0.7226
960.50 0.7225
960.60 0.7223
960.70 0.7222
960.80 0.7221
960.90 0.7219
961.00 0.7218
961.10 0.7217
961.20 0.7215
961.30 0.7214
961.40 0.7212
961.50 0.7211
961.60 0.721
961.70 0.7208
961.80 0.7207
961.90 0.7206
962.00 0.7204
962.10 0.7203
962.20 0.7202
962.30 0.72
962.40 0.7199
962.50 0.7198
962.60 0.7196
962.70 0.7195
962.80 0.7193
962.90 0.7192
963.00 0.7191
963.10 0.7189
963.20 0.7188
963.30 0.7187
963.40 0.7185
963.50 0.7184
963.60 0.7183
963.70 0.7181
963.80 0.718
963.90 0.7178
964.00 0.7177
964.10 0.7176
964.20 0.7174
964.30 0.7173
964.40 0.7172
964.50 0.717
964.60 0.7169
964.70 0.7168
964.80 0.7166
964.90 0.7165
965.00 0.7164
965.10 0.7162
965.20 0.7161
965.30 0.716
965.40 0.7158
965.50 0.7157
965.60 0.7155
965.70 0.7154
965.80 0.7153
965.90 0.7151
966.00 0.715
966.10 0.7149
966.20 0.7147
966.30 0.7146
966.40 0.7145
966.50 0.7143
966.60 0.7142
966.70 0.7141
966.80 0.7139
966.90 0.7138
967.00 0.7136
967.10 0.7135
967.20 0.7134
967.30 0.7132
967.40 0.7131
967.50 0.713
967.60 0.7128
967.70 0.7127
967.80 0.7126
967.90 0.7124
968.00 0.7123
968.10 0.7122
968.20 0.712
968.30 0.7119
968.40 0.7117
968.50 0.7116
968.60 0.7115
968.70 0.7113
968.80 0.7112
968.90 0.7111
969.00 0.7109
969.10 0.7108
969.20 0.7107
969.30 0.7105
969.40 0.7104
969.50 0.7103
969.60 0.7101
969.70 0.71
969.80 0.7099
969.90 0.7097
970.00 0.7096
970.10 0.7095
970.20 0.7093
970.30 0.7092
970.40 0.7091
970.50 0.7089
970.60 0.7088
970.70 0.7086
970.80 0.7085
970.90 0.7084
971.00 0.7082
971.10 0.7081
971.20 0.708
971.30 0.7078
971.40 0.7077
971.50 0.7076
971.60 0.7074
971.70 0.7073
971.80 0.7072
971.90 0.707
972.00 0.7069
972.10 0.7068
972.20 0.7066
972.30 0.7065
972.40 0.7064
972.50 0.7062
972.60 0.7061
972.70 0.7059
972.80 0.7058
972.90 0.7057
973.00 0.7055
973.10 0.7054
973.20 0.7053
973.30 0.7051
973.40 0.705
973.50 0.7049
973.60 0.7047
973.70 0.7046
973.80 0.7045
973.90 0.7043
974.00 0.7042
974.10 0.704
974.20 0.7039
974.30 0.7038
974.40 0.7036
974.50 0.7035
974.60 0.7034
974.70 0.7032
974.80 0.7031
974.90 0.703
975.00 0.7028
975.10 0.7027
975.20 0.7026
975.30 0.7024
975.40 0.7023
975.50 0.7022
975.60 0.702
975.70 0.7019
975.80 0.7018
975.90 0.7016
976.00 0.7015
976.10 0.7014
976.20 0.7012
976.30 0.7011
976.40 0.7009
976.50 0.7008
976.60 0.7007
976.70 0.7005
976.80 0.7004
976.90 0.7003
977.00 0.7001
977.10 0.7
977.20 0.6999
977.30 0.6997
977.40 0.6996
977.50 0.6995
977.60 0.6993
977.70 0.6992
977.80 0.6991
977.90 0.6989
978.00 0.6988
978.10 0.6987
978.20 0.6985
978.30 0.6984
978.40 0.6983
978.50 0.6981
978.60 0.698
978.70 0.6979
978.80 0.6977
978.90 0.6976
979.00 0.6975
979.10 0.6973
979.20 0.6972
979.30 0.697
979.40 0.6969
979.50 0.6968
979.60 0.6966
979.70 0.6965
979.80 0.6964
979.90 0.6962
980.00 0.6961
980.10 0.696
980.20 0.6958
980.30 0.6957
980.40 0.6956
980.50 0.6954
980.60 0.6953
980.70 0.6952
980.80 0.695
980.90 0.6949
981.00 0.6948
981.10 0.6946
981.20 0.6945
981.30 0.6944
981.40 0.6942
981.50 0.6941
981.60 0.694
981.70 0.6938
981.80 0.6937
981.90 0.6936
982.00 0.6934
982.10 0.6933
982.20 0.6932
982.30 0.693
982.40 0.6929
982.50 0.6928
982.60 0.6926
982.70 0.6925
982.80 0.6924
982.90 0.6922
983.00 0.6921
983.10 0.692
983.20 0.6918
983.30 0.6917
983.40 0.6916
983.50 0.6914
983.60 0.6913
983.70 0.6912
983.80 0.691
983.90 0.6909
984.00 0.6908
984.10 0.6906
984.20 0.6905
984.30 0.6904
984.40 0.6902
984.50 0.6901
984.60 0.69
984.70 0.6898
984.80 0.6897
984.90 0.6896
985.00 0.6894
985.10 0.6893
985.20 0.6892
985.30 0.689
985.40 0.6889
985.50 0.6888
985.60 0.6886
985.70 0.6885
985.80 0.6884
985.90 0.6882
986.00 0.6881
986.10 0.6879
986.20 0.6878
986.30 0.6877
986.40 0.6875
986.50 0.6874
986.60 0.6873
986.70 0.6871
986.80 0.687
986.90 0.6869
987.00 0.6867
987.10 0.6866
987.20 0.6865
987.30 0.6863
987.40 0.6862
987.50 0.6861
987.60 0.6859
987.70 0.6858
987.80 0.6857
987.90 0.6855
988.00 0.6854
988.10 0.6853
988.20 0.6851
988.30 0.685
988.40 0.6849
988.50 0.6848
988.60 0.6846
988.70 0.6845
988.80 0.6844
988.90 0.6842
989.00 0.6841
989.10 0.684
989.20 0.6838
989.30 0.6837
989.40 0.6836
989.50 0.6834
989.60 0.6833
989.70 0.6832
989.80 0.683
989.90 0.6829
990.00 0.6828
990.10 0.6826
990.20 0.6825
990.30 0.6824
990.40 0.6822
990.50 0.6821
990.60 0.682
990.70 0.6818
990.80 0.6817
990.90 0.6816
991.00 0.6814
991.10 0.6813
991.20 0.6812
991.30 0.681
991.40 0.6809
991.50 0.6808
991.60 0.6807
991.70 0.6805
991.80 0.6804
991.90 0.6803
992.00 0.6801
992.10 0.68
992.20 0.6799
992.30 0.6797
992.40 0.6796
992.50 0.6795
992.60 0.6793
992.70 0.6792
992.80 0.6791
992.90 0.6789
993.00 0.6788
993.10 0.6787
993.20 0.6785
993.30 0.6784
993.40 0.6783
993.50 0.6782
993.60 0.678
993.70 0.6779
993.80 0.6778
993.90 0.6776
994.00 0.6775
994.10 0.6774
994.20 0.6772
994.30 0.6771
994.40 0.677
994.50 0.6768
994.60 0.6767
994.70 0.6766
994.80 0.6764
994.90 0.6763
995.00 0.6762
995.10 0.676
995.20 0.6759
995.30 0.6758
995.40 0.6757
995.50 0.6755
995.60 0.6754
995.70 0.6753
995.80 0.6751
995.90 0.675
996.00 0.6749
996.10 0.6747
996.20 0.6746
996.30 0.6745
996.40 0.6743
996.50 0.6742
996.60 0.6741
996.70 0.674
996.80 0.6738
996.90 0.6737
997.00 0.6736
997.10 0.6734
997.20 0.6733
997.30 0.6732
997.40 0.673
997.50 0.6729
997.60 0.6728
997.70 0.6727
997.80 0.6725
997.90 0.6724
998.00 0.6723
998.10 0.6721
998.20 0.672
998.30 0.6719
998.40 0.6717
998.50 0.6716
998.60 0.6715
998.70 0.6713
998.80 0.6712
998.90 0.6711
999.00 0.671
999.10 0.6708
999.20 0.6707
999.30 0.6706
999.40 0.6704
999.50 0.6703
999.60 0.6702
999.70 0.67
999.80 0.6699
999.90 0.6698
1000.00 0.6697
1000.10 0.6695
1000.20 0.6694
1000.30 0.6693
1000.40 0.6691
1000.50 0.669
1000.60 0.6689
1000.70 0.6687
1000.80 0.6686
1000.90 0.6685
1001.00 0.6684
1001.10 0.6682
1001.20 0.6681
1001.30 0.668
1001.40 0.6678
1001.50 0.6677
1001.60 0.6676
1001.70 0.6674
1001.80 0.6673
1001.90 0.6672
1002.00 0.6671
1002.10 0.6669
1002.20 0.6668
1002.30 0.6667
1002.40 0.6665
1002.50 0.6664
1002.60 0.6663
1002.70 0.6662
1002.80 0.666
1002.90 0.6659
1003.00 0.6658
1003.10 0.6656
1003.20 0.6655
1003.30 0.6654
1003.40 0.6652
1003.50 0.6651
1003.60 0.665
1003.70 0.6648
1003.80 0.6647
1003.90 0.6646
1004.00 0.6645
1004.10 0.6643
1004.20 0.6642
1004.30 0.6641
1004.40 0.664
1004.50 0.6638
1004.60 0.6637
1004.70 0.6636
1004.80 0.6634
1004.90 0.6633
1005.00 0.6632
1005.10 0.6631
1005.20 0.6629
1005.30 0.6628
1005.40 0.6627
1005.50 0.6625
1005.60 0.6624
1005.70 0.6623
1005.80 0.6622
1005.90 0.662
1006.00 0.6619
1006.10 0.6618
1006.20 0.6616
1006.30 0.6615
1006.40 0.6614
1006.50 0.6613
1006.60 0.6611
1006.70 0.661
1006.80 0.6609
1006.90 0.6607
1007.00 0.6606
1007.10 0.6605
1007.20 0.6604
1007.30 0.6602
1007.40 0.6601
1007.50 0.66
1007.60 0.6598
1007.70 0.6597
1007.80 0.6596
1007.90 0.6595
1008.00 0.6593
1008.10 0.6592
1008.20 0.6591
1008.30 0.6589
1008.40 0.6588
1008.50 0.6587
1008.60 0.6586
1008.70 0.6584
1008.80 0.6583
1008.90 0.6582
1009.00 0.658
1009.10 0.6579
1009.20 0.6578
1009.30 0.6577
1009.40 0.6575
1009.50 0.6574
1009.60 0.6573
1009.70 0.6571
1009.80 0.657
1009.90 0.6569
1010.00 0.6568
1010.10 0.6566
1010.20 0.6565
1010.30 0.6564
1010.40 0.6563
1010.50 0.6561
1010.60 0.656
1010.70 0.6559
1010.80 0.6557
1010.90 0.6556
1011.00 0.6555
1011.10 0.6554
1011.20 0.6552
1011.30 0.6551
1011.40 0.655
1011.50 0.6549
1011.60 0.6547
1011.70 0.6546
1011.80 0.6545
1011.90 0.6543
1012.00 0.6542
1012.10 0.6541
1012.20 0.654
1012.30 0.6538
1012.40 0.6537
1012.50 0.6536
1012.60 0.6534
1012.70 0.6533
1012.80 0.6532
1012.90 0.6531
1013.00 0.6529
1013.10 0.6528
1013.20 0.6527
1013.30 0.6526
1013.40 0.6524
1013.50 0.6523
1013.60 0.6522
1013.70 0.652
1013.80 0.6519
1013.90 0.6518
1014.00 0.6517
1014.10 0.6515
1014.20 0.6514
1014.30 0.6513
1014.40 0.6511
1014.50 0.651
1014.60 0.6509
1014.70 0.6508
1014.80 0.6506
1014.90 0.6505
1015.00 0.6504
1015.10 0.6503
1015.20 0.6501
1015.30 0.65
1015.40 0.6499
1015.50 0.6497
1015.60 0.6496
1015.70 0.6495
1015.80 0.6494
1015.90 0.6492
1016.00 0.6491
1016.10 0.649
1016.20 0.6489
1016.30 0.6487
1016.40 0.6486
1016.50 0.6485
1016.60 0.6483
1016.70 0.6482
1016.80 0.6481
1016.90 0.648
1017.00 0.6478
1017.10 0.6477
1017.20 0.6476
1017.30 0.6475
1017.40 0.6473
1017.50 0.6472
1017.60 0.6471
1017.70 0.647
1017.80 0.6468
1017.90 0.6467
1018.00 0.6466
1018.10 0.6464
1018.20 0.6463
1018.30 0.6462
1018.40 0.6461
1018.50 0.6459
1018.60 0.6458
1018.70 0.6457
1018.80 0.6456
1018.90 0.6454
1019.00 0.6453
1019.10 0.6452
1019.20 0.6451
1019.30 0.6449
1019.40 0.6448
1019.50 0.6447
1019.60 0.6446
1019.70 0.6444
1019.80 0.6443
1019.90 0.6442
1020.00 0.6441
1020.10 0.6439
1020.20 0.6438
1020.30 0.6437
1020.40 0.6436
1020.50 0.6434
1020.60 0.6433
1020.70 0.6432
1020.80 0.6431
1020.90 0.6429
1021.00 0.6428
1021.10 0.6427
1021.20 0.6425
1021.30 0.6424
1021.40 0.6423
1021.50 0.6422
1021.60 0.642
1021.70 0.6419
1021.80 0.6418
1021.90 0.6417
1022.00 0.6415
1022.10 0.6414
1022.20 0.6413
1022.30 0.6412
1022.40 0.641
1022.50 0.6409
1022.60 0.6408
1022.70 0.6407
1022.80 0.6405
1022.90 0.6404
1023.00 0.6403
1023.10 0.6402
1023.20 0.64
1023.30 0.6399
1023.40 0.6398
1023.50 0.6397
1023.60 0.6395
1023.70 0.6394
1023.80 0.6393
1023.90 0.6392
1024.00 0.6391
1024.10 0.6389
1024.20 0.6388
1024.30 0.6387
1024.40 0.6386
1024.50 0.6384
1024.60 0.6383
1024.70 0.6382
1024.80 0.6381
1024.90 0.6379
1025.00 0.6378
1025.10 0.6377
1025.20 0.6376
1025.30 0.6374
1025.40 0.6373
1025.50 0.6372
1025.60 0.6371
1025.70 0.6369
1025.80 0.6368
1025.90 0.6367
1026.00 0.6366
1026.10 0.6364
1026.20 0.6363
1026.30 0.6362
1026.40 0.6361
1026.50 0.6359
1026.60 0.6358
1026.70 0.6357
1026.80 0.6356
1026.90 0.6355
1027.00 0.6353
1027.10 0.6352
1027.20 0.6351
1027.30 0.635
1027.40 0.6348
1027.50 0.6347
1027.60 0.6346
1027.70 0.6345
1027.80 0.6343
1027.90 0.6342
1028.00 0.6341
1028.10 0.634
1028.20 0.6338
1028.30 0.6337
1028.40 0.6336
1028.50 0.6335
1028.60 0.6333
1028.70 0.6332
1028.80 0.6331
1028.90 0.633
1029.00 0.6329
1029.10 0.6327
1029.20 0.6326
1029.30 0.6325
1029.40 0.6324
1029.50 0.6322
1029.60 0.6321
1029.70 0.632
1029.80 0.6319
1029.90 0.6317
1030.00 0.6316
1030.10 0.6315
1030.20 0.6314
1030.30 0.6313
1030.40 0.6311
1030.50 0.631
1030.60 0.6309
1030.70 0.6308
1030.80 0.6306
1030.90 0.6305
1031.00 0.6304
1031.10 0.6303
1031.20 0.6302
1031.30 0.63
1031.40 0.6299
1031.50 0.6298
1031.60 0.6297
1031.70 0.6295
1031.80 0.6294
1031.90 0.6293
1032.00 0.6292
1032.10 0.629
1032.20 0.6289
1032.30 0.6288
1032.40 0.6287
1032.50 0.6286
1032.60 0.6284
1032.70 0.6283
1032.80 0.6282
1032.90 0.6281
1033.00 0.628
1033.10 0.6278
1033.20 0.6277
1033.30 0.6276
1033.40 0.6275
1033.50 0.6273
1033.60 0.6272
1033.70 0.6271
1033.80 0.627
1033.90 0.6269
1034.00 0.6267
1034.10 0.6266
1034.20 0.6265
1034.30 0.6264
1034.40 0.6263
1034.50 0.6261
1034.60 0.626
1034.70 0.6259
1034.80 0.6258
1034.90 0.6257
1035.00 0.6255
1035.10 0.6254
1035.20 0.6253
1035.30 0.6252
1035.40 0.625
1035.50 0.6249
1035.60 0.6248
1035.70 0.6247
1035.80 0.6246
1035.90 0.6244
1036.00 0.6243
1036.10 0.6242
1036.20 0.6241
1036.30 0.624
1036.40 0.6238
1036.50 0.6237
1036.60 0.6236
1036.70 0.6235
1036.80 0.6234
1036.90 0.6232
1037.00 0.6231
1037.10 0.623
1037.20 0.6229
1037.30 0.6228
1037.40 0.6226
1037.50 0.6225
1037.60 0.6224
1037.70 0.6223
1037.80 0.6222
1037.90 0.622
1038.00 0.6219
1038.10 0.6218
1038.20 0.6217
1038.30 0.6216
1038.40 0.6214
1038.50 0.6213
1038.60 0.6212
1038.70 0.6211
1038.80 0.621
1038.90 0.6208
1039.00 0.6207
1039.10 0.6206
1039.20 0.6205
1039.30 0.6204
1039.40 0.6202
1039.50 0.6201
1039.60 0.62
1039.70 0.6199
1039.80 0.6198
1039.90 0.6196
1040.00 0.6195
1040.10 0.6194
1040.20 0.6193
1040.30 0.6192
1040.40 0.619
1040.50 0.6189
1040.60 0.6188
1040.70 0.6187
1040.80 0.6186
1040.90 0.6184
1041.00 0.6183
1041.10 0.6182
1041.20 0.6181
1041.30 0.618
1041.40 0.6178
1041.50 0.6177
1041.60 0.6176
1041.70 0.6175
1041.80 0.6174
1041.90 0.6172
1042.00 0.6171
1042.10 0.617
1042.20 0.6169
1042.30 0.6168
1042.40 0.6166
1042.50 0.6165
1042.60 0.6164
1042.70 0.6163
1042.80 0.6162
1042.90 0.6161
1043.00 0.6159
1043.10 0.6158
1043.20 0.6157
1043.30 0.6156
1043.40 0.6155
1043.50 0.6153
1043.60 0.6152
1043.70 0.6151
1043.80 0.615
1043.90 0.6149
1044.00 0.6148
1044.10 0.6146
1044.20 0.6145
1044.30 0.6144
1044.40 0.6143
1044.50 0.6142
1044.60 0.614
1044.70 0.6139
1044.80 0.6138
1044.90 0.6137
1045.00 0.6136
1045.10 0.6135
1045.20 0.6133
1045.30 0.6132
1045.40 0.6131
1045.50 0.613
1045.60 0.6129
1045.70 0.6128
1045.80 0.6126
1045.90 0.6125
1046.00 0.6124
1046.10 0.6123
1046.20 0.6122
1046.30 0.612
1046.40 0.6119
1046.50 0.6118
1046.60 0.6117
1046.70 0.6116
1046.80 0.6115
1046.90 0.6113
1047.00 0.6112
1047.10 0.6111
1047.20 0.611
1047.30 0.6109
1047.40 0.6108
1047.50 0.6106
1047.60 0.6105
1047.70 0.6104
1047.80 0.6103
1047.90 0.6102
1048.00 0.6101
1048.10 0.6099
1048.20 0.6098
1048.30 0.6097
1048.40 0.6096
1048.50 0.6095
1048.60 0.6094
1048.70 0.6092
1048.80 0.6091
1048.90 0.609
1049.00 0.6089
1049.10 0.6088
1049.20 0.6087
1049.30 0.6085
1049.40 0.6084
1049.50 0.6083
1049.60 0.6082
1049.70 0.6081
1049.80 0.608
1049.90 0.6078
1050.00 0.6077
1050.10 0.6076
1050.20 0.6075
1050.30 0.6074
1050.40 0.6073
1050.50 0.6072
1050.60 0.607
1050.70 0.6069
1050.80 0.6068
1050.90 0.6067
1051.00 0.6066
1051.10 0.6065
1051.20 0.6063
1051.30 0.6062
1051.40 0.6061
1051.50 0.606
1051.60 0.6059
1051.70 0.6058
1051.80 0.6056
1051.90 0.6055
1052.00 0.6054
1052.10 0.6053
1052.20 0.6052
1052.30 0.6051
1052.40 0.605
1052.50 0.6048
1052.60 0.6047
1052.70 0.6046
1052.80 0.6045
1052.90 0.6044
1053.00 0.6043
1053.10 0.6042
1053.20 0.604
1053.30 0.6039
1053.40 0.6038
1053.50 0.6037
1053.60 0.6036
1053.70 0.6035
1053.80 0.6033
1053.90 0.6032
1054.00 0.6031
1054.10 0.603
1054.20 0.6029
1054.30 0.6028
1054.40 0.6027
1054.50 0.6025
1054.60 0.6024
1054.70 0.6023
1054.80 0.6022
1054.90 0.6021
1055.00 0.602
1055.10 0.6019
1055.20 0.6017
1055.30 0.6016
1055.40 0.6015
1055.50 0.6014
1055.60 0.6013
1055.70 0.6012
1055.80 0.6011
1055.90 0.6009
1056.00 0.6008
1056.10 0.6007
1056.20 0.6006
1056.30 0.6005
1056.40 0.6004
1056.50 0.6003
1056.60 0.6001
1056.70 0.6
1056.80 0.5999
1056.90 0.5998
1057.00 0.5997
1057.10 0.5996
1057.20 0.5995
1057.30 0.5994
1057.40 0.5992
1057.50 0.5991
1057.60 0.599
1057.70 0.5989
1057.80 0.5988
1057.90 0.5987
1058.00 0.5986
1058.10 0.5984
1058.20 0.5983
1058.30 0.5982
1058.40 0.5981
1058.50 0.598
1058.60 0.5979
1058.70 0.5978
1058.80 0.5977
1058.90 0.5975
1059.00 0.5974
1059.10 0.5973
1059.20 0.5972
1059.30 0.5971
1059.40 0.597
1059.50 0.5969
1059.60 0.5968
1059.70 0.5966
1059.80 0.5965
1059.90 0.5964
1060.00 0.5963
1060.10 0.5962
1060.20 0.5961
1060.30 0.596
1060.40 0.5959
1060.50 0.5957
1060.60 0.5956
1060.70 0.5955
1060.80 0.5954
1060.90 0.5953
1061.00 0.5952
1061.10 0.5951
1061.20 0.595
1061.30 0.5949
1061.40 0.5947
1061.50 0.5946
1061.60 0.5945
1061.70 0.5944
1061.80 0.5943
1061.90 0.5942
1062.00 0.5941
1062.10 0.594
1062.20 0.5938
1062.30 0.5937
1062.40 0.5936
1062.50 0.5935
1062.60 0.5934
1062.70 0.5933
1062.80 0.5932
1062.90 0.5931
1063.00 0.593
1063.10 0.5928
1063.20 0.5927
1063.30 0.5926
1063.40 0.5925
1063.50 0.5924
1063.60 0.5923
1063.70 0.5922
1063.80 0.5921
1063.90 0.592
1064.00 0.5918
1064.10 0.5917
1064.20 0.5916
1064.30 0.5915
1064.40 0.5914
1064.50 0.5913
1064.60 0.5912
1064.70 0.5911
1064.80 0.591
1064.90 0.5908
1065.00 0.5907
1065.10 0.5906
1065.20 0.5905
1065.30 0.5904
1065.40 0.5903
1065.50 0.5902
1065.60 0.5901
1065.70 0.59
1065.80 0.5898
1065.90 0.5897
1066.00 0.5896
1066.10 0.5895
1066.20 0.5894
1066.30 0.5893
1066.40 0.5892
1066.50 0.5891
1066.60 0.589
1066.70 0.5888
1066.80 0.5887
1066.90 0.5886
1067.00 0.5885
1067.10 0.5884
1067.20 0.5883
1067.30 0.5882
1067.40 0.5881
1067.50 0.588
1067.60 0.5879
1067.70 0.5877
1067.80 0.5876
1067.90 0.5875
1068.00 0.5874
1068.10 0.5873
1068.20 0.5872
1068.30 0.5871
1068.40 0.587
1068.50 0.5869
1068.60 0.5868
1068.70 0.5867
1068.80 0.5865
1068.90 0.5864
1069.00 0.5863
1069.10 0.5862
1069.20 0.5861
1069.30 0.586
1069.40 0.5859
1069.50 0.5858
1069.60 0.5857
1069.70 0.5856
1069.80 0.5855
1069.90 0.5853
1070.00 0.5852
1070.10 0.5851
1070.20 0.585
1070.30 0.5849
1070.40 0.5848
1070.50 0.5847
1070.60 0.5846
1070.70 0.5845
1070.80 0.5844
1070.90 0.5843
1071.00 0.5842
1071.10 0.584
1071.20 0.5839
1071.30 0.5838
1071.40 0.5837
1071.50 0.5836
1071.60 0.5835
1071.70 0.5834
1071.80 0.5833
1071.90 0.5832
1072.00 0.5831
1072.10 0.583
1072.20 0.5828
1072.30 0.5827
1072.40 0.5826
1072.50 0.5825
1072.60 0.5824
1072.70 0.5823
1072.80 0.5822
1072.90 0.5821
1073.00 0.582
1073.10 0.5819
1073.20 0.5818
1073.30 0.5817
1073.40 0.5815
1073.50 0.5814
1073.60 0.5813
1073.70 0.5812
1073.80 0.5811
1073.90 0.581
1074.00 0.5809
1074.10 0.5808
1074.20 0.5807
1074.30 0.5806
1074.40 0.5805
1074.50 0.5804
1074.60 0.5802
1074.70 0.5801
1074.80 0.58
1074.90 0.5799
1075.00 0.5798
1075.10 0.5797
1075.20 0.5796
1075.30 0.5795
1075.40 0.5794
1075.50 0.5793
1075.60 0.5792
1075.70 0.5791
1075.80 0.579
1075.90 0.5788
1076.00 0.5787
1076.10 0.5786
1076.20 0.5785
1076.30 0.5784
1076.40 0.5783
1076.50 0.5782
1076.60 0.5781
1076.70 0.578
1076.80 0.5779
1076.90 0.5778
1077.00 0.5777
1077.10 0.5776
1077.20 0.5775
1077.30 0.5773
1077.40 0.5772
1077.50 0.5771
1077.60 0.577
1077.70 0.5769
1077.80 0.5768
1077.90 0.5767
1078.00 0.5766
1078.10 0.5765
1078.20 0.5764
1078.30 0.5763
1078.40 0.5762
1078.50 0.5761
1078.60 0.576
1078.70 0.5758
1078.80 0.5757
1078.90 0.5756
1079.00 0.5755
1079.10 0.5754
1079.20 0.5753
1079.30 0.5752
1079.40 0.5751
1079.50 0.575
1079.60 0.5749
1079.70 0.5748
1079.80 0.5747
1079.90 0.5746
1080.00 0.5745
1080.10 0.5744
1080.20 0.5743
1080.30 0.5741
1080.40 0.574
1080.50 0.5739
1080.60 0.5738
1080.70 0.5737
1080.80 0.5736
1080.90 0.5735
1081.00 0.5734
1081.10 0.5733
1081.20 0.5732
1081.30 0.5731
1081.40 0.573
1081.50 0.5729
1081.60 0.5728
1081.70 0.5727
1081.80 0.5726
1081.90 0.5725
1082.00 0.5724
1082.10 0.5722
1082.20 0.5721
1082.30 0.572
1082.40 0.5719
1082.50 0.5718
1082.60 0.5717
1082.70 0.5716
1082.80 0.5715
1082.90 0.5714
1083.00 0.5713
1083.10 0.5712
1083.20 0.5711
1083.30 0.571
1083.40 0.5709
1083.50 0.5708
1083.60 0.5707
1083.70 0.5705
1083.80 0.5704
1083.90 0.5703
1084.00 0.5702
1084.10 0.5701
1084.20 0.57
1084.30 0.5699
1084.40 0.5698
1084.50 0.5697
1084.60 0.5696
1084.70 0.5695
1084.80 0.5694
1084.90 0.5693
1085.00 0.5692
1085.10 0.5691
1085.20 0.569
1085.30 0.5689
1085.40 0.5688
1085.50 0.5687
1085.60 0.5685
1085.70 0.5684
1085.80 0.5683
1085.90 0.5682
1086.00 0.5681
1086.10 0.568
1086.20 0.5679
1086.30 0.5678
1086.40 0.5677
1086.50 0.5676
1086.60 0.5675
1086.70 0.5674
1086.80 0.5673
1086.90 0.5672
1087.00 0.5671
1087.10 0.567
1087.20 0.5669
1087.30 0.5668
1087.40 0.5667
1087.50 0.5666
1087.60 0.5665
1087.70 0.5664
1087.80 0.5663
1087.90 0.5661
1088.00 0.566
1088.10 0.5659
1088.20 0.5658
1088.30 0.5657
1088.40 0.5656
1088.50 0.5655
1088.60 0.5654
1088.70 0.5653
1088.80 0.5652
1088.90 0.5651
1089.00 0.565
1089.10 0.5649
1089.20 0.5648
1089.30 0.5647
1089.40 0.5646
1089.50 0.5645
1089.60 0.5644
1089.70 0.5643
1089.80 0.5642
1089.90 0.5641
1090.00 0.564
1090.10 0.5639
1090.20 0.5638
1090.30 0.5636
1090.40 0.5635
1090.50 0.5634
1090.60 0.5633
1090.70 0.5632
1090.80 0.5631
1090.90 0.563
1091.00 0.5629
1091.10 0.5628
1091.20 0.5627
1091.30 0.5626
1091.40 0.5625
1091.50 0.5624
1091.60 0.5623
1091.70 0.5622
1091.80 0.5621
1091.90 0.562
1092.00 0.5619
1092.10 0.5618
1092.20 0.5617
1092.30 0.5616
1092.40 0.5615
1092.50 0.5614
1092.60 0.5613
1092.70 0.5612
1092.80 0.5611
1092.90 0.561
1093.00 0.5609
1093.10 0.5608
1093.20 0.5607
1093.30 0.5605
1093.40 0.5604
1093.50 0.5603
1093.60 0.5602
1093.70 0.5601
1093.80 0.56
1093.90 0.5599
1094.00 0.5598
1094.10 0.5597
1094.20 0.5596
1094.30 0.5595
1094.40 0.5594
1094.50 0.5593
1094.60 0.5592
1094.70 0.5591
1094.80 0.559
1094.90 0.5589
1095.00 0.5588
1095.10 0.5587
1095.20 0.5586
1095.30 0.5585
1095.40 0.5584
1095.50 0.5583
1095.60 0.5582
1095.70 0.5581
1095.80 0.558
1095.90 0.5579
1096.00 0.5578
1096.10 0.5577
1096.20 0.5576
1096.30 0.5575
1096.40 0.5574
1096.50 0.5573
1096.60 0.5572
1096.70 0.5571
1096.80 0.5569
1096.90 0.5568
1097.00 0.5567
1097.10 0.5566
1097.20 0.5565
1097.30 0.5564
1097.40 0.5563
1097.50 0.5562
1097.60 0.5561
1097.70 0.556
1097.80 0.5559
1097.90 0.5558
1098.00 0.5557
1098.10 0.5556
1098.20 0.5555
1098.30 0.5554
1098.40 0.5553
1098.50 0.5552
1098.60 0.5551
1098.70 0.555
1098.80 0.5549
1098.90 0.5548
1099.00 0.5547
1099.10 0.5546
1099.20 0.5545
1099.30 0.5544
1099.40 0.5543
1099.50 0.5542
1099.60 0.5541
1099.70 0.554
1099.80 0.5539
1099.90 0.5538
1100.00 0.5537
1100.10 0.5536
1100.20 0.5535
1100.30 0.5534
1100.40 0.5533
1100.50 0.5532
1100.60 0.5531
1100.70 0.553
1100.80 0.5529
1100.90 0.5528
1101.00 0.5527
1101.10 0.5526
1101.20 0.5525
1101.30 0.5524
1101.40 0.5523
1101.50 0.5522
1101.60 0.5521
1101.70 0.552
1101.80 0.5519
1101.90 0.5518
1102.00 0.5516
1102.10 0.5515
1102.20 0.5514
1102.30 0.5513
1102.40 0.5512
1102.50 0.5511
1102.60 0.551
1102.70 0.5509
1102.80 0.5508
1102.90 0.5507
1103.00 0.5506
1103.10 0.5505
1103.20 0.5504
1103.30 0.5503
1103.40 0.5502
1103.50 0.5501
1103.60 0.55
1103.70 0.5499
1103.80 0.5498
1103.90 0.5497
1104.00 0.5496
1104.10 0.5495
1104.20 0.5494
1104.30 0.5493
1104.40 0.5492
1104.50 0.5491
1104.60 0.549
1104.70 0.5489
1104.80 0.5488
1104.90 0.5487
1105.00 0.5486
1105.10 0.5485
1105.20 0.5484
1105.30 0.5483
1105.40 0.5482
1105.50 0.5481
1105.60 0.548
1105.70 0.5479
1105.80 0.5478
1105.90 0.5477
1106.00 0.5476
1106.10 0.5475
1106.20 0.5474
1106.30 0.5473
1106.40 0.5472
1106.50 0.5471
1106.60 0.547
1106.70 0.5469
1106.80 0.5468
1106.90 0.5467
1107.00 0.5466
1107.10 0.5465
1107.20 0.5464
1107.30 0.5463
1107.40 0.5462
1107.50 0.5461
1107.60 0.546
1107.70 0.5459
1107.80 0.5458
1107.90 0.5457
1108.00 0.5456
1108.10 0.5455
1108.20 0.5454
1108.30 0.5453
1108.40 0.5452
1108.50 0.5451
1108.60 0.545
1108.70 0.5449
1108.80 0.5448
1108.90 0.5447
1109.00 0.5446
1109.10 0.5445
1109.20 0.5444
1109.30 0.5443
1109.40 0.5442
1109.50 0.5441
1109.60 0.544
1109.70 0.5439
1109.80 0.5438
1109.90 0.5437
1110.00 0.5436
1110.10 0.5435
1110.20 0.5434
1110.30 0.5433
1110.40 0.5432
1110.50 0.5431
1110.60 0.543
1110.70 0.5429
1110.80 0.5428
1110.90 0.5427
1111.00 0.5426
1111.10 0.5425
1111.20 0.5424
1111.30 0.5423
1111.40 0.5422
1111.50 0.5421
1111.60 0.542
1111.70 0.5419
1111.80 0.5418
1111.90 0.5417
1112.00 0.5416
1112.10 0.5415
1112.20 0.5414
1112.30 0.5413
1112.40 0.5412
1112.50 0.5411
1112.60 0.541
1112.70 0.5409
1112.80 0.5408
1112.90 0.5407
1113.00 0.5406
1113.10 0.5405
1113.20 0.5404
1113.30 0.5403
1113.40 0.5402
1113.50 0.5401
1113.60 0.54
1113.70 0.5399
1113.80 0.5398
1113.90 0.5397
1114.00 0.5396
1114.10 0.5395
1114.20 0.5394
1114.30 0.5393
1114.40 0.5392
1114.50 0.5391
1114.60 0.539
1114.70 0.5389
1114.80 0.5388
1114.90 0.5387
1115.00 0.5386
1115.10 0.5385
1115.20 0.5384
1115.30 0.5383
1115.40 0.5382
1115.50 0.5381
1115.60 0.538
1115.70 0.5379
1115.80 0.5378
1115.90 0.5377
1116.00 0.5376
1116.10 0.5375
1116.20 0.5374
1116.30 0.5373
1116.40 0.5372
1116.50 0.5371
1116.60 0.537
1116.70 0.5369
1116.80 0.5368
1116.90 0.5368
1117.00 0.5367
1117.10 0.5366
1117.20 0.5365
1117.30 0.5364
1117.40 0.5363
1117.50 0.5362
1117.60 0.5361
1117.70 0.536
1117.80 0.5359
1117.90 0.5358
1118.00 0.5357
1118.10 0.5356
1118.20 0.5355
1118.30 0.5354
1118.40 0.5353
1118.50 0.5352
1118.60 0.5351
1118.70 0.535
1118.80 0.5349
1118.90 0.5348
1119.00 0.5347
1119.10 0.5346
1119.20 0.5345
1119.30 0.5344
1119.40 0.5343
1119.50 0.5342
1119.60 0.5341
1119.70 0.534
1119.80 0.5339
1119.90 0.5338
1120.00 0.5337
1120.10 0.5336
1120.20 0.5335
1120.30 0.5334
1120.40 0.5333
1120.50 0.5332
1120.60 0.5331
1120.70 0.533
1120.80 0.5329
1120.90 0.5328
1121.00 0.5327
1121.10 0.5326
1121.20 0.5325
1121.30 0.5324
1121.40 0.5323
1121.50 0.5322
1121.60 0.5321
1121.70 0.532
1121.80 0.5319
1121.90 0.5319
1122.00 0.5318
1122.10 0.5317
1122.20 0.5316
1122.30 0.5315
1122.40 0.5314
1122.50 0.5313
1122.60 0.5312
1122.70 0.5311
1122.80 0.531
1122.90 0.5309
1123.00 0.5308
1123.10 0.5307
1123.20 0.5306
1123.30 0.5305
1123.40 0.5304
1123.50 0.5303
1123.60 0.5302
1123.70 0.5301
1123.80 0.53
1123.90 0.5299
1124.00 0.5298
1124.10 0.5297
1124.20 0.5296
1124.30 0.5295
1124.40 0.5294
1124.50 0.5293
1124.60 0.5292
1124.70 0.5291
1124.80 0.529
1124.90 0.5289
1125.00 0.5288
1125.10 0.5287
1125.20 0.5286
1125.30 0.5285
1125.40 0.5284
1125.50 0.5283
1125.60 0.5282
1125.70 0.5281
1125.80 0.528
1125.90 0.5279
1126.00 0.5279
1126.10 0.5278
1126.20 0.5277
1126.30 0.5276
1126.40 0.5275
1126.50 0.5274
1126.60 0.5273
1126.70 0.5272
1126.80 0.5271
1126.90 0.527
1127.00 0.5269
1127.10 0.5268
1127.20 0.5267
1127.30 0.5266
1127.40 0.5265
1127.50 0.5264
1127.60 0.5263
1127.70 0.5262
1127.80 0.5261
1127.90 0.526
1128.00 0.5259
1128.10 0.5258
1128.20 0.5257
1128.30 0.5256
1128.40 0.5255
1128.50 0.5254
1128.60 0.5253
1128.70 0.5252
1128.80 0.5251
1128.90 0.525
1129.00 0.5249
1129.10 0.5248
1129.20 0.5248
1129.30 0.5247
1129.40 0.5246
1129.50 0.5245
1129.60 0.5244
1129.70 0.5243
1129.80 0.5242
1129.90 0.5241
1130.00 0.524
1130.10 0.5239
1130.20 0.5238
1130.30 0.5237
1130.40 0.5236
1130.50 0.5235
1130.60 0.5234
1130.70 0.5233
1130.80 0.5232
1130.90 0.5231
1131.00 0.523
1131.10 0.5229
1131.20 0.5228
1131.30 0.5227
1131.40 0.5226
1131.50 0.5225
1131.60 0.5224
1131.70 0.5223
1131.80 0.5222
1131.90 0.5222
1132.00 0.5221
1132.10 0.522
1132.20 0.5219
1132.30 0.5218
1132.40 0.5217
1132.50 0.5216
1132.60 0.5215
1132.70 0.5214
1132.80 0.5213
1132.90 0.5212
1133.00 0.5211
1133.10 0.521
1133.20 0.5209
1133.30 0.5208
1133.40 0.5207
1133.50 0.5206
1133.60 0.5205
1133.70 0.5204
1133.80 0.5203
1133.90 0.5202
1134.00 0.5201
1134.10 0.52
1134.20 0.5199
1134.30 0.5198
1134.40 0.5197
1134.50 0.5196
1134.60 0.5195
1134.70 0.5195
1134.80 0.5194
1134.90 0.5193
1135.00 0.5192
1135.10 0.5191
1135.20 0.519
1135.30 0.5189
1135.40 0.5188
1135.50 0.5187
1135.60 0.5186
1135.70 0.5185
1135.80 0.5184
1135.90 0.5183
1136.00 0.5182
1136.10 0.5181
1136.20 0.518
1136.30 0.5179
1136.40 0.5178
1136.50 0.5177
1136.60 0.5176
1136.70 0.5175
1136.80 0.5174
1136.90 0.5173
1137.00 0.5173
1137.10 0.5172
1137.20 0.5171
1137.30 0.517
1137.40 0.5169
1137.50 0.5168
1137.60 0.5167
1137.70 0.5166
1137.80 0.5165
1137.90 0.5164
1138.00 0.5163
1138.10 0.5162
1138.20 0.5161
1138.30 0.516
1138.40 0.5159
1138.50 0.5158
1138.60 0.5157
1138.70 0.5156
1138.80 0.5155
1138.90 0.5154
1139.00 0.5153
1139.10 0.5152
1139.20 0.5151
1139.30 0.5151
1139.40 0.515
1139.50 0.5149
1139.60 0.5148
1139.70 0.5147
1139.80 0.5146
1139.90 0.5145
1140.00 0.5144
1140.10 0.5143
1140.20 0.5142
1140.30 0.5141
1140.40 0.514
1140.50 0.5139
1140.60 0.5138
1140.70 0.5137
1140.80 0.5136
1140.90 0.5135
1141.00 0.5134
1141.10 0.5133
1141.20 0.5132
1141.30 0.5132
1141.40 0.5131
1141.50 0.513
1141.60 0.5129
1141.70 0.5128
1141.80 0.5127
1141.90 0.5126
1142.00 0.5125
1142.10 0.5124
1142.20 0.5123
1142.30 0.5122
1142.40 0.5121
1142.50 0.512
1142.60 0.5119
1142.70 0.5118
1142.80 0.5117
1142.90 0.5116
1143.00 0.5115
1143.10 0.5114
1143.20 0.5113
1143.30 0.5113
1143.40 0.5112
1143.50 0.5111
1143.60 0.511
1143.70 0.5109
1143.80 0.5108
1143.90 0.5107
1144.00 0.5106
1144.10 0.5105
1144.20 0.5104
1144.30 0.5103
1144.40 0.5102
1144.50 0.5101
1144.60 0.51
1144.70 0.5099
1144.80 0.5098
1144.90 0.5097
1145.00 0.5096
1145.10 0.5095
1145.20 0.5095
1145.30 0.5094
1145.40 0.5093
1145.50 0.5092
1145.60 0.5091
1145.70 0.509
1145.80 0.5089
1145.90 0.5088
1146.00 0.5087
1146.10 0.5086
1146.20 0.5085
1146.30 0.5084
1146.40 0.5083
1146.50 0.5082
1146.60 0.5081
1146.70 0.508
1146.80 0.5079
1146.90 0.5078
1147.00 0.5078
1147.10 0.5077
1147.20 0.5076
1147.30 0.5075
1147.40 0.5074
1147.50 0.5073
1147.60 0.5072
1147.70 0.5071
1147.80 0.507
1147.90 0.5069
1148.00 0.5068
1148.10 0.5067
1148.20 0.5066
1148.30 0.5065
1148.40 0.5064
1148.50 0.5063
1148.60 0.5062
1148.70 0.5061
1148.80 0.5061
1148.90 0.506
1149.00 0.5059
1149.10 0.5058
1149.20 0.5057
1149.30 0.5056
1149.40 0.5055
1149.50 0.5054
1149.60 0.5053
1149.70 0.5052
1149.80 0.5051
1149.90 0.505
1150.00 0.5049
1150.10 0.5048
1150.20 0.5047
1150.30 0.5046
1150.40 0.5045
1150.50 0.5045
1150.60 0.5044
1150.70 0.5043
1150.80 0.5042
1150.90 0.5041
1151.00 0.504
1151.10 0.5039
1151.20 0.5038
1151.30 0.5037
1151.40 0.5036
1151.50 0.5035
1151.60 0.5034
1151.70 0.5033
1151.80 0.5032
1151.90 0.5031
1152.00 0.503
1152.10 0.503
1152.20 0.5029
1152.30 0.5028
1152.40 0.5027
1152.50 0.5026
1152.60 0.5025
1152.70 0.5024
1152.80 0.5023
1152.90 0.5022
1153.00 0.5021
1153.10 0.502
1153.20 0.5019
1153.30 0.5018
1153.40 0.5017
1153.50 0.5016
1153.60 0.5015
1153.70 0.5014
1153.80 0.5014
1153.90 0.5013
1154.00 0.5012
1154.10 0.5011
1154.20 0.501
1154.30 0.5009
1154.40 0.5008
1154.50 0.5007
1154.60 0.5006
1154.70 0.5005
1154.80 0.5004
1154.90 0.5003
1155.00 0.5002
1155.10 0.5001
1155.20 0.5
1155.30 0.4999
1155.40 0.4999
1155.50 0.4998
1155.60 0.4997
1155.70 0.4996
1155.80 0.4995
1155.90 0.4994
1156.00 0.4993
1156.10 0.4992
1156.20 0.4991
1156.30 0.499
1156.40 0.4989
1156.50 0.4988
1156.60 0.4987
1156.70 0.4986
1156.80 0.4985
1156.90 0.4985
1157.00 0.4984
1157.10 0.4983
1157.20 0.4982
1157.30 0.4981
1157.40 0.498
1157.50 0.4979
1157.60 0.4978
1157.70 0.4977
1157.80 0.4976
1157.90 0.4975
1158.00 0.4974
1158.10 0.4973
1158.20 0.4972
1158.30 0.4971
1158.40 0.497
1158.50 0.497
1158.60 0.4969
1158.70 0.4968
1158.80 0.4967
1158.90 0.4966
1159.00 0.4965
1159.10 0.4964
1159.20 0.4963
1159.30 0.4962
1159.40 0.4961
1159.50 0.496
1159.60 0.4959
1159.70 0.4958
1159.80 0.4957
1159.90 0.4956
1160.00 0.4955
1160.10 0.4955
1160.20 0.4954
1160.30 0.4953
1160.40 0.4952
1160.50 0.4951
1160.60 0.495
1160.70 0.4949
1160.80 0.4948
1160.90 0.4947
1161.00 0.4946
1161.10 0.4945
1161.20 0.4944
1161.30 0.4943
1161.40 0.4942
1161.50 0.4941
1161.60 0.4941
1161.70 0.494
1161.80 0.4939
1161.90 0.4938
1162.00 0.4937
1162.10 0.4936
1162.20 0.4935
1162.30 0.4934
1162.40 0.4933
1162.50 0.4932
1162.60 0.4931
1162.70 0.493
1162.80 0.4929
1162.90 0.4928
1163.00 0.4928
1163.10 0.4927
1163.20 0.4926
1163.30 0.4925
1163.40 0.4924
1163.50 0.4923
1163.60 0.4922
1163.70 0.4921
1163.80 0.492
1163.90 0.4919
1164.00 0.4918
1164.10 0.4917
1164.20 0.4916
1164.30 0.4915
1164.40 0.4914
1164.50 0.4914
1164.60 0.4913
1164.70 0.4912
1164.80 0.4911
1164.90 0.491
1165.00 0.4909
1165.10 0.4908
1165.20 0.4907
1165.30 0.4906
1165.40 0.4905
1165.50 0.4904
1165.60 0.4903
1165.70 0.4902
1165.80 0.4902
1165.90 0.4901
1166.00 0.49
1166.10 0.4899
1166.20 0.4898
1166.30 0.4897
1166.40 0.4896
1166.50 0.4895
1166.60 0.4894
1166.70 0.4893
1166.80 0.4892
1166.90 0.4891
1167.00 0.489
1167.10 0.489
1167.20 0.4889
1167.30 0.4888
1167.40 0.4887
1167.50 0.4886
1167.60 0.4885
1167.70 0.4884
1167.80 0.4883
1167.90 0.4882
1168.00 0.4881
1168.10 0.488
1168.20 0.4879
1168.30 0.4878
1168.40 0.4877
1168.50 0.4876
1168.60 0.4876
1168.70 0.4875
1168.80 0.4874
1168.90 0.4873
1169.00 0.4872
1169.10 0.4871
1169.20 0.487
1169.30 0.4869
1169.40 0.4868
1169.50 0.4867
1169.60 0.4866
1169.70 0.4865
1169.80 0.4864
1169.90 0.4864
1170.00 0.4863
1170.10 0.4862
1170.20 0.4861
1170.30 0.486
1170.40 0.4859
1170.50 0.4858
1170.60 0.4857
1170.70 0.4856
1170.80 0.4855
1170.90 0.4854
1171.00 0.4853
1171.10 0.4852
1171.20 0.4852
1171.30 0.4851
1171.40 0.485
1171.50 0.4849
1171.60 0.4848
1171.70 0.4847
1171.80 0.4846
1171.90 0.4845
1172.00 0.4844
1172.10 0.4843
1172.20 0.4842
1172.30 0.4841
1172.40 0.484
1172.50 0.484
1172.60 0.4839
1172.70 0.4838
1172.80 0.4837
1172.90 0.4836
1173.00 0.4835
1173.10 0.4834
1173.20 0.4833
1173.30 0.4832
1173.40 0.4831
1173.50 0.483
1173.60 0.4829
1173.70 0.4828
1173.80 0.4828
1173.90 0.4827
1174.00 0.4826
1174.10 0.4825
1174.20 0.4824
1174.30 0.4823
1174.40 0.4822
1174.50 0.4821
1174.60 0.482
1174.70 0.4819
1174.80 0.4818
1174.90 0.4817
1175.00 0.4816
1175.10 0.4816
1175.20 0.4815
1175.30 0.4814
1175.40 0.4813
1175.50 0.4812
1175.60 0.4811
1175.70 0.481
1175.80 0.4809
1175.90 0.4808
1176.00 0.4807
1176.10 0.4806
1176.20 0.4805
1176.30 0.4804
1176.40 0.4804
1176.50 0.4803
1176.60 0.4802
1176.70 0.4801
1176.80 0.48
1176.90 0.4799
1177.00 0.4798
1177.10 0.4797
1177.20 0.4796
1177.30 0.4795
1177.40 0.4794
1177.50 0.4793
1177.60 0.4793
1177.70 0.4792
1177.80 0.4791
1177.90 0.479
1178.00 0.4789
1178.10 0.4788
1178.20 0.4787
1178.30 0.4786
1178.40 0.4785
1178.50 0.4784
1178.60 0.4783
1178.70 0.4782
1178.80 0.4781
1178.90 0.4781
1179.00 0.478
1179.10 0.4779
1179.20 0.4778
1179.30 0.4777
1179.40 0.4776
1179.50 0.4775
1179.60 0.4774
1179.70 0.4773
1179.80 0.4772
1179.90 0.4771
1180.00 0.477
1180.10 0.477
1180.20 0.4769
1180.30 0.4768
1180.40 0.4767
1180.50 0.4766
1180.60 0.4765
1180.70 0.4764
1180.80 0.4763
1180.90 0.4762
1181.00 0.4761
1181.10 0.476
1181.20 0.476
1181.30 0.4759
1181.40 0.4758
1181.50 0.4757
1181.60 0.4756
1181.70 0.4755
1181.80 0.4754
1181.90 0.4753
1182.00 0.4752
1182.10 0.4751
1182.20 0.475
1182.30 0.4749
1182.40 0.4749
1182.50 0.4748
1182.60 0.4747
1182.70 0.4746
1182.80 0.4745
1182.90 0.4744
1183.00 0.4743
1183.10 0.4742
1183.20 0.4741
1183.30 0.474
1183.40 0.4739
1183.50 0.4738
1183.60 0.4738
1183.70 0.4737
1183.80 0.4736
1183.90 0.4735
1184.00 0.4734
1184.10 0.4733
1184.20 0.4732
1184.30 0.4731
1184.40 0.473
1184.50 0.4729
1184.60 0.4728
1184.70 0.4727
1184.80 0.4727
1184.90 0.4726
1185.00 0.4725
1185.10 0.4724
1185.20 0.4723
1185.30 0.4722
1185.40 0.4721
1185.50 0.472
1185.60 0.4719
1185.70 0.4718
1185.80 0.4717
1185.90 0.4717
1186.00 0.4716
1186.10 0.4715
1186.20 0.4714
1186.30 0.4713
1186.40 0.4712
1186.50 0.4711
1186.60 0.471
1186.70 0.4709
1186.80 0.4708
1186.90 0.4707
1187.00 0.4707
1187.10 0.4706
1187.20 0.4705
1187.30 0.4704
1187.40 0.4703
1187.50 0.4702
1187.60 0.4701
1187.70 0.47
1187.80 0.4699
1187.90 0.4698
1188.00 0.4697
1188.10 0.4697
1188.20 0.4696
1188.30 0.4695
1188.40 0.4694
1188.50 0.4693
1188.60 0.4692
1188.70 0.4691
1188.80 0.469
1188.90 0.4689
1189.00 0.4688
1189.10 0.4687
1189.20 0.4687
1189.30 0.4686
1189.40 0.4685
1189.50 0.4684
1189.60 0.4683
1189.70 0.4682
1189.80 0.4681
1189.90 0.468
1190.00 0.4679
1190.10 0.4678
1190.20 0.4677
1190.30 0.4677
1190.40 0.4676
1190.50 0.4675
1190.60 0.4674
1190.70 0.4673
1190.80 0.4672
1190.90 0.4671
1191.00 0.467
1191.10 0.4669
1191.20 0.4668
1191.30 0.4668
1191.40 0.4667
1191.50 0.4666
1191.60 0.4665
1191.70 0.4664
1191.80 0.4663
1191.90 0.4662
1192.00 0.4661
1192.10 0.466
1192.20 0.4659
1192.30 0.4658
1192.40 0.4658
1192.50 0.4657
1192.60 0.4656
1192.70 0.4655
1192.80 0.4654
1192.90 0.4653
1193.00 0.4652
1193.10 0.4651
1193.20 0.465
1193.30 0.4649
1193.40 0.4649
1193.50 0.4648
1193.60 0.4647
1193.70 0.4646
1193.80 0.4645
1193.90 0.4644
1194.00 0.4643
1194.10 0.4642
1194.20 0.4641
1194.30 0.464
1194.40 0.4639
1194.50 0.4639
1194.60 0.4638
1194.70 0.4637
1194.80 0.4636
1194.90 0.4635
1195.00 0.4634
1195.10 0.4633
1195.20 0.4632
1195.30 0.4631
1195.40 0.463
1195.50 0.463
1195.60 0.4629
1195.70 0.4628
1195.80 0.4627
1195.90 0.4626
1196.00 0.4625
1196.10 0.4624
1196.20 0.4623
1196.30 0.4622
1196.40 0.4621
1196.50 0.4621
1196.60 0.462
1196.70 0.4619
1196.80 0.4618
1196.90 0.4617
1197.00 0.4616
1197.10 0.4615
1197.20 0.4614
1197.30 0.4613
1197.40 0.4612
1197.50 0.4612
1197.60 0.4611
1197.70 0.461
1197.80 0.4609
1197.90 0.4608
1198.00 0.4607
1198.10 0.4606
1198.20 0.4605
1198.30 0.4604
1198.40 0.4603
1198.50 0.4603
1198.60 0.4602
1198.70 0.4601
1198.80 0.46
1198.90 0.4599
1199.00 0.4598
1199.10 0.4597
1199.20 0.4596
1199.30 0.4595
1199.40 0.4594
1199.50 0.4594
1199.60 0.4593
1199.70 0.4592
1199.80 0.4591
1199.90 0.459
1200.00 0
