# Version 2.1 - nm, norm@500 to 1, cut digits, bergeron_40000_65.dat_40000
# Wavelength(nm)  Flambda(ergs/cm^s/s/nm)
300.00 5.81
300.10 5.803
300.20 5.796
300.30 5.789
300.40 5.783
300.50 5.776
300.60 5.769
300.70 5.762
300.80 5.756
300.90 5.749
301.00 5.742
301.10 5.735
301.20 5.728
301.30 5.722
301.40 5.715
301.50 5.708
301.60 5.702
301.70 5.695
301.80 5.688
301.90 5.682
302.00 5.675
302.10 5.668
302.20 5.662
302.30 5.655
302.40 5.648
302.50 5.642
302.60 5.635
302.70 5.629
302.80 5.622
302.90 5.615
303.00 5.609
303.10 5.602
303.20 5.596
303.30 5.589
303.40 5.583
303.50 5.576
303.60 5.57
303.70 5.563
303.80 5.557
303.90 5.55
304.00 5.544
304.10 5.537
304.20 5.531
304.30 5.524
304.40 5.518
304.50 5.511
304.60 5.505
304.70 5.499
304.80 5.492
304.90 5.486
305.00 5.479
305.10 5.473
305.20 5.467
305.30 5.46
305.40 5.454
305.50 5.448
305.60 5.441
305.70 5.435
305.80 5.429
305.90 5.423
306.00 5.416
306.10 5.41
306.20 5.404
306.30 5.397
306.40 5.391
306.50 5.385
306.60 5.379
306.70 5.372
306.80 5.366
306.90 5.36
307.00 5.354
307.10 5.348
307.20 5.342
307.30 5.335
307.40 5.329
307.50 5.323
307.60 5.317
307.70 5.311
307.80 5.305
307.90 5.299
308.00 5.292
308.10 5.286
308.20 5.28
308.30 5.274
308.40 5.268
308.50 5.262
308.60 5.256
308.70 5.25
308.80 5.244
308.90 5.238
309.00 5.232
309.10 5.226
309.20 5.22
309.30 5.214
309.40 5.208
309.50 5.202
309.60 5.196
309.70 5.19
309.80 5.184
309.90 5.178
310.00 5.172
310.10 5.166
310.20 5.16
310.30 5.154
310.40 5.149
310.50 5.143
310.60 5.137
310.70 5.131
310.80 5.125
310.90 5.119
311.00 5.113
311.10 5.107
311.20 5.102
311.30 5.096
311.40 5.09
311.50 5.084
311.60 5.078
311.70 5.073
311.80 5.067
311.90 5.061
312.00 5.055
312.10 5.05
312.20 5.044
312.30 5.038
312.40 5.032
312.50 5.027
312.60 5.021
312.70 5.015
312.80 5.009
312.90 5.004
313.00 4.998
313.10 4.992
313.20 4.987
313.30 4.981
313.40 4.975
313.50 4.97
313.60 4.964
313.70 4.959
313.80 4.953
313.90 4.947
314.00 4.942
314.10 4.936
314.20 4.931
314.30 4.925
314.40 4.919
314.50 4.914
314.60 4.908
314.70 4.903
314.80 4.897
314.90 4.892
315.00 4.886
315.10 4.881
315.20 4.875
315.30 4.87
315.40 4.864
315.50 4.859
315.60 4.853
315.70 4.848
315.80 4.842
315.90 4.837
316.00 4.831
316.10 4.826
316.20 4.821
316.30 4.815
316.40 4.81
316.50 4.804
316.60 4.799
316.70 4.793
316.80 4.788
316.90 4.783
317.00 4.777
317.10 4.772
317.20 4.767
317.30 4.761
317.40 4.756
317.50 4.751
317.60 4.745
317.70 4.74
317.80 4.735
317.90 4.729
318.00 4.724
318.10 4.719
318.20 4.714
318.30 4.708
318.40 4.703
318.50 4.698
318.60 4.693
318.70 4.687
318.80 4.682
318.90 4.677
319.00 4.672
319.10 4.666
319.20 4.661
319.30 4.656
319.40 4.651
319.50 4.646
319.60 4.64
319.70 4.635
319.80 4.63
319.90 4.625
320.00 4.62
320.10 4.615
320.20 4.61
320.30 4.604
320.40 4.599
320.50 4.594
320.60 4.589
320.70 4.584
320.80 4.579
320.90 4.574
321.00 4.569
321.10 4.564
321.20 4.559
321.30 4.554
321.40 4.548
321.50 4.543
321.60 4.538
321.70 4.533
321.80 4.528
321.90 4.523
322.00 4.518
322.10 4.513
322.20 4.508
322.30 4.503
322.40 4.498
322.50 4.493
322.60 4.488
322.70 4.483
322.80 4.479
322.90 4.474
323.00 4.469
323.10 4.464
323.20 4.459
323.30 4.454
323.40 4.449
323.50 4.444
323.60 4.439
323.70 4.434
323.80 4.429
323.90 4.425
324.00 4.42
324.10 4.415
324.20 4.41
324.30 4.405
324.40 4.4
324.50 4.395
324.60 4.391
324.70 4.386
324.80 4.381
324.90 4.376
325.00 4.371
325.10 4.367
325.20 4.362
325.30 4.357
325.40 4.352
325.50 4.347
325.60 4.343
325.70 4.338
325.80 4.333
325.90 4.328
326.00 4.324
326.10 4.319
326.20 4.314
326.30 4.31
326.40 4.305
326.50 4.3
326.60 4.295
326.70 4.291
326.80 4.286
326.90 4.281
327.00 4.277
327.10 4.272
327.20 4.267
327.30 4.263
327.40 4.258
327.50 4.253
327.60 4.249
327.70 4.244
327.80 4.24
327.90 4.235
328.00 4.23
328.10 4.226
328.20 4.221
328.30 4.217
328.40 4.212
328.50 4.207
328.60 4.203
328.70 4.198
328.80 4.194
328.90 4.189
329.00 4.185
329.10 4.18
329.20 4.175
329.30 4.171
329.40 4.166
329.50 4.162
329.60 4.157
329.70 4.153
329.80 4.148
329.90 4.144
330.00 4.139
330.10 4.135
330.20 4.13
330.30 4.126
330.40 4.122
330.50 4.117
330.60 4.113
330.70 4.108
330.80 4.104
330.90 4.099
331.00 4.095
331.10 4.091
331.20 4.086
331.30 4.082
331.40 4.077
331.50 4.073
331.60 4.069
331.70 4.064
331.80 4.06
331.90 4.055
332.00 4.051
332.10 4.047
332.20 4.042
332.30 4.038
332.40 4.034
332.50 4.029
332.60 4.025
332.70 4.021
332.80 4.016
332.90 4.012
333.00 4.008
333.10 4.003
333.20 3.999
333.30 3.995
333.40 3.991
333.50 3.986
333.60 3.982
333.70 3.978
333.80 3.973
333.90 3.969
334.00 3.965
334.10 3.961
334.20 3.956
334.30 3.952
334.40 3.948
334.50 3.944
334.60 3.94
334.70 3.935
334.80 3.931
334.90 3.927
335.00 3.923
335.10 3.919
335.20 3.914
335.30 3.91
335.40 3.906
335.50 3.902
335.60 3.898
335.70 3.894
335.80 3.889
335.90 3.885
336.00 3.881
336.10 3.877
336.20 3.873
336.30 3.869
336.40 3.865
336.50 3.861
336.60 3.856
336.70 3.852
336.80 3.848
336.90 3.844
337.00 3.84
337.10 3.836
337.20 3.832
337.30 3.828
337.40 3.824
337.50 3.82
337.60 3.816
337.70 3.812
337.80 3.808
337.90 3.804
338.00 3.8
338.10 3.796
338.20 3.792
338.30 3.788
338.40 3.784
338.50 3.78
338.60 3.776
338.70 3.772
338.80 3.768
338.90 3.764
339.00 3.76
339.10 3.756
339.20 3.752
339.30 3.748
339.40 3.744
339.50 3.74
339.60 3.736
339.70 3.732
339.80 3.728
339.90 3.724
340.00 3.72
340.10 3.716
340.20 3.712
340.30 3.708
340.40 3.705
340.50 3.701
340.60 3.697
340.70 3.693
340.80 3.689
340.90 3.685
341.00 3.681
341.10 3.677
341.20 3.674
341.30 3.67
341.40 3.666
341.50 3.662
341.60 3.658
341.70 3.654
341.80 3.65
341.90 3.647
342.00 3.643
342.10 3.639
342.20 3.635
342.30 3.631
342.40 3.628
342.50 3.624
342.60 3.62
342.70 3.616
342.80 3.612
342.90 3.609
343.00 3.605
343.10 3.601
343.20 3.597
343.30 3.594
343.40 3.59
343.50 3.586
343.60 3.582
343.70 3.579
343.80 3.575
343.90 3.571
344.00 3.567
344.10 3.564
344.20 3.56
344.30 3.556
344.40 3.553
344.50 3.549
344.60 3.545
344.70 3.542
344.80 3.538
344.90 3.534
345.00 3.531
345.10 3.527
345.20 3.523
345.30 3.52
345.40 3.516
345.50 3.512
345.60 3.509
345.70 3.505
345.80 3.501
345.90 3.498
346.00 3.494
346.10 3.49
346.20 3.487
346.30 3.483
346.40 3.48
346.50 3.476
346.60 3.472
346.70 3.469
346.80 3.465
346.90 3.462
347.00 3.458
347.10 3.454
347.20 3.451
347.30 3.447
347.40 3.444
347.50 3.44
347.60 3.437
347.70 3.433
347.80 3.43
347.90 3.426
348.00 3.422
348.10 3.419
348.20 3.415
348.30 3.412
348.40 3.408
348.50 3.405
348.60 3.401
348.70 3.398
348.80 3.394
348.90 3.391
349.00 3.387
349.10 3.384
349.20 3.38
349.30 3.377
349.40 3.374
349.50 3.37
349.60 3.367
349.70 3.363
349.80 3.36
349.90 3.356
350.00 3.353
350.10 3.349
350.20 3.346
350.30 3.342
350.40 3.339
350.50 3.336
350.60 3.332
350.70 3.329
350.80 3.325
350.90 3.322
351.00 3.319
351.10 3.315
351.20 3.312
351.30 3.308
351.40 3.305
351.50 3.302
351.60 3.298
351.70 3.295
351.80 3.292
351.90 3.288
352.00 3.285
352.10 3.281
352.20 3.278
352.30 3.275
352.40 3.271
352.50 3.268
352.60 3.265
352.70 3.262
352.80 3.258
352.90 3.255
353.00 3.252
353.10 3.248
353.20 3.245
353.30 3.242
353.40 3.238
353.50 3.235
353.60 3.232
353.70 3.228
353.80 3.225
353.90 3.222
354.00 3.219
354.10 3.215
354.20 3.212
354.30 3.209
354.40 3.206
354.50 3.202
354.60 3.199
354.70 3.196
354.80 3.193
354.90 3.189
355.00 3.186
355.10 3.183
355.20 3.18
355.30 3.177
355.40 3.173
355.50 3.17
355.60 3.167
355.70 3.164
355.80 3.16
355.90 3.157
356.00 3.154
356.10 3.151
356.20 3.148
356.30 3.145
356.40 3.141
356.50 3.138
356.60 3.135
356.70 3.132
356.80 3.129
356.90 3.126
357.00 3.122
357.10 3.119
357.20 3.116
357.30 3.113
357.40 3.11
357.50 3.107
357.60 3.104
357.70 3.1
357.80 3.097
357.90 3.094
358.00 3.091
358.10 3.088
358.20 3.085
358.30 3.082
358.40 3.079
358.50 3.076
358.60 3.073
358.70 3.07
358.80 3.066
358.90 3.063
359.00 3.06
359.10 3.057
359.20 3.054
359.30 3.051
359.40 3.048
359.50 3.045
359.60 3.042
359.70 3.039
359.80 3.036
359.90 3.033
360.00 3.03
360.10 3.027
360.20 3.024
360.30 3.021
360.40 3.018
360.50 3.015
360.60 3.012
360.70 3.009
360.80 3.006
360.90 3.003
361.00 3
361.10 2.997
361.20 2.994
361.30 2.991
361.40 2.988
361.50 2.985
361.60 2.982
361.70 2.979
361.80 2.976
361.90 2.973
362.00 2.97
362.10 2.967
362.20 2.964
362.30 2.961
362.40 2.958
362.50 2.955
362.60 2.952
362.70 2.949
362.80 2.946
362.90 2.943
363.00 2.941
363.10 2.938
363.20 2.935
363.30 2.932
363.40 2.929
363.50 2.926
363.60 2.923
363.70 2.92
363.80 2.917
363.90 2.914
364.00 2.912
364.10 2.909
364.20 2.906
364.30 2.903
364.40 2.9
364.50 2.897
364.60 2.894
364.70 2.891
364.80 2.889
364.90 2.886
365.00 2.883
365.10 2.88
365.20 2.877
365.30 2.874
365.40 2.872
365.50 2.869
365.60 2.866
365.70 2.863
365.80 2.86
365.90 2.857
366.00 2.855
366.10 2.852
366.20 2.849
366.30 2.846
366.40 2.843
366.50 2.84
366.60 2.837
366.70 2.834
366.80 2.831
366.90 2.828
367.00 2.825
367.10 2.822
367.20 2.819
367.30 2.816
367.40 2.813
367.50 2.81
367.60 2.807
367.70 2.804
367.80 2.801
367.90 2.798
368.00 2.795
368.10 2.792
368.20 2.789
368.30 2.786
368.40 2.783
368.50 2.78
368.60 2.777
368.70 2.775
368.80 2.772
368.90 2.769
369.00 2.766
369.10 2.763
369.20 2.76
369.30 2.757
369.40 2.754
369.50 2.752
369.60 2.749
369.70 2.746
369.80 2.743
369.90 2.74
370.00 2.737
370.10 2.734
370.20 2.732
370.30 2.729
370.40 2.726
370.50 2.724
370.60 2.721
370.70 2.718
370.80 2.715
370.90 2.713
371.00 2.71
371.10 2.707
371.20 2.705
371.30 2.702
371.40 2.699
371.50 2.697
371.60 2.694
371.70 2.691
371.80 2.689
371.90 2.686
372.00 2.683
372.10 2.681
372.20 2.679
372.30 2.676
372.40 2.674
372.50 2.672
372.60 2.669
372.70 2.667
372.80 2.665
372.90 2.663
373.00 2.66
373.10 2.658
373.20 2.656
373.30 2.653
373.40 2.651
373.50 2.649
373.60 2.647
373.70 2.644
373.80 2.642
373.90 2.64
374.00 2.638
374.10 2.636
374.20 2.634
374.30 2.632
374.40 2.63
374.50 2.627
374.60 2.625
374.70 2.623
374.80 2.621
374.90 2.619
375.00 2.617
375.10 2.615
375.20 2.613
375.30 2.611
375.40 2.609
375.50 2.607
375.60 2.605
375.70 2.603
375.80 2.601
375.90 2.599
376.00 2.597
376.10 2.593
376.20 2.589
376.30 2.586
376.40 2.582
376.50 2.578
376.60 2.574
376.70 2.57
376.80 2.566
376.90 2.562
377.00 2.558
377.10 2.559
377.20 2.559
377.30 2.56
377.40 2.56
377.50 2.561
377.60 2.561
377.70 2.561
377.80 2.562
377.90 2.562
378.00 2.563
378.10 2.559
378.20 2.555
378.30 2.551
378.40 2.547
378.50 2.543
378.60 2.539
378.70 2.536
378.80 2.532
378.90 2.528
379.00 2.524
379.10 2.519
379.20 2.513
379.30 2.508
379.40 2.503
379.50 2.497
379.60 2.492
379.70 2.487
379.80 2.481
379.90 2.476
380.00 2.471
380.10 2.475
380.20 2.48
380.30 2.485
380.40 2.489
380.50 2.494
380.60 2.498
380.70 2.503
380.80 2.507
380.90 2.512
381.00 2.517
381.10 2.516
381.20 2.516
381.30 2.516
381.40 2.515
381.50 2.515
381.60 2.512
381.70 2.509
381.80 2.504
381.90 2.499
382.00 2.493
382.10 2.485
382.20 2.477
382.30 2.464
382.40 2.45
382.50 2.437
382.60 2.423
382.70 2.41
382.80 2.396
382.90 2.383
383.00 2.369
383.10 2.356
383.20 2.343
383.30 2.325
383.40 2.308
383.50 2.294
383.60 2.295
383.70 2.307
383.80 2.321
383.90 2.336
384.00 2.35
384.10 2.364
384.20 2.377
384.30 2.389
384.40 2.401
384.50 2.411
384.60 2.421
384.70 2.43
384.80 2.438
384.90 2.444
385.00 2.451
385.10 2.456
385.20 2.46
385.30 2.465
385.40 2.467
385.50 2.47
385.60 2.472
385.70 2.472
385.80 2.473
385.90 2.472
386.00 2.471
386.10 2.469
386.20 2.467
386.30 2.464
386.40 2.46
386.50 2.456
386.60 2.45
386.70 2.444
386.80 2.437
386.90 2.429
387.00 2.421
387.10 2.411
387.20 2.401
387.30 2.389
387.40 2.377
387.50 2.363
387.60 2.348
387.70 2.332
387.80 2.314
387.90 2.295
388.00 2.275
388.10 2.253
388.20 2.229
388.30 2.205
388.40 2.179
388.50 2.152
388.60 2.124
388.70 2.097
388.80 2.075
388.90 2.058
389.00 2.07
389.10 2.088
389.20 2.112
389.30 2.136
389.40 2.159
389.50 2.182
389.60 2.203
389.70 2.223
389.80 2.241
389.90 2.258
390.00 2.274
390.10 2.288
390.20 2.301
390.30 2.313
390.40 2.324
390.50 2.334
390.60 2.342
390.70 2.351
390.80 2.358
390.90 2.364
391.00 2.37
391.10 2.374
391.20 2.379
391.30 2.383
391.40 2.386
391.50 2.388
391.60 2.391
391.70 2.393
391.80 2.394
391.90 2.395
392.00 2.396
392.10 2.396
392.20 2.396
392.30 2.396
392.40 2.395
392.50 2.394
392.60 2.393
392.70 2.392
392.80 2.39
392.90 2.388
393.00 2.386
393.10 2.383
393.20 2.38
393.30 2.377
393.40 2.374
393.50 2.37
393.60 2.366
393.70 2.362
393.80 2.358
393.90 2.353
394.00 2.347
394.10 2.342
394.20 2.336
394.30 2.329
394.40 2.322
394.50 2.314
394.60 2.306
394.70 2.297
394.80 2.288
394.90 2.278
395.00 2.267
395.10 2.255
395.20 2.242
395.30 2.228
395.40 2.214
395.50 2.198
395.60 2.18
395.70 2.162
395.80 2.142
395.90 2.12
396.00 2.097
396.10 2.072
396.20 2.045
396.30 2.016
396.40 1.986
396.50 1.953
396.60 1.919
396.70 1.884
396.80 1.846
396.90 1.809
397.00 1.771
397.10 1.802
397.20 1.835
397.30 1.869
397.40 1.902
397.50 1.933
397.60 1.962
397.70 1.989
397.80 2.014
397.90 2.038
398.00 2.059
398.10 2.078
398.20 2.097
398.30 2.113
398.40 2.127
398.50 2.141
398.60 2.153
398.70 2.164
398.80 2.174
398.90 2.183
399.00 2.191
399.10 2.198
399.20 2.205
399.30 2.21
399.40 2.216
399.50 2.22
399.60 2.224
399.70 2.227
399.80 2.23
399.90 2.233
400.00 2.235
400.10 2.237
400.20 2.238
400.30 2.24
400.40 2.241
400.50 2.241
400.60 2.242
400.70 2.242
400.80 2.242
400.90 2.242
401.00 2.242
401.10 2.242
401.20 2.241
401.30 2.241
401.40 2.24
401.50 2.239
401.60 2.238
401.70 2.237
401.80 2.236
401.90 2.235
402.00 2.234
402.10 2.233
402.20 2.231
402.30 2.23
402.40 2.228
402.50 2.227
402.60 2.225
402.70 2.224
402.80 2.222
402.90 2.22
403.00 2.218
403.10 2.217
403.20 2.215
403.30 2.213
403.40 2.211
403.50 2.209
403.60 2.207
403.70 2.205
403.80 2.203
403.90 2.201
404.00 2.199
404.10 2.196
404.20 2.194
404.30 2.192
404.40 2.19
404.50 2.187
404.60 2.185
404.70 2.182
404.80 2.18
404.90 2.177
405.00 2.175
405.10 2.172
405.20 2.169
405.30 2.166
405.40 2.164
405.50 2.161
405.60 2.158
405.70 2.154
405.80 2.151
405.90 2.148
406.00 2.144
406.10 2.141
406.20 2.137
406.30 2.133
406.40 2.129
406.50 2.125
406.60 2.121
406.70 2.116
406.80 2.112
406.90 2.107
407.00 2.101
407.10 2.096
407.20 2.09
407.30 2.084
407.40 2.077
407.50 2.07
407.60 2.063
407.70 2.055
407.80 2.047
407.90 2.037
408.00 2.028
408.10 2.018
408.20 2.006
408.30 1.994
408.40 1.982
408.50 1.968
408.60 1.953
408.70 1.937
408.80 1.919
408.90 1.9
409.00 1.88
409.10 1.857
409.20 1.834
409.30 1.808
409.40 1.78
409.50 1.75
409.60 1.719
409.70 1.684
409.80 1.648
409.90 1.61
410.00 1.567
410.10 1.532
410.20 1.506
410.30 1.545
410.40 1.584
410.50 1.622
410.60 1.656
410.70 1.688
410.80 1.719
410.90 1.746
411.00 1.771
411.10 1.795
411.20 1.815
411.30 1.835
411.40 1.853
411.50 1.868
411.60 1.883
411.70 1.896
411.80 1.908
411.90 1.918
412.00 1.928
412.10 1.936
412.20 1.944
412.30 1.951
412.40 1.957
412.50 1.962
412.60 1.967
412.70 1.972
412.80 1.975
412.90 1.979
413.00 1.982
413.10 1.984
413.20 1.986
413.30 1.988
413.40 1.99
413.50 1.991
413.60 1.992
413.70 1.993
413.80 1.993
413.90 1.994
414.00 1.994
414.10 1.994
414.20 1.994
414.30 1.994
414.40 1.994
414.50 1.993
414.60 1.993
414.70 1.992
414.80 1.992
414.90 1.991
415.00 1.99
415.10 1.989
415.20 1.989
415.30 1.988
415.40 1.987
415.50 1.986
415.60 1.984
415.70 1.983
415.80 1.982
415.90 1.981
416.00 1.98
416.10 1.978
416.20 1.977
416.30 1.976
416.40 1.974
416.50 1.973
416.60 1.972
416.70 1.97
416.80 1.969
416.90 1.967
417.00 1.966
417.10 1.965
417.20 1.963
417.30 1.962
417.40 1.96
417.50 1.959
417.60 1.957
417.70 1.955
417.80 1.954
417.90 1.952
418.00 1.951
418.10 1.949
418.20 1.948
418.30 1.946
418.40 1.945
418.50 1.943
418.60 1.941
418.70 1.94
418.80 1.938
418.90 1.937
419.00 1.935
419.10 1.933
419.20 1.932
419.30 1.93
419.40 1.928
419.50 1.927
419.60 1.925
419.70 1.924
419.80 1.922
419.90 1.92
420.00 1.919
420.10 1.917
420.20 1.915
420.30 1.914
420.40 1.912
420.50 1.91
420.60 1.909
420.70 1.907
420.80 1.905
420.90 1.904
421.00 1.902
421.10 1.901
421.20 1.899
421.30 1.897
421.40 1.896
421.50 1.894
421.60 1.892
421.70 1.891
421.80 1.889
421.90 1.887
422.00 1.886
422.10 1.884
422.20 1.882
422.30 1.881
422.40 1.879
422.50 1.877
422.60 1.876
422.70 1.874
422.80 1.872
422.90 1.871
423.00 1.869
423.10 1.867
423.20 1.866
423.30 1.864
423.40 1.862
423.50 1.861
423.60 1.859
423.70 1.857
423.80 1.855
423.90 1.854
424.00 1.852
424.10 1.85
424.20 1.849
424.30 1.847
424.40 1.845
424.50 1.844
424.60 1.842
424.70 1.84
424.80 1.839
424.90 1.837
425.00 1.835
425.10 1.833
425.20 1.832
425.30 1.83
425.40 1.828
425.50 1.827
425.60 1.825
425.70 1.823
425.80 1.821
425.90 1.82
426.00 1.818
426.10 1.816
426.20 1.814
426.30 1.813
426.40 1.811
426.50 1.809
426.60 1.807
426.70 1.806
426.80 1.804
426.90 1.802
427.00 1.8
427.10 1.798
427.20 1.796
427.30 1.795
427.40 1.793
427.50 1.791
427.60 1.789
427.70 1.787
427.80 1.785
427.90 1.783
428.00 1.781
428.10 1.779
428.20 1.777
428.30 1.775
428.40 1.773
428.50 1.771
428.60 1.769
428.70 1.767
428.80 1.764
428.90 1.762
429.00 1.76
429.10 1.758
429.20 1.755
429.30 1.753
429.40 1.75
429.50 1.748
429.60 1.745
429.70 1.743
429.80 1.74
429.90 1.737
430.00 1.734
430.10 1.731
430.20 1.728
430.30 1.725
430.40 1.722
430.50 1.718
430.60 1.715
430.70 1.711
430.80 1.707
430.90 1.703
431.00 1.698
431.10 1.694
431.20 1.689
431.30 1.683
431.40 1.678
431.50 1.672
431.60 1.666
431.70 1.659
431.80 1.652
431.90 1.644
432.00 1.636
432.10 1.627
432.20 1.617
432.30 1.607
432.40 1.596
432.50 1.583
432.60 1.57
432.70 1.556
432.80 1.54
432.90 1.523
433.00 1.505
433.10 1.485
433.20 1.463
433.30 1.44
433.40 1.414
433.50 1.387
433.60 1.358
433.70 1.325
433.80 1.29
433.90 1.252
434.00 1.203
434.10 1.203
434.20 1.252
434.30 1.288
434.40 1.32
434.50 1.35
434.60 1.377
434.70 1.401
434.80 1.425
434.90 1.445
435.00 1.464
435.10 1.481
435.20 1.497
435.30 1.511
435.40 1.524
435.50 1.535
435.60 1.545
435.70 1.555
435.80 1.563
435.90 1.57
436.00 1.577
436.10 1.583
436.20 1.588
436.30 1.593
436.40 1.597
436.50 1.6
436.60 1.604
436.70 1.606
436.80 1.609
436.90 1.611
437.00 1.613
437.10 1.614
437.20 1.616
437.30 1.617
437.40 1.618
437.50 1.619
437.60 1.619
437.70 1.62
437.80 1.62
437.90 1.62
438.00 1.62
438.10 1.62
438.20 1.62
438.30 1.62
438.40 1.619
438.50 1.619
438.60 1.619
438.70 1.618
438.80 1.618
438.90 1.617
439.00 1.616
439.10 1.616
439.20 1.615
439.30 1.614
439.40 1.613
439.50 1.613
439.60 1.612
439.70 1.611
439.80 1.61
439.90 1.609
440.00 1.608
440.10 1.607
440.20 1.606
440.30 1.605
440.40 1.604
440.50 1.603
440.60 1.602
440.70 1.601
440.80 1.6
440.90 1.598
441.00 1.597
441.10 1.596
441.20 1.595
441.30 1.594
441.40 1.593
441.50 1.592
441.60 1.59
441.70 1.589
441.80 1.588
441.90 1.587
442.00 1.586
442.10 1.585
442.20 1.583
442.30 1.582
442.40 1.581
442.50 1.58
442.60 1.578
442.70 1.577
442.80 1.576
442.90 1.575
443.00 1.574
443.10 1.572
443.20 1.571
443.30 1.57
443.40 1.569
443.50 1.567
443.60 1.566
443.70 1.565
443.80 1.564
443.90 1.562
444.00 1.561
444.10 1.56
444.20 1.559
444.30 1.557
444.40 1.556
444.50 1.555
444.60 1.554
444.70 1.552
444.80 1.551
444.90 1.55
445.00 1.549
445.10 1.547
445.20 1.546
445.30 1.545
445.40 1.544
445.50 1.542
445.60 1.541
445.70 1.54
445.80 1.538
445.90 1.537
446.00 1.536
446.10 1.535
446.20 1.533
446.30 1.532
446.40 1.531
446.50 1.53
446.60 1.528
446.70 1.527
446.80 1.526
446.90 1.525
447.00 1.523
447.10 1.522
447.20 1.521
447.30 1.52
447.40 1.518
447.50 1.517
447.60 1.516
447.70 1.515
447.80 1.513
447.90 1.512
448.00 1.511
448.10 1.51
448.20 1.508
448.30 1.507
448.40 1.506
448.50 1.505
448.60 1.503
448.70 1.502
448.80 1.501
448.90 1.5
449.00 1.499
449.10 1.497
449.20 1.496
449.30 1.495
449.40 1.494
449.50 1.492
449.60 1.491
449.70 1.49
449.80 1.489
449.90 1.487
450.00 1.486
450.10 1.485
450.20 1.484
450.30 1.483
450.40 1.481
450.50 1.48
450.60 1.479
450.70 1.478
450.80 1.476
450.90 1.475
451.00 1.474
451.10 1.473
451.20 1.472
451.30 1.47
451.40 1.469
451.50 1.468
451.60 1.467
451.70 1.465
451.80 1.464
451.90 1.463
452.00 1.462
452.10 1.461
452.20 1.459
452.30 1.458
452.40 1.457
452.50 1.456
452.60 1.455
452.70 1.453
452.80 1.452
452.90 1.451
453.00 1.45
453.10 1.449
453.20 1.447
453.30 1.446
453.40 1.445
453.50 1.444
453.60 1.443
453.70 1.442
453.80 1.44
453.90 1.439
454.00 1.438
454.10 1.437
454.20 1.436
454.30 1.434
454.40 1.433
454.50 1.432
454.60 1.431
454.70 1.43
454.80 1.429
454.90 1.427
455.00 1.426
455.10 1.425
455.20 1.424
455.30 1.423
455.40 1.421
455.50 1.42
455.60 1.419
455.70 1.418
455.80 1.417
455.90 1.416
456.00 1.415
456.10 1.413
456.20 1.412
456.30 1.411
456.40 1.41
456.50 1.409
456.60 1.408
456.70 1.406
456.80 1.405
456.90 1.404
457.00 1.403
457.10 1.402
457.20 1.401
457.30 1.399
457.40 1.398
457.50 1.397
457.60 1.396
457.70 1.395
457.80 1.394
457.90 1.393
458.00 1.391
458.10 1.39
458.20 1.389
458.30 1.388
458.40 1.387
458.50 1.386
458.60 1.385
458.70 1.384
458.80 1.382
458.90 1.381
459.00 1.38
459.10 1.379
459.20 1.378
459.30 1.377
459.40 1.376
459.50 1.375
459.60 1.373
459.70 1.372
459.80 1.371
459.90 1.37
460.00 1.369
460.10 1.368
460.20 1.367
460.30 1.366
460.40 1.364
460.50 1.363
460.60 1.362
460.70 1.361
460.80 1.36
460.90 1.359
461.00 1.358
461.10 1.357
461.20 1.356
461.30 1.354
461.40 1.353
461.50 1.352
461.60 1.351
461.70 1.35
461.80 1.349
461.90 1.348
462.00 1.347
462.10 1.346
462.20 1.345
462.30 1.343
462.40 1.342
462.50 1.341
462.60 1.34
462.70 1.339
462.80 1.338
462.90 1.337
463.00 1.336
463.10 1.335
463.20 1.334
463.30 1.333
463.40 1.332
463.50 1.33
463.60 1.329
463.70 1.328
463.80 1.327
463.90 1.326
464.00 1.325
464.10 1.324
464.20 1.323
464.30 1.322
464.40 1.321
464.50 1.32
464.60 1.319
464.70 1.318
464.80 1.316
464.90 1.315
465.00 1.314
465.10 1.313
465.20 1.312
465.30 1.311
465.40 1.31
465.50 1.309
465.60 1.308
465.70 1.307
465.80 1.306
465.90 1.305
466.00 1.304
466.10 1.303
466.20 1.302
466.30 1.301
466.40 1.3
466.50 1.298
466.60 1.297
466.70 1.296
466.80 1.295
466.90 1.294
467.00 1.293
467.10 1.292
467.20 1.291
467.30 1.29
467.40 1.289
467.50 1.288
467.60 1.287
467.70 1.286
467.80 1.285
467.90 1.284
468.00 1.283
468.10 1.282
468.20 1.281
468.30 1.28
468.40 1.279
468.50 1.278
468.60 1.277
468.70 1.276
468.80 1.275
468.90 1.274
469.00 1.272
469.10 1.271
469.20 1.27
469.30 1.269
469.40 1.268
469.50 1.267
469.60 1.266
469.70 1.265
469.80 1.264
469.90 1.263
470.00 1.262
470.10 1.261
470.20 1.26
470.30 1.259
470.40 1.258
470.50 1.257
470.60 1.256
470.70 1.255
470.80 1.254
470.90 1.253
471.00 1.252
471.10 1.251
471.20 1.25
471.30 1.249
471.40 1.248
471.50 1.247
471.60 1.246
471.70 1.245
471.80 1.244
471.90 1.243
472.00 1.242
472.10 1.241
472.20 1.24
472.30 1.239
472.40 1.238
472.50 1.237
472.60 1.236
472.70 1.235
472.80 1.234
472.90 1.233
473.00 1.232
473.10 1.231
473.20 1.23
473.30 1.229
473.40 1.228
473.50 1.227
473.60 1.226
473.70 1.225
473.80 1.224
473.90 1.223
474.00 1.222
474.10 1.221
474.20 1.22
474.30 1.219
474.40 1.218
474.50 1.217
474.60 1.216
474.70 1.215
474.80 1.214
474.90 1.213
475.00 1.212
475.10 1.211
475.20 1.21
475.30 1.209
475.40 1.208
475.50 1.207
475.60 1.206
475.70 1.205
475.80 1.204
475.90 1.203
476.00 1.202
476.10 1.201
476.20 1.2
476.30 1.199
476.40 1.198
476.50 1.197
476.60 1.196
476.70 1.195
476.80 1.194
476.90 1.193
477.00 1.192
477.10 1.191
477.20 1.19
477.30 1.189
477.40 1.188
477.50 1.187
477.60 1.185
477.70 1.184
477.80 1.183
477.90 1.182
478.00 1.181
478.10 1.18
478.20 1.179
478.30 1.178
478.40 1.177
478.50 1.176
478.60 1.175
478.70 1.174
478.80 1.173
478.90 1.172
479.00 1.171
479.10 1.17
479.20 1.168
479.30 1.167
479.40 1.166
479.50 1.165
479.60 1.164
479.70 1.163
479.80 1.162
479.90 1.16
480.00 1.159
480.10 1.158
480.20 1.157
480.30 1.156
480.40 1.154
480.50 1.153
480.60 1.152
480.70 1.15
480.80 1.149
480.90 1.148
481.00 1.146
481.10 1.145
481.20 1.144
481.30 1.142
481.40 1.14
481.50 1.139
481.60 1.137
481.70 1.136
481.80 1.134
481.90 1.132
482.00 1.131
482.10 1.129
482.20 1.127
482.30 1.125
482.40 1.123
482.50 1.12
482.60 1.118
482.70 1.116
482.80 1.113
482.90 1.111
483.00 1.109
483.10 1.107
483.20 1.103
483.30 1.099
483.40 1.095
483.50 1.091
483.60 1.088
483.70 1.084
483.80 1.08
483.90 1.076
484.00 1.072
484.10 1.068
484.20 1.062
484.30 1.056
484.40 1.049
484.50 1.043
484.60 1.036
484.70 1.028
484.80 1.018
484.90 1.008
485.00 0.9989
485.10 0.9893
485.20 0.9777
485.30 0.9651
485.40 0.951
485.50 0.9363
485.60 0.9199
485.70 0.9027
485.80 0.8828
485.90 0.8616
486.00 0.8337
486.10 0.7762
486.20 0.7985
486.30 0.8434
486.40 0.8654
486.50 0.8854
486.60 0.9026
486.70 0.9184
486.80 0.9325
486.90 0.9458
487.00 0.9575
487.10 0.9685
487.20 0.9775
487.30 0.9854
487.40 0.9934
487.50 1.001
487.60 1.009
487.70 1.015
487.80 1.02
487.90 1.025
488.00 1.029
488.10 1.034
488.20 1.037
488.30 1.039
488.40 1.041
488.50 1.044
488.60 1.046
488.70 1.048
488.80 1.05
488.90 1.052
489.00 1.054
489.10 1.056
489.20 1.057
489.30 1.058
489.40 1.058
489.50 1.059
489.60 1.059
489.70 1.06
489.80 1.06
489.90 1.061
490.00 1.061
490.10 1.062
490.20 1.062
490.30 1.062
490.40 1.062
490.50 1.061
490.60 1.061
490.70 1.061
490.80 1.061
490.90 1.061
491.00 1.061
491.10 1.06
491.20 1.06
491.30 1.06
491.40 1.059
491.50 1.059
491.60 1.058
491.70 1.058
491.80 1.057
491.90 1.057
492.00 1.056
492.10 1.056
492.20 1.055
492.30 1.055
492.40 1.054
492.50 1.054
492.60 1.053
492.70 1.052
492.80 1.052
492.90 1.051
493.00 1.051
493.10 1.05
493.20 1.049
493.30 1.049
493.40 1.048
493.50 1.047
493.60 1.047
493.70 1.046
493.80 1.045
493.90 1.045
494.00 1.044
494.10 1.043
494.20 1.043
494.30 1.042
494.40 1.041
494.50 1.04
494.60 1.04
494.70 1.039
494.80 1.038
494.90 1.038
495.00 1.037
495.10 1.036
495.20 1.035
495.30 1.035
495.40 1.034
495.50 1.033
495.60 1.033
495.70 1.032
495.80 1.031
495.90 1.03
496.00 1.03
496.10 1.029
496.20 1.028
496.30 1.027
496.40 1.027
496.50 1.026
496.60 1.025
496.70 1.024
496.80 1.024
496.90 1.023
497.00 1.022
497.10 1.022
497.20 1.021
497.30 1.02
497.40 1.019
497.50 1.019
497.60 1.018
497.70 1.017
497.80 1.016
497.90 1.016
498.00 1.015
498.10 1.014
498.20 1.013
498.30 1.013
498.40 1.012
498.50 1.011
498.60 1.01
498.70 1.01
498.80 1.009
498.90 1.008
499.00 1.007
499.10 1.007
499.20 1.006
499.30 1.005
499.40 1.004
499.50 1.004
499.60 1.003
499.70 1.002
499.80 1.001
499.90 1.001
500.00 1
500.10 0.9993
500.20 0.9985
500.30 0.9978
500.40 0.997
500.50 0.9963
500.60 0.9956
500.70 0.9948
500.80 0.9941
500.90 0.9934
501.00 0.9926
501.10 0.9919
501.20 0.9912
501.30 0.9904
501.40 0.9897
501.50 0.989
501.60 0.9882
501.70 0.9875
501.80 0.9868
501.90 0.986
502.00 0.9853
502.10 0.9846
502.20 0.9838
502.30 0.9831
502.40 0.9824
502.50 0.9816
502.60 0.9809
502.70 0.9802
502.80 0.9795
502.90 0.9787
503.00 0.978
503.10 0.9773
503.20 0.9766
503.30 0.9758
503.40 0.9751
503.50 0.9744
503.60 0.9737
503.70 0.9729
503.80 0.9722
503.90 0.9715
504.00 0.9708
504.10 0.9701
504.20 0.9693
504.30 0.9686
504.40 0.9679
504.50 0.9672
504.60 0.9665
504.70 0.9657
504.80 0.965
504.90 0.9643
505.00 0.9636
505.10 0.9629
505.20 0.9622
505.30 0.9615
505.40 0.9607
505.50 0.96
505.60 0.9593
505.70 0.9586
505.80 0.9579
505.90 0.9572
506.00 0.9565
506.10 0.9558
506.20 0.9551
506.30 0.9544
506.40 0.9536
506.50 0.9529
506.60 0.9522
506.70 0.9515
506.80 0.9508
506.90 0.9501
507.00 0.9494
507.10 0.9487
507.20 0.948
507.30 0.9473
507.40 0.9466
507.50 0.9459
507.60 0.9452
507.70 0.9445
507.80 0.9438
507.90 0.9431
508.00 0.9424
508.10 0.9417
508.20 0.941
508.30 0.9403
508.40 0.9396
508.50 0.9389
508.60 0.9382
508.70 0.9376
508.80 0.9369
508.90 0.9362
509.00 0.9355
509.10 0.9348
509.20 0.9341
509.30 0.9334
509.40 0.9327
509.50 0.932
509.60 0.9313
509.70 0.9307
509.80 0.93
509.90 0.9293
510.00 0.9286
510.10 0.9279
510.20 0.9272
510.30 0.9265
510.40 0.9259
510.50 0.9252
510.60 0.9245
510.70 0.9238
510.80 0.9231
510.90 0.9225
511.00 0.9218
511.10 0.9211
511.20 0.9204
511.30 0.9197
511.40 0.9191
511.50 0.9184
511.60 0.9177
511.70 0.917
511.80 0.9164
511.90 0.9157
512.00 0.915
512.10 0.9143
512.20 0.9137
512.30 0.913
512.40 0.9123
512.50 0.9117
512.60 0.911
512.70 0.9103
512.80 0.9097
512.90 0.909
513.00 0.9083
513.10 0.9076
513.20 0.907
513.30 0.9063
513.40 0.9057
513.50 0.905
513.60 0.9043
513.70 0.9037
513.80 0.903
513.90 0.9023
514.00 0.9017
514.10 0.901
514.20 0.9004
514.30 0.8997
514.40 0.899
514.50 0.8984
514.60 0.8977
514.70 0.8971
514.80 0.8964
514.90 0.8957
515.00 0.8951
515.10 0.8944
515.20 0.8938
515.30 0.8931
515.40 0.8925
515.50 0.8918
515.60 0.8912
515.70 0.8905
515.80 0.8899
515.90 0.8892
516.00 0.8886
516.10 0.8879
516.20 0.8873
516.30 0.8866
516.40 0.886
516.50 0.8853
516.60 0.8847
516.70 0.884
516.80 0.8834
516.90 0.8828
517.00 0.8821
517.10 0.8815
517.20 0.8808
517.30 0.8802
517.40 0.8795
517.50 0.8789
517.60 0.8783
517.70 0.8776
517.80 0.877
517.90 0.8763
518.00 0.8757
518.10 0.8751
518.20 0.8744
518.30 0.8738
518.40 0.8732
518.50 0.8725
518.60 0.8719
518.70 0.8713
518.80 0.8706
518.90 0.87
519.00 0.8694
519.10 0.8687
519.20 0.8681
519.30 0.8675
519.40 0.8668
519.50 0.8662
519.60 0.8656
519.70 0.8649
519.80 0.8643
519.90 0.8637
520.00 0.8631
520.10 0.8624
520.20 0.8618
520.30 0.8612
520.40 0.8606
520.50 0.8599
520.60 0.8593
520.70 0.8587
520.80 0.8581
520.90 0.8574
521.00 0.8568
521.10 0.8562
521.20 0.8556
521.30 0.855
521.40 0.8543
521.50 0.8537
521.60 0.8531
521.70 0.8525
521.80 0.8519
521.90 0.8513
522.00 0.8506
522.10 0.85
522.20 0.8494
522.30 0.8488
522.40 0.8482
522.50 0.8476
522.60 0.847
522.70 0.8464
522.80 0.8457
522.90 0.8451
523.00 0.8445
523.10 0.8439
523.20 0.8433
523.30 0.8427
523.40 0.8421
523.50 0.8415
523.60 0.8409
523.70 0.8403
523.80 0.8397
523.90 0.8391
524.00 0.8385
524.10 0.8378
524.20 0.8372
524.30 0.8366
524.40 0.836
524.50 0.8354
524.60 0.8348
524.70 0.8342
524.80 0.8336
524.90 0.833
525.00 0.8324
525.10 0.8318
525.20 0.8312
525.30 0.8306
525.40 0.83
525.50 0.8295
525.60 0.8289
525.70 0.8283
525.80 0.8277
525.90 0.8271
526.00 0.8265
526.10 0.8259
526.20 0.8253
526.30 0.8247
526.40 0.8241
526.50 0.8235
526.60 0.8229
526.70 0.8223
526.80 0.8217
526.90 0.8212
527.00 0.8206
527.10 0.82
527.20 0.8194
527.30 0.8188
527.40 0.8182
527.50 0.8176
527.60 0.817
527.70 0.8165
527.80 0.8159
527.90 0.8153
528.00 0.8147
528.10 0.8141
528.20 0.8135
528.30 0.813
528.40 0.8124
528.50 0.8118
528.60 0.8112
528.70 0.8106
528.80 0.8101
528.90 0.8095
529.00 0.8089
529.10 0.8083
529.20 0.8078
529.30 0.8072
529.40 0.8066
529.50 0.806
529.60 0.8055
529.70 0.8049
529.80 0.8043
529.90 0.8037
530.00 0.8032
530.10 0.8026
530.20 0.802
530.30 0.8014
530.40 0.8009
530.50 0.8003
530.60 0.7997
530.70 0.7992
530.80 0.7986
530.90 0.798
531.00 0.7975
531.10 0.7969
531.20 0.7963
531.30 0.7958
531.40 0.7952
531.50 0.7946
531.60 0.7941
531.70 0.7935
531.80 0.7929
531.90 0.7924
532.00 0.7918
532.10 0.7912
532.20 0.7907
532.30 0.7901
532.40 0.7896
532.50 0.789
532.60 0.7884
532.70 0.7879
532.80 0.7873
532.90 0.7868
533.00 0.7862
533.10 0.7856
533.20 0.7851
533.30 0.7845
533.40 0.784
533.50 0.7834
533.60 0.7829
533.70 0.7823
533.80 0.7818
533.90 0.7812
534.00 0.7806
534.10 0.7801
534.20 0.7795
534.30 0.779
534.40 0.7784
534.50 0.7779
534.60 0.7773
534.70 0.7768
534.80 0.7762
534.90 0.7757
535.00 0.7751
535.10 0.7746
535.20 0.7741
535.30 0.7735
535.40 0.773
535.50 0.7724
535.60 0.7719
535.70 0.7713
535.80 0.7708
535.90 0.7702
536.00 0.7697
536.10 0.7691
536.20 0.7686
536.30 0.7681
536.40 0.7675
536.50 0.767
536.60 0.7664
536.70 0.7659
536.80 0.7654
536.90 0.7648
537.00 0.7643
537.10 0.7637
537.20 0.7632
537.30 0.7627
537.40 0.7621
537.50 0.7616
537.60 0.7611
537.70 0.7605
537.80 0.76
537.90 0.7595
538.00 0.7589
538.10 0.7584
538.20 0.7579
538.30 0.7573
538.40 0.7568
538.50 0.7563
538.60 0.7557
538.70 0.7552
538.80 0.7547
538.90 0.7541
539.00 0.7536
539.10 0.7531
539.20 0.7526
539.30 0.752
539.40 0.7515
539.50 0.751
539.60 0.7504
539.70 0.7499
539.80 0.7494
539.90 0.7489
540.00 0.7483
540.10 0.7478
540.20 0.7473
540.30 0.7468
540.40 0.7463
540.50 0.7457
540.60 0.7452
540.70 0.7447
540.80 0.7442
540.90 0.7436
541.00 0.7431
541.10 0.7426
541.20 0.7421
541.30 0.7416
541.40 0.7411
541.50 0.7405
541.60 0.74
541.70 0.7395
541.80 0.739
541.90 0.7385
542.00 0.738
542.10 0.7374
542.20 0.7369
542.30 0.7364
542.40 0.7359
542.50 0.7354
542.60 0.7349
542.70 0.7344
542.80 0.7338
542.90 0.7333
543.00 0.7328
543.10 0.7323
543.20 0.7318
543.30 0.7313
543.40 0.7308
543.50 0.7303
543.60 0.7298
543.70 0.7293
543.80 0.7288
543.90 0.7282
544.00 0.7277
544.10 0.7272
544.20 0.7267
544.30 0.7262
544.40 0.7257
544.50 0.7252
544.60 0.7247
544.70 0.7242
544.80 0.7237
544.90 0.7232
545.00 0.7227
545.10 0.7222
545.20 0.7217
545.30 0.7212
545.40 0.7207
545.50 0.7202
545.60 0.7197
545.70 0.7192
545.80 0.7187
545.90 0.7182
546.00 0.7177
546.10 0.7172
546.20 0.7167
546.30 0.7162
546.40 0.7157
546.50 0.7152
546.60 0.7147
546.70 0.7142
546.80 0.7137
546.90 0.7132
547.00 0.7127
547.10 0.7123
547.20 0.7118
547.30 0.7113
547.40 0.7108
547.50 0.7103
547.60 0.7098
547.70 0.7093
547.80 0.7088
547.90 0.7083
548.00 0.7078
548.10 0.7073
548.20 0.7069
548.30 0.7064
548.40 0.7059
548.50 0.7054
548.60 0.7049
548.70 0.7044
548.80 0.7039
548.90 0.7035
549.00 0.703
549.10 0.7025
549.20 0.702
549.30 0.7015
549.40 0.701
549.50 0.7005
549.60 0.7001
549.70 0.6996
549.80 0.6991
549.90 0.6986
550.00 0.6981
550.10 0.6977
550.20 0.6972
550.30 0.6967
550.40 0.6962
550.50 0.6957
550.60 0.6953
550.70 0.6948
550.80 0.6943
550.90 0.6938
551.00 0.6934
551.10 0.6929
551.20 0.6924
551.30 0.6919
551.40 0.6914
551.50 0.691
551.60 0.6905
551.70 0.69
551.80 0.6896
551.90 0.6891
552.00 0.6886
552.10 0.6881
552.20 0.6877
552.30 0.6872
552.40 0.6867
552.50 0.6862
552.60 0.6858
552.70 0.6853
552.80 0.6848
552.90 0.6844
553.00 0.6839
553.10 0.6834
553.20 0.683
553.30 0.6825
553.40 0.682
553.50 0.6816
553.60 0.6811
553.70 0.6806
553.80 0.6802
553.90 0.6797
554.00 0.6792
554.10 0.6788
554.20 0.6783
554.30 0.6778
554.40 0.6774
554.50 0.6769
554.60 0.6765
554.70 0.676
554.80 0.6755
554.90 0.6751
555.00 0.6746
555.10 0.6742
555.20 0.6737
555.30 0.6732
555.40 0.6728
555.50 0.6723
555.60 0.6719
555.70 0.6714
555.80 0.6709
555.90 0.6705
556.00 0.67
556.10 0.6696
556.20 0.6691
556.30 0.6687
556.40 0.6682
556.50 0.6677
556.60 0.6673
556.70 0.6668
556.80 0.6664
556.90 0.6659
557.00 0.6655
557.10 0.665
557.20 0.6646
557.30 0.6641
557.40 0.6637
557.50 0.6632
557.60 0.6628
557.70 0.6623
557.80 0.6619
557.90 0.6614
558.00 0.661
558.10 0.6605
558.20 0.6601
558.30 0.6596
558.40 0.6592
558.50 0.6587
558.60 0.6583
558.70 0.6578
558.80 0.6574
558.90 0.6569
559.00 0.6565
559.10 0.6561
559.20 0.6556
559.30 0.6552
559.40 0.6547
559.50 0.6543
559.60 0.6538
559.70 0.6534
559.80 0.653
559.90 0.6525
560.00 0.6521
560.10 0.6516
560.20 0.6512
560.30 0.6507
560.40 0.6503
560.50 0.6499
560.60 0.6494
560.70 0.649
560.80 0.6486
560.90 0.6481
561.00 0.6477
561.10 0.6472
561.20 0.6468
561.30 0.6464
561.40 0.6459
561.50 0.6455
561.60 0.6451
561.70 0.6446
561.80 0.6442
561.90 0.6438
562.00 0.6433
562.10 0.6429
562.20 0.6425
562.30 0.642
562.40 0.6416
562.50 0.6412
562.60 0.6407
562.70 0.6403
562.80 0.6399
562.90 0.6394
563.00 0.639
563.10 0.6386
563.20 0.6381
563.30 0.6377
563.40 0.6373
563.50 0.6369
563.60 0.6364
563.70 0.636
563.80 0.6356
563.90 0.6351
564.00 0.6347
564.10 0.6343
564.20 0.6339
564.30 0.6334
564.40 0.633
564.50 0.6326
564.60 0.6322
564.70 0.6317
564.80 0.6313
564.90 0.6309
565.00 0.6305
565.10 0.63
565.20 0.6296
565.30 0.6292
565.40 0.6288
565.50 0.6284
565.60 0.6279
565.70 0.6275
565.80 0.6271
565.90 0.6267
566.00 0.6263
566.10 0.6258
566.20 0.6254
566.30 0.625
566.40 0.6246
566.50 0.6242
566.60 0.6237
566.70 0.6233
566.80 0.6229
566.90 0.6225
567.00 0.6221
567.10 0.6217
567.20 0.6212
567.30 0.6208
567.40 0.6204
567.50 0.62
567.60 0.6196
567.70 0.6192
567.80 0.6188
567.90 0.6183
568.00 0.6179
568.10 0.6175
568.20 0.6171
568.30 0.6167
568.40 0.6163
568.50 0.6159
568.60 0.6155
568.70 0.6151
568.80 0.6146
568.90 0.6142
569.00 0.6138
569.10 0.6134
569.20 0.613
569.30 0.6126
569.40 0.6122
569.50 0.6118
569.60 0.6114
569.70 0.611
569.80 0.6106
569.90 0.6102
570.00 0.6097
570.10 0.6093
570.20 0.6089
570.30 0.6085
570.40 0.6081
570.50 0.6077
570.60 0.6073
570.70 0.6069
570.80 0.6065
570.90 0.6061
571.00 0.6057
571.10 0.6053
571.20 0.6049
571.30 0.6045
571.40 0.6041
571.50 0.6037
571.60 0.6033
571.70 0.6029
571.80 0.6025
571.90 0.6021
572.00 0.6017
572.10 0.6013
572.20 0.6009
572.30 0.6005
572.40 0.6001
572.50 0.5997
572.60 0.5993
572.70 0.5989
572.80 0.5985
572.90 0.5981
573.00 0.5977
573.10 0.5973
573.20 0.5969
573.30 0.5965
573.40 0.5961
573.50 0.5957
573.60 0.5954
573.70 0.595
573.80 0.5946
573.90 0.5942
574.00 0.5938
574.10 0.5934
574.20 0.593
574.30 0.5926
574.40 0.5922
574.50 0.5918
574.60 0.5914
574.70 0.591
574.80 0.5907
574.90 0.5903
575.00 0.5899
575.10 0.5895
575.20 0.5891
575.30 0.5887
575.40 0.5883
575.50 0.5879
575.60 0.5875
575.70 0.5872
575.80 0.5868
575.90 0.5864
576.00 0.586
576.10 0.5856
576.20 0.5852
576.30 0.5848
576.40 0.5845
576.50 0.5841
576.60 0.5837
576.70 0.5833
576.80 0.5829
576.90 0.5825
577.00 0.5821
577.10 0.5818
577.20 0.5814
577.30 0.581
577.40 0.5806
577.50 0.5802
577.60 0.5799
577.70 0.5795
577.80 0.5791
577.90 0.5787
578.00 0.5783
578.10 0.578
578.20 0.5776
578.30 0.5772
578.40 0.5768
578.50 0.5764
578.60 0.5761
578.70 0.5757
578.80 0.5753
578.90 0.5749
579.00 0.5746
579.10 0.5742
579.20 0.5738
579.30 0.5734
579.40 0.573
579.50 0.5727
579.60 0.5723
579.70 0.5719
579.80 0.5715
579.90 0.5712
580.00 0.5708
580.10 0.5704
580.20 0.5701
580.30 0.5697
580.40 0.5693
580.50 0.5689
580.60 0.5686
580.70 0.5682
580.80 0.5678
580.90 0.5675
581.00 0.5671
581.10 0.5667
581.20 0.5663
581.30 0.566
581.40 0.5656
581.50 0.5652
581.60 0.5649
581.70 0.5645
581.80 0.5641
581.90 0.5638
582.00 0.5634
582.10 0.563
582.20 0.5627
582.30 0.5623
582.40 0.5619
582.50 0.5616
582.60 0.5612
582.70 0.5608
582.80 0.5605
582.90 0.5601
583.00 0.5597
583.10 0.5594
583.20 0.559
583.30 0.5586
583.40 0.5583
583.50 0.5579
583.60 0.5575
583.70 0.5572
583.80 0.5568
583.90 0.5565
584.00 0.5561
584.10 0.5557
584.20 0.5554
584.30 0.555
584.40 0.5547
584.50 0.5543
584.60 0.5539
584.70 0.5536
584.80 0.5532
584.90 0.5529
585.00 0.5525
585.10 0.5521
585.20 0.5518
585.30 0.5514
585.40 0.5511
585.50 0.5507
585.60 0.5504
585.70 0.55
585.80 0.5496
585.90 0.5493
586.00 0.5489
586.10 0.5486
586.20 0.5482
586.30 0.5479
586.40 0.5475
586.50 0.5472
586.60 0.5468
586.70 0.5464
586.80 0.5461
586.90 0.5457
587.00 0.5454
587.10 0.545
587.20 0.5447
587.30 0.5443
587.40 0.544
587.50 0.5436
587.60 0.5433
587.70 0.5429
587.80 0.5426
587.90 0.5422
588.00 0.5419
588.10 0.5415
588.20 0.5412
588.30 0.5408
588.40 0.5405
588.50 0.5401
588.60 0.5398
588.70 0.5394
588.80 0.5391
588.90 0.5387
589.00 0.5384
589.10 0.538
589.20 0.5377
589.30 0.5373
589.40 0.537
589.50 0.5366
589.60 0.5363
589.70 0.536
589.80 0.5356
589.90 0.5353
590.00 0.5349
590.10 0.5346
590.20 0.5342
590.30 0.5339
590.40 0.5335
590.50 0.5332
590.60 0.5329
590.70 0.5325
590.80 0.5322
590.90 0.5318
591.00 0.5315
591.10 0.5311
591.20 0.5308
591.30 0.5305
591.40 0.5301
591.50 0.5298
591.60 0.5294
591.70 0.5291
591.80 0.5288
591.90 0.5284
592.00 0.5281
592.10 0.5277
592.20 0.5274
592.30 0.5271
592.40 0.5267
592.50 0.5264
592.60 0.5261
592.70 0.5257
592.80 0.5254
592.90 0.525
593.00 0.5247
593.10 0.5244
593.20 0.524
593.30 0.5237
593.40 0.5234
593.50 0.523
593.60 0.5227
593.70 0.5224
593.80 0.522
593.90 0.5217
594.00 0.5214
594.10 0.521
594.20 0.5207
594.30 0.5204
594.40 0.52
594.50 0.5197
594.60 0.5194
594.70 0.519
594.80 0.5187
594.90 0.5184
595.00 0.518
595.10 0.5177
595.20 0.5174
595.30 0.517
595.40 0.5167
595.50 0.5164
595.60 0.5161
595.70 0.5157
595.80 0.5154
595.90 0.5151
596.00 0.5147
596.10 0.5144
596.20 0.5141
596.30 0.5138
596.40 0.5134
596.50 0.5131
596.60 0.5128
596.70 0.5125
596.80 0.5121
596.90 0.5118
597.00 0.5115
597.10 0.5111
597.20 0.5108
597.30 0.5105
597.40 0.5102
597.50 0.5098
597.60 0.5095
597.70 0.5092
597.80 0.5089
597.90 0.5086
598.00 0.5082
598.10 0.5079
598.20 0.5076
598.30 0.5073
598.40 0.5069
598.50 0.5066
598.60 0.5063
598.70 0.506
598.80 0.5057
598.90 0.5053
599.00 0.505
599.10 0.5047
599.20 0.5044
599.30 0.504
599.40 0.5037
599.50 0.5034
599.60 0.5031
599.70 0.5028
599.80 0.5025
599.90 0.5021
600.00 0.5018
600.10 0.5015
600.20 0.5012
600.30 0.5009
600.40 0.5005
600.50 0.5002
600.60 0.4999
600.70 0.4996
600.80 0.4993
600.90 0.499
601.00 0.4986
601.10 0.4983
601.20 0.498
601.30 0.4977
601.40 0.4974
601.50 0.4971
601.60 0.4968
601.70 0.4964
601.80 0.4961
601.90 0.4958
602.00 0.4955
602.10 0.4952
602.20 0.4949
602.30 0.4946
602.40 0.4943
602.50 0.4939
602.60 0.4936
602.70 0.4933
602.80 0.493
602.90 0.4927
603.00 0.4924
603.10 0.4921
603.20 0.4918
603.30 0.4915
603.40 0.4911
603.50 0.4908
603.60 0.4905
603.70 0.4902
603.80 0.4899
603.90 0.4896
604.00 0.4893
604.10 0.489
604.20 0.4887
604.30 0.4884
604.40 0.4881
604.50 0.4878
604.60 0.4875
604.70 0.4871
604.80 0.4868
604.90 0.4865
605.00 0.4862
605.10 0.4859
605.20 0.4856
605.30 0.4853
605.40 0.485
605.50 0.4847
605.60 0.4844
605.70 0.4841
605.80 0.4838
605.90 0.4835
606.00 0.4832
606.10 0.4829
606.20 0.4826
606.30 0.4823
606.40 0.482
606.50 0.4817
606.60 0.4814
606.70 0.4811
606.80 0.4808
606.90 0.4805
607.00 0.4802
607.10 0.4799
607.20 0.4796
607.30 0.4793
607.40 0.479
607.50 0.4787
607.60 0.4784
607.70 0.4781
607.80 0.4778
607.90 0.4775
608.00 0.4772
608.10 0.4769
608.20 0.4766
608.30 0.4763
608.40 0.476
608.50 0.4757
608.60 0.4754
608.70 0.4751
608.80 0.4748
608.90 0.4745
609.00 0.4742
609.10 0.4739
609.20 0.4736
609.30 0.4733
609.40 0.473
609.50 0.4727
609.60 0.4724
609.70 0.4721
609.80 0.4718
609.90 0.4715
610.00 0.4712
610.10 0.4709
610.20 0.4706
610.30 0.4704
610.40 0.4701
610.50 0.4698
610.60 0.4695
610.70 0.4692
610.80 0.4689
610.90 0.4686
611.00 0.4683
611.10 0.468
611.20 0.4677
611.30 0.4674
611.40 0.4671
611.50 0.4668
611.60 0.4666
611.70 0.4663
611.80 0.466
611.90 0.4657
612.00 0.4654
612.10 0.4651
612.20 0.4648
612.30 0.4645
612.40 0.4642
612.50 0.464
612.60 0.4637
612.70 0.4634
612.80 0.4631
612.90 0.4628
613.00 0.4625
613.10 0.4622
613.20 0.4619
613.30 0.4617
613.40 0.4614
613.50 0.4611
613.60 0.4608
613.70 0.4605
613.80 0.4602
613.90 0.4599
614.00 0.4597
614.10 0.4594
614.20 0.4591
614.30 0.4588
614.40 0.4585
614.50 0.4582
614.60 0.4579
614.70 0.4577
614.80 0.4574
614.90 0.4571
615.00 0.4568
615.10 0.4565
615.20 0.4562
615.30 0.456
615.40 0.4557
615.50 0.4554
615.60 0.4551
615.70 0.4548
615.80 0.4546
615.90 0.4543
616.00 0.454
616.10 0.4537
616.20 0.4534
616.30 0.4532
616.40 0.4529
616.50 0.4526
616.60 0.4523
616.70 0.452
616.80 0.4518
616.90 0.4515
617.00 0.4512
617.10 0.4509
617.20 0.4506
617.30 0.4504
617.40 0.4501
617.50 0.4498
617.60 0.4495
617.70 0.4493
617.80 0.449
617.90 0.4487
618.00 0.4484
618.10 0.4481
618.20 0.4479
618.30 0.4476
618.40 0.4473
618.50 0.447
618.60 0.4468
618.70 0.4465
618.80 0.4462
618.90 0.4459
619.00 0.4457
619.10 0.4454
619.20 0.4451
619.30 0.4448
619.40 0.4446
619.50 0.4443
619.60 0.444
619.70 0.4438
619.80 0.4435
619.90 0.4432
620.00 0.4429
620.10 0.4427
620.20 0.4424
620.30 0.4421
620.40 0.4419
620.50 0.4416
620.60 0.4413
620.70 0.441
620.80 0.4408
620.90 0.4405
621.00 0.4402
621.10 0.44
621.20 0.4397
621.30 0.4394
621.40 0.4391
621.50 0.4389
621.60 0.4386
621.70 0.4383
621.80 0.4381
621.90 0.4378
622.00 0.4375
622.10 0.4373
622.20 0.437
622.30 0.4367
622.40 0.4365
622.50 0.4362
622.60 0.4359
622.70 0.4357
622.80 0.4354
622.90 0.4351
623.00 0.4349
623.10 0.4346
623.20 0.4343
623.30 0.4341
623.40 0.4338
623.50 0.4335
623.60 0.4333
623.70 0.433
623.80 0.4327
623.90 0.4325
624.00 0.4322
624.10 0.4319
624.20 0.4317
624.30 0.4314
624.40 0.4312
624.50 0.4309
624.60 0.4306
624.70 0.4304
624.80 0.4301
624.90 0.4298
625.00 0.4296
625.10 0.4293
625.20 0.4291
625.30 0.4288
625.40 0.4285
625.50 0.4283
625.60 0.428
625.70 0.4278
625.80 0.4275
625.90 0.4272
626.00 0.427
626.10 0.4267
626.20 0.4264
626.30 0.4262
626.40 0.4259
626.50 0.4257
626.60 0.4254
626.70 0.4252
626.80 0.4249
626.90 0.4246
627.00 0.4244
627.10 0.4241
627.20 0.4239
627.30 0.4236
627.40 0.4233
627.50 0.4231
627.60 0.4228
627.70 0.4226
627.80 0.4223
627.90 0.4221
628.00 0.4218
628.10 0.4215
628.20 0.4213
628.30 0.421
628.40 0.4208
628.50 0.4205
628.60 0.4203
628.70 0.42
628.80 0.4198
628.90 0.4195
629.00 0.4192
629.10 0.419
629.20 0.4187
629.30 0.4185
629.40 0.4182
629.50 0.418
629.60 0.4177
629.70 0.4175
629.80 0.4172
629.90 0.417
630.00 0.4167
630.10 0.4165
630.20 0.4162
630.30 0.416
630.40 0.4157
630.50 0.4155
630.60 0.4152
630.70 0.4149
630.80 0.4147
630.90 0.4144
631.00 0.4142
631.10 0.4139
631.20 0.4137
631.30 0.4134
631.40 0.4132
631.50 0.4129
631.60 0.4127
631.70 0.4124
631.80 0.4122
631.90 0.4119
632.00 0.4117
632.10 0.4114
632.20 0.4112
632.30 0.4109
632.40 0.4107
632.50 0.4105
632.60 0.4102
632.70 0.41
632.80 0.4097
632.90 0.4095
633.00 0.4092
633.10 0.409
633.20 0.4087
633.30 0.4085
633.40 0.4082
633.50 0.408
633.60 0.4077
633.70 0.4075
633.80 0.4072
633.90 0.407
634.00 0.4067
634.10 0.4065
634.20 0.4063
634.30 0.406
634.40 0.4058
634.50 0.4055
634.60 0.4053
634.70 0.405
634.80 0.4048
634.90 0.4045
635.00 0.4043
635.10 0.4041
635.20 0.4038
635.30 0.4036
635.40 0.4033
635.50 0.4031
635.60 0.4028
635.70 0.4026
635.80 0.4024
635.90 0.4021
636.00 0.4019
636.10 0.4016
636.20 0.4014
636.30 0.4011
636.40 0.4009
636.50 0.4007
636.60 0.4004
636.70 0.4002
636.80 0.3999
636.90 0.3997
637.00 0.3995
637.10 0.3992
637.20 0.399
637.30 0.3987
637.40 0.3985
637.50 0.3983
637.60 0.398
637.70 0.3978
637.80 0.3975
637.90 0.3973
638.00 0.3971
638.10 0.3968
638.20 0.3966
638.30 0.3963
638.40 0.3961
638.50 0.3959
638.60 0.3956
638.70 0.3954
638.80 0.3951
638.90 0.3949
639.00 0.3947
639.10 0.3944
639.20 0.3942
639.30 0.394
639.40 0.3937
639.50 0.3935
639.60 0.3932
639.70 0.393
639.80 0.3928
639.90 0.3925
640.00 0.3923
640.10 0.3921
640.20 0.3918
640.30 0.3916
640.40 0.3913
640.50 0.3911
640.60 0.3909
640.70 0.3906
640.80 0.3904
640.90 0.3902
641.00 0.3899
641.10 0.3897
641.20 0.3895
641.30 0.3892
641.40 0.389
641.50 0.3887
641.60 0.3885
641.70 0.3883
641.80 0.388
641.90 0.3878
642.00 0.3876
642.10 0.3873
642.20 0.3871
642.30 0.3869
642.40 0.3866
642.50 0.3864
642.60 0.3862
642.70 0.3859
642.80 0.3857
642.90 0.3855
643.00 0.3852
643.10 0.385
643.20 0.3848
643.30 0.3845
643.40 0.3843
643.50 0.3841
643.60 0.3838
643.70 0.3836
643.80 0.3833
643.90 0.3831
644.00 0.3829
644.10 0.3826
644.20 0.3824
644.30 0.3822
644.40 0.3819
644.50 0.3817
644.60 0.3815
644.70 0.3812
644.80 0.381
644.90 0.3808
645.00 0.3805
645.10 0.3803
645.20 0.3801
645.30 0.3798
645.40 0.3796
645.50 0.3794
645.60 0.3791
645.70 0.3789
645.80 0.3786
645.90 0.3784
646.00 0.3782
646.10 0.3779
646.20 0.3777
646.30 0.3775
646.40 0.3772
646.50 0.377
646.60 0.3767
646.70 0.3765
646.80 0.3763
646.90 0.376
647.00 0.3758
647.10 0.3755
647.20 0.3753
647.30 0.3751
647.40 0.3748
647.50 0.3746
647.60 0.3743
647.70 0.3741
647.80 0.3738
647.90 0.3736
648.00 0.3733
648.10 0.3731
648.20 0.3729
648.30 0.3726
648.40 0.3724
648.50 0.3721
648.60 0.3718
648.70 0.3716
648.80 0.3713
648.90 0.3711
649.00 0.3708
649.10 0.3706
649.20 0.3703
649.30 0.3701
649.40 0.3698
649.50 0.3695
649.60 0.3692
649.70 0.369
649.80 0.3687
649.90 0.3684
650.00 0.3681
650.10 0.3679
650.20 0.3676
650.30 0.3673
650.40 0.367
650.50 0.3667
650.60 0.3664
650.70 0.3661
650.80 0.3658
650.90 0.3654
651.00 0.3651
651.10 0.3648
651.20 0.3645
651.30 0.3642
651.40 0.3638
651.50 0.3634
651.60 0.363
651.70 0.3627
651.80 0.3623
651.90 0.3619
652.00 0.3615
652.10 0.3611
652.20 0.3607
652.30 0.3603
652.40 0.3598
652.50 0.3592
652.60 0.3587
652.70 0.3581
652.80 0.3576
652.90 0.357
653.00 0.3565
653.10 0.356
653.20 0.3554
653.30 0.3548
653.40 0.3538
653.50 0.3529
653.60 0.3519
653.70 0.351
653.80 0.3501
653.90 0.3491
654.00 0.3482
654.10 0.3472
654.20 0.3463
654.30 0.3452
654.40 0.3436
654.50 0.3421
654.60 0.3405
654.70 0.3389
654.80 0.3372
654.90 0.3348
655.00 0.3325
655.10 0.3301
655.20 0.3278
655.30 0.3253
655.40 0.3222
655.50 0.3189
655.60 0.3152
655.70 0.3114
655.80 0.3068
655.90 0.3018
656.00 0.2947
656.10 0.2867
656.20 0.2595
656.30 0.2452
656.40 0.2733
656.50 0.2894
656.60 0.2963
656.70 0.3026
656.80 0.3068
656.90 0.3108
657.00 0.3141
657.10 0.3173
657.20 0.3201
657.30 0.3227
657.40 0.3246
657.50 0.3266
657.60 0.3285
657.70 0.3305
657.80 0.3322
657.90 0.3334
658.00 0.3346
658.10 0.3357
658.20 0.3369
658.30 0.3379
658.40 0.3385
658.50 0.339
658.60 0.3395
658.70 0.34
658.80 0.3405
658.90 0.3411
659.00 0.3416
659.10 0.3421
659.20 0.3426
659.30 0.3431
659.40 0.3432
659.50 0.3433
659.60 0.3434
659.70 0.3436
659.80 0.3437
659.90 0.3438
660.00 0.3439
660.10 0.344
660.20 0.3442
660.30 0.3442
660.40 0.3442
660.50 0.3442
660.60 0.3441
660.70 0.3441
660.80 0.344
660.90 0.344
661.00 0.344
661.10 0.3439
661.20 0.3439
661.30 0.3438
661.40 0.3437
661.50 0.3436
661.60 0.3435
661.70 0.3434
661.80 0.3433
661.90 0.3432
662.00 0.3431
662.10 0.3429
662.20 0.3428
662.30 0.3427
662.40 0.3426
662.50 0.3424
662.60 0.3423
662.70 0.3421
662.80 0.342
662.90 0.3418
663.00 0.3417
663.10 0.3416
663.20 0.3414
663.30 0.3413
663.40 0.3411
663.50 0.3409
663.60 0.3408
663.70 0.3406
663.80 0.3404
663.90 0.3403
664.00 0.3401
664.10 0.3399
664.20 0.3398
664.30 0.3396
664.40 0.3394
664.50 0.3393
664.60 0.3391
664.70 0.3389
664.80 0.3388
664.90 0.3386
665.00 0.3384
665.10 0.3382
665.20 0.3381
665.30 0.3379
665.40 0.3377
665.50 0.3375
665.60 0.3373
665.70 0.3372
665.80 0.337
665.90 0.3368
666.00 0.3366
666.10 0.3365
666.20 0.3363
666.30 0.3361
666.40 0.3359
666.50 0.3357
666.60 0.3356
666.70 0.3354
666.80 0.3352
666.90 0.335
667.00 0.3348
667.10 0.3346
667.20 0.3345
667.30 0.3343
667.40 0.3341
667.50 0.3339
667.60 0.3337
667.70 0.3336
667.80 0.3334
667.90 0.3332
668.00 0.333
668.10 0.3328
668.20 0.3326
668.30 0.3325
668.40 0.3323
668.50 0.3321
668.60 0.3319
668.70 0.3317
668.80 0.3315
668.90 0.3314
669.00 0.3312
669.10 0.331
669.20 0.3308
669.30 0.3306
669.40 0.3304
669.50 0.3303
669.60 0.3301
669.70 0.3299
669.80 0.3297
669.90 0.3295
670.00 0.3293
670.10 0.3292
670.20 0.329
670.30 0.3288
670.40 0.3286
670.50 0.3284
670.60 0.3282
670.70 0.3281
670.80 0.3279
670.90 0.3277
671.00 0.3275
671.10 0.3273
671.20 0.3271
671.30 0.327
671.40 0.3268
671.50 0.3266
671.60 0.3264
671.70 0.3262
671.80 0.326
671.90 0.3259
672.00 0.3257
672.10 0.3255
672.20 0.3253
672.30 0.3251
672.40 0.3249
672.50 0.3248
672.60 0.3246
672.70 0.3244
672.80 0.3242
672.90 0.324
673.00 0.3239
673.10 0.3237
673.20 0.3235
673.30 0.3233
673.40 0.3231
673.50 0.3229
673.60 0.3228
673.70 0.3226
673.80 0.3224
673.90 0.3222
674.00 0.322
674.10 0.3219
674.20 0.3217
674.30 0.3215
674.40 0.3213
674.50 0.3211
674.60 0.321
674.70 0.3208
674.80 0.3206
674.90 0.3204
675.00 0.3202
675.10 0.3201
675.20 0.3199
675.30 0.3197
675.40 0.3195
675.50 0.3193
675.60 0.3192
675.70 0.319
675.80 0.3188
675.90 0.3186
676.00 0.3184
676.10 0.3183
676.20 0.3181
676.30 0.3179
676.40 0.3177
676.50 0.3176
676.60 0.3174
676.70 0.3172
676.80 0.317
676.90 0.3168
677.00 0.3167
677.10 0.3165
677.20 0.3163
677.30 0.3161
677.40 0.3159
677.50 0.3158
677.60 0.3156
677.70 0.3154
677.80 0.3152
677.90 0.3151
678.00 0.3149
678.10 0.3147
678.20 0.3145
678.30 0.3144
678.40 0.3142
678.50 0.314
678.60 0.3138
678.70 0.3137
678.80 0.3135
678.90 0.3133
679.00 0.3131
679.10 0.313
679.20 0.3128
679.30 0.3126
679.40 0.3124
679.50 0.3123
679.60 0.3121
679.70 0.3119
679.80 0.3117
679.90 0.3116
680.00 0.3114
680.10 0.3112
680.20 0.311
680.30 0.3109
680.40 0.3107
680.50 0.3105
680.60 0.3103
680.70 0.3102
680.80 0.31
680.90 0.3098
681.00 0.3096
681.10 0.3095
681.20 0.3093
681.30 0.3091
681.40 0.3089
681.50 0.3088
681.60 0.3086
681.70 0.3084
681.80 0.3083
681.90 0.3081
682.00 0.3079
682.10 0.3077
682.20 0.3076
682.30 0.3074
682.40 0.3072
682.50 0.3071
682.60 0.3069
682.70 0.3067
682.80 0.3065
682.90 0.3064
683.00 0.3062
683.10 0.306
683.20 0.3059
683.30 0.3057
683.40 0.3055
683.50 0.3053
683.60 0.3052
683.70 0.305
683.80 0.3048
683.90 0.3047
684.00 0.3045
684.10 0.3043
684.20 0.3042
684.30 0.304
684.40 0.3038
684.50 0.3036
684.60 0.3035
684.70 0.3033
684.80 0.3031
684.90 0.303
685.00 0.3028
685.10 0.3026
685.20 0.3025
685.30 0.3023
685.40 0.3021
685.50 0.302
685.60 0.3018
685.70 0.3016
685.80 0.3015
685.90 0.3013
686.00 0.3011
686.10 0.301
686.20 0.3008
686.30 0.3006
686.40 0.3005
686.50 0.3003
686.60 0.3001
686.70 0.3
686.80 0.2998
686.90 0.2996
687.00 0.2995
687.10 0.2993
687.20 0.2991
687.30 0.299
687.40 0.2988
687.50 0.2986
687.60 0.2985
687.70 0.2983
687.80 0.2981
687.90 0.298
688.00 0.2978
688.10 0.2976
688.20 0.2975
688.30 0.2973
688.40 0.2971
688.50 0.297
688.60 0.2968
688.70 0.2966
688.80 0.2965
688.90 0.2963
689.00 0.2961
689.10 0.296
689.20 0.2958
689.30 0.2957
689.40 0.2955
689.50 0.2953
689.60 0.2952
689.70 0.295
689.80 0.2948
689.90 0.2947
690.00 0.2945
690.10 0.2944
690.20 0.2942
690.30 0.294
690.40 0.2939
690.50 0.2937
690.60 0.2935
690.70 0.2934
690.80 0.2932
690.90 0.2931
691.00 0.2929
691.10 0.2927
691.20 0.2926
691.30 0.2924
691.40 0.2922
691.50 0.2921
691.60 0.2919
691.70 0.2918
691.80 0.2916
691.90 0.2914
692.00 0.2913
692.10 0.2911
692.20 0.291
692.30 0.2908
692.40 0.2906
692.50 0.2905
692.60 0.2903
692.70 0.2902
692.80 0.29
692.90 0.2898
693.00 0.2897
693.10 0.2895
693.20 0.2894
693.30 0.2892
693.40 0.289
693.50 0.2889
693.60 0.2887
693.70 0.2886
693.80 0.2884
693.90 0.2882
694.00 0.2881
694.10 0.2879
694.20 0.2878
694.30 0.2876
694.40 0.2874
694.50 0.2873
694.60 0.2871
694.70 0.287
694.80 0.2868
694.90 0.2867
695.00 0.2865
695.10 0.2863
695.20 0.2862
695.30 0.286
695.40 0.2859
695.50 0.2857
695.60 0.2856
695.70 0.2854
695.80 0.2852
695.90 0.2851
696.00 0.2849
696.10 0.2848
696.20 0.2846
696.30 0.2845
696.40 0.2843
696.50 0.2842
696.60 0.284
696.70 0.2838
696.80 0.2837
696.90 0.2835
697.00 0.2834
697.10 0.2832
697.20 0.2831
697.30 0.2829
697.40 0.2828
697.50 0.2826
697.60 0.2824
697.70 0.2823
697.80 0.2821
697.90 0.282
698.00 0.2818
698.10 0.2817
698.20 0.2815
698.30 0.2814
698.40 0.2812
698.50 0.2811
698.60 0.2809
698.70 0.2807
698.80 0.2806
698.90 0.2804
699.00 0.2803
699.10 0.2801
699.20 0.28
699.30 0.2798
699.40 0.2797
699.50 0.2795
699.60 0.2794
699.70 0.2792
699.80 0.2791
699.90 0.2789
700.00 0.2787
700.10 0.2786
700.20 0.2784
700.30 0.2783
700.40 0.2781
700.50 0.278
700.60 0.2778
700.70 0.2777
700.80 0.2775
700.90 0.2774
701.00 0.2772
701.10 0.2771
701.20 0.2769
701.30 0.2768
701.40 0.2766
701.50 0.2765
701.60 0.2763
701.70 0.2762
701.80 0.276
701.90 0.2759
702.00 0.2757
702.10 0.2756
702.20 0.2754
702.30 0.2753
702.40 0.2751
702.50 0.275
702.60 0.2748
702.70 0.2747
702.80 0.2745
702.90 0.2744
703.00 0.2742
703.10 0.2741
703.20 0.2739
703.30 0.2738
703.40 0.2736
703.50 0.2735
703.60 0.2733
703.70 0.2732
703.80 0.273
703.90 0.2729
704.00 0.2727
704.10 0.2726
704.20 0.2724
704.30 0.2723
704.40 0.2722
704.50 0.272
704.60 0.2719
704.70 0.2717
704.80 0.2716
704.90 0.2714
705.00 0.2713
705.10 0.2711
705.20 0.271
705.30 0.2708
705.40 0.2707
705.50 0.2705
705.60 0.2704
705.70 0.2702
705.80 0.2701
705.90 0.2699
706.00 0.2698
706.10 0.2697
706.20 0.2695
706.30 0.2694
706.40 0.2692
706.50 0.2691
706.60 0.2689
706.70 0.2688
706.80 0.2686
706.90 0.2685
707.00 0.2683
707.10 0.2682
707.20 0.2681
707.30 0.2679
707.40 0.2678
707.50 0.2676
707.60 0.2675
707.70 0.2673
707.80 0.2672
707.90 0.267
708.00 0.2669
708.10 0.2668
708.20 0.2666
708.30 0.2665
708.40 0.2663
708.50 0.2662
708.60 0.266
708.70 0.2659
708.80 0.2657
708.90 0.2656
709.00 0.2655
709.10 0.2653
709.20 0.2652
709.30 0.265
709.40 0.2649
709.50 0.2647
709.60 0.2646
709.70 0.2645
709.80 0.2643
709.90 0.2642
710.00 0.264
710.10 0.2639
710.20 0.2637
710.30 0.2636
710.40 0.2635
710.50 0.2633
710.60 0.2632
710.70 0.263
710.80 0.2629
710.90 0.2628
711.00 0.2626
711.10 0.2625
711.20 0.2623
711.30 0.2622
711.40 0.262
711.50 0.2619
711.60 0.2618
711.70 0.2616
711.80 0.2615
711.90 0.2613
712.00 0.2612
712.10 0.2611
712.20 0.2609
712.30 0.2608
712.40 0.2606
712.50 0.2605
712.60 0.2604
712.70 0.2602
712.80 0.2601
712.90 0.2599
713.00 0.2598
713.10 0.2597
713.20 0.2595
713.30 0.2594
713.40 0.2592
713.50 0.2591
713.60 0.259
713.70 0.2588
713.80 0.2587
713.90 0.2586
714.00 0.2584
714.10 0.2583
714.20 0.2581
714.30 0.258
714.40 0.2579
714.50 0.2577
714.60 0.2576
714.70 0.2574
714.80 0.2573
714.90 0.2572
715.00 0.257
715.10 0.2569
715.20 0.2568
715.30 0.2566
715.40 0.2565
715.50 0.2563
715.60 0.2562
715.70 0.2561
715.80 0.2559
715.90 0.2558
716.00 0.2557
716.10 0.2555
716.20 0.2554
716.30 0.2553
716.40 0.2551
716.50 0.255
716.60 0.2548
716.70 0.2547
716.80 0.2546
716.90 0.2544
717.00 0.2543
717.10 0.2542
717.20 0.254
717.30 0.2539
717.40 0.2538
717.50 0.2536
717.60 0.2535
717.70 0.2534
717.80 0.2532
717.90 0.2531
718.00 0.2529
718.10 0.2528
718.20 0.2527
718.30 0.2525
718.40 0.2524
718.50 0.2523
718.60 0.2521
718.70 0.252
718.80 0.2519
718.90 0.2517
719.00 0.2516
719.10 0.2515
719.20 0.2513
719.30 0.2512
719.40 0.2511
719.50 0.2509
719.60 0.2508
719.70 0.2507
719.80 0.2505
719.90 0.2504
720.00 0.2503
720.10 0.2501
720.20 0.25
720.30 0.2499
720.40 0.2497
720.50 0.2496
720.60 0.2495
720.70 0.2493
720.80 0.2492
720.90 0.2491
721.00 0.2489
721.10 0.2488
721.20 0.2487
721.30 0.2485
721.40 0.2484
721.50 0.2483
721.60 0.2482
721.70 0.248
721.80 0.2479
721.90 0.2478
722.00 0.2476
722.10 0.2475
722.20 0.2474
722.30 0.2472
722.40 0.2471
722.50 0.247
722.60 0.2468
722.70 0.2467
722.80 0.2466
722.90 0.2464
723.00 0.2463
723.10 0.2462
723.20 0.2461
723.30 0.2459
723.40 0.2458
723.50 0.2457
723.60 0.2455
723.70 0.2454
723.80 0.2453
723.90 0.2451
724.00 0.245
724.10 0.2449
724.20 0.2448
724.30 0.2446
724.40 0.2445
724.50 0.2444
724.60 0.2442
724.70 0.2441
724.80 0.244
724.90 0.2438
725.00 0.2437
725.10 0.2436
725.20 0.2435
725.30 0.2433
725.40 0.2432
725.50 0.2431
725.60 0.2429
725.70 0.2428
725.80 0.2427
725.90 0.2426
726.00 0.2424
726.10 0.2423
726.20 0.2422
726.30 0.2421
726.40 0.2419
726.50 0.2418
726.60 0.2417
726.70 0.2415
726.80 0.2414
726.90 0.2413
727.00 0.2412
727.10 0.241
727.20 0.2409
727.30 0.2408
727.40 0.2407
727.50 0.2405
727.60 0.2404
727.70 0.2403
727.80 0.2402
727.90 0.24
728.00 0.2399
728.10 0.2398
728.20 0.2396
728.30 0.2395
728.40 0.2394
728.50 0.2393
728.60 0.2391
728.70 0.239
728.80 0.2389
728.90 0.2388
729.00 0.2386
729.10 0.2385
729.20 0.2384
729.30 0.2383
729.40 0.2381
729.50 0.238
729.60 0.2379
729.70 0.2378
729.80 0.2376
729.90 0.2375
730.00 0.2374
730.10 0.2373
730.20 0.2371
730.30 0.237
730.40 0.2369
730.50 0.2368
730.60 0.2366
730.70 0.2365
730.80 0.2364
730.90 0.2363
731.00 0.2362
731.10 0.236
731.20 0.2359
731.30 0.2358
731.40 0.2357
731.50 0.2355
731.60 0.2354
731.70 0.2353
731.80 0.2352
731.90 0.235
732.00 0.2349
732.10 0.2348
732.20 0.2347
732.30 0.2346
732.40 0.2344
732.50 0.2343
732.60 0.2342
732.70 0.2341
732.80 0.2339
732.90 0.2338
733.00 0.2337
733.10 0.2336
733.20 0.2335
733.30 0.2333
733.40 0.2332
733.50 0.2331
733.60 0.233
733.70 0.2329
733.80 0.2327
733.90 0.2326
734.00 0.2325
734.10 0.2324
734.20 0.2322
734.30 0.2321
734.40 0.232
734.50 0.2319
734.60 0.2318
734.70 0.2316
734.80 0.2315
734.90 0.2314
735.00 0.2313
735.10 0.2312
735.20 0.231
735.30 0.2309
735.40 0.2308
735.50 0.2307
735.60 0.2306
735.70 0.2304
735.80 0.2303
735.90 0.2302
736.00 0.2301
736.10 0.23
736.20 0.2298
736.30 0.2297
736.40 0.2296
736.50 0.2295
736.60 0.2294
736.70 0.2292
736.80 0.2291
736.90 0.229
737.00 0.2289
737.10 0.2288
737.20 0.2286
737.30 0.2285
737.40 0.2284
737.50 0.2283
737.60 0.2282
737.70 0.228
737.80 0.2279
737.90 0.2278
738.00 0.2277
738.10 0.2276
738.20 0.2275
738.30 0.2273
738.40 0.2272
738.50 0.2271
738.60 0.227
738.70 0.2269
738.80 0.2267
738.90 0.2266
739.00 0.2265
739.10 0.2264
739.20 0.2263
739.30 0.2261
739.40 0.226
739.50 0.2259
739.60 0.2258
739.70 0.2257
739.80 0.2256
739.90 0.2254
740.00 0.2253
740.10 0.2252
740.20 0.2251
740.30 0.225
740.40 0.2249
740.50 0.2247
740.60 0.2246
740.70 0.2245
740.80 0.2244
740.90 0.2243
741.00 0.2242
741.10 0.2241
741.20 0.2239
741.30 0.2238
741.40 0.2237
741.50 0.2236
741.60 0.2235
741.70 0.2234
741.80 0.2232
741.90 0.2231
742.00 0.223
742.10 0.2229
742.20 0.2228
742.30 0.2227
742.40 0.2226
742.50 0.2224
742.60 0.2223
742.70 0.2222
742.80 0.2221
742.90 0.222
743.00 0.2219
743.10 0.2218
743.20 0.2216
743.30 0.2215
743.40 0.2214
743.50 0.2213
743.60 0.2212
743.70 0.2211
743.80 0.221
743.90 0.2209
744.00 0.2207
744.10 0.2206
744.20 0.2205
744.30 0.2204
744.40 0.2203
744.50 0.2202
744.60 0.2201
744.70 0.2199
744.80 0.2198
744.90 0.2197
745.00 0.2196
745.10 0.2195
745.20 0.2194
745.30 0.2193
745.40 0.2192
745.50 0.219
745.60 0.2189
745.70 0.2188
745.80 0.2187
745.90 0.2186
746.00 0.2185
746.10 0.2184
746.20 0.2183
746.30 0.2181
746.40 0.218
746.50 0.2179
746.60 0.2178
746.70 0.2177
746.80 0.2176
746.90 0.2175
747.00 0.2174
747.10 0.2172
747.20 0.2171
747.30 0.217
747.40 0.2169
747.50 0.2168
747.60 0.2167
747.70 0.2166
747.80 0.2165
747.90 0.2163
748.00 0.2162
748.10 0.2161
748.20 0.216
748.30 0.2159
748.40 0.2158
748.50 0.2157
748.60 0.2156
748.70 0.2155
748.80 0.2153
748.90 0.2152
749.00 0.2151
749.10 0.215
749.20 0.2149
749.30 0.2148
749.40 0.2147
749.50 0.2146
749.60 0.2145
749.70 0.2144
749.80 0.2142
749.90 0.2141
750.00 0.214
750.10 0.2139
750.20 0.2138
750.30 0.2137
750.40 0.2136
750.50 0.2135
750.60 0.2134
750.70 0.2133
750.80 0.2132
750.90 0.213
751.00 0.2129
751.10 0.2128
751.20 0.2127
751.30 0.2126
751.40 0.2125
751.50 0.2124
751.60 0.2123
751.70 0.2122
751.80 0.2121
751.90 0.212
752.00 0.2119
752.10 0.2118
752.20 0.2116
752.30 0.2115
752.40 0.2114
752.50 0.2113
752.60 0.2112
752.70 0.2111
752.80 0.211
752.90 0.2109
753.00 0.2108
753.10 0.2107
753.20 0.2106
753.30 0.2105
753.40 0.2104
753.50 0.2103
753.60 0.2101
753.70 0.21
753.80 0.2099
753.90 0.2098
754.00 0.2097
754.10 0.2096
754.20 0.2095
754.30 0.2094
754.40 0.2093
754.50 0.2092
754.60 0.2091
754.70 0.209
754.80 0.2089
754.90 0.2088
755.00 0.2087
755.10 0.2086
755.20 0.2084
755.30 0.2083
755.40 0.2082
755.50 0.2081
755.60 0.208
755.70 0.2079
755.80 0.2078
755.90 0.2077
756.00 0.2076
756.10 0.2075
756.20 0.2074
756.30 0.2073
756.40 0.2072
756.50 0.2071
756.60 0.207
756.70 0.2069
756.80 0.2068
756.90 0.2067
757.00 0.2065
757.10 0.2064
757.20 0.2063
757.30 0.2062
757.40 0.2061
757.50 0.206
757.60 0.2059
757.70 0.2058
757.80 0.2057
757.90 0.2056
758.00 0.2055
758.10 0.2054
758.20 0.2053
758.30 0.2052
758.40 0.2051
758.50 0.205
758.60 0.2049
758.70 0.2048
758.80 0.2047
758.90 0.2046
759.00 0.2045
759.10 0.2044
759.20 0.2042
759.30 0.2041
759.40 0.204
759.50 0.2039
759.60 0.2038
759.70 0.2037
759.80 0.2036
759.90 0.2035
760.00 0.2034
760.10 0.2033
760.20 0.2032
760.30 0.2031
760.40 0.203
760.50 0.2029
760.60 0.2028
760.70 0.2027
760.80 0.2026
760.90 0.2025
761.00 0.2024
761.10 0.2023
761.20 0.2022
761.30 0.2021
761.40 0.202
761.50 0.2019
761.60 0.2018
761.70 0.2017
761.80 0.2016
761.90 0.2015
762.00 0.2014
762.10 0.2013
762.20 0.2012
762.30 0.2011
762.40 0.201
762.50 0.2009
762.60 0.2008
762.70 0.2007
762.80 0.2006
762.90 0.2005
763.00 0.2004
763.10 0.2003
763.20 0.2002
763.30 0.2001
763.40 0.2
763.50 0.1999
763.60 0.1998
763.70 0.1997
763.80 0.1996
763.90 0.1995
764.00 0.1994
764.10 0.1993
764.20 0.1992
764.30 0.1991
764.40 0.199
764.50 0.1989
764.60 0.1988
764.70 0.1987
764.80 0.1986
764.90 0.1985
765.00 0.1984
765.10 0.1983
765.20 0.1982
765.30 0.1981
765.40 0.198
765.50 0.1979
765.60 0.1978
765.70 0.1977
765.80 0.1976
765.90 0.1975
766.00 0.1974
766.10 0.1973
766.20 0.1972
766.30 0.1971
766.40 0.197
766.50 0.1969
766.60 0.1968
766.70 0.1967
766.80 0.1966
766.90 0.1965
767.00 0.1964
767.10 0.1963
767.20 0.1962
767.30 0.1961
767.40 0.196
767.50 0.1959
767.60 0.1958
767.70 0.1957
767.80 0.1956
767.90 0.1955
768.00 0.1954
768.10 0.1953
768.20 0.1952
768.30 0.1951
768.40 0.195
768.50 0.1949
768.60 0.1948
768.70 0.1947
768.80 0.1946
768.90 0.1945
769.00 0.1944
769.10 0.1943
769.20 0.1942
769.30 0.1941
769.40 0.194
769.50 0.194
769.60 0.1939
769.70 0.1938
769.80 0.1937
769.90 0.1936
770.00 0.1935
770.10 0.1934
770.20 0.1933
770.30 0.1932
770.40 0.1931
770.50 0.193
770.60 0.1929
770.70 0.1928
770.80 0.1927
770.90 0.1926
771.00 0.1925
771.10 0.1924
771.20 0.1923
771.30 0.1922
771.40 0.1921
771.50 0.192
771.60 0.1919
771.70 0.1918
771.80 0.1917
771.90 0.1917
772.00 0.1916
772.10 0.1915
772.20 0.1914
772.30 0.1913
772.40 0.1912
772.50 0.1911
772.60 0.191
772.70 0.1909
772.80 0.1908
772.90 0.1907
773.00 0.1906
773.10 0.1905
773.20 0.1904
773.30 0.1903
773.40 0.1902
773.50 0.1901
773.60 0.19
773.70 0.19
773.80 0.1899
773.90 0.1898
774.00 0.1897
774.10 0.1896
774.20 0.1895
774.30 0.1894
774.40 0.1893
774.50 0.1892
774.60 0.1891
774.70 0.189
774.80 0.1889
774.90 0.1888
775.00 0.1887
775.10 0.1886
775.20 0.1885
775.30 0.1885
775.40 0.1884
775.50 0.1883
775.60 0.1882
775.70 0.1881
775.80 0.188
775.90 0.1879
776.00 0.1878
776.10 0.1877
776.20 0.1876
776.30 0.1875
776.40 0.1874
776.50 0.1873
776.60 0.1872
776.70 0.1872
776.80 0.1871
776.90 0.187
777.00 0.1869
777.10 0.1868
777.20 0.1867
777.30 0.1866
777.40 0.1865
777.50 0.1864
777.60 0.1863
777.70 0.1862
777.80 0.1861
777.90 0.186
778.00 0.1859
778.10 0.1859
778.20 0.1858
778.30 0.1857
778.40 0.1856
778.50 0.1855
778.60 0.1854
778.70 0.1853
778.80 0.1852
778.90 0.1851
779.00 0.185
779.10 0.1849
779.20 0.1848
779.30 0.1848
779.40 0.1847
779.50 0.1846
779.60 0.1845
779.70 0.1844
779.80 0.1843
779.90 0.1842
780.00 0.1841
780.10 0.184
780.20 0.1839
780.30 0.1838
780.40 0.1838
780.50 0.1837
780.60 0.1836
780.70 0.1835
780.80 0.1834
780.90 0.1833
781.00 0.1832
781.10 0.1831
781.20 0.183
781.30 0.1829
781.40 0.1829
781.50 0.1828
781.60 0.1827
781.70 0.1826
781.80 0.1825
781.90 0.1824
782.00 0.1823
782.10 0.1822
782.20 0.1821
782.30 0.1821
782.40 0.182
782.50 0.1819
782.60 0.1818
782.70 0.1817
782.80 0.1816
782.90 0.1815
783.00 0.1814
783.10 0.1813
783.20 0.1813
783.30 0.1812
783.40 0.1811
783.50 0.181
783.60 0.1809
783.70 0.1808
783.80 0.1807
783.90 0.1806
784.00 0.1805
784.10 0.1805
784.20 0.1804
784.30 0.1803
784.40 0.1802
784.50 0.1801
784.60 0.18
784.70 0.1799
784.80 0.1798
784.90 0.1798
785.00 0.1797
785.10 0.1796
785.20 0.1795
785.30 0.1794
785.40 0.1793
785.50 0.1792
785.60 0.1791
785.70 0.1791
785.80 0.179
785.90 0.1789
786.00 0.1788
786.10 0.1787
786.20 0.1786
786.30 0.1785
786.40 0.1784
786.50 0.1784
786.60 0.1783
786.70 0.1782
786.80 0.1781
786.90 0.178
787.00 0.1779
787.10 0.1778
787.20 0.1777
787.30 0.1777
787.40 0.1776
787.50 0.1775
787.60 0.1774
787.70 0.1773
787.80 0.1772
787.90 0.1771
788.00 0.177
788.10 0.177
788.20 0.1769
788.30 0.1768
788.40 0.1767
788.50 0.1766
788.60 0.1765
788.70 0.1764
788.80 0.1764
788.90 0.1763
789.00 0.1762
789.10 0.1761
789.20 0.176
789.30 0.1759
789.40 0.1758
789.50 0.1758
789.60 0.1757
789.70 0.1756
789.80 0.1755
789.90 0.1754
790.00 0.1753
790.10 0.1752
790.20 0.1752
790.30 0.1751
790.40 0.175
790.50 0.1749
790.60 0.1748
790.70 0.1747
790.80 0.1746
790.90 0.1746
791.00 0.1745
791.10 0.1744
791.20 0.1743
791.30 0.1742
791.40 0.1741
791.50 0.1741
791.60 0.174
791.70 0.1739
791.80 0.1738
791.90 0.1737
792.00 0.1736
792.10 0.1736
792.20 0.1735
792.30 0.1734
792.40 0.1733
792.50 0.1732
792.60 0.1731
792.70 0.1731
792.80 0.173
792.90 0.1729
793.00 0.1728
793.10 0.1727
793.20 0.1726
793.30 0.1725
793.40 0.1725
793.50 0.1724
793.60 0.1723
793.70 0.1722
793.80 0.1721
793.90 0.1721
794.00 0.172
794.10 0.1719
794.20 0.1718
794.30 0.1717
794.40 0.1716
794.50 0.1716
794.60 0.1715
794.70 0.1714
794.80 0.1713
794.90 0.1712
795.00 0.1711
795.10 0.1711
795.20 0.171
795.30 0.1709
795.40 0.1708
795.50 0.1707
795.60 0.1706
795.70 0.1706
795.80 0.1705
795.90 0.1704
796.00 0.1703
796.10 0.1702
796.20 0.1701
796.30 0.1701
796.40 0.17
796.50 0.1699
796.60 0.1698
796.70 0.1697
796.80 0.1697
796.90 0.1696
797.00 0.1695
797.10 0.1694
797.20 0.1693
797.30 0.1692
797.40 0.1692
797.50 0.1691
797.60 0.169
797.70 0.1689
797.80 0.1688
797.90 0.1688
798.00 0.1687
798.10 0.1686
798.20 0.1685
798.30 0.1684
798.40 0.1683
798.50 0.1683
798.60 0.1682
798.70 0.1681
798.80 0.168
798.90 0.1679
799.00 0.1679
799.10 0.1678
799.20 0.1677
799.30 0.1676
799.40 0.1675
799.50 0.1675
799.60 0.1674
799.70 0.1673
799.80 0.1672
799.90 0.1671
800.00 0.167
800.10 0.167
800.20 0.1669
800.30 0.1668
800.40 0.1667
800.50 0.1666
800.60 0.1666
800.70 0.1665
800.80 0.1664
800.90 0.1663
801.00 0.1663
801.10 0.1662
801.20 0.1661
801.30 0.166
801.40 0.1659
801.50 0.1659
801.60 0.1658
801.70 0.1657
801.80 0.1656
801.90 0.1655
802.00 0.1655
802.10 0.1654
802.20 0.1653
802.30 0.1652
802.40 0.1651
802.50 0.1651
802.60 0.165
802.70 0.1649
802.80 0.1648
802.90 0.1648
803.00 0.1647
803.10 0.1646
803.20 0.1645
803.30 0.1644
803.40 0.1644
803.50 0.1643
803.60 0.1642
803.70 0.1641
803.80 0.164
803.90 0.164
804.00 0.1639
804.10 0.1638
804.20 0.1637
804.30 0.1637
804.40 0.1636
804.50 0.1635
804.60 0.1634
804.70 0.1633
804.80 0.1633
804.90 0.1632
805.00 0.1631
805.10 0.163
805.20 0.163
805.30 0.1629
805.40 0.1628
805.50 0.1627
805.60 0.1626
805.70 0.1626
805.80 0.1625
805.90 0.1624
806.00 0.1623
806.10 0.1623
806.20 0.1622
806.30 0.1621
806.40 0.162
806.50 0.1619
806.60 0.1619
806.70 0.1618
806.80 0.1617
806.90 0.1616
807.00 0.1616
807.10 0.1615
807.20 0.1614
807.30 0.1613
807.40 0.1612
807.50 0.1612
807.60 0.1611
807.70 0.161
807.80 0.1609
807.90 0.1609
808.00 0.1608
808.10 0.1607
808.20 0.1606
808.30 0.1606
808.40 0.1605
808.50 0.1604
808.60 0.1603
808.70 0.1603
808.80 0.1602
808.90 0.1601
809.00 0.16
809.10 0.1599
809.20 0.1599
809.30 0.1598
809.40 0.1597
809.50 0.1596
809.60 0.1596
809.70 0.1595
809.80 0.1594
809.90 0.1593
810.00 0.1593
810.10 0.1592
810.20 0.1591
810.30 0.159
810.40 0.159
810.50 0.1589
810.60 0.1588
810.70 0.1587
810.80 0.1587
810.90 0.1586
811.00 0.1585
811.10 0.1584
811.20 0.1584
811.30 0.1583
811.40 0.1582
811.50 0.1581
811.60 0.1581
811.70 0.158
811.80 0.1579
811.90 0.1578
812.00 0.1578
812.10 0.1577
812.20 0.1576
812.30 0.1575
812.40 0.1575
812.50 0.1574
812.60 0.1573
812.70 0.1572
812.80 0.1572
812.90 0.1571
813.00 0.157
813.10 0.1569
813.20 0.1569
813.30 0.1568
813.40 0.1567
813.50 0.1567
813.60 0.1566
813.70 0.1565
813.80 0.1564
813.90 0.1564
814.00 0.1563
814.10 0.1562
814.20 0.1561
814.30 0.1561
814.40 0.156
814.50 0.1559
814.60 0.1558
814.70 0.1558
814.80 0.1557
814.90 0.1556
815.00 0.1555
815.10 0.1555
815.20 0.1554
815.30 0.1553
815.40 0.1553
815.50 0.1552
815.60 0.1551
815.70 0.155
815.80 0.155
815.90 0.1549
816.00 0.1548
816.10 0.1547
816.20 0.1547
816.30 0.1546
816.40 0.1545
816.50 0.1544
816.60 0.1544
816.70 0.1543
816.80 0.1542
816.90 0.1542
817.00 0.1541
817.10 0.154
817.20 0.1539
817.30 0.1539
817.40 0.1538
817.50 0.1537
817.60 0.1536
817.70 0.1536
817.80 0.1535
817.90 0.1534
818.00 0.1534
818.10 0.1533
818.20 0.1532
818.30 0.1531
818.40 0.1531
818.50 0.153
818.60 0.1529
818.70 0.1529
818.80 0.1528
818.90 0.1527
819.00 0.1526
819.10 0.1526
819.20 0.1525
819.30 0.1524
819.40 0.1523
819.50 0.1523
819.60 0.1522
819.70 0.1521
819.80 0.1521
819.90 0.152
820.00 0.1519
820.10 0.1518
820.20 0.1518
820.30 0.1517
820.40 0.1516
820.50 0.1516
820.60 0.1515
820.70 0.1514
820.80 0.1513
820.90 0.1513
821.00 0.1512
821.10 0.1511
821.20 0.1511
821.30 0.151
821.40 0.1509
821.50 0.1509
821.60 0.1508
821.70 0.1507
821.80 0.1506
821.90 0.1506
822.00 0.1505
822.10 0.1504
822.20 0.1504
822.30 0.1503
822.40 0.1502
822.50 0.1501
822.60 0.1501
822.70 0.15
822.80 0.1499
822.90 0.1499
823.00 0.1498
823.10 0.1497
823.20 0.1497
823.30 0.1496
823.40 0.1495
823.50 0.1494
823.60 0.1494
823.70 0.1493
823.80 0.1492
823.90 0.1492
824.00 0.1491
824.10 0.149
824.20 0.149
824.30 0.1489
824.40 0.1488
824.50 0.1488
824.60 0.1487
824.70 0.1486
824.80 0.1485
824.90 0.1485
825.00 0.1484
825.10 0.1483
825.20 0.1483
825.30 0.1482
825.40 0.1481
825.50 0.1481
825.60 0.148
825.70 0.1479
825.80 0.1479
825.90 0.1478
826.00 0.1477
826.10 0.1476
826.20 0.1476
826.30 0.1475
826.40 0.1474
826.50 0.1474
826.60 0.1473
826.70 0.1472
826.80 0.1472
826.90 0.1471
827.00 0.147
827.10 0.147
827.20 0.1469
827.30 0.1468
827.40 0.1468
827.50 0.1467
827.60 0.1466
827.70 0.1465
827.80 0.1465
827.90 0.1464
828.00 0.1463
828.10 0.1463
828.20 0.1462
828.30 0.1461
828.40 0.1461
828.50 0.146
828.60 0.1459
828.70 0.1459
828.80 0.1458
828.90 0.1457
829.00 0.1457
829.10 0.1456
829.20 0.1455
829.30 0.1455
829.40 0.1454
829.50 0.1453
829.60 0.1453
829.70 0.1452
829.80 0.1451
829.90 0.1451
830.00 0.145
830.10 0.1449
830.20 0.1449
830.30 0.1448
830.40 0.1447
830.50 0.1447
830.60 0.1446
830.70 0.1445
830.80 0.1444
830.90 0.1444
831.00 0.1443
831.10 0.1442
831.20 0.1442
831.30 0.1441
831.40 0.144
831.50 0.144
831.60 0.1439
831.70 0.1438
831.80 0.1438
831.90 0.1437
832.00 0.1436
832.10 0.1436
832.20 0.1435
832.30 0.1434
832.40 0.1434
832.50 0.1433
832.60 0.1432
832.70 0.1432
832.80 0.1431
832.90 0.143
833.00 0.143
833.10 0.1429
833.20 0.1428
833.30 0.1428
833.40 0.1427
833.50 0.1426
833.60 0.1426
833.70 0.1425
833.80 0.1424
833.90 0.1424
834.00 0.1423
834.10 0.1422
834.20 0.1422
834.30 0.1421
834.40 0.142
834.50 0.142
834.60 0.1419
834.70 0.1418
834.80 0.1418
834.90 0.1417
835.00 0.1416
835.10 0.1416
835.20 0.1415
835.30 0.1414
835.40 0.1414
835.50 0.1413
835.60 0.1413
835.70 0.1412
835.80 0.1411
835.90 0.1411
836.00 0.141
836.10 0.1409
836.20 0.1409
836.30 0.1408
836.40 0.1407
836.50 0.1407
836.60 0.1406
836.70 0.1405
836.80 0.1405
836.90 0.1404
837.00 0.1403
837.10 0.1403
837.20 0.1402
837.30 0.1401
837.40 0.1401
837.50 0.14
837.60 0.1399
837.70 0.1399
837.80 0.1398
837.90 0.1398
838.00 0.1397
838.10 0.1396
838.20 0.1396
838.30 0.1395
838.40 0.1394
838.50 0.1394
838.60 0.1393
838.70 0.1392
838.80 0.1392
838.90 0.1391
839.00 0.139
839.10 0.139
839.20 0.1389
839.30 0.1388
839.40 0.1388
839.50 0.1387
839.60 0.1387
839.70 0.1386
839.80 0.1385
839.90 0.1385
840.00 0.1384
840.10 0.1383
840.20 0.1383
840.30 0.1382
840.40 0.1381
840.50 0.1381
840.60 0.138
840.70 0.138
840.80 0.1379
840.90 0.1378
841.00 0.1378
841.10 0.1377
841.20 0.1376
841.30 0.1376
841.40 0.1375
841.50 0.1374
841.60 0.1374
841.70 0.1373
841.80 0.1373
841.90 0.1372
842.00 0.1371
842.10 0.1371
842.20 0.137
842.30 0.1369
842.40 0.1369
842.50 0.1368
842.60 0.1368
842.70 0.1367
842.80 0.1366
842.90 0.1366
843.00 0.1365
843.10 0.1364
843.20 0.1364
843.30 0.1363
843.40 0.1362
843.50 0.1362
843.60 0.1361
843.70 0.1361
843.80 0.136
843.90 0.1359
844.00 0.1359
844.10 0.1358
844.20 0.1358
844.30 0.1357
844.40 0.1356
844.50 0.1356
844.60 0.1355
844.70 0.1354
844.80 0.1354
844.90 0.1353
845.00 0.1353
845.10 0.1352
845.20 0.1351
845.30 0.1351
845.40 0.135
845.50 0.1349
845.60 0.1349
845.70 0.1348
845.80 0.1348
845.90 0.1347
846.00 0.1346
846.10 0.1346
846.20 0.1345
846.30 0.1344
846.40 0.1344
846.50 0.1343
846.60 0.1343
846.70 0.1342
846.80 0.1341
846.90 0.1341
847.00 0.134
847.10 0.134
847.20 0.1339
847.30 0.1338
847.40 0.1338
847.50 0.1337
847.60 0.1337
847.70 0.1336
847.80 0.1335
847.90 0.1335
848.00 0.1334
848.10 0.1333
848.20 0.1333
848.30 0.1332
848.40 0.1332
848.50 0.1331
848.60 0.133
848.70 0.133
848.80 0.1329
848.90 0.1329
849.00 0.1328
849.10 0.1327
849.20 0.1327
849.30 0.1326
849.40 0.1326
849.50 0.1325
849.60 0.1324
849.70 0.1324
849.80 0.1323
849.90 0.1323
850.00 0.1322
850.10 0.1321
850.20 0.1321
850.30 0.132
850.40 0.132
850.50 0.1319
850.60 0.1318
850.70 0.1318
850.80 0.1317
850.90 0.1317
851.00 0.1316
851.10 0.1315
851.20 0.1315
851.30 0.1314
851.40 0.1314
851.50 0.1313
851.60 0.1312
851.70 0.1312
851.80 0.1311
851.90 0.1311
852.00 0.131
852.10 0.1309
852.20 0.1309
852.30 0.1308
852.40 0.1308
852.50 0.1307
852.60 0.1306
852.70 0.1306
852.80 0.1305
852.90 0.1305
853.00 0.1304
853.10 0.1304
853.20 0.1303
853.30 0.1302
853.40 0.1302
853.50 0.1301
853.60 0.1301
853.70 0.13
853.80 0.1299
853.90 0.1299
854.00 0.1298
854.10 0.1298
854.20 0.1297
854.30 0.1297
854.40 0.1296
854.50 0.1295
854.60 0.1295
854.70 0.1294
854.80 0.1294
854.90 0.1293
855.00 0.1292
855.10 0.1292
855.20 0.1291
855.30 0.1291
855.40 0.129
855.50 0.129
855.60 0.1289
855.70 0.1288
855.80 0.1288
855.90 0.1287
856.00 0.1287
856.10 0.1286
856.20 0.1286
856.30 0.1285
856.40 0.1284
856.50 0.1284
856.60 0.1283
856.70 0.1283
856.80 0.1282
856.90 0.1281
857.00 0.1281
857.10 0.128
857.20 0.128
857.30 0.1279
857.40 0.1279
857.50 0.1278
857.60 0.1278
857.70 0.1277
857.80 0.1276
857.90 0.1276
858.00 0.1275
858.10 0.1275
858.20 0.1274
858.30 0.1274
858.40 0.1273
858.50 0.1272
858.60 0.1272
858.70 0.1271
858.80 0.1271
858.90 0.127
859.00 0.127
859.10 0.1269
859.20 0.1268
859.30 0.1268
859.40 0.1267
859.50 0.1267
859.60 0.1266
859.70 0.1266
859.80 0.1265
859.90 0.1265
860.00 0.1264
860.10 0.1263
860.20 0.1263
860.30 0.1262
860.40 0.1262
860.50 0.1261
860.60 0.1261
860.70 0.126
860.80 0.126
860.90 0.1259
861.00 0.1258
861.10 0.1258
861.20 0.1257
861.30 0.1257
861.40 0.1256
861.50 0.1256
861.60 0.1255
861.70 0.1255
861.80 0.1254
861.90 0.1253
862.00 0.1253
862.10 0.1252
862.20 0.1252
862.30 0.1251
862.40 0.1251
862.50 0.125
862.60 0.125
862.70 0.1249
862.80 0.1248
862.90 0.1248
863.00 0.1247
863.10 0.1247
863.20 0.1246
863.30 0.1246
863.40 0.1245
863.50 0.1245
863.60 0.1244
863.70 0.1244
863.80 0.1243
863.90 0.1242
864.00 0.1242
864.10 0.1241
864.20 0.1241
864.30 0.124
864.40 0.124
864.50 0.1239
864.60 0.1239
864.70 0.1238
864.80 0.1238
864.90 0.1237
865.00 0.1236
865.10 0.1236
865.20 0.1235
865.30 0.1235
865.40 0.1234
865.50 0.1234
865.60 0.1233
865.70 0.1233
865.80 0.1232
865.90 0.1232
866.00 0.1231
866.10 0.123
866.20 0.123
866.30 0.1229
866.40 0.1229
866.50 0.1228
866.60 0.1228
866.70 0.1227
866.80 0.1227
866.90 0.1226
867.00 0.1226
867.10 0.1225
867.20 0.1225
867.30 0.1224
867.40 0.1223
867.50 0.1223
867.60 0.1222
867.70 0.1222
867.80 0.1221
867.90 0.1221
868.00 0.122
868.10 0.122
868.20 0.1219
868.30 0.1219
868.40 0.1218
868.50 0.1218
868.60 0.1217
868.70 0.1217
868.80 0.1216
868.90 0.1215
869.00 0.1215
869.10 0.1214
869.20 0.1214
869.30 0.1213
869.40 0.1213
869.50 0.1212
869.60 0.1212
869.70 0.1211
869.80 0.1211
869.90 0.121
870.00 0.121
870.10 0.1209
870.20 0.1209
870.30 0.1208
870.40 0.1208
870.50 0.1207
870.60 0.1206
870.70 0.1206
870.80 0.1205
870.90 0.1205
871.00 0.1204
871.10 0.1204
871.20 0.1203
871.30 0.1203
871.40 0.1202
871.50 0.1202
871.60 0.1201
871.70 0.1201
871.80 0.12
871.90 0.12
872.00 0.1199
872.10 0.1199
872.20 0.1198
872.30 0.1198
872.40 0.1197
872.50 0.1197
872.60 0.1196
872.70 0.1196
872.80 0.1195
872.90 0.1194
873.00 0.1194
873.10 0.1193
873.20 0.1193
873.30 0.1192
873.40 0.1192
873.50 0.1191
873.60 0.1191
873.70 0.119
873.80 0.119
873.90 0.1189
874.00 0.1189
874.10 0.1188
874.20 0.1188
874.30 0.1187
874.40 0.1187
874.50 0.1186
874.60 0.1186
874.70 0.1185
874.80 0.1185
874.90 0.1184
875.00 0.1184
875.10 0.1183
875.20 0.1183
875.30 0.1182
875.40 0.1182
875.50 0.1181
875.60 0.1181
875.70 0.118
875.80 0.118
875.90 0.1179
876.00 0.1179
876.10 0.1178
876.20 0.1178
876.30 0.1177
876.40 0.1177
876.50 0.1176
876.60 0.1176
876.70 0.1175
876.80 0.1174
876.90 0.1174
877.00 0.1173
877.10 0.1173
877.20 0.1172
877.30 0.1172
877.40 0.1171
877.50 0.1171
877.60 0.117
877.70 0.117
877.80 0.1169
877.90 0.1169
878.00 0.1168
878.10 0.1168
878.20 0.1167
878.30 0.1167
878.40 0.1166
878.50 0.1166
878.60 0.1165
878.70 0.1165
878.80 0.1164
878.90 0.1164
879.00 0.1163
879.10 0.1163
879.20 0.1162
879.30 0.1162
879.40 0.1161
879.50 0.1161
879.60 0.116
879.70 0.116
879.80 0.1159
879.90 0.1159
880.00 0.1158
880.10 0.1158
880.20 0.1157
880.30 0.1157
880.40 0.1156
880.50 0.1156
880.60 0.1155
880.70 0.1155
880.80 0.1154
880.90 0.1154
881.00 0.1153
881.10 0.1153
881.20 0.1152
881.30 0.1152
881.40 0.1151
881.50 0.1151
881.60 0.115
881.70 0.115
881.80 0.1149
881.90 0.1149
882.00 0.1148
882.10 0.1148
882.20 0.1147
882.30 0.1147
882.40 0.1146
882.50 0.1146
882.60 0.1145
882.70 0.1145
882.80 0.1144
882.90 0.1144
883.00 0.1143
883.10 0.1143
883.20 0.1142
883.30 0.1142
883.40 0.1141
883.50 0.114
883.60 0.114
883.70 0.1139
883.80 0.1139
883.90 0.1138
884.00 0.1138
884.10 0.1137
884.20 0.1137
884.30 0.1136
884.40 0.1136
884.50 0.1135
884.60 0.1135
884.70 0.1134
884.80 0.1134
884.90 0.1133
885.00 0.1133
885.10 0.1132
885.20 0.1131
885.30 0.1131
885.40 0.113
885.50 0.113
885.60 0.1129
885.70 0.1129
885.80 0.1128
885.90 0.1128
886.00 0.1127
886.10 0.1127
886.20 0.1126
886.30 0.1126
886.40 0.1125
886.50 0.1125
886.60 0.1124
886.70 0.1124
886.80 0.1123
886.90 0.1123
887.00 0.1122
887.10 0.1122
887.20 0.1121
887.30 0.1121
887.40 0.112
887.50 0.112
887.60 0.112
887.70 0.1119
887.80 0.1119
887.90 0.1118
888.00 0.1118
888.10 0.1118
888.20 0.1117
888.30 0.1117
888.40 0.1116
888.50 0.1116
888.60 0.1116
888.70 0.1115
888.80 0.1115
888.90 0.1114
889.00 0.1114
889.10 0.1114
889.20 0.1113
889.30 0.1113
889.40 0.1112
889.50 0.1112
889.60 0.1112
889.70 0.1111
889.80 0.1111
889.90 0.111
890.00 0.111
890.10 0.111
890.20 0.1109
890.30 0.1109
890.40 0.1108
890.50 0.1108
890.60 0.1108
890.70 0.1107
890.80 0.1107
890.90 0.1106
891.00 0.1106
891.10 0.1106
891.20 0.1105
891.30 0.1105
891.40 0.1104
891.50 0.1104
891.60 0.1104
891.70 0.1103
891.80 0.1103
891.90 0.1102
892.00 0.1102
892.10 0.1101
892.20 0.1101
892.30 0.11
892.40 0.11
892.50 0.1099
892.60 0.1099
892.70 0.1098
892.80 0.1098
892.90 0.1097
893.00 0.1097
893.10 0.1096
893.20 0.1096
893.30 0.1095
893.40 0.1095
893.50 0.1094
893.60 0.1094
893.70 0.1093
893.80 0.1092
893.90 0.1092
894.00 0.1091
894.10 0.1091
894.20 0.109
894.30 0.109
894.40 0.1089
894.50 0.1089
894.60 0.1088
894.70 0.1088
894.80 0.1087
894.90 0.1087
895.00 0.1086
895.10 0.1086
895.20 0.1085
895.30 0.1085
895.40 0.1084
895.50 0.1084
895.60 0.1083
895.70 0.1083
895.80 0.1082
895.90 0.1082
896.00 0.1081
896.10 0.1081
896.20 0.108
896.30 0.1079
896.40 0.1079
896.50 0.1078
896.60 0.1078
896.70 0.1077
896.80 0.1077
896.90 0.1076
897.00 0.1076
897.10 0.1075
897.20 0.1075
897.30 0.1074
897.40 0.1073
897.50 0.1073
897.60 0.1072
897.70 0.1072
897.80 0.1071
897.90 0.107
898.00 0.107
898.10 0.1069
898.20 0.1069
898.30 0.1068
898.40 0.1067
898.50 0.1067
898.60 0.1066
898.70 0.1066
898.80 0.1065
898.90 0.1064
899.00 0.1064
899.10 0.1063
899.20 0.1063
899.30 0.1062
899.40 0.1061
899.50 0.1061
899.60 0.106
899.70 0.106
899.80 0.1059
899.90 0.1059
900.00 0.1058
900.10 0.1057
900.20 0.1057
900.30 0.1056
900.40 0.1056
900.50 0.1055
900.60 0.1054
900.70 0.1054
900.80 0.1053
900.90 0.1053
901.00 0.1052
901.10 0.1051
901.20 0.1051
901.30 0.105
901.40 0.105
901.50 0.1049
901.60 0.1048
901.70 0.1048
901.80 0.1047
901.90 0.1047
902.00 0.1046
902.10 0.1046
902.20 0.1046
902.30 0.1045
902.40 0.1045
902.50 0.1045
902.60 0.1045
902.70 0.1044
902.80 0.1044
902.90 0.1044
903.00 0.1044
903.10 0.1043
903.20 0.1043
903.30 0.1043
903.40 0.1043
903.50 0.1043
903.60 0.1042
903.70 0.1042
903.80 0.1042
903.90 0.1042
904.00 0.1041
904.10 0.1041
904.20 0.1041
904.30 0.1041
904.40 0.104
904.50 0.104
904.60 0.104
904.70 0.104
904.80 0.1039
904.90 0.1039
905.00 0.1039
905.10 0.1039
905.20 0.1039
905.30 0.1038
905.40 0.1038
905.50 0.1038
905.60 0.1038
905.70 0.1037
905.80 0.1037
905.90 0.1037
906.00 0.1037
906.10 0.1036
906.20 0.1036
906.30 0.1036
906.40 0.1036
906.50 0.1035
906.60 0.1035
906.70 0.1035
906.80 0.1035
906.90 0.1035
907.00 0.1034
907.10 0.1034
907.20 0.1034
907.30 0.1033
907.40 0.1033
907.50 0.1032
907.60 0.1032
907.70 0.1032
907.80 0.1031
907.90 0.1031
908.00 0.1031
908.10 0.103
908.20 0.103
908.30 0.1029
908.40 0.1029
908.50 0.1029
908.60 0.1028
908.70 0.1028
908.80 0.1028
908.90 0.1027
909.00 0.1027
909.10 0.1026
909.20 0.1026
909.30 0.1026
909.40 0.1025
909.50 0.1025
909.60 0.1025
909.70 0.1024
909.80 0.1024
909.90 0.1023
910.00 0.1023
910.10 0.1023
910.20 0.1022
910.30 0.1022
910.40 0.1022
910.50 0.1021
910.60 0.1021
910.70 0.1021
910.80 0.102
910.90 0.102
911.00 0.1019
911.10 0.1019
911.20 0.1019
911.30 0.1018
911.40 0.1018
911.50 0.1018
911.60 0.1017
911.70 0.1017
911.80 0.1016
911.90 0.1016
912.00 0.1016
912.10 0.1015
912.20 0.1015
912.30 0.1014
912.40 0.1014
912.50 0.1013
912.60 0.1013
912.70 0.1012
912.80 0.1012
912.90 0.1011
913.00 0.101
913.10 0.101
913.20 0.1009
913.30 0.1009
913.40 0.1008
913.50 0.1008
913.60 0.1007
913.70 0.1007
913.80 0.1006
913.90 0.1006
914.00 0.1005
914.10 0.1005
914.20 0.1004
914.30 0.1004
914.40 0.1003
914.50 0.1003
914.60 0.1002
914.70 0.1002
914.80 0.1001
914.90 0.1
915.00 0.1
915.10 0.09994
915.20 0.09989
915.30 0.09984
915.40 0.09979
915.50 0.09973
915.60 0.09968
915.70 0.09963
915.80 0.09958
915.90 0.09953
916.00 0.09947
916.10 0.09942
916.20 0.09937
916.30 0.09932
916.40 0.09927
916.50 0.09921
916.60 0.09916
916.70 0.09911
916.80 0.09906
916.90 0.09901
917.00 0.09895
917.10 0.09888
917.20 0.0988
917.30 0.09873
917.40 0.09865
917.50 0.09857
917.60 0.0985
917.70 0.09842
917.80 0.09834
917.90 0.09827
918.00 0.09819
918.10 0.09812
918.20 0.09804
918.30 0.09796
918.40 0.09789
918.50 0.09781
918.60 0.09774
918.70 0.09766
918.80 0.09759
918.90 0.09751
919.00 0.09743
919.10 0.09736
919.20 0.09728
919.30 0.09721
919.40 0.09713
919.50 0.09706
919.60 0.09698
919.70 0.0969
919.80 0.09683
919.90 0.09675
920.00 0.09668
920.10 0.0966
920.20 0.09653
920.30 0.09645
920.40 0.09638
920.50 0.0963
920.60 0.09623
920.70 0.09615
920.80 0.09608
920.90 0.096
921.00 0.09592
921.10 0.09585
921.20 0.09577
921.30 0.0957
921.40 0.09562
921.50 0.09555
921.60 0.09547
921.70 0.0954
921.80 0.09532
921.90 0.09525
922.00 0.09517
922.10 0.09516
922.20 0.09515
922.30 0.09514
922.40 0.09512
922.50 0.09511
922.60 0.0951
922.70 0.09509
922.80 0.09507
922.90 0.09506
923.00 0.09505
923.10 0.09503
923.20 0.09502
923.30 0.09501
923.40 0.095
923.50 0.09498
923.60 0.09497
923.70 0.09496
923.80 0.09494
923.90 0.09493
924.00 0.09492
924.10 0.09491
924.20 0.09489
924.30 0.09488
924.40 0.09487
924.50 0.09486
924.60 0.09484
924.70 0.09483
924.80 0.09482
924.90 0.0948
925.00 0.09479
925.10 0.09478
925.20 0.09477
925.30 0.09475
925.40 0.09474
925.50 0.09473
925.60 0.09472
925.70 0.0947
925.80 0.09469
925.90 0.09468
926.00 0.09466
926.10 0.09465
926.20 0.09464
926.30 0.09463
926.40 0.09461
926.50 0.0946
926.60 0.09459
926.70 0.09458
926.80 0.09456
926.90 0.09455
927.00 0.09454
927.10 0.09452
927.20 0.0945
927.30 0.09448
927.40 0.09446
927.50 0.09444
927.60 0.09442
927.70 0.0944
927.80 0.09438
927.90 0.09436
928.00 0.09434
928.10 0.09433
928.20 0.09431
928.30 0.09429
928.40 0.09427
928.50 0.09425
928.60 0.09423
928.70 0.09421
928.80 0.09419
928.90 0.09417
929.00 0.09415
929.10 0.09413
929.20 0.09411
929.30 0.09409
929.40 0.09408
929.50 0.09406
929.60 0.09404
929.70 0.09402
929.80 0.094
929.90 0.09398
930.00 0.09396
930.10 0.09394
930.20 0.09392
930.30 0.0939
930.40 0.09388
930.50 0.09386
930.60 0.09385
930.70 0.09383
930.80 0.09381
930.90 0.09379
931.00 0.09377
931.10 0.09375
931.20 0.09373
931.30 0.09371
931.40 0.09369
931.50 0.09367
931.60 0.09365
931.70 0.09363
931.80 0.09362
931.90 0.0936
932.00 0.09358
932.10 0.09355
932.20 0.09352
932.30 0.09348
932.40 0.09345
932.50 0.09342
932.60 0.09339
932.70 0.09336
932.80 0.09333
932.90 0.0933
933.00 0.09327
933.10 0.09324
933.20 0.0932
933.30 0.09317
933.40 0.09314
933.50 0.09311
933.60 0.09308
933.70 0.09305
933.80 0.09302
933.90 0.09299
934.00 0.09296
934.10 0.09293
934.20 0.09289
934.30 0.09286
934.40 0.09283
934.50 0.09279
934.60 0.09276
934.70 0.09272
934.80 0.09269
934.90 0.09265
935.00 0.09262
935.10 0.09258
935.20 0.09255
935.30 0.09251
935.40 0.09248
935.50 0.09244
935.60 0.09241
935.70 0.09237
935.80 0.09234
935.90 0.0923
936.00 0.09227
936.10 0.09224
936.20 0.0922
936.30 0.09217
936.40 0.09213
936.50 0.0921
936.60 0.09206
936.70 0.09203
936.80 0.09199
936.90 0.09196
937.00 0.09192
937.10 0.09189
937.20 0.09185
937.30 0.09181
937.40 0.09177
937.50 0.09174
937.60 0.0917
937.70 0.09166
937.80 0.09163
937.90 0.09159
938.00 0.09155
938.10 0.09152
938.20 0.09148
938.30 0.09144
938.40 0.0914
938.50 0.09136
938.60 0.09133
938.70 0.09129
938.80 0.09125
938.90 0.09121
939.00 0.09117
939.10 0.09113
939.20 0.09109
939.30 0.09106
939.40 0.09102
939.50 0.09098
939.60 0.09094
939.70 0.0909
939.80 0.09086
939.90 0.09083
940.00 0.09079
940.10 0.09075
940.20 0.09071
940.30 0.09067
940.40 0.09063
940.50 0.09059
940.60 0.09055
940.70 0.09051
940.80 0.09047
940.90 0.09043
941.00 0.09039
941.10 0.09035
941.20 0.09031
941.30 0.09027
941.40 0.09023
941.50 0.09019
941.60 0.09015
941.70 0.0901
941.80 0.09006
941.90 0.09002
942.00 0.08998
942.10 0.08994
942.20 0.0899
942.30 0.08986
942.40 0.08981
942.50 0.08977
942.60 0.08973
942.70 0.08968
942.80 0.08964
942.90 0.0896
943.00 0.08955
943.10 0.08951
943.20 0.08946
943.30 0.08942
943.40 0.08938
943.50 0.08933
943.60 0.08929
943.70 0.08925
943.80 0.0892
943.90 0.08916
944.00 0.08912
944.10 0.08907
944.20 0.08903
944.30 0.08898
944.40 0.08894
944.50 0.08889
944.60 0.08884
944.70 0.0888
944.80 0.08875
944.90 0.0887
945.00 0.08865
945.10 0.08861
945.20 0.08856
945.30 0.08851
945.40 0.08846
945.50 0.08841
945.60 0.08836
945.70 0.08831
945.80 0.08826
945.90 0.0882
946.00 0.08815
946.10 0.0881
946.20 0.08805
946.30 0.088
946.40 0.08795
946.50 0.08789
946.60 0.08784
946.70 0.08779
946.80 0.08774
946.90 0.08769
947.00 0.08764
947.10 0.08758
947.20 0.08753
947.30 0.08747
947.40 0.08741
947.50 0.08734
947.60 0.08728
947.70 0.08722
947.80 0.08715
947.90 0.08709
948.00 0.08703
948.10 0.08696
948.20 0.0869
948.30 0.08684
948.40 0.08678
948.50 0.08671
948.60 0.08665
948.70 0.08659
948.80 0.08652
948.90 0.08646
949.00 0.0864
949.10 0.08634
949.20 0.08627
949.30 0.08621
949.40 0.08613
949.50 0.08605
949.60 0.08597
949.70 0.08589
949.80 0.08581
949.90 0.08573
950.00 0.08565
950.10 0.08557
950.20 0.08549
950.30 0.08541
950.40 0.08533
950.50 0.08525
950.60 0.08517
950.70 0.08509
950.80 0.08501
950.90 0.08493
951.00 0.08485
951.10 0.08477
951.20 0.08469
951.30 0.08461
951.40 0.08451
951.50 0.08442
951.60 0.08432
951.70 0.08423
951.80 0.08413
951.90 0.08404
952.00 0.08394
952.10 0.08384
952.20 0.08374
952.30 0.08363
952.40 0.08353
952.50 0.08343
952.60 0.08333
952.70 0.08322
952.80 0.08312
952.90 0.08302
953.00 0.08291
953.10 0.08281
953.20 0.0827
953.30 0.0826
953.40 0.08249
953.50 0.08239
953.60 0.08229
953.70 0.08219
953.80 0.08209
953.90 0.08199
954.00 0.0819
954.10 0.08181
954.20 0.08173
954.30 0.08166
954.40 0.08161
954.50 0.08157
954.60 0.08153
954.70 0.0815
954.80 0.0815
954.90 0.0815
955.00 0.0815
955.10 0.0815
955.20 0.08153
955.30 0.08156
955.40 0.08159
955.50 0.08163
955.60 0.08166
955.70 0.08169
955.80 0.08173
955.90 0.08176
956.00 0.0818
956.10 0.08184
956.20 0.08188
956.30 0.08191
956.40 0.08195
956.50 0.08199
956.60 0.08203
956.70 0.08207
956.80 0.0821
956.90 0.08214
957.00 0.08218
957.10 0.08221
957.20 0.08224
957.30 0.08227
957.40 0.08229
957.50 0.08231
957.60 0.08233
957.70 0.08235
957.80 0.08236
957.90 0.08238
958.00 0.0824
958.10 0.08242
958.20 0.08244
958.30 0.08245
958.40 0.08247
958.50 0.08249
958.60 0.08251
958.70 0.08252
958.80 0.08254
958.90 0.08256
959.00 0.08258
959.10 0.0826
959.20 0.08261
959.30 0.08263
959.40 0.08263
959.50 0.08263
959.60 0.08263
959.70 0.08262
959.80 0.08262
959.90 0.08262
960.00 0.08262
960.10 0.08261
960.20 0.08261
960.30 0.08261
960.40 0.08261
960.50 0.08261
960.60 0.0826
960.70 0.0826
960.80 0.0826
960.90 0.0826
961.00 0.08259
961.10 0.08259
961.20 0.08259
961.30 0.08259
961.40 0.08258
961.50 0.08256
961.60 0.08255
961.70 0.08254
961.80 0.08253
961.90 0.08252
962.00 0.0825
962.10 0.08249
962.20 0.08247
962.30 0.08245
962.40 0.08244
962.50 0.08242
962.60 0.0824
962.70 0.08239
962.80 0.08237
962.90 0.08235
963.00 0.08234
963.10 0.08232
963.20 0.0823
963.30 0.08229
963.40 0.08227
963.50 0.08225
963.60 0.08223
963.70 0.0822
963.80 0.08218
963.90 0.08216
964.00 0.08214
964.10 0.08212
964.20 0.0821
964.30 0.08208
964.40 0.08205
964.50 0.08203
964.60 0.08201
964.70 0.08198
964.80 0.08196
964.90 0.08193
965.00 0.08191
965.10 0.08188
965.20 0.08186
965.30 0.08183
965.40 0.08181
965.50 0.08178
965.60 0.08176
965.70 0.08174
965.80 0.08171
965.90 0.08169
966.00 0.08166
966.10 0.08164
966.20 0.08161
966.30 0.08159
966.40 0.08156
966.50 0.08154
966.60 0.08151
966.70 0.08148
966.80 0.08146
966.90 0.08143
967.00 0.0814
967.10 0.08137
967.20 0.08135
967.30 0.08132
967.40 0.08129
967.50 0.08126
967.60 0.08123
967.70 0.08121
967.80 0.08118
967.90 0.08115
968.00 0.08112
968.10 0.08109
968.20 0.08107
968.30 0.08104
968.40 0.08101
968.50 0.08098
968.60 0.08095
968.70 0.08092
968.80 0.08089
968.90 0.08086
969.00 0.08083
969.10 0.0808
969.20 0.08078
969.30 0.08075
969.40 0.08072
969.50 0.08069
969.60 0.08066
969.70 0.08063
969.80 0.0806
969.90 0.08057
970.00 0.08054
970.10 0.08051
970.20 0.08048
970.30 0.08046
970.40 0.08043
970.50 0.0804
970.60 0.08037
970.70 0.08034
970.80 0.08031
970.90 0.08028
971.00 0.08025
971.10 0.08022
971.20 0.08019
971.30 0.08016
971.40 0.08013
971.50 0.0801
971.60 0.08007
971.70 0.08004
971.80 0.08001
971.90 0.07998
972.00 0.07995
972.10 0.07992
972.20 0.07989
972.30 0.07985
972.40 0.07982
972.50 0.07979
972.60 0.07976
972.70 0.07973
972.80 0.0797
972.90 0.07967
973.00 0.07964
973.10 0.07961
973.20 0.07958
973.30 0.07955
973.40 0.07952
973.50 0.07949
973.60 0.07946
973.70 0.07943
973.80 0.0794
973.90 0.07937
974.00 0.07934
974.10 0.07931
974.20 0.07928
974.30 0.07925
974.40 0.07922
974.50 0.07918
974.60 0.07915
974.70 0.07912
974.80 0.07909
974.90 0.07906
975.00 0.07903
975.10 0.079
975.20 0.07897
975.30 0.07894
975.40 0.07891
975.50 0.07888
975.60 0.07885
975.70 0.07882
975.80 0.07878
975.90 0.07875
976.00 0.07872
976.10 0.07869
976.20 0.07866
976.30 0.07863
976.40 0.0786
976.50 0.07857
976.60 0.07854
976.70 0.07851
976.80 0.07848
976.90 0.07845
977.00 0.07842
977.10 0.07839
977.20 0.07836
977.30 0.07832
977.40 0.07829
977.50 0.07826
977.60 0.07823
977.70 0.0782
977.80 0.07817
977.90 0.07814
978.00 0.07811
978.10 0.07808
978.20 0.07805
978.30 0.07801
978.40 0.07798
978.50 0.07795
978.60 0.07792
978.70 0.07789
978.80 0.07786
978.90 0.07783
979.00 0.0778
979.10 0.07777
979.20 0.07774
979.30 0.07771
979.40 0.07768
979.50 0.07764
979.60 0.07761
979.70 0.07758
979.80 0.07755
979.90 0.07752
980.00 0.07749
980.10 0.07746
980.20 0.07743
980.30 0.0774
980.40 0.07737
980.50 0.07734
980.60 0.07731
980.70 0.07728
980.80 0.07725
980.90 0.07722
981.00 0.07719
981.10 0.07715
981.20 0.07712
981.30 0.07709
981.40 0.07706
981.50 0.07703
981.60 0.077
981.70 0.07697
981.80 0.07694
981.90 0.07691
982.00 0.07688
982.10 0.07685
982.20 0.07682
982.30 0.07679
982.40 0.07676
982.50 0.07673
982.60 0.07669
982.70 0.07666
982.80 0.07663
982.90 0.0766
983.00 0.07657
983.10 0.07654
983.20 0.07651
983.30 0.07648
983.40 0.07645
983.50 0.07642
983.60 0.07639
983.70 0.07636
983.80 0.07632
983.90 0.07629
984.00 0.07626
984.10 0.07623
984.20 0.0762
984.30 0.07617
984.40 0.07614
984.50 0.07611
984.60 0.07608
984.70 0.07605
984.80 0.07602
984.90 0.07599
985.00 0.07595
985.10 0.07592
985.20 0.07589
985.30 0.07586
985.40 0.07583
985.50 0.0758
985.60 0.07577
985.70 0.07574
985.80 0.07571
985.90 0.07568
986.00 0.07564
986.10 0.07561
986.20 0.07558
986.30 0.07555
986.40 0.07552
986.50 0.07549
986.60 0.07546
986.70 0.07543
986.80 0.0754
986.90 0.07537
987.00 0.07534
987.10 0.0753
987.20 0.07527
987.30 0.07524
987.40 0.07521
987.50 0.07518
987.60 0.07515
987.70 0.07512
987.80 0.07509
987.90 0.07505
988.00 0.07502
988.10 0.07499
988.20 0.07496
988.30 0.07493
988.40 0.0749
988.50 0.07487
988.60 0.07484
988.70 0.0748
988.80 0.07477
988.90 0.07474
989.00 0.07471
989.10 0.07468
989.20 0.07464
989.30 0.07461
989.40 0.07458
989.50 0.07455
989.60 0.07452
989.70 0.07448
989.80 0.07445
989.90 0.07442
990.00 0.07439
990.10 0.07436
990.20 0.07432
990.30 0.07429
990.40 0.07426
990.50 0.07423
990.60 0.0742
990.70 0.07416
990.80 0.07413
990.90 0.0741
991.00 0.07407
991.10 0.07403
991.20 0.074
991.30 0.07397
991.40 0.07393
991.50 0.0739
991.60 0.07387
991.70 0.07384
991.80 0.0738
991.90 0.07377
992.00 0.07374
992.10 0.0737
992.20 0.07367
992.30 0.07364
992.40 0.0736
992.50 0.07357
992.60 0.07353
992.70 0.0735
992.80 0.07346
992.90 0.07343
993.00 0.07339
993.10 0.07336
993.20 0.07332
993.30 0.07328
993.40 0.07325
993.50 0.07321
993.60 0.07318
993.70 0.07314
993.80 0.07311
993.90 0.07307
994.00 0.07304
994.10 0.073
994.20 0.07296
994.30 0.07293
994.40 0.07289
994.50 0.07286
994.60 0.07282
994.70 0.07278
994.80 0.07275
994.90 0.07271
995.00 0.07267
995.10 0.07263
995.20 0.07259
995.30 0.07255
995.40 0.07251
995.50 0.07247
995.60 0.07244
995.70 0.07239
995.80 0.07235
995.90 0.07231
996.00 0.07227
996.10 0.07222
996.20 0.07218
996.30 0.07214
996.40 0.0721
996.50 0.07205
996.60 0.07201
996.70 0.07197
996.80 0.07193
996.90 0.07188
997.00 0.07184
997.10 0.07179
997.20 0.07175
997.30 0.0717
997.40 0.07165
997.50 0.0716
997.60 0.07156
997.70 0.0715
997.80 0.07145
997.90 0.07139
998.00 0.07133
998.10 0.07128
998.20 0.07122
998.30 0.07116
998.40 0.07111
998.50 0.07105
998.60 0.07099
998.70 0.07094
998.80 0.07088
998.90 0.07082
999.00 0.07077
999.10 0.07071
999.20 0.07065
999.30 0.0706
999.40 0.07054
999.50 0.07048
999.60 0.07043
999.70 0.07035
999.80 0.07027
999.90 0.07019
1000.00 0.07011
1000.10 0.07003
1000.20 0.06995
1000.30 0.06987
1000.40 0.06979
1000.50 0.06971
1000.60 0.06963
1000.70 0.06955
1000.80 0.06947
1000.90 0.06939
1001.00 0.06931
1001.10 0.06923
1001.20 0.06915
1001.30 0.06907
1001.40 0.06899
1001.50 0.06891
1001.60 0.06883
1001.70 0.06874
1001.80 0.06864
1001.90 0.06854
1002.00 0.06844
1002.10 0.06833
1002.20 0.06821
1002.30 0.0681
1002.40 0.06799
1002.50 0.06787
1002.60 0.06776
1002.70 0.06765
1002.80 0.06753
1002.90 0.06742
1003.00 0.06731
1003.10 0.0672
1003.20 0.06707
1003.30 0.06694
1003.40 0.06682
1003.50 0.06669
1003.60 0.06656
1003.70 0.06644
1003.80 0.06631
1003.90 0.06619
1004.00 0.06606
1004.10 0.06594
1004.20 0.06582
1004.30 0.06572
1004.40 0.06562
1004.50 0.06554
1004.60 0.06552
1004.70 0.06556
1004.80 0.06568
1004.90 0.0657
1005.00 0.06571
1005.10 0.06564
1005.20 0.06555
1005.30 0.06545
1005.40 0.06536
1005.50 0.06539
1005.60 0.06545
1005.70 0.06552
1005.80 0.06559
1005.90 0.06565
1006.00 0.06572
1006.10 0.06578
1006.20 0.06585
1006.30 0.06593
1006.40 0.066
1006.50 0.06608
1006.60 0.06615
1006.70 0.06622
1006.80 0.0663
1006.90 0.06637
1007.00 0.06645
1007.10 0.06651
1007.20 0.06657
1007.30 0.06663
1007.40 0.06669
1007.50 0.06675
1007.60 0.06681
1007.70 0.06685
1007.80 0.06689
1007.90 0.06692
1008.00 0.06696
1008.10 0.06699
1008.20 0.06703
1008.30 0.06707
1008.40 0.0671
1008.50 0.06714
1008.60 0.06717
1008.70 0.06721
1008.80 0.06724
1008.90 0.06728
1009.00 0.06731
1009.10 0.06735
1009.20 0.06738
1009.30 0.06742
1009.40 0.06745
1009.50 0.06749
1009.60 0.06753
1009.70 0.06754
1009.80 0.06755
1009.90 0.06755
1010.00 0.06756
1010.10 0.06757
1010.20 0.06758
1010.30 0.06758
1010.40 0.06759
1010.50 0.0676
1010.60 0.0676
1010.70 0.06761
1010.80 0.06762
1010.90 0.06763
1011.00 0.06763
1011.10 0.06764
1011.20 0.06765
1011.30 0.06766
1011.40 0.06766
1011.50 0.06767
1011.60 0.06768
1011.70 0.06768
1011.80 0.06767
1011.90 0.06767
1012.00 0.06766
1012.10 0.06766
1012.20 0.06765
1012.30 0.06764
1012.40 0.06763
1012.50 0.06762
1012.60 0.06761
1012.70 0.0676
1012.80 0.06759
1012.90 0.06758
1013.00 0.06757
1013.10 0.06756
1013.20 0.06755
1013.30 0.06754
1013.40 0.06753
1013.50 0.06753
1013.60 0.06752
1013.70 0.0675
1013.80 0.06749
1013.90 0.06747
1014.00 0.06746
1014.10 0.06744
1014.20 0.06743
1014.30 0.06741
1014.40 0.0674
1014.50 0.06739
1014.60 0.06737
1014.70 0.06735
1014.80 0.06733
1014.90 0.06732
1015.00 0.0673
1015.10 0.06728
1015.20 0.06726
1015.30 0.06724
1015.40 0.06722
1015.50 0.06721
1015.60 0.06719
1015.70 0.06717
1015.80 0.06715
1015.90 0.06713
1016.00 0.06711
1016.10 0.0671
1016.20 0.06708
1016.30 0.06706
1016.40 0.06704
1016.50 0.06702
1016.60 0.067
1016.70 0.06698
1016.80 0.06696
1016.90 0.06694
1017.00 0.06692
1017.10 0.0669
1017.20 0.06688
1017.30 0.06686
1017.40 0.06684
1017.50 0.06682
1017.60 0.0668
1017.70 0.06677
1017.80 0.06675
1017.90 0.06673
1018.00 0.06671
1018.10 0.06669
1018.20 0.06667
1018.30 0.06665
1018.40 0.06662
1018.50 0.0666
1018.60 0.06658
1018.70 0.06656
1018.80 0.06654
1018.90 0.06651
1019.00 0.06649
1019.10 0.06647
1019.20 0.06645
1019.30 0.06642
1019.40 0.0664
1019.50 0.06638
1019.60 0.06636
1019.70 0.06633
1019.80 0.06631
1019.90 0.06629
1020.00 0.06627
1020.10 0.06624
1020.20 0.06622
1020.30 0.0662
1020.40 0.06618
1020.50 0.06615
1020.60 0.06613
1020.70 0.06611
1020.80 0.06608
1020.90 0.06606
1021.00 0.06604
1021.10 0.06601
1021.20 0.06599
1021.30 0.06597
1021.40 0.06594
1021.50 0.06592
1021.60 0.0659
1021.70 0.06587
1021.80 0.06585
1021.90 0.06583
1022.00 0.0658
1022.10 0.06578
1022.20 0.06576
1022.30 0.06573
1022.40 0.06571
1022.50 0.06569
1022.60 0.06566
1022.70 0.06564
1022.80 0.06562
1022.90 0.06559
1023.00 0.06557
1023.10 0.06554
1023.20 0.06552
1023.30 0.0655
1023.40 0.06547
1023.50 0.06545
1023.60 0.06543
1023.70 0.0654
1023.80 0.06538
1023.90 0.06536
1024.00 0.06533
1024.10 0.06531
1024.20 0.06529
1024.30 0.06526
1024.40 0.06524
1024.50 0.06521
1024.60 0.06519
1024.70 0.06517
1024.80 0.06514
1024.90 0.06512
1025.00 0.0651
1025.10 0.06507
1025.20 0.06505
1025.30 0.06502
1025.40 0.065
1025.50 0.06498
1025.60 0.06495
1025.70 0.06493
1025.80 0.06491
1025.90 0.06488
1026.00 0.06486
1026.10 0.06483
1026.20 0.06481
1026.30 0.06479
1026.40 0.06476
1026.50 0.06474
1026.60 0.06471
1026.70 0.06469
1026.80 0.06467
1026.90 0.06464
1027.00 0.06462
1027.10 0.0646
1027.20 0.06457
1027.30 0.06455
1027.40 0.06452
1027.50 0.0645
1027.60 0.06448
1027.70 0.06445
1027.80 0.06443
1027.90 0.06441
1028.00 0.06438
1028.10 0.06436
1028.20 0.06433
1028.30 0.06431
1028.40 0.06429
1028.50 0.06426
1028.60 0.06424
1028.70 0.06421
1028.80 0.06419
1028.90 0.06417
1029.00 0.06414
1029.10 0.06412
1029.20 0.0641
1029.30 0.06407
1029.40 0.06405
1029.50 0.06403
1029.60 0.064
1029.70 0.06398
1029.80 0.06395
1029.90 0.06393
1030.00 0.06391
1030.10 0.06388
1030.20 0.06386
1030.30 0.06384
1030.40 0.06381
1030.50 0.06379
1030.60 0.06376
1030.70 0.06374
1030.80 0.06372
1030.90 0.06369
1031.00 0.06367
1031.10 0.06365
1031.20 0.06362
1031.30 0.0636
1031.40 0.06358
1031.50 0.06355
1031.60 0.06353
1031.70 0.06351
1031.80 0.06348
1031.90 0.06346
1032.00 0.06343
1032.10 0.06341
1032.20 0.06339
1032.30 0.06336
1032.40 0.06334
1032.50 0.06332
1032.60 0.06329
1032.70 0.06327
1032.80 0.06325
1032.90 0.06322
1033.00 0.0632
1033.10 0.06318
1033.20 0.06315
1033.30 0.06313
1033.40 0.06311
1033.50 0.06308
1033.60 0.06306
1033.70 0.06304
1033.80 0.06301
1033.90 0.06299
1034.00 0.06296
1034.10 0.06294
1034.20 0.06292
1034.30 0.06289
1034.40 0.06287
1034.50 0.06285
1034.60 0.06282
1034.70 0.0628
1034.80 0.06278
1034.90 0.06275
1035.00 0.06273
1035.10 0.06271
1035.20 0.06268
1035.30 0.06266
1035.40 0.06264
1035.50 0.06261
1035.60 0.06259
1035.70 0.06257
1035.80 0.06254
1035.90 0.06252
1036.00 0.0625
1036.10 0.06247
1036.20 0.06245
1036.30 0.06243
1036.40 0.06241
1036.50 0.06238
1036.60 0.06236
1036.70 0.06234
1036.80 0.06231
1036.90 0.06229
1037.00 0.06227
1037.10 0.06224
1037.20 0.06222
1037.30 0.0622
1037.40 0.06217
1037.50 0.06215
1037.60 0.06213
1037.70 0.0621
1037.80 0.06208
1037.90 0.06206
1038.00 0.06203
1038.10 0.06201
1038.20 0.06199
1038.30 0.06197
1038.40 0.06194
1038.50 0.06192
1038.60 0.0619
1038.70 0.06187
1038.80 0.06185
1038.90 0.06183
1039.00 0.0618
1039.10 0.06178
1039.20 0.06176
1039.30 0.06174
1039.40 0.06171
1039.50 0.06169
1039.60 0.06167
1039.70 0.06164
1039.80 0.06162
1039.90 0.0616
1040.00 0.06158
1040.10 0.06155
1040.20 0.06153
1040.30 0.06151
1040.40 0.06148
1040.50 0.06146
1040.60 0.06144
1040.70 0.06141
1040.80 0.06139
1040.90 0.06137
1041.00 0.06135
1041.10 0.06132
1041.20 0.0613
1041.30 0.06128
1041.40 0.06126
1041.50 0.06123
1041.60 0.06121
1041.70 0.06119
1041.80 0.06116
1041.90 0.06114
1042.00 0.06112
1042.10 0.0611
1042.20 0.06107
1042.30 0.06105
1042.40 0.06103
1042.50 0.06101
1042.60 0.06098
1042.70 0.06096
1042.80 0.06094
1042.90 0.06091
1043.00 0.06089
1043.10 0.06087
1043.20 0.06085
1043.30 0.06082
1043.40 0.0608
1043.50 0.06078
1043.60 0.06076
1043.70 0.06073
1043.80 0.06071
1043.90 0.06069
1044.00 0.06067
1044.10 0.06064
1044.20 0.06062
1044.30 0.0606
1044.40 0.06058
1044.50 0.06055
1044.60 0.06053
1044.70 0.06051
1044.80 0.06049
1044.90 0.06046
1045.00 0.06044
1045.10 0.06042
1045.20 0.0604
1045.30 0.06037
1045.40 0.06035
1045.50 0.06033
1045.60 0.06031
1045.70 0.06028
1045.80 0.06026
1045.90 0.06024
1046.00 0.06022
1046.10 0.0602
1046.20 0.06017
1046.30 0.06015
1046.40 0.06013
1046.50 0.06011
1046.60 0.06008
1046.70 0.06006
1046.80 0.06004
1046.90 0.06002
1047.00 0.05999
1047.10 0.05997
1047.20 0.05995
1047.30 0.05993
1047.40 0.05991
1047.50 0.05988
1047.60 0.05986
1047.70 0.05984
1047.80 0.05982
1047.90 0.05979
1048.00 0.05977
1048.10 0.05975
1048.20 0.05973
1048.30 0.05971
1048.40 0.05968
1048.50 0.05966
1048.60 0.05964
1048.70 0.05962
1048.80 0.0596
1048.90 0.05957
1049.00 0.05955
1049.10 0.05953
1049.20 0.05951
1049.30 0.05949
1049.40 0.05946
1049.50 0.05944
1049.60 0.05942
1049.70 0.0594
1049.80 0.05938
1049.90 0.05935
1050.00 0.05933
1050.10 0.05931
1050.20 0.05929
1050.30 0.05927
1050.40 0.05924
1050.50 0.05922
1050.60 0.0592
1050.70 0.05918
1050.80 0.05916
1050.90 0.05913
1051.00 0.05911
1051.10 0.05909
1051.20 0.05907
1051.30 0.05905
1051.40 0.05902
1051.50 0.059
1051.60 0.05898
1051.70 0.05896
1051.80 0.05894
1051.90 0.05891
1052.00 0.05889
1052.10 0.05887
1052.20 0.05885
1052.30 0.05883
1052.40 0.05881
1052.50 0.05878
1052.60 0.05876
1052.70 0.05874
1052.80 0.05872
1052.90 0.0587
1053.00 0.05868
1053.10 0.05865
1053.20 0.05863
1053.30 0.05861
1053.40 0.05859
1053.50 0.05857
1053.60 0.05855
1053.70 0.05852
1053.80 0.0585
1053.90 0.05848
1054.00 0.05846
1054.10 0.05844
1054.20 0.05842
1054.30 0.05839
1054.40 0.05837
1054.50 0.05835
1054.60 0.05833
1054.70 0.05831
1054.80 0.05829
1054.90 0.05827
1055.00 0.05824
1055.10 0.05822
1055.20 0.0582
1055.30 0.05818
1055.40 0.05816
1055.50 0.05814
1055.60 0.05812
1055.70 0.05809
1055.80 0.05807
1055.90 0.05805
1056.00 0.05803
1056.10 0.05801
1056.20 0.05799
1056.30 0.05796
1056.40 0.05794
1056.50 0.05792
1056.60 0.0579
1056.70 0.05788
1056.80 0.05786
1056.90 0.05784
1057.00 0.05782
1057.10 0.05779
1057.20 0.05777
1057.30 0.05775
1057.40 0.05773
1057.50 0.05771
1057.60 0.05769
1057.70 0.05767
1057.80 0.05764
1057.90 0.05762
1058.00 0.0576
1058.10 0.05758
1058.20 0.05756
1058.30 0.05754
1058.40 0.05752
1058.50 0.0575
1058.60 0.05748
1058.70 0.05745
1058.80 0.05743
1058.90 0.05741
1059.00 0.05739
1059.10 0.05737
1059.20 0.05735
1059.30 0.05733
1059.40 0.05731
1059.50 0.05728
1059.60 0.05726
1059.70 0.05724
1059.80 0.05722
1059.90 0.0572
1060.00 0.05718
1060.10 0.05716
1060.20 0.05714
1060.30 0.05712
1060.40 0.05709
1060.50 0.05707
1060.60 0.05705
1060.70 0.05703
1060.80 0.05701
1060.90 0.05699
1061.00 0.05697
1061.10 0.05695
1061.20 0.05693
1061.30 0.05691
1061.40 0.05688
1061.50 0.05686
1061.60 0.05684
1061.70 0.05682
1061.80 0.0568
1061.90 0.05678
1062.00 0.05676
1062.10 0.05674
1062.20 0.05672
1062.30 0.0567
1062.40 0.05667
1062.50 0.05665
1062.60 0.05663
1062.70 0.05661
1062.80 0.05659
1062.90 0.05657
1063.00 0.05655
1063.10 0.05653
1063.20 0.05651
1063.30 0.05649
1063.40 0.05647
1063.50 0.05645
1063.60 0.05642
1063.70 0.0564
1063.80 0.05638
1063.90 0.05636
1064.00 0.05634
1064.10 0.05632
1064.20 0.0563
1064.30 0.05628
1064.40 0.05626
1064.50 0.05624
1064.60 0.05622
1064.70 0.0562
1064.80 0.05617
1064.90 0.05615
1065.00 0.05613
1065.10 0.05611
1065.20 0.05609
1065.30 0.05607
1065.40 0.05605
1065.50 0.05603
1065.60 0.05601
1065.70 0.05599
1065.80 0.05597
1065.90 0.05595
1066.00 0.05593
1066.10 0.05591
1066.20 0.05589
1066.30 0.05586
1066.40 0.05584
1066.50 0.05582
1066.60 0.0558
1066.70 0.05578
1066.80 0.05576
1066.90 0.05574
1067.00 0.05572
1067.10 0.0557
1067.20 0.05568
1067.30 0.05566
1067.40 0.05564
1067.50 0.05562
1067.60 0.0556
1067.70 0.05558
1067.80 0.05555
1067.90 0.05553
1068.00 0.05551
1068.10 0.05549
1068.20 0.05547
1068.30 0.05545
1068.40 0.05543
1068.50 0.05541
1068.60 0.05539
1068.70 0.05537
1068.80 0.05535
1068.90 0.05533
1069.00 0.05531
1069.10 0.05529
1069.20 0.05527
1069.30 0.05525
1069.40 0.05523
1069.50 0.05521
1069.60 0.05518
1069.70 0.05516
1069.80 0.05514
1069.90 0.05512
1070.00 0.0551
1070.10 0.05508
1070.20 0.05506
1070.30 0.05504
1070.40 0.05502
1070.50 0.055
1070.60 0.05498
1070.70 0.05496
1070.80 0.05494
1070.90 0.05492
1071.00 0.0549
1071.10 0.05488
1071.20 0.05486
1071.30 0.05484
1071.40 0.05482
1071.50 0.0548
1071.60 0.05478
1071.70 0.05476
1071.80 0.05473
1071.90 0.05471
1072.00 0.05469
1072.10 0.05467
1072.20 0.05465
1072.30 0.05463
1072.40 0.05461
1072.50 0.05459
1072.60 0.05457
1072.70 0.05455
1072.80 0.05453
1072.90 0.05451
1073.00 0.05449
1073.10 0.05447
1073.20 0.05445
1073.30 0.05443
1073.40 0.05441
1073.50 0.05439
1073.60 0.05437
1073.70 0.05435
1073.80 0.05432
1073.90 0.0543
1074.00 0.05428
1074.10 0.05426
1074.20 0.05424
1074.30 0.05422
1074.40 0.0542
1074.50 0.05418
1074.60 0.05416
1074.70 0.05414
1074.80 0.05412
1074.90 0.0541
1075.00 0.05408
1075.10 0.05406
1075.20 0.05403
1075.30 0.05401
1075.40 0.05399
1075.50 0.05397
1075.60 0.05395
1075.70 0.05393
1075.80 0.05391
1075.90 0.05389
1076.00 0.05387
1076.10 0.05385
1076.20 0.05383
1076.30 0.05381
1076.40 0.05379
1076.50 0.05377
1076.60 0.05375
1076.70 0.05373
1076.80 0.0537
1076.90 0.05368
1077.00 0.05366
1077.10 0.05364
1077.20 0.05362
1077.30 0.0536
1077.40 0.05358
1077.50 0.05356
1077.60 0.05354
1077.70 0.05352
1077.80 0.0535
1077.90 0.05347
1078.00 0.05345
1078.10 0.05343
1078.20 0.05341
1078.30 0.05339
1078.40 0.05337
1078.50 0.05335
1078.60 0.05332
1078.70 0.0533
1078.80 0.05328
1078.90 0.05326
1079.00 0.05324
1079.10 0.05322
1079.20 0.0532
1079.30 0.05318
1079.40 0.05316
1079.50 0.05313
1079.60 0.05311
1079.70 0.05309
1079.80 0.05307
1079.90 0.05304
1080.00 0.05302
1080.10 0.053
1080.20 0.05298
1080.30 0.05296
1080.40 0.05293
1080.50 0.05291
1080.60 0.05289
1080.70 0.05287
1080.80 0.05284
1080.90 0.05282
1081.00 0.0528
1081.10 0.05278
1081.20 0.05276
1081.30 0.05273
1081.40 0.05271
1081.50 0.05269
1081.60 0.05267
1081.70 0.05264
1081.80 0.05262
1081.90 0.0526
1082.00 0.05257
1082.10 0.05255
1082.20 0.05253
1082.30 0.0525
1082.40 0.05248
1082.50 0.05245
1082.60 0.05243
1082.70 0.0524
1082.80 0.05238
1082.90 0.05235
1083.00 0.05233
1083.10 0.05231
1083.20 0.05228
1083.30 0.05226
1083.40 0.05223
1083.50 0.05221
1083.60 0.05218
1083.70 0.05216
1083.80 0.05213
1083.90 0.0521
1084.00 0.05208
1084.10 0.05205
1084.20 0.05202
1084.30 0.052
1084.40 0.05197
1084.50 0.05194
1084.60 0.05191
1084.70 0.05188
1084.80 0.05185
1084.90 0.05182
1085.00 0.05179
1085.10 0.05176
1085.20 0.05173
1085.30 0.0517
1085.40 0.05167
1085.50 0.05164
1085.60 0.05161
1085.70 0.05158
1085.80 0.05155
1085.90 0.05152
1086.00 0.05149
1086.10 0.05146
1086.20 0.05143
1086.30 0.0514
1086.40 0.05136
1086.50 0.05133
1086.60 0.0513
1086.70 0.05126
1086.80 0.05123
1086.90 0.05119
1087.00 0.05115
1087.10 0.05111
1087.20 0.05107
1087.30 0.05103
1087.40 0.05098
1087.50 0.05094
1087.60 0.0509
1087.70 0.05086
1087.80 0.05081
1087.90 0.05077
1088.00 0.05073
1088.10 0.05069
1088.20 0.05064
1088.30 0.0506
1088.40 0.05056
1088.50 0.05051
1088.60 0.05045
1088.70 0.05039
1088.80 0.05033
1088.90 0.05027
1089.00 0.05021
1089.10 0.05014
1089.20 0.05008
1089.30 0.05002
1089.40 0.04996
1089.50 0.0499
1089.60 0.04984
1089.70 0.04978
1089.80 0.04972
1089.90 0.04966
1090.00 0.0496
1090.10 0.04954
1090.20 0.04947
1090.30 0.04941
1090.40 0.04935
1090.50 0.04928
1090.60 0.0492
1090.70 0.04911
1090.80 0.04902
1090.90 0.04893
1091.00 0.04884
1091.10 0.04875
1091.20 0.04867
1091.30 0.04858
1091.40 0.04849
1091.50 0.0484
1091.60 0.04831
1091.70 0.04823
1091.80 0.04814
1091.90 0.04805
1092.00 0.04796
1092.10 0.04786
1092.20 0.04776
1092.30 0.04765
1092.40 0.04755
1092.50 0.04745
1092.60 0.04735
1092.70 0.04725
1092.80 0.04716
1092.90 0.04706
1093.00 0.04697
1093.10 0.04688
1093.20 0.04681
1093.30 0.04674
1093.40 0.0467
1093.50 0.04669
1093.60 0.04676
1093.70 0.04683
1093.80 0.04689
1093.90 0.0469
1094.00 0.04681
1094.10 0.04672
1094.20 0.04663
1094.30 0.04659
1094.40 0.04664
1094.50 0.04669
1094.60 0.04674
1094.70 0.04679
1094.80 0.04684
1094.90 0.0469
1095.00 0.04695
1095.10 0.04701
1095.20 0.04708
1095.30 0.04714
1095.40 0.0472
1095.50 0.04727
1095.60 0.04733
1095.70 0.04739
1095.80 0.04746
1095.90 0.04752
1096.00 0.04758
1096.10 0.04765
1096.20 0.04771
1096.30 0.04777
1096.40 0.04783
1096.50 0.04789
1096.60 0.04794
1096.70 0.04799
1096.80 0.04803
1096.90 0.04808
1097.00 0.04813
1097.10 0.04816
1097.20 0.04819
1097.30 0.04822
1097.40 0.04825
1097.50 0.04828
1097.60 0.04831
1097.70 0.04834
1097.80 0.04837
1097.90 0.0484
1098.00 0.04843
1098.10 0.04846
1098.20 0.04849
1098.30 0.04853
1098.40 0.04856
1098.50 0.04858
1098.60 0.04859
1098.70 0.0486
1098.80 0.04861
1098.90 0.04862
1099.00 0.04863
1099.10 0.04864
1099.20 0.04865
1099.30 0.04866
1099.40 0.04867
1099.50 0.04868
1099.60 0.04869
1099.70 0.0487
1099.80 0.0487
1099.90 0.04871
1100.00 0.04872
1100.10 0.04873
1100.20 0.04874
1100.30 0.04875
1100.40 0.04876
1100.50 0.04877
1100.60 0.04877
1100.70 0.04876
1100.80 0.04876
1100.90 0.04876
1101.00 0.04876
1101.10 0.04875
1101.20 0.04875
1101.30 0.04875
1101.40 0.04875
1101.50 0.04874
1101.60 0.04874
1101.70 0.04874
1101.80 0.04874
1101.90 0.04873
1102.00 0.04873
1102.10 0.04872
1102.20 0.04872
1102.30 0.04871
1102.40 0.0487
1102.50 0.0487
1102.60 0.04869
1102.70 0.04868
1102.80 0.04867
1102.90 0.04866
1103.00 0.04865
1103.10 0.04864
1103.20 0.04864
1103.30 0.04863
1103.40 0.04862
1103.50 0.04861
1103.60 0.0486
1103.70 0.04859
1103.80 0.04857
1103.90 0.04856
1104.00 0.04855
1104.10 0.04854
1104.20 0.04853
1104.30 0.04852
1104.40 0.0485
1104.50 0.04849
1104.60 0.04848
1104.70 0.04847
1104.80 0.04846
1104.90 0.04845
1105.00 0.04844
1105.10 0.04842
1105.20 0.04841
1105.30 0.0484
1105.40 0.04839
1105.50 0.04838
1105.60 0.04836
1105.70 0.04835
1105.80 0.04834
1105.90 0.04832
1106.00 0.04831
1106.10 0.0483
1106.20 0.04828
1106.30 0.04827
1106.40 0.04825
1106.50 0.04824
1106.60 0.04823
1106.70 0.04821
1106.80 0.0482
1106.90 0.04819
1107.00 0.04817
1107.10 0.04816
1107.20 0.04814
1107.30 0.04813
1107.40 0.04812
1107.50 0.0481
1107.60 0.04809
1107.70 0.04807
1107.80 0.04806
1107.90 0.04804
1108.00 0.04803
1108.10 0.04801
1108.20 0.048
1108.30 0.04798
1108.40 0.04797
1108.50 0.04795
1108.60 0.04794
1108.70 0.04792
1108.80 0.04791
1108.90 0.04789
1109.00 0.04788
1109.10 0.04786
1109.20 0.04785
1109.30 0.04783
1109.40 0.04782
1109.50 0.0478
1109.60 0.04779
1109.70 0.04777
1109.80 0.04776
1109.90 0.04774
1110.00 0.04773
1110.10 0.04771
1110.20 0.0477
1110.30 0.04768
1110.40 0.04767
1110.50 0.04765
1110.60 0.04763
1110.70 0.04762
1110.80 0.0476
1110.90 0.04759
1111.00 0.04757
1111.10 0.04756
1111.20 0.04754
1111.30 0.04753
1111.40 0.04751
1111.50 0.0475
1111.60 0.04748
1111.70 0.04746
1111.80 0.04745
1111.90 0.04743
1112.00 0.04742
1112.10 0.0474
1112.20 0.04739
1112.30 0.04737
1112.40 0.04736
1112.50 0.04734
1112.60 0.04732
1112.70 0.04731
1112.80 0.04729
1112.90 0.04728
1113.00 0.04726
1113.10 0.04725
1113.20 0.04723
1113.30 0.04721
1113.40 0.0472
1113.50 0.04718
1113.60 0.04717
1113.70 0.04715
1113.80 0.04714
1113.90 0.04712
1114.00 0.0471
1114.10 0.04709
1114.20 0.04707
1114.30 0.04706
1114.40 0.04704
1114.50 0.04702
1114.60 0.04701
1114.70 0.04699
1114.80 0.04698
1114.90 0.04696
1115.00 0.04694
1115.10 0.04693
1115.20 0.04691
1115.30 0.0469
1115.40 0.04688
1115.50 0.04687
1115.60 0.04685
1115.70 0.04683
1115.80 0.04682
1115.90 0.0468
1116.00 0.04679
1116.10 0.04677
1116.20 0.04676
1116.30 0.04674
1116.40 0.04672
1116.50 0.04671
1116.60 0.04669
1116.70 0.04668
1116.80 0.04666
1116.90 0.04664
1117.00 0.04663
1117.10 0.04661
1117.20 0.0466
1117.30 0.04658
1117.40 0.04657
1117.50 0.04655
1117.60 0.04653
1117.70 0.04652
1117.80 0.0465
1117.90 0.04649
1118.00 0.04647
1118.10 0.04645
1118.20 0.04644
1118.30 0.04642
1118.40 0.04641
1118.50 0.04639
1118.60 0.04638
1118.70 0.04636
1118.80 0.04634
1118.90 0.04633
1119.00 0.04631
1119.10 0.0463
1119.20 0.04628
1119.30 0.04626
1119.40 0.04625
1119.50 0.04623
1119.60 0.04622
1119.70 0.0462
1119.80 0.04619
1119.90 0.04617
1120.00 0.04615
1120.10 0.04614
1120.20 0.04612
1120.30 0.04611
1120.40 0.04609
1120.50 0.04608
1120.60 0.04606
1120.70 0.04604
1120.80 0.04603
1120.90 0.04601
1121.00 0.046
1121.10 0.04598
1121.20 0.04597
1121.30 0.04595
1121.40 0.04593
1121.50 0.04592
1121.60 0.0459
1121.70 0.04589
1121.80 0.04587
1121.90 0.04586
1122.00 0.04584
1122.10 0.04582
1122.20 0.04581
1122.30 0.04579
1122.40 0.04578
1122.50 0.04576
1122.60 0.04575
1122.70 0.04573
1122.80 0.04571
1122.90 0.0457
1123.00 0.04568
1123.10 0.04567
1123.20 0.04565
1123.30 0.04564
1123.40 0.04562
1123.50 0.0456
1123.60 0.04559
1123.70 0.04557
1123.80 0.04556
1123.90 0.04554
1124.00 0.04553
1124.10 0.04551
1124.20 0.0455
1124.30 0.04548
1124.40 0.04546
1124.50 0.04545
1124.60 0.04543
1124.70 0.04542
1124.80 0.0454
1124.90 0.04539
1125.00 0.04537
1125.10 0.04536
1125.20 0.04534
1125.30 0.04532
1125.40 0.04531
1125.50 0.04529
1125.60 0.04528
1125.70 0.04526
1125.80 0.04525
1125.90 0.04523
1126.00 0.04522
1126.10 0.0452
1126.20 0.04518
1126.30 0.04517
1126.40 0.04515
1126.50 0.04514
1126.60 0.04512
1126.70 0.04511
1126.80 0.04509
1126.90 0.04508
1127.00 0.04506
1127.10 0.04505
1127.20 0.04503
1127.30 0.04501
1127.40 0.045
1127.50 0.04498
1127.60 0.04497
1127.70 0.04495
1127.80 0.04494
1127.90 0.04492
1128.00 0.04491
1128.10 0.04489
1128.20 0.04488
1128.30 0.04486
1128.40 0.04485
1128.50 0.04483
1128.60 0.04481
1128.70 0.0448
1128.80 0.04478
1128.90 0.04477
1129.00 0.04475
1129.10 0.04474
1129.20 0.04472
1129.30 0.04471
1129.40 0.04469
1129.50 0.04468
1129.60 0.04466
1129.70 0.04465
1129.80 0.04463
1129.90 0.04462
1130.00 0.0446
1130.10 0.04458
1130.20 0.04457
1130.30 0.04455
1130.40 0.04454
1130.50 0.04452
1130.60 0.04451
1130.70 0.04449
1130.80 0.04448
1130.90 0.04446
1131.00 0.04445
1131.10 0.04443
1131.20 0.04442
1131.30 0.0444
1131.40 0.04439
1131.50 0.04437
1131.60 0.04436
1131.70 0.04434
1131.80 0.04433
1131.90 0.04431
1132.00 0.04429
1132.10 0.04428
1132.20 0.04426
1132.30 0.04425
1132.40 0.04423
1132.50 0.04422
1132.60 0.0442
1132.70 0.04419
1132.80 0.04417
1132.90 0.04416
1133.00 0.04414
1133.10 0.04413
1133.20 0.04411
1133.30 0.0441
1133.40 0.04408
1133.50 0.04407
1133.60 0.04405
1133.70 0.04404
1133.80 0.04402
1133.90 0.04401
1134.00 0.04399
1134.10 0.04398
1134.20 0.04396
1134.30 0.04395
1134.40 0.04393
1134.50 0.04392
1134.60 0.0439
1134.70 0.04389
1134.80 0.04387
1134.90 0.04386
1135.00 0.04384
1135.10 0.04383
1135.20 0.04381
1135.30 0.0438
1135.40 0.04378
1135.50 0.04377
1135.60 0.04375
1135.70 0.04374
1135.80 0.04372
1135.90 0.04371
1136.00 0.04369
1136.10 0.04368
1136.20 0.04366
1136.30 0.04365
1136.40 0.04363
1136.50 0.04362
1136.60 0.0436
1136.70 0.04359
1136.80 0.04357
1136.90 0.04356
1137.00 0.04354
1137.10 0.04353
1137.20 0.04351
1137.30 0.0435
1137.40 0.04348
1137.50 0.04347
1137.60 0.04346
1137.70 0.04344
1137.80 0.04343
1137.90 0.04341
1138.00 0.0434
1138.10 0.04338
1138.20 0.04337
1138.30 0.04335
1138.40 0.04334
1138.50 0.04332
1138.60 0.04331
1138.70 0.04329
1138.80 0.04328
1138.90 0.04326
1139.00 0.04325
1139.10 0.04323
1139.20 0.04322
1139.30 0.0432
1139.40 0.04319
1139.50 0.04317
1139.60 0.04316
1139.70 0.04315
1139.80 0.04313
1139.90 0.04312
1140.00 0.0431
1140.10 0.04309
1140.20 0.04307
1140.30 0.04306
1140.40 0.04304
1140.50 0.04303
1140.60 0.04301
1140.70 0.043
1140.80 0.04298
1140.90 0.04297
1141.00 0.04295
1141.10 0.04294
1141.20 0.04293
1141.30 0.04291
1141.40 0.0429
1141.50 0.04288
1141.60 0.04287
1141.70 0.04285
1141.80 0.04284
1141.90 0.04282
1142.00 0.04281
1142.10 0.04279
1142.20 0.04278
1142.30 0.04276
1142.40 0.04275
1142.50 0.04274
1142.60 0.04272
1142.70 0.04271
1142.80 0.04269
1142.90 0.04268
1143.00 0.04266
1143.10 0.04265
1143.20 0.04263
1143.30 0.04262
1143.40 0.04261
1143.50 0.04259
1143.60 0.04258
1143.70 0.04256
1143.80 0.04255
1143.90 0.04253
1144.00 0.04252
1144.10 0.0425
1144.20 0.04249
1144.30 0.04248
1144.40 0.04246
1144.50 0.04245
1144.60 0.04243
1144.70 0.04242
1144.80 0.0424
1144.90 0.04239
1145.00 0.04237
1145.10 0.04236
1145.20 0.04235
1145.30 0.04233
1145.40 0.04232
1145.50 0.0423
1145.60 0.04229
1145.70 0.04227
1145.80 0.04226
1145.90 0.04225
1146.00 0.04223
1146.10 0.04222
1146.20 0.0422
1146.30 0.04219
1146.40 0.04217
1146.50 0.04216
1146.60 0.04214
1146.70 0.04213
1146.80 0.04212
1146.90 0.0421
1147.00 0.04209
1147.10 0.04207
1147.20 0.04206
1147.30 0.04204
1147.40 0.04203
1147.50 0.04202
1147.60 0.042
1147.70 0.04199
1147.80 0.04197
1147.90 0.04196
1148.00 0.04195
1148.10 0.04193
1148.20 0.04192
1148.30 0.0419
1148.40 0.04189
1148.50 0.04187
1148.60 0.04186
1148.70 0.04185
1148.80 0.04183
1148.90 0.04182
1149.00 0.0418
1149.10 0.04179
1149.20 0.04178
1149.30 0.04176
1149.40 0.04175
1149.50 0.04173
1149.60 0.04172
1149.70 0.0417
1149.80 0.04169
1149.90 0.04168
1150.00 0.04166
1150.10 0.04165
1150.20 0.04163
1150.30 0.04162
1150.40 0.04161
1150.50 0.04159
1150.60 0.04158
1150.70 0.04156
1150.80 0.04155
1150.90 0.04154
1151.00 0.04152
1151.10 0.04151
1151.20 0.04149
1151.30 0.04148
1151.40 0.04147
1151.50 0.04145
1151.60 0.04144
1151.70 0.04142
1151.80 0.04141
1151.90 0.0414
1152.00 0.04138
1152.10 0.04137
1152.20 0.04135
1152.30 0.04134
1152.40 0.04133
1152.50 0.04131
1152.60 0.0413
1152.70 0.04128
1152.80 0.04127
1152.90 0.04126
1153.00 0.04124
1153.10 0.04123
1153.20 0.04121
1153.30 0.0412
1153.40 0.04119
1153.50 0.04117
1153.60 0.04116
1153.70 0.04114
1153.80 0.04113
1153.90 0.04112
1154.00 0.0411
1154.10 0.04109
1154.20 0.04108
1154.30 0.04106
1154.40 0.04105
1154.50 0.04103
1154.60 0.04102
1154.70 0.04101
1154.80 0.04099
1154.90 0.04098
1155.00 0.04097
1155.10 0.04095
1155.20 0.04094
1155.30 0.04092
1155.40 0.04091
1155.50 0.0409
1155.60 0.04088
1155.70 0.04087
1155.80 0.04085
1155.90 0.04084
1156.00 0.04083
1156.10 0.04081
1156.20 0.0408
1156.30 0.04079
1156.40 0.04077
1156.50 0.04076
1156.60 0.04074
1156.70 0.04073
1156.80 0.04072
1156.90 0.0407
1157.00 0.04069
1157.10 0.04068
1157.20 0.04066
1157.30 0.04065
1157.40 0.04064
1157.50 0.04062
1157.60 0.04061
1157.70 0.04059
1157.80 0.04058
1157.90 0.04057
1158.00 0.04055
1158.10 0.04054
1158.20 0.04053
1158.30 0.04051
1158.40 0.0405
1158.50 0.04049
1158.60 0.04047
1158.70 0.04046
1158.80 0.04044
1158.90 0.04043
1159.00 0.04042
1159.10 0.0404
1159.20 0.04039
1159.30 0.04038
1159.40 0.04036
1159.50 0.04035
1159.60 0.04034
1159.70 0.04032
1159.80 0.04031
1159.90 0.0403
1160.00 0.04028
1160.10 0.04027
1160.20 0.04026
1160.30 0.04024
1160.40 0.04023
1160.50 0.04021
1160.60 0.0402
1160.70 0.04019
1160.80 0.04017
1160.90 0.04016
1161.00 0.04015
1161.10 0.04013
1161.20 0.04012
1161.30 0.04011
1161.40 0.04009
1161.50 0.04008
1161.60 0.04007
1161.70 0.04005
1161.80 0.04004
1161.90 0.04003
1162.00 0.04001
1162.10 0.04
1162.20 0.03999
1162.30 0.03997
1162.40 0.03996
1162.50 0.03995
1162.60 0.03993
1162.70 0.03992
1162.80 0.03991
1162.90 0.03989
1163.00 0.03988
1163.10 0.03987
1163.20 0.03985
1163.30 0.03984
1163.40 0.03983
1163.50 0.03981
1163.60 0.0398
1163.70 0.03979
1163.80 0.03977
1163.90 0.03976
1164.00 0.03975
1164.10 0.03973
1164.20 0.03972
1164.30 0.03971
1164.40 0.03969
1164.50 0.03968
1164.60 0.03967
1164.70 0.03965
1164.80 0.03964
1164.90 0.03963
1165.00 0.03961
1165.10 0.0396
1165.20 0.03959
1165.30 0.03957
1165.40 0.03956
1165.50 0.03955
1165.60 0.03953
1165.70 0.03952
1165.80 0.03951
1165.90 0.03949
1166.00 0.03948
1166.10 0.03947
1166.20 0.03945
1166.30 0.03944
1166.40 0.03943
1166.50 0.03942
1166.60 0.0394
1166.70 0.03939
1166.80 0.03938
1166.90 0.03936
1167.00 0.03935
1167.10 0.03934
1167.20 0.03932
1167.30 0.03931
1167.40 0.0393
1167.50 0.03928
1167.60 0.03927
1167.70 0.03926
1167.80 0.03924
1167.90 0.03923
1168.00 0.03922
1168.10 0.03921
1168.20 0.03919
1168.30 0.03918
1168.40 0.03917
1168.50 0.03915
1168.60 0.03914
1168.70 0.03913
1168.80 0.03911
1168.90 0.0391
1169.00 0.03909
1169.10 0.03908
1169.20 0.03906
1169.30 0.03905
1169.40 0.03904
1169.50 0.03902
1169.60 0.03901
1169.70 0.039
1169.80 0.03898
1169.90 0.03897
1170.00 0.03896
1170.10 0.03895
1170.20 0.03893
1170.30 0.03892
1170.40 0.03891
1170.50 0.03889
1170.60 0.03888
1170.70 0.03887
1170.80 0.03885
1170.90 0.03884
1171.00 0.03883
1171.10 0.03882
1171.20 0.0388
1171.30 0.03879
1171.40 0.03878
1171.50 0.03876
1171.60 0.03875
1171.70 0.03874
1171.80 0.03873
1171.90 0.03871
1172.00 0.0387
1172.10 0.03869
1172.20 0.03867
1172.30 0.03866
1172.40 0.03865
1172.50 0.03864
1172.60 0.03862
1172.70 0.03861
1172.80 0.0386
1172.90 0.03858
1173.00 0.03857
1173.10 0.03856
1173.20 0.03855
1173.30 0.03853
1173.40 0.03852
1173.50 0.03851
1173.60 0.03849
1173.70 0.03848
1173.80 0.03847
1173.90 0.03846
1174.00 0.03844
1174.10 0.03843
1174.20 0.03842
1174.30 0.03841
1174.40 0.03839
1174.50 0.03838
1174.60 0.03837
1174.70 0.03835
1174.80 0.03834
1174.90 0.03833
1175.00 0.03832
1175.10 0.0383
1175.20 0.03829
1175.30 0.03828
1175.40 0.03827
1175.50 0.03825
1175.60 0.03824
1175.70 0.03823
1175.80 0.03822
1175.90 0.0382
1176.00 0.03819
1176.10 0.03818
1176.20 0.03816
1176.30 0.03815
1176.40 0.03814
1176.50 0.03813
1176.60 0.03811
1176.70 0.0381
1176.80 0.03809
1176.90 0.03808
1177.00 0.03806
1177.10 0.03805
1177.20 0.03804
1177.30 0.03803
1177.40 0.03801
1177.50 0.038
1177.60 0.03799
1177.70 0.03798
1177.80 0.03796
1177.90 0.03795
1178.00 0.03794
1178.10 0.03793
1178.20 0.03791
1178.30 0.0379
1178.40 0.03789
1178.50 0.03788
1178.60 0.03786
1178.70 0.03785
1178.80 0.03784
1178.90 0.03783
1179.00 0.03781
1179.10 0.0378
1179.20 0.03779
1179.30 0.03778
1179.40 0.03776
1179.50 0.03775
1179.60 0.03774
1179.70 0.03773
1179.80 0.03771
1179.90 0.0377
1180.00 0.03769
1180.10 0.03768
1180.20 0.03766
1180.30 0.03765
1180.40 0.03764
1180.50 0.03763
1180.60 0.03761
1180.70 0.0376
1180.80 0.03759
1180.90 0.03758
1181.00 0.03756
1181.10 0.03755
1181.20 0.03754
1181.30 0.03753
1181.40 0.03751
1181.50 0.0375
1181.60 0.03749
1181.70 0.03748
1181.80 0.03746
1181.90 0.03745
1182.00 0.03744
1182.10 0.03743
1182.20 0.03742
1182.30 0.0374
1182.40 0.03739
1182.50 0.03738
1182.60 0.03737
1182.70 0.03735
1182.80 0.03734
1182.90 0.03733
1183.00 0.03732
1183.10 0.0373
1183.20 0.03729
1183.30 0.03728
1183.40 0.03727
1183.50 0.03726
1183.60 0.03724
1183.70 0.03723
1183.80 0.03722
1183.90 0.03721
1184.00 0.03719
1184.10 0.03718
1184.20 0.03717
1184.30 0.03716
1184.40 0.03715
1184.50 0.03713
1184.60 0.03712
1184.70 0.03711
1184.80 0.0371
1184.90 0.03708
1185.00 0.03707
1185.10 0.03706
1185.20 0.03705
1185.30 0.03704
1185.40 0.03702
1185.50 0.03701
1185.60 0.037
1185.70 0.03699
1185.80 0.03698
1185.90 0.03696
1186.00 0.03695
1186.10 0.03694
1186.20 0.03693
1186.30 0.03691
1186.40 0.0369
1186.50 0.03689
1186.60 0.03688
1186.70 0.03687
1186.80 0.03685
1186.90 0.03684
1187.00 0.03683
1187.10 0.03682
1187.20 0.03681
1187.30 0.03679
1187.40 0.03678
1187.50 0.03677
1187.60 0.03676
1187.70 0.03675
1187.80 0.03673
1187.90 0.03672
1188.00 0.03671
1188.10 0.0367
1188.20 0.03669
1188.30 0.03667
1188.40 0.03666
1188.50 0.03665
1188.60 0.03664
1188.70 0.03662
1188.80 0.03661
1188.90 0.0366
1189.00 0.03659
1189.10 0.03658
1189.20 0.03657
1189.30 0.03655
1189.40 0.03654
1189.50 0.03653
1189.60 0.03652
1189.70 0.03651
1189.80 0.03649
1189.90 0.03648
1190.00 0.03647
1190.10 0.03646
1190.20 0.03645
1190.30 0.03643
1190.40 0.03642
1190.50 0.03641
1190.60 0.0364
1190.70 0.03639
1190.80 0.03637
1190.90 0.03636
1191.00 0.03635
1191.10 0.03634
1191.20 0.03633
1191.30 0.03631
1191.40 0.0363
1191.50 0.03629
1191.60 0.03628
1191.70 0.03627
1191.80 0.03625
1191.90 0.03624
1192.00 0.03623
1192.10 0.03622
1192.20 0.03621
1192.30 0.0362
1192.40 0.03618
1192.50 0.03617
1192.60 0.03616
1192.70 0.03615
1192.80 0.03614
1192.90 0.03612
1193.00 0.03611
1193.10 0.0361
1193.20 0.03609
1193.30 0.03608
1193.40 0.03607
1193.50 0.03605
1193.60 0.03604
1193.70 0.03603
1193.80 0.03602
1193.90 0.03601
1194.00 0.036
1194.10 0.03598
1194.20 0.03597
1194.30 0.03596
1194.40 0.03595
1194.50 0.03594
1194.60 0.03593
1194.70 0.03591
1194.80 0.0359
1194.90 0.03589
1195.00 0.03588
1195.10 0.03587
1195.20 0.03585
1195.30 0.03584
1195.40 0.03583
1195.50 0.03582
1195.60 0.03581
1195.70 0.0358
1195.80 0.03578
1195.90 0.03577
1196.00 0.03576
1196.10 0.03575
1196.20 0.03574
1196.30 0.03573
1196.40 0.03571
1196.50 0.0357
1196.60 0.03569
1196.70 0.03568
1196.80 0.03567
1196.90 0.03566
1197.00 0.03564
1197.10 0.03563
1197.20 0.03562
1197.30 0.03561
1197.40 0.0356
1197.50 0.03559
1197.60 0.03558
1197.70 0.03556
1197.80 0.03555
1197.90 0.03554
1198.00 0.03553
1198.10 0.03552
1198.20 0.03551
1198.30 0.03549
1198.40 0.03548
1198.50 0.03547
1198.60 0.03546
1198.70 0.03545
1198.80 0.03544
1198.90 0.03543
1199.00 0.03541
1199.10 0.0354
1199.20 0.03539
1199.30 0.03538
1199.40 0.03537
1199.50 0.03536
1199.60 0.03534
1199.70 0.03533
1199.80 0.03532
1199.90 0.03531
1200.00 0
