# Version 2.1 - nm, norm@500 to 1, cut digits, bergeron_4500_80.dat_4500
# Wavelength(nm)  Flambda(ergs/cm^s/s/nm)
300.00 0.2516
300.10 0.252
300.20 0.2524
300.30 0.2528
300.40 0.2532
300.50 0.2536
300.60 0.2539
300.70 0.2543
300.80 0.2547
300.90 0.2551
301.00 0.2555
301.10 0.2559
301.20 0.2563
301.30 0.2567
301.40 0.2571
301.50 0.2575
301.60 0.2579
301.70 0.2583
301.80 0.2586
301.90 0.259
302.00 0.2594
302.10 0.2598
302.20 0.2602
302.30 0.2606
302.40 0.261
302.50 0.2614
302.60 0.2618
302.70 0.2622
302.80 0.2626
302.90 0.263
303.00 0.2634
303.10 0.2638
303.20 0.2642
303.30 0.2646
303.40 0.265
303.50 0.2654
303.60 0.2658
303.70 0.2662
303.80 0.2666
303.90 0.267
304.00 0.2674
304.10 0.2678
304.20 0.2682
304.30 0.2686
304.40 0.269
304.50 0.2694
304.60 0.2698
304.70 0.2702
304.80 0.2706
304.90 0.271
305.00 0.2714
305.10 0.2718
305.20 0.2722
305.30 0.2726
305.40 0.273
305.50 0.2734
305.60 0.2738
305.70 0.2742
305.80 0.2746
305.90 0.275
306.00 0.2754
306.10 0.2758
306.20 0.2762
306.30 0.2766
306.40 0.277
306.50 0.2774
306.60 0.2778
306.70 0.2782
306.80 0.2786
306.90 0.279
307.00 0.2794
307.10 0.2798
307.20 0.2802
307.30 0.2806
307.40 0.281
307.50 0.2815
307.60 0.2819
307.70 0.2823
307.80 0.2827
307.90 0.2831
308.00 0.2835
308.10 0.2839
308.20 0.2843
308.30 0.2847
308.40 0.2851
308.50 0.2855
308.60 0.2859
308.70 0.2863
308.80 0.2867
308.90 0.2872
309.00 0.2876
309.10 0.288
309.20 0.2884
309.30 0.2888
309.40 0.2892
309.50 0.2896
309.60 0.29
309.70 0.2904
309.80 0.2908
309.90 0.2912
310.00 0.2916
310.10 0.292
310.20 0.2924
310.30 0.2929
310.40 0.2933
310.50 0.2937
310.60 0.2941
310.70 0.2945
310.80 0.2949
310.90 0.2954
311.00 0.2958
311.10 0.2962
311.20 0.2966
311.30 0.297
311.40 0.2974
311.50 0.2978
311.60 0.2982
311.70 0.2986
311.80 0.2991
311.90 0.2995
312.00 0.2999
312.10 0.3003
312.20 0.3007
312.30 0.3011
312.40 0.3015
312.50 0.3019
312.60 0.3024
312.70 0.3028
312.80 0.3032
312.90 0.3036
313.00 0.304
313.10 0.3044
313.20 0.3049
313.30 0.3053
313.40 0.3057
313.50 0.3061
313.60 0.3065
313.70 0.3069
313.80 0.3073
313.90 0.3078
314.00 0.3082
314.10 0.3086
314.20 0.309
314.30 0.3094
314.40 0.3099
314.50 0.3103
314.60 0.3107
314.70 0.3111
314.80 0.3115
314.90 0.312
315.00 0.3124
315.10 0.3128
315.20 0.3132
315.30 0.3136
315.40 0.3141
315.50 0.3145
315.60 0.3149
315.70 0.3153
315.80 0.3157
315.90 0.3161
316.00 0.3166
316.10 0.317
316.20 0.3174
316.30 0.3178
316.40 0.3183
316.50 0.3187
316.60 0.3191
316.70 0.3195
316.80 0.3199
316.90 0.3204
317.00 0.3208
317.10 0.3212
317.20 0.3216
317.30 0.3221
317.40 0.3225
317.50 0.3229
317.60 0.3233
317.70 0.3237
317.80 0.3241
317.90 0.3246
318.00 0.325
318.10 0.3254
318.20 0.3258
318.30 0.3263
318.40 0.3267
318.50 0.3271
318.60 0.3276
318.70 0.328
318.80 0.3284
318.90 0.3288
319.00 0.3293
319.10 0.3297
319.20 0.3301
319.30 0.3305
319.40 0.331
319.50 0.3314
319.60 0.3318
319.70 0.3322
319.80 0.3326
319.90 0.3331
320.00 0.3335
320.10 0.3339
320.20 0.3344
320.30 0.3348
320.40 0.3352
320.50 0.3356
320.60 0.3361
320.70 0.3365
320.80 0.3369
320.90 0.3374
321.00 0.3378
321.10 0.3382
321.20 0.3386
321.30 0.3391
321.40 0.3395
321.50 0.3399
321.60 0.3403
321.70 0.3408
321.80 0.3412
321.90 0.3416
322.00 0.342
322.10 0.3425
322.20 0.3429
322.30 0.3433
322.40 0.3438
322.50 0.3442
322.60 0.3446
322.70 0.3451
322.80 0.3455
322.90 0.3459
323.00 0.3464
323.10 0.3468
323.20 0.3472
323.30 0.3477
323.40 0.3481
323.50 0.3485
323.60 0.3489
323.70 0.3494
323.80 0.3498
323.90 0.3502
324.00 0.3506
324.10 0.3511
324.20 0.3515
324.30 0.352
324.40 0.3524
324.50 0.3528
324.60 0.3533
324.70 0.3537
324.80 0.3541
324.90 0.3546
325.00 0.355
325.10 0.3554
325.20 0.3559
325.30 0.3563
325.40 0.3567
325.50 0.3571
325.60 0.3576
325.70 0.358
325.80 0.3584
325.90 0.3589
326.00 0.3593
326.10 0.3597
326.20 0.3602
326.30 0.3606
326.40 0.361
326.50 0.3615
326.60 0.3619
326.70 0.3624
326.80 0.3628
326.90 0.3632
327.00 0.3637
327.10 0.3641
327.20 0.3645
327.30 0.365
327.40 0.3654
327.50 0.3658
327.60 0.3663
327.70 0.3667
327.80 0.3671
327.90 0.3676
328.00 0.368
328.10 0.3684
328.20 0.3689
328.30 0.3693
328.40 0.3697
328.50 0.3702
328.60 0.3706
328.70 0.3711
328.80 0.3715
328.90 0.3719
329.00 0.3724
329.10 0.3728
329.20 0.3733
329.30 0.3737
329.40 0.3741
329.50 0.3746
329.60 0.375
329.70 0.3754
329.80 0.3759
329.90 0.3763
330.00 0.3767
330.10 0.3772
330.20 0.3776
330.30 0.3781
330.40 0.3785
330.50 0.3789
330.60 0.3794
330.70 0.3798
330.80 0.3803
330.90 0.3807
331.00 0.3811
331.10 0.3816
331.20 0.382
331.30 0.3825
331.40 0.3829
331.50 0.3833
331.60 0.3838
331.70 0.3842
331.80 0.3846
331.90 0.3851
332.00 0.3855
332.10 0.386
332.20 0.3864
332.30 0.3868
332.40 0.3873
332.50 0.3877
332.60 0.3882
332.70 0.3886
332.80 0.3891
332.90 0.3895
333.00 0.3899
333.10 0.3904
333.20 0.3908
333.30 0.3913
333.40 0.3917
333.50 0.3921
333.60 0.3926
333.70 0.393
333.80 0.3934
333.90 0.3939
334.00 0.3943
334.10 0.3948
334.20 0.3952
334.30 0.3957
334.40 0.3961
334.50 0.3965
334.60 0.397
334.70 0.3974
334.80 0.3979
334.90 0.3983
335.00 0.3988
335.10 0.3992
335.20 0.3996
335.30 0.4001
335.40 0.4005
335.50 0.401
335.60 0.4014
335.70 0.4018
335.80 0.4023
335.90 0.4027
336.00 0.4032
336.10 0.4036
336.20 0.4041
336.30 0.4045
336.40 0.405
336.50 0.4054
336.60 0.4058
336.70 0.4063
336.80 0.4067
336.90 0.4072
337.00 0.4076
337.10 0.4081
337.20 0.4085
337.30 0.4089
337.40 0.4094
337.50 0.4098
337.60 0.4103
337.70 0.4107
337.80 0.4111
337.90 0.4116
338.00 0.412
338.10 0.4125
338.20 0.4129
338.30 0.4134
338.40 0.4138
338.50 0.4143
338.60 0.4147
338.70 0.4152
338.80 0.4156
338.90 0.4161
339.00 0.4165
339.10 0.4169
339.20 0.4174
339.30 0.4178
339.40 0.4183
339.50 0.4187
339.60 0.4192
339.70 0.4196
339.80 0.42
339.90 0.4205
340.00 0.4209
340.10 0.4214
340.20 0.4218
340.30 0.4223
340.40 0.4227
340.50 0.4232
340.60 0.4236
340.70 0.4241
340.80 0.4245
340.90 0.425
341.00 0.4254
341.10 0.4259
341.20 0.4263
341.30 0.4267
341.40 0.4272
341.50 0.4276
341.60 0.4281
341.70 0.4285
341.80 0.429
341.90 0.4294
342.00 0.4298
342.10 0.4303
342.20 0.4307
342.30 0.4312
342.40 0.4316
342.50 0.4321
342.60 0.4325
342.70 0.433
342.80 0.4334
342.90 0.4339
343.00 0.4343
343.10 0.4348
343.20 0.4352
343.30 0.4357
343.40 0.4361
343.50 0.4366
343.60 0.437
343.70 0.4374
343.80 0.4379
343.90 0.4383
344.00 0.4388
344.10 0.4392
344.20 0.4397
344.30 0.4401
344.40 0.4406
344.50 0.441
344.60 0.4415
344.70 0.4419
344.80 0.4424
344.90 0.4428
345.00 0.4433
345.10 0.4437
345.20 0.4442
345.30 0.4446
345.40 0.4451
345.50 0.4455
345.60 0.4459
345.70 0.4464
345.80 0.4468
345.90 0.4473
346.00 0.4477
346.10 0.4482
346.20 0.4486
346.30 0.4491
346.40 0.4495
346.50 0.45
346.60 0.4504
346.70 0.4509
346.80 0.4513
346.90 0.4518
347.00 0.4522
347.10 0.4527
347.20 0.4531
347.30 0.4536
347.40 0.454
347.50 0.4544
347.60 0.4549
347.70 0.4553
347.80 0.4558
347.90 0.4562
348.00 0.4567
348.10 0.4571
348.20 0.4576
348.30 0.458
348.40 0.4585
348.50 0.4589
348.60 0.4594
348.70 0.4598
348.80 0.4603
348.90 0.4607
349.00 0.4612
349.10 0.4616
349.20 0.4621
349.30 0.4625
349.40 0.463
349.50 0.4634
349.60 0.4639
349.70 0.4643
349.80 0.4647
349.90 0.4652
350.00 0.4656
350.10 0.4661
350.20 0.4665
350.30 0.467
350.40 0.4674
350.50 0.4679
350.60 0.4684
350.70 0.4688
350.80 0.4693
350.90 0.4697
351.00 0.4701
351.10 0.4706
351.20 0.471
351.30 0.4715
351.40 0.4719
351.50 0.4724
351.60 0.4728
351.70 0.4733
351.80 0.4737
351.90 0.4742
352.00 0.4746
352.10 0.4751
352.20 0.4755
352.30 0.476
352.40 0.4764
352.50 0.4769
352.60 0.4773
352.70 0.4778
352.80 0.4782
352.90 0.4787
353.00 0.4791
353.10 0.4796
353.20 0.48
353.30 0.4805
353.40 0.4809
353.50 0.4814
353.60 0.4818
353.70 0.4822
353.80 0.4827
353.90 0.4831
354.00 0.4836
354.10 0.484
354.20 0.4845
354.30 0.4849
354.40 0.4854
354.50 0.4858
354.60 0.4863
354.70 0.4867
354.80 0.4872
354.90 0.4876
355.00 0.4881
355.10 0.4885
355.20 0.489
355.30 0.4894
355.40 0.4899
355.50 0.4903
355.60 0.4908
355.70 0.4912
355.80 0.4917
355.90 0.4921
356.00 0.4925
356.10 0.493
356.20 0.4935
356.30 0.4939
356.40 0.4944
356.50 0.4948
356.60 0.4953
356.70 0.4957
356.80 0.4962
356.90 0.4966
357.00 0.4971
357.10 0.4975
357.20 0.498
357.30 0.4984
357.40 0.4988
357.50 0.4993
357.60 0.4997
357.70 0.5002
357.80 0.5006
357.90 0.5011
358.00 0.5015
358.10 0.502
358.20 0.5024
358.30 0.5029
358.40 0.5033
358.50 0.5038
358.60 0.5042
358.70 0.5047
358.80 0.5051
358.90 0.5056
359.00 0.506
359.10 0.5065
359.20 0.5069
359.30 0.5074
359.40 0.5078
359.50 0.5082
359.60 0.5087
359.70 0.5091
359.80 0.5096
359.90 0.51
360.00 0.5105
360.10 0.5109
360.20 0.5114
360.30 0.5118
360.40 0.5123
360.50 0.5127
360.60 0.5132
360.70 0.5136
360.80 0.5141
360.90 0.5145
361.00 0.515
361.10 0.5154
361.20 0.5159
361.30 0.5163
361.40 0.5167
361.50 0.5172
361.60 0.5176
361.70 0.5181
361.80 0.5185
361.90 0.519
362.00 0.5194
362.10 0.5199
362.20 0.5203
362.30 0.5208
362.40 0.5212
362.50 0.5217
362.60 0.5221
362.70 0.5225
362.80 0.523
362.90 0.5234
363.00 0.5239
363.10 0.5243
363.20 0.5248
363.30 0.5252
363.40 0.5257
363.50 0.5261
363.60 0.5266
363.70 0.527
363.80 0.5275
363.90 0.5279
364.00 0.5284
364.10 0.5288
364.20 0.5292
364.30 0.5297
364.40 0.5301
364.50 0.5306
364.60 0.531
364.70 0.5315
364.80 0.5319
364.90 0.5324
365.00 0.5328
365.10 0.5333
365.20 0.5337
365.30 0.5341
365.40 0.5346
365.50 0.535
365.60 0.5355
365.70 0.5359
365.80 0.5364
365.90 0.5368
366.00 0.5373
366.10 0.5377
366.20 0.5382
366.30 0.5386
366.40 0.5391
366.50 0.5395
366.60 0.54
366.70 0.5404
366.80 0.5408
366.90 0.5413
367.00 0.5417
367.10 0.5422
367.20 0.5426
367.30 0.5431
367.40 0.5435
367.50 0.544
367.60 0.5444
367.70 0.5448
367.80 0.5453
367.90 0.5457
368.00 0.5462
368.10 0.5466
368.20 0.5471
368.30 0.5475
368.40 0.548
368.50 0.5484
368.60 0.5489
368.70 0.5493
368.80 0.5497
368.90 0.5502
369.00 0.5506
369.10 0.5511
369.20 0.5515
369.30 0.552
369.40 0.5524
369.50 0.5528
369.60 0.5533
369.70 0.5537
369.80 0.5542
369.90 0.5546
370.00 0.555
370.10 0.5555
370.20 0.5559
370.30 0.5564
370.40 0.5568
370.50 0.5573
370.60 0.5577
370.70 0.5582
370.80 0.5586
370.90 0.5591
371.00 0.5595
371.10 0.5599
371.20 0.5604
371.30 0.5608
371.40 0.5613
371.50 0.5617
371.60 0.5621
371.70 0.5626
371.80 0.563
371.90 0.5635
372.00 0.5639
372.10 0.5643
372.20 0.5648
372.30 0.5652
372.40 0.5657
372.50 0.5661
372.60 0.5666
372.70 0.567
372.80 0.5674
372.90 0.5679
373.00 0.5683
373.10 0.5688
373.20 0.5692
373.30 0.5697
373.40 0.5701
373.50 0.5705
373.60 0.571
373.70 0.5714
373.80 0.5718
373.90 0.5723
374.00 0.5727
374.10 0.5732
374.20 0.5736
374.30 0.5741
374.40 0.5745
374.50 0.5749
374.60 0.5754
374.70 0.5758
374.80 0.5763
374.90 0.5767
375.00 0.5771
375.10 0.5776
375.20 0.578
375.30 0.5785
375.40 0.5789
375.50 0.5793
375.60 0.5798
375.70 0.5802
375.80 0.5806
375.90 0.5811
376.00 0.5815
376.10 0.582
376.20 0.5824
376.30 0.5828
376.40 0.5833
376.50 0.5837
376.60 0.5841
376.70 0.5846
376.80 0.585
376.90 0.5855
377.00 0.5859
377.10 0.5863
377.20 0.5868
377.30 0.5872
377.40 0.5877
377.50 0.5881
377.60 0.5885
377.70 0.589
377.80 0.5894
377.90 0.5898
378.00 0.5903
378.10 0.5907
378.20 0.5912
378.30 0.5916
378.40 0.592
378.50 0.5925
378.60 0.5929
378.70 0.5933
378.80 0.5938
378.90 0.5942
379.00 0.5946
379.10 0.5951
379.20 0.5955
379.30 0.596
379.40 0.5964
379.50 0.5968
379.60 0.5973
379.70 0.5977
379.80 0.5981
379.90 0.5986
380.00 0.599
380.10 0.5994
380.20 0.5999
380.30 0.6003
380.40 0.6007
380.50 0.6012
380.60 0.6016
380.70 0.6021
380.80 0.6025
380.90 0.6029
381.00 0.6034
381.10 0.6038
381.20 0.6042
381.30 0.6047
381.40 0.6051
381.50 0.6055
381.60 0.606
381.70 0.6064
381.80 0.6068
381.90 0.6073
382.00 0.6077
382.10 0.6081
382.20 0.6086
382.30 0.609
382.40 0.6094
382.50 0.6099
382.60 0.6103
382.70 0.6107
382.80 0.6112
382.90 0.6116
383.00 0.612
383.10 0.6125
383.20 0.6129
383.30 0.6133
383.40 0.6138
383.50 0.6142
383.60 0.6146
383.70 0.615
383.80 0.6155
383.90 0.6159
384.00 0.6163
384.10 0.6168
384.20 0.6172
384.30 0.6176
384.40 0.6181
384.50 0.6185
384.60 0.6189
384.70 0.6194
384.80 0.6198
384.90 0.6202
385.00 0.6207
385.10 0.6211
385.20 0.6215
385.30 0.622
385.40 0.6224
385.50 0.6228
385.60 0.6232
385.70 0.6237
385.80 0.6241
385.90 0.6245
386.00 0.625
386.10 0.6254
386.20 0.6258
386.30 0.6262
386.40 0.6267
386.50 0.6271
386.60 0.6275
386.70 0.628
386.80 0.6284
386.90 0.6288
387.00 0.6292
387.10 0.6297
387.20 0.6301
387.30 0.6305
387.40 0.631
387.50 0.6314
387.60 0.6318
387.70 0.6322
387.80 0.6327
387.90 0.6331
388.00 0.6335
388.10 0.6339
388.20 0.6344
388.30 0.6348
388.40 0.6352
388.50 0.6357
388.60 0.6361
388.70 0.6365
388.80 0.6369
388.90 0.6374
389.00 0.6378
389.10 0.6382
389.20 0.6386
389.30 0.6391
389.40 0.6395
389.50 0.6399
389.60 0.6403
389.70 0.6408
389.80 0.6412
389.90 0.6416
390.00 0.642
390.10 0.6425
390.20 0.6429
390.30 0.6433
390.40 0.6437
390.50 0.6442
390.60 0.6446
390.70 0.645
390.80 0.6454
390.90 0.6459
391.00 0.6463
391.10 0.6467
391.20 0.6471
391.30 0.6475
391.40 0.648
391.50 0.6484
391.60 0.6488
391.70 0.6492
391.80 0.6497
391.90 0.6501
392.00 0.6505
392.10 0.6509
392.20 0.6514
392.30 0.6518
392.40 0.6522
392.50 0.6526
392.60 0.653
392.70 0.6535
392.80 0.6539
392.90 0.6543
393.00 0.6547
393.10 0.6551
393.20 0.6556
393.30 0.656
393.40 0.6564
393.50 0.6568
393.60 0.6573
393.70 0.6577
393.80 0.6581
393.90 0.6585
394.00 0.6589
394.10 0.6594
394.20 0.6598
394.30 0.6602
394.40 0.6606
394.50 0.661
394.60 0.6614
394.70 0.6619
394.80 0.6623
394.90 0.6627
395.00 0.6631
395.10 0.6635
395.20 0.664
395.30 0.6644
395.40 0.6648
395.50 0.6652
395.60 0.6656
395.70 0.666
395.80 0.6665
395.90 0.6669
396.00 0.6673
396.10 0.6677
396.20 0.6681
396.30 0.6685
396.40 0.669
396.50 0.6694
396.60 0.6698
396.70 0.6702
396.80 0.6706
396.90 0.6711
397.00 0.6715
397.10 0.6719
397.20 0.6723
397.30 0.6727
397.40 0.6731
397.50 0.6735
397.60 0.674
397.70 0.6744
397.80 0.6748
397.90 0.6752
398.00 0.6756
398.10 0.676
398.20 0.6764
398.30 0.6769
398.40 0.6773
398.50 0.6777
398.60 0.6781
398.70 0.6785
398.80 0.6789
398.90 0.6793
399.00 0.6797
399.10 0.6802
399.20 0.6806
399.30 0.681
399.40 0.6814
399.50 0.6818
399.60 0.6822
399.70 0.6826
399.80 0.683
399.90 0.6835
400.00 0.6839
400.10 0.6843
400.20 0.6847
400.30 0.6851
400.40 0.6855
400.50 0.6859
400.60 0.6863
400.70 0.6867
400.80 0.6872
400.90 0.6876
401.00 0.688
401.10 0.6884
401.20 0.6888
401.30 0.6892
401.40 0.6896
401.50 0.69
401.60 0.6904
401.70 0.6908
401.80 0.6913
401.90 0.6917
402.00 0.6921
402.10 0.6925
402.20 0.6929
402.30 0.6933
402.40 0.6937
402.50 0.6941
402.60 0.6945
402.70 0.6949
402.80 0.6953
402.90 0.6957
403.00 0.6961
403.10 0.6966
403.20 0.697
403.30 0.6974
403.40 0.6978
403.50 0.6982
403.60 0.6986
403.70 0.699
403.80 0.6994
403.90 0.6998
404.00 0.7002
404.10 0.7006
404.20 0.701
404.30 0.7014
404.40 0.7018
404.50 0.7022
404.60 0.7026
404.70 0.703
404.80 0.7034
404.90 0.7038
405.00 0.7043
405.10 0.7047
405.20 0.7051
405.30 0.7055
405.40 0.7059
405.50 0.7063
405.60 0.7067
405.70 0.7071
405.80 0.7075
405.90 0.7079
406.00 0.7083
406.10 0.7087
406.20 0.7091
406.30 0.7095
406.40 0.7099
406.50 0.7103
406.60 0.7107
406.70 0.7111
406.80 0.7115
406.90 0.7119
407.00 0.7123
407.10 0.7127
407.20 0.7131
407.30 0.7135
407.40 0.7139
407.50 0.7143
407.60 0.7147
407.70 0.7151
407.80 0.7155
407.90 0.7159
408.00 0.7163
408.10 0.7167
408.20 0.7171
408.30 0.7175
408.40 0.7179
408.50 0.7183
408.60 0.7187
408.70 0.7191
408.80 0.7195
408.90 0.7199
409.00 0.7203
409.10 0.7207
409.20 0.7211
409.30 0.7215
409.40 0.7219
409.50 0.7223
409.60 0.7227
409.70 0.7231
409.80 0.7234
409.90 0.7238
410.00 0.7242
410.10 0.7246
410.20 0.725
410.30 0.7254
410.40 0.7258
410.50 0.7262
410.60 0.7266
410.70 0.727
410.80 0.7274
410.90 0.7278
411.00 0.7282
411.10 0.7286
411.20 0.729
411.30 0.7294
411.40 0.7298
411.50 0.7302
411.60 0.7306
411.70 0.731
411.80 0.7314
411.90 0.7317
412.00 0.7321
412.10 0.7325
412.20 0.7329
412.30 0.7333
412.40 0.7337
412.50 0.7341
412.60 0.7345
412.70 0.7349
412.80 0.7353
412.90 0.7357
413.00 0.7361
413.10 0.7365
413.20 0.7368
413.30 0.7372
413.40 0.7376
413.50 0.738
413.60 0.7384
413.70 0.7388
413.80 0.7392
413.90 0.7396
414.00 0.74
414.10 0.7404
414.20 0.7407
414.30 0.7411
414.40 0.7415
414.50 0.7419
414.60 0.7423
414.70 0.7427
414.80 0.7431
414.90 0.7435
415.00 0.7438
415.10 0.7442
415.20 0.7446
415.30 0.745
415.40 0.7454
415.50 0.7458
415.60 0.7462
415.70 0.7466
415.80 0.7469
415.90 0.7473
416.00 0.7477
416.10 0.7481
416.20 0.7485
416.30 0.7489
416.40 0.7493
416.50 0.7496
416.60 0.75
416.70 0.7504
416.80 0.7508
416.90 0.7512
417.00 0.7516
417.10 0.7519
417.20 0.7523
417.30 0.7527
417.40 0.7531
417.50 0.7535
417.60 0.7539
417.70 0.7542
417.80 0.7546
417.90 0.755
418.00 0.7554
418.10 0.7558
418.20 0.7562
418.30 0.7565
418.40 0.7569
418.50 0.7573
418.60 0.7577
418.70 0.7581
418.80 0.7584
418.90 0.7588
419.00 0.7592
419.10 0.7596
419.20 0.76
419.30 0.7603
419.40 0.7607
419.50 0.7611
419.60 0.7615
419.70 0.7619
419.80 0.7622
419.90 0.7626
420.00 0.763
420.10 0.7634
420.20 0.7638
420.30 0.7641
420.40 0.7645
420.50 0.7649
420.60 0.7653
420.70 0.7656
420.80 0.766
420.90 0.7664
421.00 0.7668
421.10 0.7671
421.20 0.7675
421.30 0.7679
421.40 0.7683
421.50 0.7687
421.60 0.769
421.70 0.7694
421.80 0.7698
421.90 0.7702
422.00 0.7705
422.10 0.7709
422.20 0.7713
422.30 0.7717
422.40 0.772
422.50 0.7724
422.60 0.7728
422.70 0.7732
422.80 0.7735
422.90 0.7739
423.00 0.7743
423.10 0.7746
423.20 0.775
423.30 0.7754
423.40 0.7758
423.50 0.7761
423.60 0.7765
423.70 0.7769
423.80 0.7773
423.90 0.7776
424.00 0.778
424.10 0.7784
424.20 0.7787
424.30 0.7791
424.40 0.7795
424.50 0.7798
424.60 0.7802
424.70 0.7806
424.80 0.781
424.90 0.7813
425.00 0.7817
425.10 0.7821
425.20 0.7824
425.30 0.7828
425.40 0.7832
425.50 0.7835
425.60 0.7839
425.70 0.7843
425.80 0.7846
425.90 0.785
426.00 0.7854
426.10 0.7857
426.20 0.7861
426.30 0.7865
426.40 0.7869
426.50 0.7872
426.60 0.7876
426.70 0.7879
426.80 0.7883
426.90 0.7887
427.00 0.789
427.10 0.7894
427.20 0.7898
427.30 0.7901
427.40 0.7905
427.50 0.7909
427.60 0.7912
427.70 0.7916
427.80 0.792
427.90 0.7923
428.00 0.7927
428.10 0.793
428.20 0.7934
428.30 0.7938
428.40 0.7941
428.50 0.7945
428.60 0.7949
428.70 0.7952
428.80 0.7956
428.90 0.796
429.00 0.7963
429.10 0.7967
429.20 0.797
429.30 0.7974
429.40 0.7978
429.50 0.7981
429.60 0.7985
429.70 0.7988
429.80 0.7992
429.90 0.7996
430.00 0.7999
430.10 0.8003
430.20 0.8006
430.30 0.801
430.40 0.8014
430.50 0.8017
430.60 0.8021
430.70 0.8024
430.80 0.8028
430.90 0.8031
431.00 0.8035
431.10 0.8039
431.20 0.8042
431.30 0.8046
431.40 0.8049
431.50 0.8053
431.60 0.8056
431.70 0.806
431.80 0.8064
431.90 0.8067
432.00 0.8071
432.10 0.8074
432.20 0.8078
432.30 0.8081
432.40 0.8085
432.50 0.8088
432.60 0.8092
432.70 0.8095
432.80 0.8099
432.90 0.8103
433.00 0.8106
433.10 0.8109
433.20 0.8113
433.30 0.8116
433.40 0.812
433.50 0.8123
433.60 0.8127
433.70 0.813
433.80 0.8133
433.90 0.8136
434.00 0.8139
434.10 0.8143
434.20 0.8147
434.30 0.8151
434.40 0.8155
434.50 0.8158
434.60 0.8162
434.70 0.8166
434.80 0.8169
434.90 0.8173
435.00 0.8176
435.10 0.818
435.20 0.8183
435.30 0.8187
435.40 0.819
435.50 0.8194
435.60 0.8197
435.70 0.8201
435.80 0.8204
435.90 0.8208
436.00 0.8211
436.10 0.8215
436.20 0.8218
436.30 0.8222
436.40 0.8225
436.50 0.8229
436.60 0.8232
436.70 0.8236
436.80 0.8239
436.90 0.8243
437.00 0.8246
437.10 0.825
437.20 0.8253
437.30 0.8257
437.40 0.826
437.50 0.8263
437.60 0.8267
437.70 0.827
437.80 0.8274
437.90 0.8277
438.00 0.8281
438.10 0.8284
438.20 0.8288
438.30 0.8291
438.40 0.8294
438.50 0.8298
438.60 0.8301
438.70 0.8305
438.80 0.8308
438.90 0.8312
439.00 0.8315
439.10 0.8318
439.20 0.8322
439.30 0.8325
439.40 0.8329
439.50 0.8332
439.60 0.8335
439.70 0.8339
439.80 0.8342
439.90 0.8346
440.00 0.8349
440.10 0.8352
440.20 0.8356
440.30 0.8359
440.40 0.8363
440.50 0.8366
440.60 0.8369
440.70 0.8373
440.80 0.8376
440.90 0.8379
441.00 0.8383
441.10 0.8386
441.20 0.839
441.30 0.8393
441.40 0.8396
441.50 0.84
441.60 0.8403
441.70 0.8406
441.80 0.841
441.90 0.8413
442.00 0.8417
442.10 0.842
442.20 0.8423
442.30 0.8427
442.40 0.843
442.50 0.8433
442.60 0.8437
442.70 0.844
442.80 0.8443
442.90 0.8447
443.00 0.845
443.10 0.8453
443.20 0.8457
443.30 0.846
443.40 0.8463
443.50 0.8467
443.60 0.847
443.70 0.8473
443.80 0.8477
443.90 0.848
444.00 0.8483
444.10 0.8487
444.20 0.849
444.30 0.8493
444.40 0.8496
444.50 0.85
444.60 0.8503
444.70 0.8506
444.80 0.851
444.90 0.8513
445.00 0.8516
445.10 0.852
445.20 0.8523
445.30 0.8526
445.40 0.8529
445.50 0.8533
445.60 0.8536
445.70 0.8539
445.80 0.8543
445.90 0.8546
446.00 0.8549
446.10 0.8552
446.20 0.8556
446.30 0.8559
446.40 0.8562
446.50 0.8565
446.60 0.8569
446.70 0.8572
446.80 0.8575
446.90 0.8578
447.00 0.8582
447.10 0.8585
447.20 0.8588
447.30 0.8592
447.40 0.8595
447.50 0.8598
447.60 0.8601
447.70 0.8604
447.80 0.8607
447.90 0.8611
448.00 0.8614
448.10 0.8617
448.20 0.862
448.30 0.8623
448.40 0.8627
448.50 0.863
448.60 0.8633
448.70 0.8636
448.80 0.864
448.90 0.8643
449.00 0.8646
449.10 0.865
449.20 0.8653
449.30 0.8656
449.40 0.8659
449.50 0.8662
449.60 0.8666
449.70 0.8669
449.80 0.8672
449.90 0.8675
450.00 0.8678
450.10 0.8682
450.20 0.8685
450.30 0.8688
450.40 0.8691
450.50 0.8694
450.60 0.8697
450.70 0.87
450.80 0.8704
450.90 0.8707
451.00 0.871
451.10 0.8713
451.20 0.8717
451.30 0.8719
451.40 0.8723
451.50 0.8726
451.60 0.8729
451.70 0.8732
451.80 0.8735
451.90 0.8739
452.00 0.8741
452.10 0.8745
452.20 0.8748
452.30 0.8751
452.40 0.8754
452.50 0.8757
452.60 0.876
452.70 0.8763
452.80 0.8767
452.90 0.877
453.00 0.8773
453.10 0.8776
453.20 0.8779
453.30 0.8783
453.40 0.8786
453.50 0.8789
453.60 0.8792
453.70 0.8795
453.80 0.8798
453.90 0.8801
454.00 0.8804
454.10 0.8807
454.20 0.881
454.30 0.8814
454.40 0.8817
454.50 0.882
454.60 0.8823
454.70 0.8826
454.80 0.8829
454.90 0.8832
455.00 0.8835
455.10 0.8838
455.20 0.8841
455.30 0.8844
455.40 0.8847
455.50 0.885
455.60 0.8853
455.70 0.8856
455.80 0.8859
455.90 0.8862
456.00 0.8866
456.10 0.8869
456.20 0.8872
456.30 0.8875
456.40 0.8878
456.50 0.8881
456.60 0.8884
456.70 0.8887
456.80 0.889
456.90 0.8893
457.00 0.8896
457.10 0.8899
457.20 0.8902
457.30 0.8905
457.40 0.8908
457.50 0.8911
457.60 0.8914
457.70 0.8918
457.80 0.8921
457.90 0.8924
458.00 0.8927
458.10 0.893
458.20 0.8933
458.30 0.8936
458.40 0.8939
458.50 0.8942
458.60 0.8945
458.70 0.8948
458.80 0.8951
458.90 0.8954
459.00 0.8957
459.10 0.896
459.20 0.8963
459.30 0.8965
459.40 0.8968
459.50 0.8971
459.60 0.8975
459.70 0.8978
459.80 0.8981
459.90 0.8984
460.00 0.8987
460.10 0.899
460.20 0.8993
460.30 0.8995
460.40 0.8998
460.50 0.9001
460.60 0.9004
460.70 0.9007
460.80 0.901
460.90 0.9013
461.00 0.9016
461.10 0.9019
461.20 0.9022
461.30 0.9025
461.40 0.9028
461.50 0.9031
461.60 0.9034
461.70 0.9037
461.80 0.904
461.90 0.9043
462.00 0.9046
462.10 0.9048
462.20 0.9051
462.30 0.9054
462.40 0.9057
462.50 0.906
462.60 0.9063
462.70 0.9066
462.80 0.9069
462.90 0.9071
463.00 0.9074
463.10 0.9077
463.20 0.908
463.30 0.9083
463.40 0.9086
463.50 0.9089
463.60 0.9092
463.70 0.9095
463.80 0.9097
463.90 0.91
464.00 0.9103
464.10 0.9106
464.20 0.9109
464.30 0.9112
464.40 0.9115
464.50 0.9118
464.60 0.9121
464.70 0.9123
464.80 0.9126
464.90 0.9129
465.00 0.9132
465.10 0.9135
465.20 0.9138
465.30 0.9141
465.40 0.9144
465.50 0.9147
465.60 0.9149
465.70 0.9152
465.80 0.9155
465.90 0.9158
466.00 0.9161
466.10 0.9164
466.20 0.9167
466.30 0.917
466.40 0.9172
466.50 0.9175
466.60 0.9178
466.70 0.9181
466.80 0.9184
466.90 0.9187
467.00 0.9189
467.10 0.9192
467.20 0.9195
467.30 0.9198
467.40 0.92
467.50 0.9203
467.60 0.9206
467.70 0.9209
467.80 0.9212
467.90 0.9214
468.00 0.9217
468.10 0.922
468.20 0.9223
468.30 0.9225
468.40 0.9228
468.50 0.9231
468.60 0.9234
468.70 0.9237
468.80 0.924
468.90 0.9242
469.00 0.9245
469.10 0.9248
469.20 0.9251
469.30 0.9254
469.40 0.9256
469.50 0.9259
469.60 0.9262
469.70 0.9264
469.80 0.9267
469.90 0.927
470.00 0.9273
470.10 0.9275
470.20 0.9278
470.30 0.9281
470.40 0.9284
470.50 0.9286
470.60 0.9289
470.70 0.9292
470.80 0.9294
470.90 0.9297
471.00 0.93
471.10 0.9303
471.20 0.9305
471.30 0.9308
471.40 0.9311
471.50 0.9314
471.60 0.9316
471.70 0.9319
471.80 0.9322
471.90 0.9324
472.00 0.9327
472.10 0.933
472.20 0.9333
472.30 0.9335
472.40 0.9338
472.50 0.9341
472.60 0.9343
472.70 0.9346
472.80 0.9349
472.90 0.9351
473.00 0.9354
473.10 0.9357
473.20 0.936
473.30 0.9362
473.40 0.9365
473.50 0.9368
473.60 0.937
473.70 0.9373
473.80 0.9376
473.90 0.9378
474.00 0.9381
474.10 0.9383
474.20 0.9386
474.30 0.9389
474.40 0.9392
474.50 0.9394
474.60 0.9397
474.70 0.94
474.80 0.9402
474.90 0.9405
475.00 0.9408
475.10 0.9411
475.20 0.9413
475.30 0.9416
475.40 0.9418
475.50 0.9421
475.60 0.9424
475.70 0.9426
475.80 0.9429
475.90 0.9431
476.00 0.9434
476.10 0.9437
476.20 0.9439
476.30 0.9442
476.40 0.9445
476.50 0.9447
476.60 0.945
476.70 0.9452
476.80 0.9455
476.90 0.9458
477.00 0.946
477.10 0.9463
477.20 0.9466
477.30 0.9468
477.40 0.9471
477.50 0.9473
477.60 0.9476
477.70 0.9478
477.80 0.9481
477.90 0.9483
478.00 0.9486
478.10 0.9488
478.20 0.9491
478.30 0.9494
478.40 0.9496
478.50 0.9499
478.60 0.9501
478.70 0.9504
478.80 0.9507
478.90 0.9509
479.00 0.9512
479.10 0.9514
479.20 0.9517
479.30 0.9519
479.40 0.9522
479.50 0.9524
479.60 0.9527
479.70 0.9529
479.80 0.9532
479.90 0.9534
480.00 0.9537
480.10 0.9539
480.20 0.9542
480.30 0.9544
480.40 0.9547
480.50 0.955
480.60 0.9552
480.70 0.9555
480.80 0.9557
480.90 0.956
481.00 0.9563
481.10 0.9565
481.20 0.9568
481.30 0.957
481.40 0.9572
481.50 0.9575
481.60 0.9577
481.70 0.958
481.80 0.9582
481.90 0.9585
482.00 0.9587
482.10 0.9589
482.20 0.9592
482.30 0.9594
482.40 0.9597
482.50 0.9599
482.60 0.9602
482.70 0.9604
482.80 0.9607
482.90 0.9609
483.00 0.9612
483.10 0.9614
483.20 0.9616
483.30 0.9619
483.40 0.9621
483.50 0.9624
483.60 0.9626
483.70 0.9629
483.80 0.9631
483.90 0.9634
484.00 0.9636
484.10 0.9638
484.20 0.9641
484.30 0.9643
484.40 0.9646
484.50 0.9648
484.60 0.9651
484.70 0.9653
484.80 0.9656
484.90 0.9658
485.00 0.966
485.10 0.9663
485.20 0.9665
485.30 0.9667
485.40 0.9669
485.50 0.9671
485.60 0.9673
485.70 0.9674
485.80 0.9675
485.90 0.9676
486.00 0.9677
486.10 0.9677
486.20 0.968
486.30 0.9684
486.40 0.9689
486.50 0.9693
486.60 0.9696
486.70 0.9699
486.80 0.9702
486.90 0.9705
487.00 0.9707
487.10 0.971
487.20 0.9712
487.30 0.9715
487.40 0.9718
487.50 0.972
487.60 0.9723
487.70 0.9725
487.80 0.9728
487.90 0.973
488.00 0.9732
488.10 0.9735
488.20 0.9737
488.30 0.9739
488.40 0.9742
488.50 0.9744
488.60 0.9747
488.70 0.9749
488.80 0.9751
488.90 0.9754
489.00 0.9756
489.10 0.9758
489.20 0.9761
489.30 0.9763
489.40 0.9766
489.50 0.9768
489.60 0.977
489.70 0.9773
489.80 0.9775
489.90 0.9777
490.00 0.978
490.10 0.9782
490.20 0.9784
490.30 0.9786
490.40 0.9789
490.50 0.9791
490.60 0.9793
490.70 0.9795
490.80 0.9798
490.90 0.98
491.00 0.9802
491.10 0.9804
491.20 0.9807
491.30 0.9809
491.40 0.9811
491.50 0.9814
491.60 0.9816
491.70 0.9818
491.80 0.9821
491.90 0.9823
492.00 0.9825
492.10 0.9827
492.20 0.983
492.30 0.9832
492.40 0.9834
492.50 0.9837
492.60 0.9839
492.70 0.9841
492.80 0.9843
492.90 0.9846
493.00 0.9848
493.10 0.985
493.20 0.9852
493.30 0.9854
493.40 0.9857
493.50 0.9859
493.60 0.9861
493.70 0.9863
493.80 0.9866
493.90 0.9868
494.00 0.987
494.10 0.9872
494.20 0.9875
494.30 0.9877
494.40 0.9879
494.50 0.9881
494.60 0.9883
494.70 0.9886
494.80 0.9888
494.90 0.989
495.00 0.9892
495.10 0.9895
495.20 0.9897
495.30 0.9899
495.40 0.9901
495.50 0.9903
495.60 0.9906
495.70 0.9908
495.80 0.991
495.90 0.9912
496.00 0.9914
496.10 0.9916
496.20 0.9919
496.30 0.9921
496.40 0.9923
496.50 0.9925
496.60 0.9927
496.70 0.9929
496.80 0.9932
496.90 0.9934
497.00 0.9936
497.10 0.9938
497.20 0.994
497.30 0.9942
497.40 0.9944
497.50 0.9947
497.60 0.9949
497.70 0.9951
497.80 0.9953
497.90 0.9955
498.00 0.9957
498.10 0.9959
498.20 0.9962
498.30 0.9964
498.40 0.9966
498.50 0.9968
498.60 0.997
498.70 0.9972
498.80 0.9975
498.90 0.9977
499.00 0.9979
499.10 0.9981
499.20 0.9983
499.30 0.9985
499.40 0.9987
499.50 0.999
499.60 0.9992
499.70 0.9994
499.80 0.9996
499.90 0.9998
500.00 1
500.10 1
500.20 1
500.30 1.001
500.40 1.001
500.50 1.001
500.60 1.001
500.70 1.001
500.80 1.002
500.90 1.002
501.00 1.002
501.10 1.002
501.20 1.002
501.30 1.003
501.40 1.003
501.50 1.003
501.60 1.003
501.70 1.004
501.80 1.004
501.90 1.004
502.00 1.004
502.10 1.004
502.20 1.005
502.30 1.005
502.40 1.005
502.50 1.005
502.60 1.005
502.70 1.006
502.80 1.006
502.90 1.006
503.00 1.006
503.10 1.006
503.20 1.007
503.30 1.007
503.40 1.007
503.50 1.007
503.60 1.007
503.70 1.008
503.80 1.008
503.90 1.008
504.00 1.008
504.10 1.008
504.20 1.009
504.30 1.009
504.40 1.009
504.50 1.009
504.60 1.009
504.70 1.01
504.80 1.01
504.90 1.01
505.00 1.01
505.10 1.01
505.20 1.011
505.30 1.011
505.40 1.011
505.50 1.011
505.60 1.011
505.70 1.012
505.80 1.012
505.90 1.012
506.00 1.012
506.10 1.012
506.20 1.013
506.30 1.013
506.40 1.013
506.50 1.013
506.60 1.013
506.70 1.014
506.80 1.014
506.90 1.014
507.00 1.014
507.10 1.014
507.20 1.015
507.30 1.015
507.40 1.015
507.50 1.015
507.60 1.015
507.70 1.015
507.80 1.016
507.90 1.016
508.00 1.016
508.10 1.016
508.20 1.016
508.30 1.017
508.40 1.017
508.50 1.017
508.60 1.017
508.70 1.017
508.80 1.018
508.90 1.018
509.00 1.018
509.10 1.018
509.20 1.018
509.30 1.019
509.40 1.019
509.50 1.019
509.60 1.019
509.70 1.019
509.80 1.02
509.90 1.02
510.00 1.02
510.10 1.02
510.20 1.02
510.30 1.02
510.40 1.021
510.50 1.021
510.60 1.021
510.70 1.021
510.80 1.021
510.90 1.022
511.00 1.022
511.10 1.022
511.20 1.022
511.30 1.022
511.40 1.022
511.50 1.023
511.60 1.023
511.70 1.023
511.80 1.023
511.90 1.023
512.00 1.024
512.10 1.024
512.20 1.024
512.30 1.024
512.40 1.024
512.50 1.025
512.60 1.025
512.70 1.025
512.80 1.025
512.90 1.025
513.00 1.025
513.10 1.026
513.20 1.026
513.30 1.026
513.40 1.026
513.50 1.026
513.60 1.027
513.70 1.027
513.80 1.027
513.90 1.027
514.00 1.027
514.10 1.027
514.20 1.028
514.30 1.028
514.40 1.028
514.50 1.028
514.60 1.028
514.70 1.028
514.80 1.029
514.90 1.029
515.00 1.029
515.10 1.029
515.20 1.029
515.30 1.03
515.40 1.03
515.50 1.03
515.60 1.03
515.70 1.03
515.80 1.03
515.90 1.031
516.00 1.031
516.10 1.031
516.20 1.031
516.30 1.031
516.40 1.032
516.50 1.032
516.60 1.032
516.70 1.032
516.80 1.032
516.90 1.032
517.00 1.033
517.10 1.033
517.20 1.033
517.30 1.033
517.40 1.033
517.50 1.033
517.60 1.034
517.70 1.034
517.80 1.034
517.90 1.034
518.00 1.034
518.10 1.034
518.20 1.035
518.30 1.035
518.40 1.035
518.50 1.035
518.60 1.035
518.70 1.035
518.80 1.036
518.90 1.036
519.00 1.036
519.10 1.036
519.20 1.036
519.30 1.036
519.40 1.037
519.50 1.037
519.60 1.037
519.70 1.037
519.80 1.037
519.90 1.037
520.00 1.038
520.10 1.038
520.20 1.038
520.30 1.038
520.40 1.038
520.50 1.038
520.60 1.039
520.70 1.039
520.80 1.039
520.90 1.039
521.00 1.039
521.10 1.039
521.20 1.04
521.30 1.04
521.40 1.04
521.50 1.04
521.60 1.04
521.70 1.04
521.80 1.041
521.90 1.041
522.00 1.041
522.10 1.041
522.20 1.041
522.30 1.041
522.40 1.042
522.50 1.042
522.60 1.042
522.70 1.042
522.80 1.042
522.90 1.042
523.00 1.043
523.10 1.043
523.20 1.043
523.30 1.043
523.40 1.043
523.50 1.043
523.60 1.044
523.70 1.044
523.80 1.044
523.90 1.044
524.00 1.044
524.10 1.044
524.20 1.044
524.30 1.045
524.40 1.045
524.50 1.045
524.60 1.045
524.70 1.045
524.80 1.045
524.90 1.046
525.00 1.046
525.10 1.046
525.20 1.046
525.30 1.046
525.40 1.046
525.50 1.047
525.60 1.047
525.70 1.047
525.80 1.047
525.90 1.047
526.00 1.047
526.10 1.047
526.20 1.048
526.30 1.048
526.40 1.048
526.50 1.048
526.60 1.048
526.70 1.048
526.80 1.049
526.90 1.049
527.00 1.049
527.10 1.049
527.20 1.049
527.30 1.049
527.40 1.049
527.50 1.05
527.60 1.05
527.70 1.05
527.80 1.05
527.90 1.05
528.00 1.05
528.10 1.051
528.20 1.051
528.30 1.051
528.40 1.051
528.50 1.051
528.60 1.051
528.70 1.051
528.80 1.052
528.90 1.052
529.00 1.052
529.10 1.052
529.20 1.052
529.30 1.052
529.40 1.052
529.50 1.053
529.60 1.053
529.70 1.053
529.80 1.053
529.90 1.053
530.00 1.053
530.10 1.053
530.20 1.054
530.30 1.054
530.40 1.054
530.50 1.054
530.60 1.054
530.70 1.054
530.80 1.055
530.90 1.055
531.00 1.055
531.10 1.055
531.20 1.055
531.30 1.055
531.40 1.055
531.50 1.056
531.60 1.056
531.70 1.056
531.80 1.056
531.90 1.056
532.00 1.056
532.10 1.056
532.20 1.057
532.30 1.057
532.40 1.057
532.50 1.057
532.60 1.057
532.70 1.057
532.80 1.057
532.90 1.058
533.00 1.058
533.10 1.058
533.20 1.058
533.30 1.058
533.40 1.058
533.50 1.058
533.60 1.059
533.70 1.059
533.80 1.059
533.90 1.059
534.00 1.059
534.10 1.059
534.20 1.059
534.30 1.059
534.40 1.06
534.50 1.06
534.60 1.06
534.70 1.06
534.80 1.06
534.90 1.06
535.00 1.06
535.10 1.061
535.20 1.061
535.30 1.061
535.40 1.061
535.50 1.061
535.60 1.061
535.70 1.061
535.80 1.062
535.90 1.062
536.00 1.062
536.10 1.062
536.20 1.062
536.30 1.062
536.40 1.062
536.50 1.062
536.60 1.063
536.70 1.063
536.80 1.063
536.90 1.063
537.00 1.063
537.10 1.063
537.20 1.063
537.30 1.064
537.40 1.064
537.50 1.064
537.60 1.064
537.70 1.064
537.80 1.064
537.90 1.064
538.00 1.064
538.10 1.065
538.20 1.065
538.30 1.065
538.40 1.065
538.50 1.065
538.60 1.065
538.70 1.065
538.80 1.066
538.90 1.066
539.00 1.066
539.10 1.066
539.20 1.066
539.30 1.066
539.40 1.066
539.50 1.066
539.60 1.067
539.70 1.067
539.80 1.067
539.90 1.067
540.00 1.067
540.10 1.067
540.20 1.067
540.30 1.067
540.40 1.068
540.50 1.068
540.60 1.068
540.70 1.068
540.80 1.068
540.90 1.068
541.00 1.068
541.10 1.068
541.20 1.069
541.30 1.069
541.40 1.069
541.50 1.069
541.60 1.069
541.70 1.069
541.80 1.069
541.90 1.069
542.00 1.07
542.10 1.07
542.20 1.07
542.30 1.07
542.40 1.07
542.50 1.07
542.60 1.07
542.70 1.07
542.80 1.071
542.90 1.071
543.00 1.071
543.10 1.071
543.20 1.071
543.30 1.071
543.40 1.071
543.50 1.071
543.60 1.072
543.70 1.072
543.80 1.072
543.90 1.072
544.00 1.072
544.10 1.072
544.20 1.072
544.30 1.072
544.40 1.072
544.50 1.073
544.60 1.073
544.70 1.073
544.80 1.073
544.90 1.073
545.00 1.073
545.10 1.073
545.20 1.073
545.30 1.074
545.40 1.074
545.50 1.074
545.60 1.074
545.70 1.074
545.80 1.074
545.90 1.074
546.00 1.074
546.10 1.074
546.20 1.075
546.30 1.075
546.40 1.075
546.50 1.075
546.60 1.075
546.70 1.075
546.80 1.075
546.90 1.075
547.00 1.075
547.10 1.076
547.20 1.076
547.30 1.076
547.40 1.076
547.50 1.076
547.60 1.076
547.70 1.076
547.80 1.076
547.90 1.077
548.00 1.077
548.10 1.077
548.20 1.077
548.30 1.077
548.40 1.077
548.50 1.077
548.60 1.077
548.70 1.077
548.80 1.078
548.90 1.078
549.00 1.078
549.10 1.078
549.20 1.078
549.30 1.078
549.40 1.078
549.50 1.078
549.60 1.078
549.70 1.079
549.80 1.079
549.90 1.079
550.00 1.079
550.10 1.079
550.20 1.079
550.30 1.079
550.40 1.079
550.50 1.079
550.60 1.079
550.70 1.08
550.80 1.08
550.90 1.08
551.00 1.08
551.10 1.08
551.20 1.08
551.30 1.08
551.40 1.08
551.50 1.08
551.60 1.081
551.70 1.081
551.80 1.081
551.90 1.081
552.00 1.081
552.10 1.081
552.20 1.081
552.30 1.081
552.40 1.081
552.50 1.082
552.60 1.082
552.70 1.082
552.80 1.082
552.90 1.082
553.00 1.082
553.10 1.082
553.20 1.082
553.30 1.082
553.40 1.082
553.50 1.083
553.60 1.083
553.70 1.083
553.80 1.083
553.90 1.083
554.00 1.083
554.10 1.083
554.20 1.083
554.30 1.083
554.40 1.083
554.50 1.084
554.60 1.084
554.70 1.084
554.80 1.084
554.90 1.084
555.00 1.084
555.10 1.084
555.20 1.084
555.30 1.084
555.40 1.084
555.50 1.085
555.60 1.085
555.70 1.085
555.80 1.085
555.90 1.085
556.00 1.085
556.10 1.085
556.20 1.085
556.30 1.085
556.40 1.085
556.50 1.086
556.60 1.086
556.70 1.086
556.80 1.086
556.90 1.086
557.00 1.086
557.10 1.086
557.20 1.086
557.30 1.086
557.40 1.086
557.50 1.086
557.60 1.087
557.70 1.087
557.80 1.087
557.90 1.087
558.00 1.087
558.10 1.087
558.20 1.087
558.30 1.087
558.40 1.087
558.50 1.087
558.60 1.087
558.70 1.088
558.80 1.088
558.90 1.088
559.00 1.088
559.10 1.088
559.20 1.088
559.30 1.088
559.40 1.088
559.50 1.088
559.60 1.088
559.70 1.088
559.80 1.089
559.90 1.089
560.00 1.089
560.10 1.089
560.20 1.089
560.30 1.089
560.40 1.089
560.50 1.089
560.60 1.089
560.70 1.089
560.80 1.089
560.90 1.09
561.00 1.09
561.10 1.09
561.20 1.09
561.30 1.09
561.40 1.09
561.50 1.09
561.60 1.09
561.70 1.09
561.80 1.09
561.90 1.09
562.00 1.091
562.10 1.091
562.20 1.091
562.30 1.091
562.40 1.091
562.50 1.091
562.60 1.091
562.70 1.091
562.80 1.091
562.90 1.091
563.00 1.091
563.10 1.091
563.20 1.092
563.30 1.092
563.40 1.092
563.50 1.092
563.60 1.092
563.70 1.092
563.80 1.092
563.90 1.092
564.00 1.092
564.10 1.092
564.20 1.092
564.30 1.092
564.40 1.093
564.50 1.093
564.60 1.093
564.70 1.093
564.80 1.093
564.90 1.093
565.00 1.093
565.10 1.093
565.20 1.093
565.30 1.093
565.40 1.093
565.50 1.093
565.60 1.094
565.70 1.094
565.80 1.094
565.90 1.094
566.00 1.094
566.10 1.094
566.20 1.094
566.30 1.094
566.40 1.094
566.50 1.094
566.60 1.094
566.70 1.094
566.80 1.095
566.90 1.095
567.00 1.095
567.10 1.095
567.20 1.095
567.30 1.095
567.40 1.095
567.50 1.095
567.60 1.095
567.70 1.095
567.80 1.095
567.90 1.095
568.00 1.095
568.10 1.096
568.20 1.096
568.30 1.096
568.40 1.096
568.50 1.096
568.60 1.096
568.70 1.096
568.80 1.096
568.90 1.096
569.00 1.096
569.10 1.096
569.20 1.096
569.30 1.096
569.40 1.096
569.50 1.097
569.60 1.097
569.70 1.097
569.80 1.097
569.90 1.097
570.00 1.097
570.10 1.097
570.20 1.097
570.30 1.097
570.40 1.097
570.50 1.097
570.60 1.097
570.70 1.097
570.80 1.097
570.90 1.098
571.00 1.098
571.10 1.098
571.20 1.098
571.30 1.098
571.40 1.098
571.50 1.098
571.60 1.098
571.70 1.098
571.80 1.098
571.90 1.098
572.00 1.098
572.10 1.098
572.20 1.098
572.30 1.099
572.40 1.099
572.50 1.099
572.60 1.099
572.70 1.099
572.80 1.099
572.90 1.099
573.00 1.099
573.10 1.099
573.20 1.099
573.30 1.099
573.40 1.099
573.50 1.099
573.60 1.099
573.70 1.099
573.80 1.1
573.90 1.1
574.00 1.1
574.10 1.1
574.20 1.1
574.30 1.1
574.40 1.1
574.50 1.1
574.60 1.1
574.70 1.1
574.80 1.1
574.90 1.1
575.00 1.1
575.10 1.1
575.20 1.1
575.30 1.101
575.40 1.101
575.50 1.101
575.60 1.101
575.70 1.101
575.80 1.101
575.90 1.101
576.00 1.101
576.10 1.101
576.20 1.101
576.30 1.101
576.40 1.101
576.50 1.101
576.60 1.101
576.70 1.101
576.80 1.101
576.90 1.102
577.00 1.102
577.10 1.102
577.20 1.102
577.30 1.102
577.40 1.102
577.50 1.102
577.60 1.102
577.70 1.102
577.80 1.102
577.90 1.102
578.00 1.102
578.10 1.102
578.20 1.102
578.30 1.102
578.40 1.102
578.50 1.103
578.60 1.103
578.70 1.103
578.80 1.103
578.90 1.103
579.00 1.103
579.10 1.103
579.20 1.103
579.30 1.103
579.40 1.103
579.50 1.103
579.60 1.103
579.70 1.103
579.80 1.103
579.90 1.103
580.00 1.103
580.10 1.103
580.20 1.103
580.30 1.104
580.40 1.104
580.50 1.104
580.60 1.104
580.70 1.104
580.80 1.104
580.90 1.104
581.00 1.104
581.10 1.104
581.20 1.104
581.30 1.104
581.40 1.104
581.50 1.104
581.60 1.104
581.70 1.104
581.80 1.104
581.90 1.104
582.00 1.104
582.10 1.105
582.20 1.105
582.30 1.105
582.40 1.105
582.50 1.105
582.60 1.105
582.70 1.105
582.80 1.105
582.90 1.105
583.00 1.105
583.10 1.105
583.20 1.105
583.30 1.105
583.40 1.105
583.50 1.105
583.60 1.105
583.70 1.105
583.80 1.105
583.90 1.105
584.00 1.105
584.10 1.106
584.20 1.106
584.30 1.106
584.40 1.106
584.50 1.106
584.60 1.106
584.70 1.106
584.80 1.106
584.90 1.106
585.00 1.106
585.10 1.106
585.20 1.106
585.30 1.106
585.40 1.106
585.50 1.106
585.60 1.106
585.70 1.106
585.80 1.106
585.90 1.106
586.00 1.106
586.10 1.106
586.20 1.107
586.30 1.107
586.40 1.107
586.50 1.107
586.60 1.107
586.70 1.107
586.80 1.107
586.90 1.107
587.00 1.107
587.10 1.107
587.20 1.107
587.30 1.107
587.40 1.107
587.50 1.107
587.60 1.107
587.70 1.107
587.80 1.107
587.90 1.107
588.00 1.107
588.10 1.107
588.20 1.107
588.30 1.108
588.40 1.108
588.50 1.108
588.60 1.108
588.70 1.108
588.80 1.108
588.90 1.108
589.00 1.108
589.10 1.108
589.20 1.108
589.30 1.108
589.40 1.108
589.50 1.108
589.60 1.108
589.70 1.108
589.80 1.108
589.90 1.108
590.00 1.108
590.10 1.108
590.20 1.108
590.30 1.108
590.40 1.108
590.50 1.108
590.60 1.108
590.70 1.108
590.80 1.109
590.90 1.109
591.00 1.109
591.10 1.109
591.20 1.109
591.30 1.109
591.40 1.109
591.50 1.109
591.60 1.109
591.70 1.109
591.80 1.109
591.90 1.109
592.00 1.109
592.10 1.109
592.20 1.109
592.30 1.109
592.40 1.109
592.50 1.109
592.60 1.109
592.70 1.109
592.80 1.109
592.90 1.109
593.00 1.109
593.10 1.109
593.20 1.109
593.30 1.109
593.40 1.11
593.50 1.11
593.60 1.11
593.70 1.11
593.80 1.11
593.90 1.11
594.00 1.11
594.10 1.11
594.20 1.11
594.30 1.11
594.40 1.11
594.50 1.11
594.60 1.11
594.70 1.11
594.80 1.11
594.90 1.11
595.00 1.11
595.10 1.11
595.20 1.11
595.30 1.11
595.40 1.11
595.50 1.11
595.60 1.11
595.70 1.11
595.80 1.11
595.90 1.11
596.00 1.11
596.10 1.11
596.20 1.11
596.30 1.11
596.40 1.111
596.50 1.111
596.60 1.111
596.70 1.111
596.80 1.111
596.90 1.111
597.00 1.111
597.10 1.111
597.20 1.111
597.30 1.111
597.40 1.111
597.50 1.111
597.60 1.111
597.70 1.111
597.80 1.111
597.90 1.111
598.00 1.111
598.10 1.111
598.20 1.111
598.30 1.111
598.40 1.111
598.50 1.111
598.60 1.111
598.70 1.111
598.80 1.111
598.90 1.111
599.00 1.111
599.10 1.111
599.20 1.111
599.30 1.111
599.40 1.111
599.50 1.111
599.60 1.111
599.70 1.111
599.80 1.111
599.90 1.112
600.00 1.112
600.10 1.112
600.20 1.112
600.30 1.112
600.40 1.112
600.50 1.112
600.60 1.112
600.70 1.112
600.80 1.112
600.90 1.112
601.00 1.112
601.10 1.112
601.20 1.112
601.30 1.112
601.40 1.112
601.50 1.112
601.60 1.112
601.70 1.112
601.80 1.112
601.90 1.112
602.00 1.112
602.10 1.112
602.20 1.112
602.30 1.112
602.40 1.112
602.50 1.112
602.60 1.112
602.70 1.112
602.80 1.112
602.90 1.112
603.00 1.112
603.10 1.112
603.20 1.112
603.30 1.112
603.40 1.112
603.50 1.112
603.60 1.112
603.70 1.112
603.80 1.112
603.90 1.112
604.00 1.112
604.10 1.113
604.20 1.113
604.30 1.113
604.40 1.113
604.50 1.113
604.60 1.113
604.70 1.113
604.80 1.113
604.90 1.113
605.00 1.113
605.10 1.113
605.20 1.113
605.30 1.113
605.40 1.113
605.50 1.113
605.60 1.113
605.70 1.113
605.80 1.113
605.90 1.113
606.00 1.113
606.10 1.113
606.20 1.113
606.30 1.113
606.40 1.113
606.50 1.113
606.60 1.113
606.70 1.113
606.80 1.113
606.90 1.113
607.00 1.113
607.10 1.113
607.20 1.113
607.30 1.113
607.40 1.113
607.50 1.113
607.60 1.113
607.70 1.113
607.80 1.113
607.90 1.113
608.00 1.113
608.10 1.113
608.20 1.113
608.30 1.113
608.40 1.113
608.50 1.113
608.60 1.113
608.70 1.113
608.80 1.113
608.90 1.113
609.00 1.113
609.10 1.113
609.20 1.113
609.30 1.113
609.40 1.113
609.50 1.113
609.60 1.113
609.70 1.113
609.80 1.113
609.90 1.113
610.00 1.113
610.10 1.113
610.20 1.113
610.30 1.113
610.40 1.113
610.50 1.113
610.60 1.114
610.70 1.114
610.80 1.114
610.90 1.114
611.00 1.114
611.10 1.114
611.20 1.114
611.30 1.114
611.40 1.114
611.50 1.114
611.60 1.114
611.70 1.114
611.80 1.114
611.90 1.114
612.00 1.114
612.10 1.114
612.20 1.114
612.30 1.114
612.40 1.114
612.50 1.114
612.60 1.114
612.70 1.114
612.80 1.114
612.90 1.114
613.00 1.114
613.10 1.114
613.20 1.114
613.30 1.114
613.40 1.114
613.50 1.114
613.60 1.114
613.70 1.114
613.80 1.114
613.90 1.114
614.00 1.114
614.10 1.114
614.20 1.114
614.30 1.114
614.40 1.114
614.50 1.114
614.60 1.114
614.70 1.114
614.80 1.114
614.90 1.114
615.00 1.114
615.10 1.114
615.20 1.114
615.30 1.114
615.40 1.114
615.50 1.114
615.60 1.114
615.70 1.114
615.80 1.114
615.90 1.114
616.00 1.114
616.10 1.114
616.20 1.114
616.30 1.114
616.40 1.114
616.50 1.114
616.60 1.114
616.70 1.114
616.80 1.114
616.90 1.114
617.00 1.114
617.10 1.114
617.20 1.114
617.30 1.114
617.40 1.114
617.50 1.114
617.60 1.114
617.70 1.114
617.80 1.114
617.90 1.114
618.00 1.114
618.10 1.114
618.20 1.114
618.30 1.114
618.40 1.114
618.50 1.114
618.60 1.114
618.70 1.114
618.80 1.114
618.90 1.114
619.00 1.114
619.10 1.114
619.20 1.114
619.30 1.114
619.40 1.114
619.50 1.114
619.60 1.114
619.70 1.114
619.80 1.114
619.90 1.114
620.00 1.114
620.10 1.114
620.20 1.114
620.30 1.114
620.40 1.114
620.50 1.114
620.60 1.114
620.70 1.114
620.80 1.114
620.90 1.114
621.00 1.114
621.10 1.114
621.20 1.114
621.30 1.114
621.40 1.114
621.50 1.114
621.60 1.114
621.70 1.114
621.80 1.114
621.90 1.114
622.00 1.114
622.10 1.114
622.20 1.114
622.30 1.114
622.40 1.114
622.50 1.114
622.60 1.114
622.70 1.114
622.80 1.114
622.90 1.114
623.00 1.114
623.10 1.114
623.20 1.114
623.30 1.114
623.40 1.114
623.50 1.114
623.60 1.114
623.70 1.114
623.80 1.114
623.90 1.114
624.00 1.114
624.10 1.114
624.20 1.114
624.30 1.114
624.40 1.114
624.50 1.114
624.60 1.114
624.70 1.114
624.80 1.114
624.90 1.114
625.00 1.114
625.10 1.114
625.20 1.114
625.30 1.114
625.40 1.114
625.50 1.114
625.60 1.114
625.70 1.114
625.80 1.114
625.90 1.114
626.00 1.114
626.10 1.114
626.20 1.114
626.30 1.114
626.40 1.114
626.50 1.114
626.60 1.114
626.70 1.114
626.80 1.114
626.90 1.114
627.00 1.114
627.10 1.114
627.20 1.114
627.30 1.114
627.40 1.114
627.50 1.114
627.60 1.114
627.70 1.113
627.80 1.113
627.90 1.113
628.00 1.113
628.10 1.113
628.20 1.113
628.30 1.113
628.40 1.113
628.50 1.113
628.60 1.113
628.70 1.113
628.80 1.113
628.90 1.113
629.00 1.113
629.10 1.113
629.20 1.113
629.30 1.113
629.40 1.113
629.50 1.113
629.60 1.113
629.70 1.113
629.80 1.113
629.90 1.113
630.00 1.113
630.10 1.113
630.20 1.113
630.30 1.113
630.40 1.113
630.50 1.113
630.60 1.113
630.70 1.113
630.80 1.113
630.90 1.113
631.00 1.113
631.10 1.113
631.20 1.113
631.30 1.113
631.40 1.113
631.50 1.113
631.60 1.113
631.70 1.113
631.80 1.113
631.90 1.113
632.00 1.113
632.10 1.113
632.20 1.113
632.30 1.113
632.40 1.113
632.50 1.113
632.60 1.113
632.70 1.113
632.80 1.113
632.90 1.113
633.00 1.113
633.10 1.113
633.20 1.113
633.30 1.113
633.40 1.113
633.50 1.113
633.60 1.113
633.70 1.113
633.80 1.113
633.90 1.113
634.00 1.113
634.10 1.113
634.20 1.113
634.30 1.113
634.40 1.113
634.50 1.113
634.60 1.112
634.70 1.112
634.80 1.112
634.90 1.112
635.00 1.112
635.10 1.112
635.20 1.112
635.30 1.112
635.40 1.112
635.50 1.112
635.60 1.112
635.70 1.112
635.80 1.112
635.90 1.112
636.00 1.112
636.10 1.112
636.20 1.112
636.30 1.112
636.40 1.112
636.50 1.112
636.60 1.112
636.70 1.112
636.80 1.112
636.90 1.112
637.00 1.112
637.10 1.112
637.20 1.112
637.30 1.112
637.40 1.112
637.50 1.112
637.60 1.112
637.70 1.112
637.80 1.112
637.90 1.112
638.00 1.112
638.10 1.112
638.20 1.112
638.30 1.112
638.40 1.112
638.50 1.112
638.60 1.112
638.70 1.112
638.80 1.112
638.90 1.112
639.00 1.112
639.10 1.112
639.20 1.111
639.30 1.111
639.40 1.111
639.50 1.111
639.60 1.111
639.70 1.111
639.80 1.111
639.90 1.111
640.00 1.111
640.10 1.111
640.20 1.111
640.30 1.111
640.40 1.111
640.50 1.111
640.60 1.111
640.70 1.111
640.80 1.111
640.90 1.111
641.00 1.111
641.10 1.111
641.20 1.111
641.30 1.111
641.40 1.111
641.50 1.111
641.60 1.111
641.70 1.111
641.80 1.111
641.90 1.111
642.00 1.111
642.10 1.111
642.20 1.111
642.30 1.111
642.40 1.111
642.50 1.111
642.60 1.111
642.70 1.111
642.80 1.111
642.90 1.111
643.00 1.111
643.10 1.11
643.20 1.11
643.30 1.11
643.40 1.11
643.50 1.11
643.60 1.11
643.70 1.11
643.80 1.11
643.90 1.11
644.00 1.11
644.10 1.11
644.20 1.11
644.30 1.11
644.40 1.11
644.50 1.11
644.60 1.11
644.70 1.11
644.80 1.11
644.90 1.11
645.00 1.11
645.10 1.11
645.20 1.11
645.30 1.11
645.40 1.11
645.50 1.11
645.60 1.11
645.70 1.11
645.80 1.11
645.90 1.11
646.00 1.11
646.10 1.11
646.20 1.11
646.30 1.11
646.40 1.109
646.50 1.109
646.60 1.109
646.70 1.109
646.80 1.109
646.90 1.109
647.00 1.109
647.10 1.109
647.20 1.109
647.30 1.109
647.40 1.109
647.50 1.109
647.60 1.109
647.70 1.109
647.80 1.109
647.90 1.109
648.00 1.109
648.10 1.109
648.20 1.109
648.30 1.109
648.40 1.109
648.50 1.109
648.60 1.109
648.70 1.109
648.80 1.109
648.90 1.109
649.00 1.109
649.10 1.109
649.20 1.109
649.30 1.108
649.40 1.108
649.50 1.108
649.60 1.108
649.70 1.108
649.80 1.108
649.90 1.108
650.00 1.108
650.10 1.108
650.20 1.108
650.30 1.108
650.40 1.108
650.50 1.108
650.60 1.108
650.70 1.108
650.80 1.108
650.90 1.108
651.00 1.108
651.10 1.108
651.20 1.108
651.30 1.108
651.40 1.108
651.50 1.108
651.60 1.108
651.70 1.108
651.80 1.108
651.90 1.108
652.00 1.107
652.10 1.107
652.20 1.107
652.30 1.107
652.40 1.107
652.50 1.107
652.60 1.107
652.70 1.107
652.80 1.107
652.90 1.107
653.00 1.107
653.10 1.107
653.20 1.107
653.30 1.107
653.40 1.107
653.50 1.107
653.60 1.107
653.70 1.107
653.80 1.107
653.90 1.107
654.00 1.107
654.10 1.106
654.20 1.106
654.30 1.106
654.40 1.106
654.50 1.106
654.60 1.106
654.70 1.106
654.80 1.106
654.90 1.106
655.00 1.106
655.10 1.106
655.20 1.105
655.30 1.105
655.40 1.105
655.50 1.105
655.60 1.105
655.70 1.104
655.80 1.104
655.90 1.103
656.00 1.103
656.10 1.102
656.20 1.101
656.30 1.101
656.40 1.101
656.50 1.102
656.60 1.103
656.70 1.103
656.80 1.104
656.90 1.104
657.00 1.104
657.10 1.104
657.20 1.104
657.30 1.105
657.40 1.105
657.50 1.105
657.60 1.105
657.70 1.105
657.80 1.105
657.90 1.105
658.00 1.105
658.10 1.105
658.20 1.105
658.30 1.105
658.40 1.105
658.50 1.105
658.60 1.105
658.70 1.105
658.80 1.105
658.90 1.105
659.00 1.104
659.10 1.104
659.20 1.104
659.30 1.104
659.40 1.104
659.50 1.104
659.60 1.104
659.70 1.104
659.80 1.104
659.90 1.104
660.00 1.104
660.10 1.104
660.20 1.104
660.30 1.104
660.40 1.104
660.50 1.104
660.60 1.104
660.70 1.104
660.80 1.104
660.90 1.104
661.00 1.104
661.10 1.104
661.20 1.104
661.30 1.104
661.40 1.104
661.50 1.103
661.60 1.103
661.70 1.103
661.80 1.103
661.90 1.103
662.00 1.103
662.10 1.103
662.20 1.103
662.30 1.103
662.40 1.103
662.50 1.103
662.60 1.103
662.70 1.103
662.80 1.103
662.90 1.103
663.00 1.103
663.10 1.103
663.20 1.103
663.30 1.103
663.40 1.103
663.50 1.103
663.60 1.103
663.70 1.102
663.80 1.102
663.90 1.102
664.00 1.102
664.10 1.102
664.20 1.102
664.30 1.102
664.40 1.102
664.50 1.102
664.60 1.102
664.70 1.102
664.80 1.102
664.90 1.102
665.00 1.102
665.10 1.102
665.20 1.102
665.30 1.102
665.40 1.102
665.50 1.102
665.60 1.101
665.70 1.101
665.80 1.101
665.90 1.101
666.00 1.101
666.10 1.101
666.20 1.101
666.30 1.101
666.40 1.101
666.50 1.101
666.60 1.101
666.70 1.101
666.80 1.101
666.90 1.101
667.00 1.101
667.10 1.101
667.20 1.101
667.30 1.101
667.40 1.101
667.50 1.101
667.60 1.1
667.70 1.1
667.80 1.1
667.90 1.1
668.00 1.1
668.10 1.1
668.20 1.1
668.30 1.1
668.40 1.1
668.50 1.1
668.60 1.1
668.70 1.1
668.80 1.1
668.90 1.1
669.00 1.1
669.10 1.1
669.20 1.1
669.30 1.1
669.40 1.1
669.50 1.099
669.60 1.099
669.70 1.099
669.80 1.099
669.90 1.099
670.00 1.099
670.10 1.099
670.20 1.099
670.30 1.099
670.40 1.099
670.50 1.099
670.60 1.099
670.70 1.099
670.80 1.099
670.90 1.099
671.00 1.099
671.10 1.099
671.20 1.099
671.30 1.098
671.40 1.098
671.50 1.098
671.60 1.098
671.70 1.098
671.80 1.098
671.90 1.098
672.00 1.098
672.10 1.098
672.20 1.098
672.30 1.098
672.40 1.098
672.50 1.098
672.60 1.098
672.70 1.098
672.80 1.098
672.90 1.098
673.00 1.098
673.10 1.097
673.20 1.097
673.30 1.097
673.40 1.097
673.50 1.097
673.60 1.097
673.70 1.097
673.80 1.097
673.90 1.097
674.00 1.097
674.10 1.097
674.20 1.097
674.30 1.097
674.40 1.097
674.50 1.097
674.60 1.097
674.70 1.097
674.80 1.096
674.90 1.096
675.00 1.096
675.10 1.096
675.20 1.096
675.30 1.096
675.40 1.096
675.50 1.096
675.60 1.096
675.70 1.096
675.80 1.096
675.90 1.096
676.00 1.096
676.10 1.096
676.20 1.096
676.30 1.096
676.40 1.096
676.50 1.095
676.60 1.095
676.70 1.095
676.80 1.095
676.90 1.095
677.00 1.095
677.10 1.095
677.20 1.095
677.30 1.095
677.40 1.095
677.50 1.095
677.60 1.095
677.70 1.095
677.80 1.095
677.90 1.095
678.00 1.095
678.10 1.095
678.20 1.094
678.30 1.094
678.40 1.094
678.50 1.094
678.60 1.094
678.70 1.094
678.80 1.094
678.90 1.094
679.00 1.094
679.10 1.094
679.20 1.094
679.30 1.094
679.40 1.094
679.50 1.094
679.60 1.094
679.70 1.093
679.80 1.093
679.90 1.093
680.00 1.093
680.10 1.093
680.20 1.093
680.30 1.093
680.40 1.093
680.50 1.093
680.60 1.093
680.70 1.093
680.80 1.093
680.90 1.093
681.00 1.093
681.10 1.093
681.20 1.093
681.30 1.092
681.40 1.092
681.50 1.092
681.60 1.092
681.70 1.092
681.80 1.092
681.90 1.092
682.00 1.092
682.10 1.092
682.20 1.092
682.30 1.092
682.40 1.092
682.50 1.092
682.60 1.092
682.70 1.092
682.80 1.092
682.90 1.091
683.00 1.091
683.10 1.091
683.20 1.091
683.30 1.091
683.40 1.091
683.50 1.091
683.60 1.091
683.70 1.091
683.80 1.091
683.90 1.091
684.00 1.091
684.10 1.091
684.20 1.091
684.30 1.091
684.40 1.09
684.50 1.09
684.60 1.09
684.70 1.09
684.80 1.09
684.90 1.09
685.00 1.09
685.10 1.09
685.20 1.09
685.30 1.09
685.40 1.09
685.50 1.09
685.60 1.09
685.70 1.09
685.80 1.09
685.90 1.089
686.00 1.089
686.10 1.089
686.20 1.089
686.30 1.089
686.40 1.089
686.50 1.089
686.60 1.089
686.70 1.089
686.80 1.089
686.90 1.089
687.00 1.089
687.10 1.089
687.20 1.089
687.30 1.088
687.40 1.088
687.50 1.088
687.60 1.088
687.70 1.088
687.80 1.088
687.90 1.088
688.00 1.088
688.10 1.088
688.20 1.088
688.30 1.088
688.40 1.088
688.50 1.088
688.60 1.088
688.70 1.088
688.80 1.087
688.90 1.087
689.00 1.087
689.10 1.087
689.20 1.087
689.30 1.087
689.40 1.087
689.50 1.087
689.60 1.087
689.70 1.087
689.80 1.087
689.90 1.087
690.00 1.087
690.10 1.087
690.20 1.086
690.30 1.086
690.40 1.086
690.50 1.086
690.60 1.086
690.70 1.086
690.80 1.086
690.90 1.086
691.00 1.086
691.10 1.086
691.20 1.086
691.30 1.086
691.40 1.086
691.50 1.085
691.60 1.085
691.70 1.085
691.80 1.085
691.90 1.085
692.00 1.085
692.10 1.085
692.20 1.085
692.30 1.085
692.40 1.085
692.50 1.085
692.60 1.085
692.70 1.085
692.80 1.085
692.90 1.084
693.00 1.084
693.10 1.084
693.20 1.084
693.30 1.084
693.40 1.084
693.50 1.084
693.60 1.084
693.70 1.084
693.80 1.084
693.90 1.084
694.00 1.084
694.10 1.084
694.20 1.084
694.30 1.083
694.40 1.083
694.50 1.083
694.60 1.083
694.70 1.083
694.80 1.083
694.90 1.083
695.00 1.083
695.10 1.083
695.20 1.083
695.30 1.083
695.40 1.083
695.50 1.083
695.60 1.082
695.70 1.082
695.80 1.082
695.90 1.082
696.00 1.082
696.10 1.082
696.20 1.082
696.30 1.082
696.40 1.082
696.50 1.082
696.60 1.082
696.70 1.082
696.80 1.082
696.90 1.081
697.00 1.081
697.10 1.081
697.20 1.081
697.30 1.081
697.40 1.081
697.50 1.081
697.60 1.081
697.70 1.081
697.80 1.081
697.90 1.081
698.00 1.081
698.10 1.081
698.20 1.08
698.30 1.08
698.40 1.08
698.50 1.08
698.60 1.08
698.70 1.08
698.80 1.08
698.90 1.08
699.00 1.08
699.10 1.08
699.20 1.08
699.30 1.08
699.40 1.08
699.50 1.079
699.60 1.079
699.70 1.079
699.80 1.079
699.90 1.079
700.00 1.079
700.10 1.079
700.20 1.079
700.30 1.079
700.40 1.079
700.50 1.079
700.60 1.079
700.70 1.079
700.80 1.078
700.90 1.078
701.00 1.078
701.10 1.078
701.20 1.078
701.30 1.078
701.40 1.078
701.50 1.078
701.60 1.078
701.70 1.078
701.80 1.078
701.90 1.078
702.00 1.078
702.10 1.077
702.20 1.077
702.30 1.077
702.40 1.077
702.50 1.077
702.60 1.077
702.70 1.077
702.80 1.077
702.90 1.077
703.00 1.077
703.10 1.077
703.20 1.077
703.30 1.076
703.40 1.076
703.50 1.076
703.60 1.076
703.70 1.076
703.80 1.076
703.90 1.076
704.00 1.076
704.10 1.076
704.20 1.076
704.30 1.076
704.40 1.076
704.50 1.076
704.60 1.075
704.70 1.075
704.80 1.075
704.90 1.075
705.00 1.075
705.10 1.075
705.20 1.075
705.30 1.075
705.40 1.075
705.50 1.075
705.60 1.075
705.70 1.075
705.80 1.074
705.90 1.074
706.00 1.074
706.10 1.074
706.20 1.074
706.30 1.074
706.40 1.074
706.50 1.074
706.60 1.074
706.70 1.074
706.80 1.074
706.90 1.074
707.00 1.073
707.10 1.073
707.20 1.073
707.30 1.073
707.40 1.073
707.50 1.073
707.60 1.073
707.70 1.073
707.80 1.073
707.90 1.073
708.00 1.073
708.10 1.073
708.20 1.072
708.30 1.072
708.40 1.072
708.50 1.072
708.60 1.072
708.70 1.072
708.80 1.072
708.90 1.072
709.00 1.072
709.10 1.072
709.20 1.072
709.30 1.072
709.40 1.071
709.50 1.071
709.60 1.071
709.70 1.071
709.80 1.071
709.90 1.071
710.00 1.071
710.10 1.071
710.20 1.071
710.30 1.071
710.40 1.071
710.50 1.071
710.60 1.07
710.70 1.07
710.80 1.07
710.90 1.07
711.00 1.07
711.10 1.07
711.20 1.07
711.30 1.07
711.40 1.07
711.50 1.07
711.60 1.07
711.70 1.07
711.80 1.069
711.90 1.069
712.00 1.069
712.10 1.069
712.20 1.069
712.30 1.069
712.40 1.069
712.50 1.069
712.60 1.069
712.70 1.069
712.80 1.069
712.90 1.068
713.00 1.068
713.10 1.068
713.20 1.068
713.30 1.068
713.40 1.068
713.50 1.068
713.60 1.068
713.70 1.068
713.80 1.068
713.90 1.068
714.00 1.068
714.10 1.067
714.20 1.067
714.30 1.067
714.40 1.067
714.50 1.067
714.60 1.067
714.70 1.067
714.80 1.067
714.90 1.067
715.00 1.067
715.10 1.067
715.20 1.066
715.30 1.066
715.40 1.066
715.50 1.066
715.60 1.066
715.70 1.066
715.80 1.066
715.90 1.066
716.00 1.066
716.10 1.066
716.20 1.066
716.30 1.065
716.40 1.065
716.50 1.065
716.60 1.065
716.70 1.065
716.80 1.065
716.90 1.065
717.00 1.065
717.10 1.065
717.20 1.065
717.30 1.065
717.40 1.065
717.50 1.064
717.60 1.064
717.70 1.064
717.80 1.064
717.90 1.064
718.00 1.064
718.10 1.064
718.20 1.064
718.30 1.064
718.40 1.064
718.50 1.064
718.60 1.063
718.70 1.063
718.80 1.063
718.90 1.063
719.00 1.063
719.10 1.063
719.20 1.063
719.30 1.063
719.40 1.063
719.50 1.063
719.60 1.063
719.70 1.062
719.80 1.062
719.90 1.062
720.00 1.062
720.10 1.062
720.20 1.062
720.30 1.062
720.40 1.062
720.50 1.062
720.60 1.062
720.70 1.062
720.80 1.061
720.90 1.061
721.00 1.061
721.10 1.061
721.20 1.061
721.30 1.061
721.40 1.061
721.50 1.061
721.60 1.061
721.70 1.061
721.80 1.061
721.90 1.06
722.00 1.06
722.10 1.06
722.20 1.06
722.30 1.06
722.40 1.06
722.50 1.06
722.60 1.06
722.70 1.06
722.80 1.06
722.90 1.06
723.00 1.059
723.10 1.059
723.20 1.059
723.30 1.059
723.40 1.059
723.50 1.059
723.60 1.059
723.70 1.059
723.80 1.059
723.90 1.059
724.00 1.059
724.10 1.058
724.20 1.058
724.30 1.058
724.40 1.058
724.50 1.058
724.60 1.058
724.70 1.058
724.80 1.058
724.90 1.058
725.00 1.058
725.10 1.058
725.20 1.057
725.30 1.057
725.40 1.057
725.50 1.057
725.60 1.057
725.70 1.057
725.80 1.057
725.90 1.057
726.00 1.057
726.10 1.057
726.20 1.056
726.30 1.056
726.40 1.056
726.50 1.056
726.60 1.056
726.70 1.056
726.80 1.056
726.90 1.056
727.00 1.056
727.10 1.056
727.20 1.056
727.30 1.055
727.40 1.055
727.50 1.055
727.60 1.055
727.70 1.055
727.80 1.055
727.90 1.055
728.00 1.055
728.10 1.055
728.20 1.055
728.30 1.054
728.40 1.054
728.50 1.054
728.60 1.054
728.70 1.054
728.80 1.054
728.90 1.054
729.00 1.054
729.10 1.054
729.20 1.054
729.30 1.054
729.40 1.053
729.50 1.053
729.60 1.053
729.70 1.053
729.80 1.053
729.90 1.053
730.00 1.053
730.10 1.053
730.20 1.053
730.30 1.053
730.40 1.052
730.50 1.052
730.60 1.052
730.70 1.052
730.80 1.052
730.90 1.052
731.00 1.052
731.10 1.052
731.20 1.052
731.30 1.052
731.40 1.051
731.50 1.051
731.60 1.051
731.70 1.051
731.80 1.051
731.90 1.051
732.00 1.051
732.10 1.051
732.20 1.051
732.30 1.051
732.40 1.05
732.50 1.05
732.60 1.05
732.70 1.05
732.80 1.05
732.90 1.05
733.00 1.05
733.10 1.05
733.20 1.05
733.30 1.05
733.40 1.049
733.50 1.049
733.60 1.049
733.70 1.049
733.80 1.049
733.90 1.049
734.00 1.049
734.10 1.049
734.20 1.049
734.30 1.049
734.40 1.048
734.50 1.048
734.60 1.048
734.70 1.048
734.80 1.048
734.90 1.048
735.00 1.048
735.10 1.048
735.20 1.048
735.30 1.048
735.40 1.048
735.50 1.047
735.60 1.047
735.70 1.047
735.80 1.047
735.90 1.047
736.00 1.047
736.10 1.047
736.20 1.047
736.30 1.047
736.40 1.047
736.50 1.046
736.60 1.046
736.70 1.046
736.80 1.046
736.90 1.046
737.00 1.046
737.10 1.046
737.20 1.046
737.30 1.046
737.40 1.046
737.50 1.045
737.60 1.045
737.70 1.045
737.80 1.045
737.90 1.045
738.00 1.045
738.10 1.045
738.20 1.045
738.30 1.045
738.40 1.045
738.50 1.044
738.60 1.044
738.70 1.044
738.80 1.044
738.90 1.044
739.00 1.044
739.10 1.044
739.20 1.044
739.30 1.044
739.40 1.044
739.50 1.043
739.60 1.043
739.70 1.043
739.80 1.043
739.90 1.043
740.00 1.043
740.10 1.043
740.20 1.043
740.30 1.043
740.40 1.043
740.50 1.042
740.60 1.042
740.70 1.042
740.80 1.042
740.90 1.042
741.00 1.042
741.10 1.042
741.20 1.042
741.30 1.042
741.40 1.042
741.50 1.041
741.60 1.041
741.70 1.041
741.80 1.041
741.90 1.041
742.00 1.041
742.10 1.041
742.20 1.041
742.30 1.041
742.40 1.041
742.50 1.04
742.60 1.04
742.70 1.04
742.80 1.04
742.90 1.04
743.00 1.04
743.10 1.04
743.20 1.04
743.30 1.04
743.40 1.039
743.50 1.039
743.60 1.039
743.70 1.039
743.80 1.039
743.90 1.039
744.00 1.039
744.10 1.039
744.20 1.039
744.30 1.039
744.40 1.038
744.50 1.038
744.60 1.038
744.70 1.038
744.80 1.038
744.90 1.038
745.00 1.038
745.10 1.038
745.20 1.038
745.30 1.038
745.40 1.037
745.50 1.037
745.60 1.037
745.70 1.037
745.80 1.037
745.90 1.037
746.00 1.037
746.10 1.037
746.20 1.037
746.30 1.036
746.40 1.036
746.50 1.036
746.60 1.036
746.70 1.036
746.80 1.036
746.90 1.036
747.00 1.036
747.10 1.036
747.20 1.036
747.30 1.035
747.40 1.035
747.50 1.035
747.60 1.035
747.70 1.035
747.80 1.035
747.90 1.035
748.00 1.035
748.10 1.035
748.20 1.035
748.30 1.034
748.40 1.034
748.50 1.034
748.60 1.034
748.70 1.034
748.80 1.034
748.90 1.034
749.00 1.034
749.10 1.034
749.20 1.034
749.30 1.033
749.40 1.033
749.50 1.033
749.60 1.033
749.70 1.033
749.80 1.033
749.90 1.033
750.00 1.033
750.10 1.033
750.20 1.032
750.30 1.032
750.40 1.032
750.50 1.032
750.60 1.032
750.70 1.032
750.80 1.032
750.90 1.032
751.00 1.032
751.10 1.032
751.20 1.031
751.30 1.031
751.40 1.031
751.50 1.031
751.60 1.031
751.70 1.031
751.80 1.031
751.90 1.031
752.00 1.031
752.10 1.03
752.20 1.03
752.30 1.03
752.40 1.03
752.50 1.03
752.60 1.03
752.70 1.03
752.80 1.03
752.90 1.03
753.00 1.029
753.10 1.029
753.20 1.029
753.30 1.029
753.40 1.029
753.50 1.029
753.60 1.029
753.70 1.029
753.80 1.029
753.90 1.029
754.00 1.028
754.10 1.028
754.20 1.028
754.30 1.028
754.40 1.028
754.50 1.028
754.60 1.028
754.70 1.028
754.80 1.028
754.90 1.027
755.00 1.027
755.10 1.027
755.20 1.027
755.30 1.027
755.40 1.027
755.50 1.027
755.60 1.027
755.70 1.027
755.80 1.026
755.90 1.026
756.00 1.026
756.10 1.026
756.20 1.026
756.30 1.026
756.40 1.026
756.50 1.026
756.60 1.026
756.70 1.026
756.80 1.025
756.90 1.025
757.00 1.025
757.10 1.025
757.20 1.025
757.30 1.025
757.40 1.025
757.50 1.025
757.60 1.025
757.70 1.024
757.80 1.024
757.90 1.024
758.00 1.024
758.10 1.024
758.20 1.024
758.30 1.024
758.40 1.024
758.50 1.024
758.60 1.023
758.70 1.023
758.80 1.023
758.90 1.023
759.00 1.023
759.10 1.023
759.20 1.023
759.30 1.023
759.40 1.023
759.50 1.023
759.60 1.022
759.70 1.022
759.80 1.022
759.90 1.022
760.00 1.022
760.10 1.022
760.20 1.022
760.30 1.022
760.40 1.022
760.50 1.021
760.60 1.021
760.70 1.021
760.80 1.021
760.90 1.021
761.00 1.021
761.10 1.021
761.20 1.021
761.30 1.021
761.40 1.02
761.50 1.02
761.60 1.02
761.70 1.02
761.80 1.02
761.90 1.02
762.00 1.02
762.10 1.02
762.20 1.02
762.30 1.019
762.40 1.019
762.50 1.019
762.60 1.019
762.70 1.019
762.80 1.019
762.90 1.019
763.00 1.019
763.10 1.019
763.20 1.018
763.30 1.018
763.40 1.018
763.50 1.018
763.60 1.018
763.70 1.018
763.80 1.018
763.90 1.018
764.00 1.018
764.10 1.017
764.20 1.017
764.30 1.017
764.40 1.017
764.50 1.017
764.60 1.017
764.70 1.017
764.80 1.017
764.90 1.017
765.00 1.016
765.10 1.016
765.20 1.016
765.30 1.016
765.40 1.016
765.50 1.016
765.60 1.016
765.70 1.016
765.80 1.016
765.90 1.015
766.00 1.015
766.10 1.015
766.20 1.015
766.30 1.015
766.40 1.015
766.50 1.015
766.60 1.015
766.70 1.015
766.80 1.014
766.90 1.014
767.00 1.014
767.10 1.014
767.20 1.014
767.30 1.014
767.40 1.014
767.50 1.014
767.60 1.014
767.70 1.013
767.80 1.013
767.90 1.013
768.00 1.013
768.10 1.013
768.20 1.013
768.30 1.013
768.40 1.013
768.50 1.013
768.60 1.013
768.70 1.012
768.80 1.012
768.90 1.012
769.00 1.012
769.10 1.012
769.20 1.012
769.30 1.012
769.40 1.012
769.50 1.012
769.60 1.011
769.70 1.011
769.80 1.011
769.90 1.011
770.00 1.011
770.10 1.011
770.20 1.011
770.30 1.011
770.40 1.011
770.50 1.01
770.60 1.01
770.70 1.01
770.80 1.01
770.90 1.01
771.00 1.01
771.10 1.01
771.20 1.01
771.30 1.009
771.40 1.009
771.50 1.009
771.60 1.009
771.70 1.009
771.80 1.009
771.90 1.009
772.00 1.009
772.10 1.009
772.20 1.008
772.30 1.008
772.40 1.008
772.50 1.008
772.60 1.008
772.70 1.008
772.80 1.008
772.90 1.008
773.00 1.008
773.10 1.007
773.20 1.007
773.30 1.007
773.40 1.007
773.50 1.007
773.60 1.007
773.70 1.007
773.80 1.007
773.90 1.007
774.00 1.006
774.10 1.006
774.20 1.006
774.30 1.006
774.40 1.006
774.50 1.006
774.60 1.006
774.70 1.006
774.80 1.005
774.90 1.005
775.00 1.005
775.10 1.005
775.20 1.005
775.30 1.005
775.40 1.005
775.50 1.005
775.60 1.005
775.70 1.004
775.80 1.004
775.90 1.004
776.00 1.004
776.10 1.004
776.20 1.004
776.30 1.004
776.40 1.004
776.50 1.004
776.60 1.003
776.70 1.003
776.80 1.003
776.90 1.003
777.00 1.003
777.10 1.003
777.20 1.003
777.30 1.003
777.40 1.003
777.50 1.002
777.60 1.002
777.70 1.002
777.80 1.002
777.90 1.002
778.00 1.002
778.10 1.002
778.20 1.002
778.30 1.002
778.40 1.001
778.50 1.001
778.60 1.001
778.70 1.001
778.80 1.001
778.90 1.001
779.00 1.001
779.10 1.001
779.20 1.001
779.30 1
779.40 1
779.50 1
779.60 1
779.70 0.9999
779.80 0.9998
779.90 0.9997
780.00 0.9996
780.10 0.9995
780.20 0.9994
780.30 0.9993
780.40 0.9991
780.50 0.999
780.60 0.9989
780.70 0.9988
780.80 0.9987
780.90 0.9985
781.00 0.9984
781.10 0.9983
781.20 0.9982
781.30 0.9981
781.40 0.998
781.50 0.9978
781.60 0.9977
781.70 0.9976
781.80 0.9975
781.90 0.9974
782.00 0.9973
782.10 0.9971
782.20 0.997
782.30 0.9969
782.40 0.9968
782.50 0.9967
782.60 0.9966
782.70 0.9964
782.80 0.9963
782.90 0.9962
783.00 0.9961
783.10 0.996
783.20 0.9958
783.30 0.9957
783.40 0.9956
783.50 0.9955
783.60 0.9954
783.70 0.9953
783.80 0.9951
783.90 0.995
784.00 0.9949
784.10 0.9948
784.20 0.9947
784.30 0.9946
784.40 0.9944
784.50 0.9943
784.60 0.9942
784.70 0.9941
784.80 0.994
784.90 0.9939
785.00 0.9937
785.10 0.9936
785.20 0.9935
785.30 0.9934
785.40 0.9933
785.50 0.9932
785.60 0.993
785.70 0.9929
785.80 0.9928
785.90 0.9927
786.00 0.9926
786.10 0.9925
786.20 0.9924
786.30 0.9922
786.40 0.9921
786.50 0.992
786.60 0.9919
786.70 0.9918
786.80 0.9917
786.90 0.9915
787.00 0.9914
787.10 0.9913
787.20 0.9912
787.30 0.9911
787.40 0.991
787.50 0.9908
787.60 0.9907
787.70 0.9906
787.80 0.9905
787.90 0.9904
788.00 0.9903
788.10 0.9902
788.20 0.99
788.30 0.9899
788.40 0.9898
788.50 0.9897
788.60 0.9896
788.70 0.9895
788.80 0.9893
788.90 0.9892
789.00 0.9891
789.10 0.989
789.20 0.9889
789.30 0.9888
789.40 0.9886
789.50 0.9885
789.60 0.9884
789.70 0.9883
789.80 0.9882
789.90 0.9881
790.00 0.988
790.10 0.9878
790.20 0.9877
790.30 0.9876
790.40 0.9875
790.50 0.9874
790.60 0.9872
790.70 0.9871
790.80 0.987
790.90 0.9869
791.00 0.9868
791.10 0.9866
791.20 0.9865
791.30 0.9864
791.40 0.9863
791.50 0.9862
791.60 0.986
791.70 0.9859
791.80 0.9858
791.90 0.9857
792.00 0.9856
792.10 0.9854
792.20 0.9853
792.30 0.9852
792.40 0.9851
792.50 0.985
792.60 0.9848
792.70 0.9847
792.80 0.9846
792.90 0.9845
793.00 0.9844
793.10 0.9842
793.20 0.9841
793.30 0.984
793.40 0.9839
793.50 0.9838
793.60 0.9836
793.70 0.9835
793.80 0.9834
793.90 0.9833
794.00 0.9832
794.10 0.983
794.20 0.9829
794.30 0.9828
794.40 0.9827
794.50 0.9826
794.60 0.9825
794.70 0.9823
794.80 0.9822
794.90 0.9821
795.00 0.982
795.10 0.9819
795.20 0.9817
795.30 0.9816
795.40 0.9815
795.50 0.9814
795.60 0.9813
795.70 0.9811
795.80 0.981
795.90 0.9809
796.00 0.9808
796.10 0.9807
796.20 0.9806
796.30 0.9804
796.40 0.9803
796.50 0.9802
796.60 0.9801
796.70 0.98
796.80 0.9798
796.90 0.9797
797.00 0.9796
797.10 0.9795
797.20 0.9794
797.30 0.9792
797.40 0.9791
797.50 0.979
797.60 0.9789
797.70 0.9788
797.80 0.9787
797.90 0.9785
798.00 0.9784
798.10 0.9783
798.20 0.9782
798.30 0.9781
798.40 0.9779
798.50 0.9778
798.60 0.9777
798.70 0.9776
798.80 0.9775
798.90 0.9774
799.00 0.9772
799.10 0.9771
799.20 0.977
799.30 0.9769
799.40 0.9768
799.50 0.9767
799.60 0.9765
799.70 0.9764
799.80 0.9763
799.90 0.9762
800.00 0.9761
800.10 0.9759
800.20 0.9758
800.30 0.9757
800.40 0.9756
800.50 0.9755
800.60 0.9753
800.70 0.9752
800.80 0.9751
800.90 0.975
801.00 0.9748
801.10 0.9747
801.20 0.9746
801.30 0.9745
801.40 0.9744
801.50 0.9742
801.60 0.9741
801.70 0.974
801.80 0.9739
801.90 0.9737
802.00 0.9736
802.10 0.9735
802.20 0.9734
802.30 0.9733
802.40 0.9731
802.50 0.973
802.60 0.9729
802.70 0.9728
802.80 0.9727
802.90 0.9725
803.00 0.9724
803.10 0.9723
803.20 0.9722
803.30 0.972
803.40 0.9719
803.50 0.9718
803.60 0.9717
803.70 0.9716
803.80 0.9714
803.90 0.9713
804.00 0.9712
804.10 0.9711
804.20 0.971
804.30 0.9708
804.40 0.9707
804.50 0.9706
804.60 0.9705
804.70 0.9703
804.80 0.9702
804.90 0.9701
805.00 0.97
805.10 0.9699
805.20 0.9697
805.30 0.9696
805.40 0.9695
805.50 0.9694
805.60 0.9693
805.70 0.9691
805.80 0.969
805.90 0.9689
806.00 0.9688
806.10 0.9687
806.20 0.9685
806.30 0.9684
806.40 0.9683
806.50 0.9682
806.60 0.9681
806.70 0.9679
806.80 0.9678
806.90 0.9677
807.00 0.9676
807.10 0.9675
807.20 0.9673
807.30 0.9672
807.40 0.9671
807.50 0.967
807.60 0.9669
807.70 0.9667
807.80 0.9666
807.90 0.9665
808.00 0.9664
808.10 0.9663
808.20 0.9661
808.30 0.966
808.40 0.9659
808.50 0.9658
808.60 0.9657
808.70 0.9655
808.80 0.9654
808.90 0.9653
809.00 0.9652
809.10 0.9651
809.20 0.9649
809.30 0.9648
809.40 0.9647
809.50 0.9646
809.60 0.9645
809.70 0.9643
809.80 0.9642
809.90 0.9641
810.00 0.964
810.10 0.9639
810.20 0.9637
810.30 0.9636
810.40 0.9635
810.50 0.9634
810.60 0.9632
810.70 0.9631
810.80 0.963
810.90 0.9629
811.00 0.9627
811.10 0.9626
811.20 0.9625
811.30 0.9624
811.40 0.9622
811.50 0.9621
811.60 0.962
811.70 0.9619
811.80 0.9617
811.90 0.9616
812.00 0.9615
812.10 0.9614
812.20 0.9612
812.30 0.9611
812.40 0.961
812.50 0.9609
812.60 0.9608
812.70 0.9606
812.80 0.9605
812.90 0.9604
813.00 0.9603
813.10 0.9601
813.20 0.96
813.30 0.9599
813.40 0.9598
813.50 0.9596
813.60 0.9595
813.70 0.9594
813.80 0.9593
813.90 0.9591
814.00 0.959
814.10 0.9589
814.20 0.9588
814.30 0.9587
814.40 0.9585
814.50 0.9584
814.60 0.9583
814.70 0.9582
814.80 0.958
814.90 0.9579
815.00 0.9578
815.10 0.9577
815.20 0.9575
815.30 0.9574
815.40 0.9573
815.50 0.9572
815.60 0.9571
815.70 0.9569
815.80 0.9568
815.90 0.9567
816.00 0.9566
816.10 0.9564
816.20 0.9563
816.30 0.9562
816.40 0.9561
816.50 0.9559
816.60 0.9558
816.70 0.9557
816.80 0.9556
816.90 0.9555
817.00 0.9553
817.10 0.9552
817.20 0.9551
817.30 0.955
817.40 0.9548
817.50 0.9547
817.60 0.9546
817.70 0.9545
817.80 0.9544
817.90 0.9542
818.00 0.9541
818.10 0.954
818.20 0.9539
818.30 0.9537
818.40 0.9536
818.50 0.9535
818.60 0.9534
818.70 0.9533
818.80 0.9531
818.90 0.953
819.00 0.9529
819.10 0.9528
819.20 0.9527
819.30 0.9525
819.40 0.9524
819.50 0.9523
819.60 0.9522
819.70 0.952
819.80 0.9519
819.90 0.9518
820.00 0.9517
820.10 0.9516
820.20 0.9514
820.30 0.9513
820.40 0.9512
820.50 0.9511
820.60 0.9509
820.70 0.9508
820.80 0.9507
820.90 0.9506
821.00 0.9504
821.10 0.9503
821.20 0.9502
821.30 0.9501
821.40 0.9499
821.50 0.9498
821.60 0.9497
821.70 0.9496
821.80 0.9494
821.90 0.9493
822.00 0.9492
822.10 0.9491
822.20 0.9489
822.30 0.9488
822.40 0.9487
822.50 0.9486
822.60 0.9485
822.70 0.9483
822.80 0.9482
822.90 0.9481
823.00 0.948
823.10 0.9478
823.20 0.9477
823.30 0.9476
823.40 0.9475
823.50 0.9473
823.60 0.9472
823.70 0.9471
823.80 0.947
823.90 0.9468
824.00 0.9467
824.10 0.9466
824.20 0.9465
824.30 0.9463
824.40 0.9462
824.50 0.9461
824.60 0.946
824.70 0.9458
824.80 0.9457
824.90 0.9456
825.00 0.9455
825.10 0.9453
825.20 0.9452
825.30 0.9451
825.40 0.945
825.50 0.9449
825.60 0.9447
825.70 0.9446
825.80 0.9445
825.90 0.9444
826.00 0.9442
826.10 0.9441
826.20 0.944
826.30 0.9439
826.40 0.9437
826.50 0.9436
826.60 0.9435
826.70 0.9434
826.80 0.9433
826.90 0.9431
827.00 0.943
827.10 0.9429
827.20 0.9428
827.30 0.9426
827.40 0.9425
827.50 0.9424
827.60 0.9422
827.70 0.9421
827.80 0.942
827.90 0.9419
828.00 0.9417
828.10 0.9416
828.20 0.9415
828.30 0.9414
828.40 0.9412
828.50 0.9411
828.60 0.941
828.70 0.9409
828.80 0.9407
828.90 0.9406
829.00 0.9405
829.10 0.9404
829.20 0.9402
829.30 0.9401
829.40 0.94
829.50 0.9399
829.60 0.9397
829.70 0.9396
829.80 0.9395
829.90 0.9394
830.00 0.9392
830.10 0.9391
830.20 0.939
830.30 0.9389
830.40 0.9387
830.50 0.9386
830.60 0.9385
830.70 0.9384
830.80 0.9382
830.90 0.9381
831.00 0.938
831.10 0.9379
831.20 0.9377
831.30 0.9376
831.40 0.9375
831.50 0.9374
831.60 0.9372
831.70 0.9371
831.80 0.937
831.90 0.9369
832.00 0.9367
832.10 0.9366
832.20 0.9365
832.30 0.9364
832.40 0.9362
832.50 0.9361
832.60 0.936
832.70 0.9359
832.80 0.9357
832.90 0.9356
833.00 0.9355
833.10 0.9354
833.20 0.9352
833.30 0.9351
833.40 0.935
833.50 0.9349
833.60 0.9347
833.70 0.9346
833.80 0.9345
833.90 0.9343
834.00 0.9342
834.10 0.9341
834.20 0.934
834.30 0.9338
834.40 0.9337
834.50 0.9336
834.60 0.9335
834.70 0.9333
834.80 0.9332
834.90 0.9331
835.00 0.933
835.10 0.9328
835.20 0.9327
835.30 0.9326
835.40 0.9325
835.50 0.9323
835.60 0.9322
835.70 0.9321
835.80 0.932
835.90 0.9318
836.00 0.9317
836.10 0.9316
836.20 0.9315
836.30 0.9313
836.40 0.9312
836.50 0.9311
836.60 0.931
836.70 0.9308
836.80 0.9307
836.90 0.9306
837.00 0.9305
837.10 0.9303
837.20 0.9302
837.30 0.9301
837.40 0.93
837.50 0.9298
837.60 0.9297
837.70 0.9296
837.80 0.9295
837.90 0.9293
838.00 0.9292
838.10 0.9291
838.20 0.9289
838.30 0.9288
838.40 0.9287
838.50 0.9286
838.60 0.9284
838.70 0.9283
838.80 0.9282
838.90 0.9281
839.00 0.9279
839.10 0.9278
839.20 0.9277
839.30 0.9276
839.40 0.9274
839.50 0.9273
839.60 0.9272
839.70 0.9271
839.80 0.9269
839.90 0.9268
840.00 0.9267
840.10 0.9266
840.20 0.9264
840.30 0.9263
840.40 0.9262
840.50 0.926
840.60 0.9259
840.70 0.9258
840.80 0.9257
840.90 0.9255
841.00 0.9254
841.10 0.9253
841.20 0.9252
841.30 0.925
841.40 0.9249
841.50 0.9248
841.60 0.9247
841.70 0.9245
841.80 0.9244
841.90 0.9243
842.00 0.9242
842.10 0.924
842.20 0.9239
842.30 0.9238
842.40 0.9237
842.50 0.9235
842.60 0.9234
842.70 0.9233
842.80 0.9232
842.90 0.923
843.00 0.9229
843.10 0.9228
843.20 0.9226
843.30 0.9225
843.40 0.9224
843.50 0.9223
843.60 0.9221
843.70 0.922
843.80 0.9219
843.90 0.9218
844.00 0.9216
844.10 0.9215
844.20 0.9214
844.30 0.9212
844.40 0.9211
844.50 0.921
844.60 0.9209
844.70 0.9207
844.80 0.9206
844.90 0.9205
845.00 0.9204
845.10 0.9202
845.20 0.9201
845.30 0.92
845.40 0.9199
845.50 0.9197
845.60 0.9196
845.70 0.9195
845.80 0.9194
845.90 0.9192
846.00 0.9191
846.10 0.919
846.20 0.9188
846.30 0.9187
846.40 0.9186
846.50 0.9185
846.60 0.9183
846.70 0.9182
846.80 0.9181
846.90 0.918
847.00 0.9178
847.10 0.9177
847.20 0.9176
847.30 0.9175
847.40 0.9173
847.50 0.9172
847.60 0.9171
847.70 0.9169
847.80 0.9168
847.90 0.9167
848.00 0.9166
848.10 0.9164
848.20 0.9163
848.30 0.9162
848.40 0.916
848.50 0.9159
848.60 0.9158
848.70 0.9157
848.80 0.9155
848.90 0.9154
849.00 0.9153
849.10 0.9152
849.20 0.915
849.30 0.9149
849.40 0.9148
849.50 0.9146
849.60 0.9145
849.70 0.9144
849.80 0.9143
849.90 0.9141
850.00 0.914
850.10 0.9139
850.20 0.9138
850.30 0.9136
850.40 0.9135
850.50 0.9134
850.60 0.9132
850.70 0.9131
850.80 0.913
850.90 0.9129
851.00 0.9127
851.10 0.9126
851.20 0.9125
851.30 0.9124
851.40 0.9122
851.50 0.9121
851.60 0.912
851.70 0.9119
851.80 0.9117
851.90 0.9116
852.00 0.9115
852.10 0.9113
852.20 0.9112
852.30 0.9111
852.40 0.911
852.50 0.9108
852.60 0.9107
852.70 0.9106
852.80 0.9105
852.90 0.9103
853.00 0.9102
853.10 0.9101
853.20 0.9099
853.30 0.9098
853.40 0.9097
853.50 0.9096
853.60 0.9094
853.70 0.9093
853.80 0.9092
853.90 0.9091
854.00 0.9089
854.10 0.9088
854.20 0.9087
854.30 0.9085
854.40 0.9084
854.50 0.9083
854.60 0.9082
854.70 0.908
854.80 0.9079
854.90 0.9078
855.00 0.9077
855.10 0.9075
855.20 0.9074
855.30 0.9073
855.40 0.9071
855.50 0.907
855.60 0.9069
855.70 0.9068
855.80 0.9066
855.90 0.9065
856.00 0.9064
856.10 0.9063
856.20 0.9061
856.30 0.906
856.40 0.9059
856.50 0.9058
856.60 0.9056
856.70 0.9055
856.80 0.9054
856.90 0.9052
857.00 0.9051
857.10 0.905
857.20 0.9049
857.30 0.9047
857.40 0.9046
857.50 0.9045
857.60 0.9044
857.70 0.9042
857.80 0.9041
857.90 0.904
858.00 0.9038
858.10 0.9037
858.20 0.9036
858.30 0.9035
858.40 0.9033
858.50 0.9032
858.60 0.9031
858.70 0.9029
858.80 0.9028
858.90 0.9027
859.00 0.9026
859.10 0.9024
859.20 0.9023
859.30 0.9022
859.40 0.9021
859.50 0.9019
859.60 0.9018
859.70 0.9017
859.80 0.9015
859.90 0.9014
860.00 0.9013
860.10 0.9012
860.20 0.901
860.30 0.9009
860.40 0.9008
860.50 0.9006
860.60 0.9005
860.70 0.9004
860.80 0.9003
860.90 0.9001
861.00 0.9
861.10 0.8999
861.20 0.8998
861.30 0.8996
861.40 0.8995
861.50 0.8994
861.60 0.8993
861.70 0.8991
861.80 0.899
861.90 0.8989
862.00 0.8987
862.10 0.8986
862.20 0.8985
862.30 0.8984
862.40 0.8982
862.50 0.8981
862.60 0.898
862.70 0.8978
862.80 0.8977
862.90 0.8976
863.00 0.8975
863.10 0.8973
863.20 0.8972
863.30 0.8971
863.40 0.8969
863.50 0.8968
863.60 0.8967
863.70 0.8966
863.80 0.8964
863.90 0.8963
864.00 0.8962
864.10 0.896
864.20 0.8959
864.30 0.8958
864.40 0.8957
864.50 0.8955
864.60 0.8954
864.70 0.8953
864.80 0.8951
864.90 0.895
865.00 0.8949
865.10 0.8948
865.20 0.8946
865.30 0.8945
865.40 0.8944
865.50 0.8942
865.60 0.8941
865.70 0.894
865.80 0.8939
865.90 0.8937
866.00 0.8936
866.10 0.8935
866.20 0.8934
866.30 0.8932
866.40 0.8931
866.50 0.893
866.60 0.8928
866.70 0.8927
866.80 0.8926
866.90 0.8925
867.00 0.8923
867.10 0.8922
867.20 0.8921
867.30 0.8919
867.40 0.8918
867.50 0.8917
867.60 0.8916
867.70 0.8914
867.80 0.8913
867.90 0.8912
868.00 0.891
868.10 0.8909
868.20 0.8908
868.30 0.8907
868.40 0.8905
868.50 0.8904
868.60 0.8903
868.70 0.8901
868.80 0.89
868.90 0.8899
869.00 0.8898
869.10 0.8896
869.20 0.8895
869.30 0.8894
869.40 0.8892
869.50 0.8891
869.60 0.889
869.70 0.8889
869.80 0.8887
869.90 0.8886
870.00 0.8885
870.10 0.8883
870.20 0.8882
870.30 0.8881
870.40 0.888
870.50 0.8878
870.60 0.8877
870.70 0.8876
870.80 0.8875
870.90 0.8873
871.00 0.8872
871.10 0.8871
871.20 0.8869
871.30 0.8868
871.40 0.8867
871.50 0.8866
871.60 0.8864
871.70 0.8863
871.80 0.8862
871.90 0.886
872.00 0.8859
872.10 0.8858
872.20 0.8857
872.30 0.8855
872.40 0.8854
872.50 0.8853
872.60 0.8851
872.70 0.885
872.80 0.8849
872.90 0.8848
873.00 0.8846
873.10 0.8845
873.20 0.8844
873.30 0.8842
873.40 0.8841
873.50 0.884
873.60 0.8839
873.70 0.8837
873.80 0.8836
873.90 0.8835
874.00 0.8833
874.10 0.8832
874.20 0.8831
874.30 0.883
874.40 0.8828
874.50 0.8827
874.60 0.8826
874.70 0.8824
874.80 0.8823
874.90 0.8822
875.00 0.8821
875.10 0.8819
875.20 0.8818
875.30 0.8817
875.40 0.8816
875.50 0.8814
875.60 0.8813
875.70 0.8812
875.80 0.881
875.90 0.8809
876.00 0.8808
876.10 0.8807
876.20 0.8805
876.30 0.8804
876.40 0.8803
876.50 0.8801
876.60 0.88
876.70 0.8799
876.80 0.8798
876.90 0.8796
877.00 0.8795
877.10 0.8794
877.20 0.8792
877.30 0.8791
877.40 0.879
877.50 0.8789
877.60 0.8787
877.70 0.8786
877.80 0.8785
877.90 0.8783
878.00 0.8782
878.10 0.8781
878.20 0.878
878.30 0.8778
878.40 0.8777
878.50 0.8776
878.60 0.8774
878.70 0.8773
878.80 0.8772
878.90 0.8771
879.00 0.8769
879.10 0.8768
879.20 0.8767
879.30 0.8765
879.40 0.8764
879.50 0.8763
879.60 0.8762
879.70 0.876
879.80 0.8759
879.90 0.8758
880.00 0.8756
880.10 0.8755
880.20 0.8754
880.30 0.8753
880.40 0.8751
880.50 0.875
880.60 0.8749
880.70 0.8748
880.80 0.8746
880.90 0.8745
881.00 0.8744
881.10 0.8742
881.20 0.8741
881.30 0.874
881.40 0.8739
881.50 0.8737
881.60 0.8736
881.70 0.8735
881.80 0.8733
881.90 0.8732
882.00 0.8731
882.10 0.873
882.20 0.8728
882.30 0.8727
882.40 0.8726
882.50 0.8724
882.60 0.8723
882.70 0.8722
882.80 0.8721
882.90 0.8719
883.00 0.8718
883.10 0.8717
883.20 0.8715
883.30 0.8714
883.40 0.8713
883.50 0.8712
883.60 0.871
883.70 0.8709
883.80 0.8708
883.90 0.8706
884.00 0.8705
884.10 0.8704
884.20 0.8702
884.30 0.8701
884.40 0.87
884.50 0.8699
884.60 0.8697
884.70 0.8696
884.80 0.8695
884.90 0.8693
885.00 0.8692
885.10 0.8691
885.20 0.869
885.30 0.8688
885.40 0.8687
885.50 0.8686
885.60 0.8684
885.70 0.8683
885.80 0.8682
885.90 0.8681
886.00 0.8679
886.10 0.8678
886.20 0.8677
886.30 0.8676
886.40 0.8674
886.50 0.8673
886.60 0.8672
886.70 0.867
886.80 0.8669
886.90 0.8668
887.00 0.8667
887.10 0.8665
887.20 0.8664
887.30 0.8663
887.40 0.8661
887.50 0.866
887.60 0.8659
887.70 0.8657
887.80 0.8656
887.90 0.8655
888.00 0.8654
888.10 0.8652
888.20 0.8651
888.30 0.865
888.40 0.8648
888.50 0.8647
888.60 0.8646
888.70 0.8645
888.80 0.8643
888.90 0.8642
889.00 0.8641
889.10 0.8639
889.20 0.8638
889.30 0.8637
889.40 0.8636
889.50 0.8634
889.60 0.8633
889.70 0.8632
889.80 0.863
889.90 0.8629
890.00 0.8628
890.10 0.8627
890.20 0.8625
890.30 0.8624
890.40 0.8623
890.50 0.8621
890.60 0.862
890.70 0.8619
890.80 0.8618
890.90 0.8616
891.00 0.8615
891.10 0.8614
891.20 0.8612
891.30 0.8611
891.40 0.861
891.50 0.8609
891.60 0.8607
891.70 0.8606
891.80 0.8605
891.90 0.8603
892.00 0.8602
892.10 0.8601
892.20 0.86
892.30 0.8598
892.40 0.8597
892.50 0.8596
892.60 0.8595
892.70 0.8593
892.80 0.8592
892.90 0.8591
893.00 0.8589
893.10 0.8588
893.20 0.8587
893.30 0.8586
893.40 0.8584
893.50 0.8583
893.60 0.8582
893.70 0.858
893.80 0.8579
893.90 0.8578
894.00 0.8577
894.10 0.8575
894.20 0.8574
894.30 0.8573
894.40 0.8571
894.50 0.857
894.60 0.8569
894.70 0.8568
894.80 0.8566
894.90 0.8565
895.00 0.8564
895.10 0.8563
895.20 0.8561
895.30 0.856
895.40 0.8559
895.50 0.8557
895.60 0.8556
895.70 0.8555
895.80 0.8554
895.90 0.8552
896.00 0.8551
896.10 0.855
896.20 0.8549
896.30 0.8547
896.40 0.8546
896.50 0.8545
896.60 0.8543
896.70 0.8542
896.80 0.8541
896.90 0.854
897.00 0.8538
897.10 0.8537
897.20 0.8536
897.30 0.8534
897.40 0.8533
897.50 0.8532
897.60 0.8531
897.70 0.8529
897.80 0.8528
897.90 0.8527
898.00 0.8525
898.10 0.8524
898.20 0.8523
898.30 0.8521
898.40 0.852
898.50 0.8519
898.60 0.8518
898.70 0.8516
898.80 0.8515
898.90 0.8514
899.00 0.8512
899.10 0.8511
899.20 0.851
899.30 0.8509
899.40 0.8507
899.50 0.8506
899.60 0.8505
899.70 0.8503
899.80 0.8502
899.90 0.8501
900.00 0.85
900.10 0.8498
900.20 0.8497
900.30 0.8496
900.40 0.8494
900.50 0.8493
900.60 0.8492
900.70 0.8491
900.80 0.8489
900.90 0.8488
901.00 0.8487
901.10 0.8485
901.20 0.8484
901.30 0.8483
901.40 0.8482
901.50 0.848
901.60 0.8479
901.70 0.8478
901.80 0.8476
901.90 0.8475
902.00 0.8474
902.10 0.8473
902.20 0.8471
902.30 0.847
902.40 0.8469
902.50 0.8467
902.60 0.8466
902.70 0.8465
902.80 0.8463
902.90 0.8462
903.00 0.8461
903.10 0.8459
903.20 0.8458
903.30 0.8457
903.40 0.8455
903.50 0.8454
903.60 0.8453
903.70 0.8452
903.80 0.845
903.90 0.8449
904.00 0.8448
904.10 0.8446
904.20 0.8445
904.30 0.8444
904.40 0.8442
904.50 0.8441
904.60 0.844
904.70 0.8439
904.80 0.8437
904.90 0.8436
905.00 0.8435
905.10 0.8433
905.20 0.8432
905.30 0.8431
905.40 0.8429
905.50 0.8428
905.60 0.8427
905.70 0.8425
905.80 0.8424
905.90 0.8423
906.00 0.8422
906.10 0.842
906.20 0.8419
906.30 0.8418
906.40 0.8416
906.50 0.8415
906.60 0.8414
906.70 0.8412
906.80 0.8411
906.90 0.841
907.00 0.8409
907.10 0.8407
907.20 0.8406
907.30 0.8405
907.40 0.8403
907.50 0.8402
907.60 0.8401
907.70 0.8399
907.80 0.8398
907.90 0.8397
908.00 0.8396
908.10 0.8394
908.20 0.8393
908.30 0.8392
908.40 0.839
908.50 0.8389
908.60 0.8388
908.70 0.8386
908.80 0.8385
908.90 0.8384
909.00 0.8383
909.10 0.8381
909.20 0.838
909.30 0.8379
909.40 0.8377
909.50 0.8376
909.60 0.8375
909.70 0.8374
909.80 0.8372
909.90 0.8371
910.00 0.837
910.10 0.8368
910.20 0.8367
910.30 0.8366
910.40 0.8364
910.50 0.8363
910.60 0.8362
910.70 0.8361
910.80 0.8359
910.90 0.8358
911.00 0.8357
911.10 0.8355
911.20 0.8354
911.30 0.8353
911.40 0.8352
911.50 0.835
911.60 0.8349
911.70 0.8348
911.80 0.8346
911.90 0.8345
912.00 0.8344
912.10 0.8343
912.20 0.8341
912.30 0.834
912.40 0.8339
912.50 0.8337
912.60 0.8336
912.70 0.8335
912.80 0.8334
912.90 0.8332
913.00 0.8331
913.10 0.833
913.20 0.8328
913.30 0.8327
913.40 0.8326
913.50 0.8325
913.60 0.8323
913.70 0.8322
913.80 0.8321
913.90 0.8319
914.00 0.8318
914.10 0.8317
914.20 0.8316
914.30 0.8314
914.40 0.8313
914.50 0.8312
914.60 0.831
914.70 0.8309
914.80 0.8308
914.90 0.8307
915.00 0.8305
915.10 0.8304
915.20 0.8303
915.30 0.8301
915.40 0.83
915.50 0.8299
915.60 0.8298
915.70 0.8296
915.80 0.8295
915.90 0.8294
916.00 0.8293
916.10 0.8291
916.20 0.829
916.30 0.8289
916.40 0.8287
916.50 0.8286
916.60 0.8285
916.70 0.8284
916.80 0.8282
916.90 0.8281
917.00 0.828
917.10 0.8278
917.20 0.8277
917.30 0.8276
917.40 0.8275
917.50 0.8273
917.60 0.8272
917.70 0.8271
917.80 0.8269
917.90 0.8268
918.00 0.8267
918.10 0.8266
918.20 0.8264
918.30 0.8263
918.40 0.8262
918.50 0.826
918.60 0.8259
918.70 0.8258
918.80 0.8257
918.90 0.8255
919.00 0.8254
919.10 0.8253
919.20 0.8251
919.30 0.825
919.40 0.8249
919.50 0.8247
919.60 0.8246
919.70 0.8245
919.80 0.8244
919.90 0.8242
920.00 0.8241
920.10 0.824
920.20 0.8238
920.30 0.8237
920.40 0.8236
920.50 0.8235
920.60 0.8233
920.70 0.8232
920.80 0.8231
920.90 0.823
921.00 0.8228
921.10 0.8227
921.20 0.8226
921.30 0.8224
921.40 0.8223
921.50 0.8222
921.60 0.8221
921.70 0.8219
921.80 0.8218
921.90 0.8217
922.00 0.8215
922.10 0.8214
922.20 0.8213
922.30 0.8212
922.40 0.821
922.50 0.8209
922.60 0.8208
922.70 0.8206
922.80 0.8205
922.90 0.8204
923.00 0.8202
923.10 0.8201
923.20 0.82
923.30 0.8199
923.40 0.8197
923.50 0.8196
923.60 0.8195
923.70 0.8193
923.80 0.8192
923.90 0.8191
924.00 0.819
924.10 0.8188
924.20 0.8187
924.30 0.8186
924.40 0.8184
924.50 0.8183
924.60 0.8182
924.70 0.8181
924.80 0.8179
924.90 0.8178
925.00 0.8177
925.10 0.8175
925.20 0.8174
925.30 0.8173
925.40 0.8172
925.50 0.817
925.60 0.8169
925.70 0.8168
925.80 0.8166
925.90 0.8165
926.00 0.8164
926.10 0.8163
926.20 0.8161
926.30 0.816
926.40 0.8159
926.50 0.8158
926.60 0.8156
926.70 0.8155
926.80 0.8154
926.90 0.8152
927.00 0.8151
927.10 0.815
927.20 0.8149
927.30 0.8147
927.40 0.8146
927.50 0.8145
927.60 0.8143
927.70 0.8142
927.80 0.8141
927.90 0.814
928.00 0.8138
928.10 0.8137
928.20 0.8136
928.30 0.8134
928.40 0.8133
928.50 0.8132
928.60 0.8131
928.70 0.8129
928.80 0.8128
928.90 0.8127
929.00 0.8125
929.10 0.8124
929.20 0.8123
929.30 0.8122
929.40 0.812
929.50 0.8119
929.60 0.8118
929.70 0.8116
929.80 0.8115
929.90 0.8114
930.00 0.8113
930.10 0.8111
930.20 0.811
930.30 0.8109
930.40 0.8108
930.50 0.8106
930.60 0.8105
930.70 0.8104
930.80 0.8102
930.90 0.8101
931.00 0.81
931.10 0.8099
931.20 0.8097
931.30 0.8096
931.40 0.8095
931.50 0.8094
931.60 0.8092
931.70 0.8091
931.80 0.809
931.90 0.8088
932.00 0.8087
932.10 0.8086
932.20 0.8085
932.30 0.8083
932.40 0.8082
932.50 0.8081
932.60 0.8079
932.70 0.8078
932.80 0.8077
932.90 0.8076
933.00 0.8074
933.10 0.8073
933.20 0.8072
933.30 0.807
933.40 0.8069
933.50 0.8068
933.60 0.8067
933.70 0.8065
933.80 0.8064
933.90 0.8063
934.00 0.8062
934.10 0.806
934.20 0.8059
934.30 0.8058
934.40 0.8056
934.50 0.8055
934.60 0.8054
934.70 0.8053
934.80 0.8051
934.90 0.805
935.00 0.8049
935.10 0.8047
935.20 0.8046
935.30 0.8045
935.40 0.8044
935.50 0.8042
935.60 0.8041
935.70 0.804
935.80 0.8038
935.90 0.8037
936.00 0.8036
936.10 0.8035
936.20 0.8033
936.30 0.8032
936.40 0.8031
936.50 0.8029
936.60 0.8028
936.70 0.8027
936.80 0.8026
936.90 0.8024
937.00 0.8023
937.10 0.8022
937.20 0.8021
937.30 0.8019
937.40 0.8018
937.50 0.8017
937.60 0.8015
937.70 0.8014
937.80 0.8013
937.90 0.8012
938.00 0.801
938.10 0.8009
938.20 0.8008
938.30 0.8006
938.40 0.8005
938.50 0.8004
938.60 0.8003
938.70 0.8001
938.80 0.8
938.90 0.7999
939.00 0.7997
939.10 0.7996
939.20 0.7995
939.30 0.7994
939.40 0.7992
939.50 0.7991
939.60 0.799
939.70 0.7989
939.80 0.7987
939.90 0.7986
940.00 0.7985
940.10 0.7983
940.20 0.7982
940.30 0.7981
940.40 0.798
940.50 0.7978
940.60 0.7977
940.70 0.7976
940.80 0.7975
940.90 0.7973
941.00 0.7972
941.10 0.7971
941.20 0.7969
941.30 0.7968
941.40 0.7967
941.50 0.7966
941.60 0.7964
941.70 0.7963
941.80 0.7962
941.90 0.796
942.00 0.7959
942.10 0.7958
942.20 0.7957
942.30 0.7955
942.40 0.7954
942.50 0.7953
942.60 0.7951
942.70 0.795
942.80 0.7949
942.90 0.7948
943.00 0.7946
943.10 0.7945
943.20 0.7944
943.30 0.7942
943.40 0.7941
943.50 0.794
943.60 0.7939
943.70 0.7937
943.80 0.7936
943.90 0.7935
944.00 0.7934
944.10 0.7932
944.20 0.7931
944.30 0.793
944.40 0.7928
944.50 0.7927
944.60 0.7926
944.70 0.7925
944.80 0.7923
944.90 0.7922
945.00 0.7921
945.10 0.792
945.20 0.7918
945.30 0.7917
945.40 0.7916
945.50 0.7914
945.60 0.7913
945.70 0.7912
945.80 0.7911
945.90 0.7909
946.00 0.7908
946.10 0.7907
946.20 0.7906
946.30 0.7904
946.40 0.7903
946.50 0.7902
946.60 0.79
946.70 0.7899
946.80 0.7898
946.90 0.7897
947.00 0.7895
947.10 0.7894
947.20 0.7893
947.30 0.7892
947.40 0.789
947.50 0.7889
947.60 0.7888
947.70 0.7886
947.80 0.7885
947.90 0.7884
948.00 0.7883
948.10 0.7881
948.20 0.788
948.30 0.7879
948.40 0.7877
948.50 0.7876
948.60 0.7875
948.70 0.7874
948.80 0.7872
948.90 0.7871
949.00 0.787
949.10 0.7869
949.20 0.7867
949.30 0.7866
949.40 0.7865
949.50 0.7863
949.60 0.7862
949.70 0.7861
949.80 0.786
949.90 0.7858
950.00 0.7857
950.10 0.7856
950.20 0.7855
950.30 0.7853
950.40 0.7852
950.50 0.7851
950.60 0.7849
950.70 0.7848
950.80 0.7847
950.90 0.7846
951.00 0.7844
951.10 0.7843
951.20 0.7842
951.30 0.7841
951.40 0.7839
951.50 0.7838
951.60 0.7837
951.70 0.7836
951.80 0.7834
951.90 0.7833
952.00 0.7832
952.10 0.783
952.20 0.7829
952.30 0.7828
952.40 0.7827
952.50 0.7825
952.60 0.7824
952.70 0.7823
952.80 0.7821
952.90 0.782
953.00 0.7819
953.10 0.7818
953.20 0.7816
953.30 0.7815
953.40 0.7814
953.50 0.7813
953.60 0.7811
953.70 0.781
953.80 0.7809
953.90 0.7808
954.00 0.7806
954.10 0.7805
954.20 0.7804
954.30 0.7802
954.40 0.7801
954.50 0.78
954.60 0.7799
954.70 0.7797
954.80 0.7796
954.90 0.7795
955.00 0.7794
955.10 0.7792
955.20 0.7791
955.30 0.779
955.40 0.7788
955.50 0.7787
955.60 0.7786
955.70 0.7785
955.80 0.7783
955.90 0.7782
956.00 0.7781
956.10 0.778
956.20 0.7778
956.30 0.7777
956.40 0.7776
956.50 0.7774
956.60 0.7773
956.70 0.7772
956.80 0.7771
956.90 0.7769
957.00 0.7768
957.10 0.7767
957.20 0.7766
957.30 0.7764
957.40 0.7763
957.50 0.7762
957.60 0.776
957.70 0.7759
957.80 0.7758
957.90 0.7757
958.00 0.7755
958.10 0.7754
958.20 0.7753
958.30 0.7752
958.40 0.775
958.50 0.7749
958.60 0.7748
958.70 0.7746
958.80 0.7745
958.90 0.7744
959.00 0.7743
959.10 0.7741
959.20 0.774
959.30 0.7739
959.40 0.7738
959.50 0.7736
959.60 0.7735
959.70 0.7734
959.80 0.7733
959.90 0.7731
960.00 0.773
960.10 0.7729
960.20 0.7727
960.30 0.7726
960.40 0.7725
960.50 0.7724
960.60 0.7722
960.70 0.7721
960.80 0.772
960.90 0.7719
961.00 0.7717
961.10 0.7716
961.20 0.7715
961.30 0.7714
961.40 0.7712
961.50 0.7711
961.60 0.771
961.70 0.7709
961.80 0.7707
961.90 0.7706
962.00 0.7705
962.10 0.7704
962.20 0.7702
962.30 0.7701
962.40 0.77
962.50 0.7698
962.60 0.7697
962.70 0.7696
962.80 0.7695
962.90 0.7693
963.00 0.7692
963.10 0.7691
963.20 0.769
963.30 0.7688
963.40 0.7687
963.50 0.7686
963.60 0.7685
963.70 0.7683
963.80 0.7682
963.90 0.7681
964.00 0.7679
964.10 0.7678
964.20 0.7677
964.30 0.7676
964.40 0.7674
964.50 0.7673
964.60 0.7672
964.70 0.7671
964.80 0.7669
964.90 0.7668
965.00 0.7667
965.10 0.7666
965.20 0.7664
965.30 0.7663
965.40 0.7662
965.50 0.7661
965.60 0.7659
965.70 0.7658
965.80 0.7657
965.90 0.7655
966.00 0.7654
966.10 0.7653
966.20 0.7652
966.30 0.765
966.40 0.7649
966.50 0.7648
966.60 0.7647
966.70 0.7645
966.80 0.7644
966.90 0.7643
967.00 0.7642
967.10 0.764
967.20 0.7639
967.30 0.7638
967.40 0.7637
967.50 0.7635
967.60 0.7634
967.70 0.7633
967.80 0.7631
967.90 0.763
968.00 0.7629
968.10 0.7628
968.20 0.7626
968.30 0.7625
968.40 0.7624
968.50 0.7623
968.60 0.7621
968.70 0.762
968.80 0.7619
968.90 0.7618
969.00 0.7616
969.10 0.7615
969.20 0.7614
969.30 0.7613
969.40 0.7611
969.50 0.761
969.60 0.7609
969.70 0.7607
969.80 0.7606
969.90 0.7605
970.00 0.7604
970.10 0.7602
970.20 0.7601
970.30 0.76
970.40 0.7599
970.50 0.7597
970.60 0.7596
970.70 0.7595
970.80 0.7594
970.90 0.7592
971.00 0.7591
971.10 0.759
971.20 0.7589
971.30 0.7587
971.40 0.7586
971.50 0.7585
971.60 0.7584
971.70 0.7582
971.80 0.7581
971.90 0.758
972.00 0.7579
972.10 0.7577
972.20 0.7576
972.30 0.7575
972.40 0.7574
972.50 0.7572
972.60 0.7571
972.70 0.757
972.80 0.7569
972.90 0.7567
973.00 0.7566
973.10 0.7565
973.20 0.7564
973.30 0.7562
973.40 0.7561
973.50 0.756
973.60 0.7558
973.70 0.7557
973.80 0.7556
973.90 0.7555
974.00 0.7553
974.10 0.7552
974.20 0.7551
974.30 0.755
974.40 0.7548
974.50 0.7547
974.60 0.7546
974.70 0.7545
974.80 0.7543
974.90 0.7542
975.00 0.7541
975.10 0.754
975.20 0.7538
975.30 0.7537
975.40 0.7536
975.50 0.7535
975.60 0.7533
975.70 0.7532
975.80 0.7531
975.90 0.753
976.00 0.7528
976.10 0.7527
976.20 0.7526
976.30 0.7525
976.40 0.7523
976.50 0.7522
976.60 0.7521
976.70 0.752
976.80 0.7518
976.90 0.7517
977.00 0.7516
977.10 0.7515
977.20 0.7513
977.30 0.7512
977.40 0.7511
977.50 0.751
977.60 0.7508
977.70 0.7507
977.80 0.7506
977.90 0.7505
978.00 0.7503
978.10 0.7502
978.20 0.7501
978.30 0.75
978.40 0.7498
978.50 0.7497
978.60 0.7496
978.70 0.7495
978.80 0.7493
978.90 0.7492
979.00 0.7491
979.10 0.749
979.20 0.7488
979.30 0.7487
979.40 0.7486
979.50 0.7485
979.60 0.7483
979.70 0.7482
979.80 0.7481
979.90 0.748
980.00 0.7478
980.10 0.7477
980.20 0.7476
980.30 0.7475
980.40 0.7473
980.50 0.7472
980.60 0.7471
980.70 0.747
980.80 0.7468
980.90 0.7467
981.00 0.7466
981.10 0.7465
981.20 0.7463
981.30 0.7462
981.40 0.7461
981.50 0.746
981.60 0.7458
981.70 0.7457
981.80 0.7456
981.90 0.7455
982.00 0.7453
982.10 0.7452
982.20 0.7451
982.30 0.745
982.40 0.7448
982.50 0.7447
982.60 0.7446
982.70 0.7445
982.80 0.7443
982.90 0.7442
983.00 0.7441
983.10 0.744
983.20 0.7438
983.30 0.7437
983.40 0.7436
983.50 0.7435
983.60 0.7434
983.70 0.7432
983.80 0.7431
983.90 0.743
984.00 0.7429
984.10 0.7427
984.20 0.7426
984.30 0.7425
984.40 0.7424
984.50 0.7422
984.60 0.7421
984.70 0.742
984.80 0.7419
984.90 0.7417
985.00 0.7416
985.10 0.7415
985.20 0.7414
985.30 0.7412
985.40 0.7411
985.50 0.741
985.60 0.7409
985.70 0.7407
985.80 0.7406
985.90 0.7405
986.00 0.7404
986.10 0.7403
986.20 0.7401
986.30 0.74
986.40 0.7399
986.50 0.7398
986.60 0.7396
986.70 0.7395
986.80 0.7394
986.90 0.7393
987.00 0.7391
987.10 0.739
987.20 0.7389
987.30 0.7388
987.40 0.7386
987.50 0.7385
987.60 0.7384
987.70 0.7383
987.80 0.7381
987.90 0.738
988.00 0.7379
988.10 0.7378
988.20 0.7376
988.30 0.7375
988.40 0.7374
988.50 0.7373
988.60 0.7371
988.70 0.737
988.80 0.7369
988.90 0.7368
989.00 0.7367
989.10 0.7365
989.20 0.7364
989.30 0.7363
989.40 0.7362
989.50 0.736
989.60 0.7359
989.70 0.7358
989.80 0.7357
989.90 0.7355
990.00 0.7354
990.10 0.7353
990.20 0.7352
990.30 0.7351
990.40 0.7349
990.50 0.7348
990.60 0.7347
990.70 0.7346
990.80 0.7344
990.90 0.7343
991.00 0.7342
991.10 0.7341
991.20 0.7339
991.30 0.7338
991.40 0.7337
991.50 0.7336
991.60 0.7334
991.70 0.7333
991.80 0.7332
991.90 0.7331
992.00 0.733
992.10 0.7328
992.20 0.7327
992.30 0.7326
992.40 0.7325
992.50 0.7323
992.60 0.7322
992.70 0.7321
992.80 0.732
992.90 0.7318
993.00 0.7317
993.10 0.7316
993.20 0.7315
993.30 0.7314
993.40 0.7312
993.50 0.7311
993.60 0.731
993.70 0.7309
993.80 0.7307
993.90 0.7306
994.00 0.7305
994.10 0.7304
994.20 0.7302
994.30 0.7301
994.40 0.73
994.50 0.7299
994.60 0.7297
994.70 0.7296
994.80 0.7295
994.90 0.7294
995.00 0.7293
995.10 0.7291
995.20 0.729
995.30 0.7289
995.40 0.7288
995.50 0.7286
995.60 0.7285
995.70 0.7284
995.80 0.7283
995.90 0.7282
996.00 0.728
996.10 0.7279
996.20 0.7278
996.30 0.7277
996.40 0.7275
996.50 0.7274
996.60 0.7273
996.70 0.7272
996.80 0.7271
996.90 0.7269
997.00 0.7268
997.10 0.7267
997.20 0.7266
997.30 0.7264
997.40 0.7263
997.50 0.7262
997.60 0.7261
997.70 0.726
997.80 0.7258
997.90 0.7257
998.00 0.7256
998.10 0.7255
998.20 0.7253
998.30 0.7252
998.40 0.7251
998.50 0.725
998.60 0.7249
998.70 0.7247
998.80 0.7246
998.90 0.7245
999.00 0.7244
999.10 0.7242
999.20 0.7241
999.30 0.724
999.40 0.7239
999.50 0.7238
999.60 0.7236
999.70 0.7235
999.80 0.7234
999.90 0.7233
1000.00 0.7232
1000.10 0.723
1000.20 0.7229
1000.30 0.7228
1000.40 0.7227
1000.50 0.7225
1000.60 0.7224
1000.70 0.7223
1000.80 0.7222
1000.90 0.7221
1001.00 0.7219
1001.10 0.7218
1001.20 0.7217
1001.30 0.7216
1001.40 0.7214
1001.50 0.7213
1001.60 0.7212
1001.70 0.7211
1001.80 0.721
1001.90 0.7208
1002.00 0.7207
1002.10 0.7206
1002.20 0.7205
1002.30 0.7203
1002.40 0.7202
1002.50 0.7201
1002.60 0.72
1002.70 0.7199
1002.80 0.7197
1002.90 0.7196
1003.00 0.7195
1003.10 0.7194
1003.20 0.7192
1003.30 0.7191
1003.40 0.719
1003.50 0.7189
1003.60 0.7188
1003.70 0.7186
1003.80 0.7185
1003.90 0.7184
1004.00 0.7183
1004.10 0.7182
1004.20 0.718
1004.30 0.7179
1004.40 0.7178
1004.50 0.7177
1004.60 0.7176
1004.70 0.7174
1004.80 0.7173
1004.90 0.7172
1005.00 0.7171
1005.10 0.7169
1005.20 0.7168
1005.30 0.7167
1005.40 0.7166
1005.50 0.7165
1005.60 0.7163
1005.70 0.7162
1005.80 0.7161
1005.90 0.716
1006.00 0.7159
1006.10 0.7157
1006.20 0.7156
1006.30 0.7155
1006.40 0.7154
1006.50 0.7153
1006.60 0.7151
1006.70 0.715
1006.80 0.7149
1006.90 0.7148
1007.00 0.7146
1007.10 0.7145
1007.20 0.7144
1007.30 0.7143
1007.40 0.7142
1007.50 0.714
1007.60 0.7139
1007.70 0.7138
1007.80 0.7137
1007.90 0.7136
1008.00 0.7134
1008.10 0.7133
1008.20 0.7132
1008.30 0.7131
1008.40 0.713
1008.50 0.7128
1008.60 0.7127
1008.70 0.7126
1008.80 0.7125
1008.90 0.7124
1009.00 0.7122
1009.10 0.7121
1009.20 0.712
1009.30 0.7119
1009.40 0.7118
1009.50 0.7116
1009.60 0.7115
1009.70 0.7114
1009.80 0.7113
1009.90 0.7111
1010.00 0.711
1010.10 0.7109
1010.20 0.7108
1010.30 0.7107
1010.40 0.7105
1010.50 0.7104
1010.60 0.7103
1010.70 0.7102
1010.80 0.7101
1010.90 0.7099
1011.00 0.7098
1011.10 0.7097
1011.20 0.7096
1011.30 0.7095
1011.40 0.7093
1011.50 0.7092
1011.60 0.7091
1011.70 0.709
1011.80 0.7089
1011.90 0.7087
1012.00 0.7086
1012.10 0.7085
1012.20 0.7084
1012.30 0.7083
1012.40 0.7081
1012.50 0.708
1012.60 0.7079
1012.70 0.7078
1012.80 0.7077
1012.90 0.7075
1013.00 0.7074
1013.10 0.7073
1013.20 0.7072
1013.30 0.7071
1013.40 0.7069
1013.50 0.7068
1013.60 0.7067
1013.70 0.7066
1013.80 0.7065
1013.90 0.7063
1014.00 0.7062
1014.10 0.7061
1014.20 0.706
1014.30 0.7058
1014.40 0.7057
1014.50 0.7056
1014.60 0.7055
1014.70 0.7054
1014.80 0.7052
1014.90 0.7051
1015.00 0.705
1015.10 0.7049
1015.20 0.7048
1015.30 0.7046
1015.40 0.7045
1015.50 0.7044
1015.60 0.7043
1015.70 0.7042
1015.80 0.7041
1015.90 0.7039
1016.00 0.7038
1016.10 0.7037
1016.20 0.7036
1016.30 0.7035
1016.40 0.7033
1016.50 0.7032
1016.60 0.7031
1016.70 0.703
1016.80 0.7029
1016.90 0.7027
1017.00 0.7026
1017.10 0.7025
1017.20 0.7024
1017.30 0.7023
1017.40 0.7021
1017.50 0.702
1017.60 0.7019
1017.70 0.7018
1017.80 0.7017
1017.90 0.7015
1018.00 0.7014
1018.10 0.7013
1018.20 0.7012
1018.30 0.7011
1018.40 0.7009
1018.50 0.7008
1018.60 0.7007
1018.70 0.7006
1018.80 0.7005
1018.90 0.7003
1019.00 0.7002
1019.10 0.7001
1019.20 0.7
1019.30 0.6999
1019.40 0.6998
1019.50 0.6996
1019.60 0.6995
1019.70 0.6994
1019.80 0.6993
1019.90 0.6992
1020.00 0.699
1020.10 0.6989
1020.20 0.6988
1020.30 0.6987
1020.40 0.6986
1020.50 0.6984
1020.60 0.6983
1020.70 0.6982
1020.80 0.6981
1020.90 0.698
1021.00 0.6979
1021.10 0.6977
1021.20 0.6976
1021.30 0.6975
1021.40 0.6974
1021.50 0.6973
1021.60 0.6971
1021.70 0.697
1021.80 0.6969
1021.90 0.6968
1022.00 0.6967
1022.10 0.6965
1022.20 0.6964
1022.30 0.6963
1022.40 0.6962
1022.50 0.6961
1022.60 0.696
1022.70 0.6958
1022.80 0.6957
1022.90 0.6956
1023.00 0.6955
1023.10 0.6954
1023.20 0.6952
1023.30 0.6951
1023.40 0.695
1023.50 0.6949
1023.60 0.6948
1023.70 0.6946
1023.80 0.6945
1023.90 0.6944
1024.00 0.6943
1024.10 0.6942
1024.20 0.6941
1024.30 0.6939
1024.40 0.6938
1024.50 0.6937
1024.60 0.6936
1024.70 0.6935
1024.80 0.6933
1024.90 0.6932
1025.00 0.6931
1025.10 0.693
1025.20 0.6929
1025.30 0.6928
1025.40 0.6926
1025.50 0.6925
1025.60 0.6924
1025.70 0.6923
1025.80 0.6922
1025.90 0.692
1026.00 0.6919
1026.10 0.6918
1026.20 0.6917
1026.30 0.6916
1026.40 0.6915
1026.50 0.6913
1026.60 0.6912
1026.70 0.6911
1026.80 0.691
1026.90 0.6909
1027.00 0.6908
1027.10 0.6906
1027.20 0.6905
1027.30 0.6904
1027.40 0.6903
1027.50 0.6902
1027.60 0.69
1027.70 0.6899
1027.80 0.6898
1027.90 0.6897
1028.00 0.6896
1028.10 0.6895
1028.20 0.6893
1028.30 0.6892
1028.40 0.6891
1028.50 0.689
1028.60 0.6889
1028.70 0.6887
1028.80 0.6886
1028.90 0.6885
1029.00 0.6884
1029.10 0.6883
1029.20 0.6882
1029.30 0.688
1029.40 0.6879
1029.50 0.6878
1029.60 0.6877
1029.70 0.6876
1029.80 0.6875
1029.90 0.6873
1030.00 0.6872
1030.10 0.6871
1030.20 0.687
1030.30 0.6869
1030.40 0.6868
1030.50 0.6866
1030.60 0.6865
1030.70 0.6864
1030.80 0.6863
1030.90 0.6862
1031.00 0.6861
1031.10 0.6859
1031.20 0.6858
1031.30 0.6857
1031.40 0.6856
1031.50 0.6855
1031.60 0.6854
1031.70 0.6852
1031.80 0.6851
1031.90 0.685
1032.00 0.6849
1032.10 0.6848
1032.20 0.6847
1032.30 0.6845
1032.40 0.6844
1032.50 0.6843
1032.60 0.6842
1032.70 0.6841
1032.80 0.6839
1032.90 0.6838
1033.00 0.6837
1033.10 0.6836
1033.20 0.6835
1033.30 0.6834
1033.40 0.6832
1033.50 0.6831
1033.60 0.683
1033.70 0.6829
1033.80 0.6828
1033.90 0.6827
1034.00 0.6825
1034.10 0.6824
1034.20 0.6823
1034.30 0.6822
1034.40 0.6821
1034.50 0.682
1034.60 0.6818
1034.70 0.6817
1034.80 0.6816
1034.90 0.6815
1035.00 0.6814
1035.10 0.6813
1035.20 0.6812
1035.30 0.681
1035.40 0.6809
1035.50 0.6808
1035.60 0.6807
1035.70 0.6806
1035.80 0.6805
1035.90 0.6803
1036.00 0.6802
1036.10 0.6801
1036.20 0.68
1036.30 0.6799
1036.40 0.6798
1036.50 0.6796
1036.60 0.6795
1036.70 0.6794
1036.80 0.6793
1036.90 0.6792
1037.00 0.6791
1037.10 0.679
1037.20 0.6788
1037.30 0.6787
1037.40 0.6786
1037.50 0.6785
1037.60 0.6784
1037.70 0.6783
1037.80 0.6781
1037.90 0.678
1038.00 0.6779
1038.10 0.6778
1038.20 0.6777
1038.30 0.6776
1038.40 0.6774
1038.50 0.6773
1038.60 0.6772
1038.70 0.6771
1038.80 0.677
1038.90 0.6769
1039.00 0.6767
1039.10 0.6766
1039.20 0.6765
1039.30 0.6764
1039.40 0.6763
1039.50 0.6762
1039.60 0.676
1039.70 0.6759
1039.80 0.6758
1039.90 0.6757
1040.00 0.6756
1040.10 0.6755
1040.20 0.6754
1040.30 0.6752
1040.40 0.6751
1040.50 0.675
1040.60 0.6749
1040.70 0.6748
1040.80 0.6747
1040.90 0.6745
1041.00 0.6744
1041.10 0.6743
1041.20 0.6742
1041.30 0.6741
1041.40 0.674
1041.50 0.6739
1041.60 0.6737
1041.70 0.6736
1041.80 0.6735
1041.90 0.6734
1042.00 0.6733
1042.10 0.6732
1042.20 0.6731
1042.30 0.6729
1042.40 0.6728
1042.50 0.6727
1042.60 0.6726
1042.70 0.6725
1042.80 0.6724
1042.90 0.6722
1043.00 0.6721
1043.10 0.672
1043.20 0.6719
1043.30 0.6718
1043.40 0.6717
1043.50 0.6716
1043.60 0.6714
1043.70 0.6713
1043.80 0.6712
1043.90 0.6711
1044.00 0.671
1044.10 0.6709
1044.20 0.6708
1044.30 0.6706
1044.40 0.6705
1044.50 0.6704
1044.60 0.6703
1044.70 0.6702
1044.80 0.6701
1044.90 0.67
1045.00 0.6698
1045.10 0.6697
1045.20 0.6696
1045.30 0.6695
1045.40 0.6694
1045.50 0.6693
1045.60 0.6692
1045.70 0.669
1045.80 0.6689
1045.90 0.6688
1046.00 0.6687
1046.10 0.6686
1046.20 0.6685
1046.30 0.6684
1046.40 0.6682
1046.50 0.6681
1046.60 0.668
1046.70 0.6679
1046.80 0.6678
1046.90 0.6677
1047.00 0.6676
1047.10 0.6674
1047.20 0.6673
1047.30 0.6672
1047.40 0.6671
1047.50 0.667
1047.60 0.6669
1047.70 0.6668
1047.80 0.6666
1047.90 0.6665
1048.00 0.6664
1048.10 0.6663
1048.20 0.6662
1048.30 0.6661
1048.40 0.666
1048.50 0.6659
1048.60 0.6657
1048.70 0.6656
1048.80 0.6655
1048.90 0.6654
1049.00 0.6653
1049.10 0.6652
1049.20 0.6651
1049.30 0.6649
1049.40 0.6648
1049.50 0.6647
1049.60 0.6646
1049.70 0.6645
1049.80 0.6644
1049.90 0.6643
1050.00 0.6642
1050.10 0.664
1050.20 0.6639
1050.30 0.6638
1050.40 0.6637
1050.50 0.6636
1050.60 0.6635
1050.70 0.6634
1050.80 0.6633
1050.90 0.6631
1051.00 0.663
1051.10 0.6629
1051.20 0.6628
1051.30 0.6627
1051.40 0.6626
1051.50 0.6625
1051.60 0.6623
1051.70 0.6622
1051.80 0.6621
1051.90 0.662
1052.00 0.6619
1052.10 0.6618
1052.20 0.6617
1052.30 0.6616
1052.40 0.6614
1052.50 0.6613
1052.60 0.6612
1052.70 0.6611
1052.80 0.661
1052.90 0.6609
1053.00 0.6608
1053.10 0.6607
1053.20 0.6605
1053.30 0.6604
1053.40 0.6603
1053.50 0.6602
1053.60 0.6601
1053.70 0.66
1053.80 0.6599
1053.90 0.6598
1054.00 0.6596
1054.10 0.6595
1054.20 0.6594
1054.30 0.6593
1054.40 0.6592
1054.50 0.6591
1054.60 0.659
1054.70 0.6589
1054.80 0.6587
1054.90 0.6586
1055.00 0.6585
1055.10 0.6584
1055.20 0.6583
1055.30 0.6582
1055.40 0.6581
1055.50 0.658
1055.60 0.6578
1055.70 0.6577
1055.80 0.6576
1055.90 0.6575
1056.00 0.6574
1056.10 0.6573
1056.20 0.6572
1056.30 0.6571
1056.40 0.6569
1056.50 0.6568
1056.60 0.6567
1056.70 0.6566
1056.80 0.6565
1056.90 0.6564
1057.00 0.6563
1057.10 0.6562
1057.20 0.656
1057.30 0.6559
1057.40 0.6558
1057.50 0.6557
1057.60 0.6556
1057.70 0.6555
1057.80 0.6554
1057.90 0.6553
1058.00 0.6552
1058.10 0.655
1058.20 0.6549
1058.30 0.6548
1058.40 0.6547
1058.50 0.6546
1058.60 0.6545
1058.70 0.6544
1058.80 0.6543
1058.90 0.6541
1059.00 0.654
1059.10 0.6539
1059.20 0.6538
1059.30 0.6537
1059.40 0.6536
1059.50 0.6535
1059.60 0.6534
1059.70 0.6533
1059.80 0.6531
1059.90 0.653
1060.00 0.6529
1060.10 0.6528
1060.20 0.6527
1060.30 0.6526
1060.40 0.6525
1060.50 0.6524
1060.60 0.6523
1060.70 0.6521
1060.80 0.652
1060.90 0.6519
1061.00 0.6518
1061.10 0.6517
1061.20 0.6516
1061.30 0.6515
1061.40 0.6514
1061.50 0.6513
1061.60 0.6511
1061.70 0.651
1061.80 0.6509
1061.90 0.6508
1062.00 0.6507
1062.10 0.6506
1062.20 0.6505
1062.30 0.6504
1062.40 0.6503
1062.50 0.6501
1062.60 0.65
1062.70 0.6499
1062.80 0.6498
1062.90 0.6497
1063.00 0.6496
1063.10 0.6495
1063.20 0.6494
1063.30 0.6493
1063.40 0.6492
1063.50 0.649
1063.60 0.6489
1063.70 0.6488
1063.80 0.6487
1063.90 0.6486
1064.00 0.6485
1064.10 0.6484
1064.20 0.6483
1064.30 0.6482
1064.40 0.648
1064.50 0.6479
1064.60 0.6478
1064.70 0.6477
1064.80 0.6476
1064.90 0.6475
1065.00 0.6474
1065.10 0.6473
1065.20 0.6472
1065.30 0.6471
1065.40 0.6469
1065.50 0.6468
1065.60 0.6467
1065.70 0.6466
1065.80 0.6465
1065.90 0.6464
1066.00 0.6463
1066.10 0.6462
1066.20 0.6461
1066.30 0.646
1066.40 0.6459
1066.50 0.6457
1066.60 0.6456
1066.70 0.6455
1066.80 0.6454
1066.90 0.6453
1067.00 0.6452
1067.10 0.6451
1067.20 0.645
1067.30 0.6449
1067.40 0.6448
1067.50 0.6446
1067.60 0.6445
1067.70 0.6444
1067.80 0.6443
1067.90 0.6442
1068.00 0.6441
1068.10 0.644
1068.20 0.6439
1068.30 0.6438
1068.40 0.6437
1068.50 0.6435
1068.60 0.6434
1068.70 0.6433
1068.80 0.6432
1068.90 0.6431
1069.00 0.643
1069.10 0.6429
1069.20 0.6428
1069.30 0.6427
1069.40 0.6426
1069.50 0.6425
1069.60 0.6423
1069.70 0.6422
1069.80 0.6421
1069.90 0.642
1070.00 0.6419
1070.10 0.6418
1070.20 0.6417
1070.30 0.6416
1070.40 0.6415
1070.50 0.6414
1070.60 0.6413
1070.70 0.6411
1070.80 0.641
1070.90 0.6409
1071.00 0.6408
1071.10 0.6407
1071.20 0.6406
1071.30 0.6405
1071.40 0.6404
1071.50 0.6403
1071.60 0.6402
1071.70 0.6401
1071.80 0.6399
1071.90 0.6398
1072.00 0.6397
1072.10 0.6396
1072.20 0.6395
1072.30 0.6394
1072.40 0.6393
1072.50 0.6392
1072.60 0.6391
1072.70 0.639
1072.80 0.6389
1072.90 0.6387
1073.00 0.6386
1073.10 0.6385
1073.20 0.6384
1073.30 0.6383
1073.40 0.6382
1073.50 0.6381
1073.60 0.638
1073.70 0.6379
1073.80 0.6378
1073.90 0.6377
1074.00 0.6376
1074.10 0.6374
1074.20 0.6373
1074.30 0.6372
1074.40 0.6371
1074.50 0.637
1074.60 0.6369
1074.70 0.6368
1074.80 0.6367
1074.90 0.6366
1075.00 0.6365
1075.10 0.6364
1075.20 0.6363
1075.30 0.6361
1075.40 0.636
1075.50 0.6359
1075.60 0.6358
1075.70 0.6357
1075.80 0.6356
1075.90 0.6355
1076.00 0.6354
1076.10 0.6353
1076.20 0.6352
1076.30 0.6351
1076.40 0.635
1076.50 0.6348
1076.60 0.6347
1076.70 0.6346
1076.80 0.6345
1076.90 0.6344
1077.00 0.6343
1077.10 0.6342
1077.20 0.6341
1077.30 0.634
1077.40 0.6339
1077.50 0.6338
1077.60 0.6337
1077.70 0.6336
1077.80 0.6334
1077.90 0.6333
1078.00 0.6332
1078.10 0.6331
1078.20 0.633
1078.30 0.6329
1078.40 0.6328
1078.50 0.6327
1078.60 0.6326
1078.70 0.6325
1078.80 0.6324
1078.90 0.6323
1079.00 0.6322
1079.10 0.632
1079.20 0.6319
1079.30 0.6318
1079.40 0.6317
1079.50 0.6316
1079.60 0.6315
1079.70 0.6314
1079.80 0.6313
1079.90 0.6312
1080.00 0.6311
1080.10 0.631
1080.20 0.6309
1080.30 0.6308
1080.40 0.6307
1080.50 0.6305
1080.60 0.6304
1080.70 0.6303
1080.80 0.6302
1080.90 0.6301
1081.00 0.63
1081.10 0.6299
1081.20 0.6298
1081.30 0.6297
1081.40 0.6296
1081.50 0.6295
1081.60 0.6294
1081.70 0.6293
1081.80 0.6291
1081.90 0.629
1082.00 0.6289
1082.10 0.6288
1082.20 0.6287
1082.30 0.6286
1082.40 0.6285
1082.50 0.6284
1082.60 0.6283
1082.70 0.6282
1082.80 0.6281
1082.90 0.628
1083.00 0.6279
1083.10 0.6278
1083.20 0.6276
1083.30 0.6275
1083.40 0.6274
1083.50 0.6273
1083.60 0.6272
1083.70 0.6271
1083.80 0.627
1083.90 0.6269
1084.00 0.6268
1084.10 0.6267
1084.20 0.6266
1084.30 0.6265
1084.40 0.6264
1084.50 0.6263
1084.60 0.6262
1084.70 0.626
1084.80 0.6259
1084.90 0.6258
1085.00 0.6257
1085.10 0.6256
1085.20 0.6255
1085.30 0.6254
1085.40 0.6253
1085.50 0.6252
1085.60 0.6251
1085.70 0.625
1085.80 0.6249
1085.90 0.6248
1086.00 0.6247
1086.10 0.6246
1086.20 0.6245
1086.30 0.6243
1086.40 0.6242
1086.50 0.6241
1086.60 0.624
1086.70 0.6239
1086.80 0.6238
1086.90 0.6237
1087.00 0.6236
1087.10 0.6235
1087.20 0.6234
1087.30 0.6233
1087.40 0.6232
1087.50 0.6231
1087.60 0.623
1087.70 0.6229
1087.80 0.6228
1087.90 0.6227
1088.00 0.6225
1088.10 0.6224
1088.20 0.6223
1088.30 0.6222
1088.40 0.6221
1088.50 0.622
1088.60 0.6219
1088.70 0.6218
1088.80 0.6217
1088.90 0.6216
1089.00 0.6215
1089.10 0.6214
1089.20 0.6213
1089.30 0.6212
1089.40 0.6211
1089.50 0.621
1089.60 0.6209
1089.70 0.6208
1089.80 0.6206
1089.90 0.6205
1090.00 0.6204
1090.10 0.6203
1090.20 0.6202
1090.30 0.6201
1090.40 0.62
1090.50 0.6199
1090.60 0.6198
1090.70 0.6197
1090.80 0.6196
1090.90 0.6195
1091.00 0.6194
1091.10 0.6193
1091.20 0.6192
1091.30 0.6191
1091.40 0.619
1091.50 0.6189
1091.60 0.6187
1091.70 0.6186
1091.80 0.6185
1091.90 0.6184
1092.00 0.6183
1092.10 0.6182
1092.20 0.6181
1092.30 0.618
1092.40 0.6179
1092.50 0.6178
1092.60 0.6177
1092.70 0.6176
1092.80 0.6175
1092.90 0.6174
1093.00 0.6173
1093.10 0.6172
1093.20 0.6171
1093.30 0.617
1093.40 0.6169
1093.50 0.6167
1093.60 0.6166
1093.70 0.6165
1093.80 0.6164
1093.90 0.6163
1094.00 0.6162
1094.10 0.6161
1094.20 0.616
1094.30 0.6159
1094.40 0.6158
1094.50 0.6157
1094.60 0.6156
1094.70 0.6155
1094.80 0.6154
1094.90 0.6153
1095.00 0.6152
1095.10 0.6151
1095.20 0.615
1095.30 0.6149
1095.40 0.6148
1095.50 0.6147
1095.60 0.6146
1095.70 0.6144
1095.80 0.6143
1095.90 0.6142
1096.00 0.6141
1096.10 0.614
1096.20 0.6139
1096.30 0.6138
1096.40 0.6137
1096.50 0.6136
1096.60 0.6135
1096.70 0.6134
1096.80 0.6133
1096.90 0.6132
1097.00 0.6131
1097.10 0.613
1097.20 0.6129
1097.30 0.6128
1097.40 0.6127
1097.50 0.6126
1097.60 0.6125
1097.70 0.6124
1097.80 0.6123
1097.90 0.6122
1098.00 0.612
1098.10 0.6119
1098.20 0.6118
1098.30 0.6117
1098.40 0.6116
1098.50 0.6115
1098.60 0.6114
1098.70 0.6113
1098.80 0.6112
1098.90 0.6111
1099.00 0.611
1099.10 0.6109
1099.20 0.6108
1099.30 0.6107
1099.40 0.6106
1099.50 0.6105
1099.60 0.6104
1099.70 0.6103
1099.80 0.6102
1099.90 0.6101
1100.00 0.61
1100.10 0.6099
1100.20 0.6098
1100.30 0.6097
1100.40 0.6096
1100.50 0.6095
1100.60 0.6093
1100.70 0.6092
1100.80 0.6091
1100.90 0.609
1101.00 0.6089
1101.10 0.6088
1101.20 0.6087
1101.30 0.6086
1101.40 0.6085
1101.50 0.6084
1101.60 0.6083
1101.70 0.6082
1101.80 0.6081
1101.90 0.608
1102.00 0.6079
1102.10 0.6078
1102.20 0.6077
1102.30 0.6076
1102.40 0.6075
1102.50 0.6074
1102.60 0.6073
1102.70 0.6072
1102.80 0.6071
1102.90 0.607
1103.00 0.6069
1103.10 0.6068
1103.20 0.6066
1103.30 0.6065
1103.40 0.6064
1103.50 0.6063
1103.60 0.6062
1103.70 0.6061
1103.80 0.606
1103.90 0.6059
1104.00 0.6058
1104.10 0.6057
1104.20 0.6056
1104.30 0.6055
1104.40 0.6054
1104.50 0.6053
1104.60 0.6052
1104.70 0.6051
1104.80 0.605
1104.90 0.6049
1105.00 0.6048
1105.10 0.6047
1105.20 0.6046
1105.30 0.6045
1105.40 0.6044
1105.50 0.6043
1105.60 0.6042
1105.70 0.6041
1105.80 0.604
1105.90 0.6039
1106.00 0.6038
1106.10 0.6037
1106.20 0.6036
1106.30 0.6035
1106.40 0.6033
1106.50 0.6032
1106.60 0.6031
1106.70 0.603
1106.80 0.6029
1106.90 0.6028
1107.00 0.6027
1107.10 0.6026
1107.20 0.6025
1107.30 0.6024
1107.40 0.6023
1107.50 0.6022
1107.60 0.6021
1107.70 0.602
1107.80 0.6019
1107.90 0.6018
1108.00 0.6017
1108.10 0.6016
1108.20 0.6015
1108.30 0.6014
1108.40 0.6013
1108.50 0.6012
1108.60 0.6011
1108.70 0.601
1108.80 0.6009
1108.90 0.6008
1109.00 0.6007
1109.10 0.6006
1109.20 0.6005
1109.30 0.6004
1109.40 0.6003
1109.50 0.6002
1109.60 0.6001
1109.70 0.6
1109.80 0.5999
1109.90 0.5998
1110.00 0.5997
1110.10 0.5996
1110.20 0.5995
1110.30 0.5994
1110.40 0.5993
1110.50 0.5992
1110.60 0.5991
1110.70 0.5989
1110.80 0.5988
1110.90 0.5987
1111.00 0.5986
1111.10 0.5985
1111.20 0.5984
1111.30 0.5983
1111.40 0.5982
1111.50 0.5981
1111.60 0.598
1111.70 0.5979
1111.80 0.5978
1111.90 0.5977
1112.00 0.5976
1112.10 0.5975
1112.20 0.5974
1112.30 0.5973
1112.40 0.5972
1112.50 0.5971
1112.60 0.597
1112.70 0.5969
1112.80 0.5968
1112.90 0.5967
1113.00 0.5966
1113.10 0.5965
1113.20 0.5964
1113.30 0.5963
1113.40 0.5962
1113.50 0.5961
1113.60 0.596
1113.70 0.5959
1113.80 0.5958
1113.90 0.5957
1114.00 0.5956
1114.10 0.5955
1114.20 0.5954
1114.30 0.5953
1114.40 0.5952
1114.50 0.5951
1114.60 0.595
1114.70 0.5949
1114.80 0.5948
1114.90 0.5947
1115.00 0.5946
1115.10 0.5945
1115.20 0.5944
1115.30 0.5943
1115.40 0.5942
1115.50 0.5941
1115.60 0.594
1115.70 0.5939
1115.80 0.5938
1115.90 0.5937
1116.00 0.5936
1116.10 0.5935
1116.20 0.5934
1116.30 0.5933
1116.40 0.5932
1116.50 0.593
1116.60 0.5929
1116.70 0.5928
1116.80 0.5927
1116.90 0.5926
1117.00 0.5925
1117.10 0.5924
1117.20 0.5923
1117.30 0.5922
1117.40 0.5921
1117.50 0.592
1117.60 0.5919
1117.70 0.5918
1117.80 0.5917
1117.90 0.5916
1118.00 0.5915
1118.10 0.5914
1118.20 0.5913
1118.30 0.5912
1118.40 0.5911
1118.50 0.591
1118.60 0.5909
1118.70 0.5908
1118.80 0.5907
1118.90 0.5906
1119.00 0.5905
1119.10 0.5904
1119.20 0.5903
1119.30 0.5902
1119.40 0.5901
1119.50 0.59
1119.60 0.5899
1119.70 0.5898
1119.80 0.5897
1119.90 0.5896
1120.00 0.5895
1120.10 0.5894
1120.20 0.5893
1120.30 0.5892
1120.40 0.5891
1120.50 0.589
1120.60 0.5889
1120.70 0.5888
1120.80 0.5887
1120.90 0.5886
1121.00 0.5885
1121.10 0.5884
1121.20 0.5883
1121.30 0.5882
1121.40 0.5881
1121.50 0.588
1121.60 0.5879
1121.70 0.5878
1121.80 0.5877
1121.90 0.5876
1122.00 0.5875
1122.10 0.5874
1122.20 0.5873
1122.30 0.5872
1122.40 0.5871
1122.50 0.587
1122.60 0.5869
1122.70 0.5868
1122.80 0.5867
1122.90 0.5866
1123.00 0.5865
1123.10 0.5864
1123.20 0.5863
1123.30 0.5862
1123.40 0.5861
1123.50 0.586
1123.60 0.5859
1123.70 0.5858
1123.80 0.5857
1123.90 0.5856
1124.00 0.5855
1124.10 0.5854
1124.20 0.5853
1124.30 0.5852
1124.40 0.5851
1124.50 0.585
1124.60 0.5849
1124.70 0.5848
1124.80 0.5847
1124.90 0.5846
1125.00 0.5845
1125.10 0.5844
1125.20 0.5843
1125.30 0.5842
1125.40 0.5841
1125.50 0.584
1125.60 0.5839
1125.70 0.5838
1125.80 0.5837
1125.90 0.5836
1126.00 0.5835
1126.10 0.5834
1126.20 0.5833
1126.30 0.5832
1126.40 0.5831
1126.50 0.583
1126.60 0.5829
1126.70 0.5828
1126.80 0.5827
1126.90 0.5826
1127.00 0.5825
1127.10 0.5824
1127.20 0.5823
1127.30 0.5822
1127.40 0.5821
1127.50 0.582
1127.60 0.5819
1127.70 0.5818
1127.80 0.5817
1127.90 0.5816
1128.00 0.5815
1128.10 0.5814
1128.20 0.5813
1128.30 0.5812
1128.40 0.5811
1128.50 0.581
1128.60 0.5809
1128.70 0.5808
1128.80 0.5807
1128.90 0.5806
1129.00 0.5805
1129.10 0.5804
1129.20 0.5803
1129.30 0.5802
1129.40 0.5801
1129.50 0.58
1129.60 0.5799
1129.70 0.5798
1129.80 0.5797
1129.90 0.5796
1130.00 0.5795
1130.10 0.5795
1130.20 0.5794
1130.30 0.5793
1130.40 0.5792
1130.50 0.5791
1130.60 0.579
1130.70 0.5789
1130.80 0.5788
1130.90 0.5787
1131.00 0.5786
1131.10 0.5785
1131.20 0.5784
1131.30 0.5783
1131.40 0.5782
1131.50 0.5781
1131.60 0.578
1131.70 0.5779
1131.80 0.5778
1131.90 0.5777
1132.00 0.5776
1132.10 0.5775
1132.20 0.5774
1132.30 0.5773
1132.40 0.5772
1132.50 0.5771
1132.60 0.577
1132.70 0.5769
1132.80 0.5768
1132.90 0.5767
1133.00 0.5766
1133.10 0.5765
1133.20 0.5764
1133.30 0.5763
1133.40 0.5762
1133.50 0.5761
1133.60 0.576
1133.70 0.5759
1133.80 0.5758
1133.90 0.5757
1134.00 0.5756
1134.10 0.5755
1134.20 0.5754
1134.30 0.5753
1134.40 0.5752
1134.50 0.5751
1134.60 0.575
1134.70 0.5749
1134.80 0.5748
1134.90 0.5747
1135.00 0.5746
1135.10 0.5745
1135.20 0.5744
1135.30 0.5743
1135.40 0.5742
1135.50 0.5741
1135.60 0.574
1135.70 0.5739
1135.80 0.5738
1135.90 0.5737
1136.00 0.5736
1136.10 0.5735
1136.20 0.5734
1136.30 0.5733
1136.40 0.5732
1136.50 0.5731
1136.60 0.573
1136.70 0.5729
1136.80 0.5729
1136.90 0.5728
1137.00 0.5727
1137.10 0.5726
1137.20 0.5725
1137.30 0.5724
1137.40 0.5723
1137.50 0.5722
1137.60 0.5721
1137.70 0.572
1137.80 0.5719
1137.90 0.5718
1138.00 0.5717
1138.10 0.5716
1138.20 0.5715
1138.30 0.5714
1138.40 0.5713
1138.50 0.5712
1138.60 0.5711
1138.70 0.571
1138.80 0.5709
1138.90 0.5708
1139.00 0.5707
1139.10 0.5706
1139.20 0.5705
1139.30 0.5704
1139.40 0.5703
1139.50 0.5702
1139.60 0.5701
1139.70 0.57
1139.80 0.5699
1139.90 0.5698
1140.00 0.5697
1140.10 0.5696
1140.20 0.5695
1140.30 0.5694
1140.40 0.5693
1140.50 0.5692
1140.60 0.5691
1140.70 0.569
1140.80 0.5689
1140.90 0.5688
1141.00 0.5687
1141.10 0.5686
1141.20 0.5685
1141.30 0.5685
1141.40 0.5684
1141.50 0.5683
1141.60 0.5682
1141.70 0.5681
1141.80 0.568
1141.90 0.5679
1142.00 0.5678
1142.10 0.5677
1142.20 0.5676
1142.30 0.5675
1142.40 0.5674
1142.50 0.5673
1142.60 0.5672
1142.70 0.5671
1142.80 0.567
1142.90 0.5669
1143.00 0.5668
1143.10 0.5667
1143.20 0.5666
1143.30 0.5665
1143.40 0.5664
1143.50 0.5663
1143.60 0.5662
1143.70 0.5661
1143.80 0.566
1143.90 0.5659
1144.00 0.5658
1144.10 0.5657
1144.20 0.5656
1144.30 0.5655
1144.40 0.5654
1144.50 0.5653
1144.60 0.5652
1144.70 0.5651
1144.80 0.565
1144.90 0.565
1145.00 0.5649
1145.10 0.5648
1145.20 0.5647
1145.30 0.5646
1145.40 0.5645
1145.50 0.5644
1145.60 0.5643
1145.70 0.5642
1145.80 0.5641
1145.90 0.564
1146.00 0.5639
1146.10 0.5638
1146.20 0.5637
1146.30 0.5636
1146.40 0.5635
1146.50 0.5634
1146.60 0.5633
1146.70 0.5632
1146.80 0.5631
1146.90 0.563
1147.00 0.5629
1147.10 0.5628
1147.20 0.5627
1147.30 0.5626
1147.40 0.5625
1147.50 0.5624
1147.60 0.5623
1147.70 0.5622
1147.80 0.5622
1147.90 0.5621
1148.00 0.562
1148.10 0.5619
1148.20 0.5618
1148.30 0.5617
1148.40 0.5616
1148.50 0.5615
1148.60 0.5614
1148.70 0.5613
1148.80 0.5612
1148.90 0.5611
1149.00 0.561
1149.10 0.5609
1149.20 0.5608
1149.30 0.5607
1149.40 0.5606
1149.50 0.5605
1149.60 0.5604
1149.70 0.5603
1149.80 0.5602
1149.90 0.5601
1150.00 0.56
1150.10 0.5599
1150.20 0.5598
1150.30 0.5597
1150.40 0.5596
1150.50 0.5596
1150.60 0.5595
1150.70 0.5594
1150.80 0.5593
1150.90 0.5592
1151.00 0.5591
1151.10 0.559
1151.20 0.5589
1151.30 0.5588
1151.40 0.5587
1151.50 0.5586
1151.60 0.5585
1151.70 0.5584
1151.80 0.5583
1151.90 0.5582
1152.00 0.5581
1152.10 0.558
1152.20 0.5579
1152.30 0.5578
1152.40 0.5577
1152.50 0.5576
1152.60 0.5575
1152.70 0.5574
1152.80 0.5573
1152.90 0.5572
1153.00 0.5572
1153.10 0.5571
1153.20 0.557
1153.30 0.5569
1153.40 0.5568
1153.50 0.5567
1153.60 0.5566
1153.70 0.5565
1153.80 0.5564
1153.90 0.5563
1154.00 0.5562
1154.10 0.5561
1154.20 0.556
1154.30 0.5559
1154.40 0.5558
1154.50 0.5557
1154.60 0.5556
1154.70 0.5555
1154.80 0.5554
1154.90 0.5553
1155.00 0.5552
1155.10 0.5551
1155.20 0.5551
1155.30 0.555
1155.40 0.5549
1155.50 0.5548
1155.60 0.5547
1155.70 0.5546
1155.80 0.5545
1155.90 0.5544
1156.00 0.5543
1156.10 0.5542
1156.20 0.5541
1156.30 0.554
1156.40 0.5539
1156.50 0.5538
1156.60 0.5537
1156.70 0.5536
1156.80 0.5535
1156.90 0.5534
1157.00 0.5533
1157.10 0.5532
1157.20 0.5531
1157.30 0.5531
1157.40 0.553
1157.50 0.5529
1157.60 0.5528
1157.70 0.5527
1157.80 0.5526
1157.90 0.5525
1158.00 0.5524
1158.10 0.5523
1158.20 0.5522
1158.30 0.5521
1158.40 0.552
1158.50 0.5519
1158.60 0.5518
1158.70 0.5517
1158.80 0.5516
1158.90 0.5515
1159.00 0.5514
1159.10 0.5513
1159.20 0.5512
1159.30 0.5512
1159.40 0.5511
1159.50 0.551
1159.60 0.5509
1159.70 0.5508
1159.80 0.5507
1159.90 0.5506
1160.00 0.5505
1160.10 0.5504
1160.20 0.5503
1160.30 0.5502
1160.40 0.5501
1160.50 0.55
1160.60 0.5499
1160.70 0.5498
1160.80 0.5497
1160.90 0.5496
1161.00 0.5495
1161.10 0.5494
1161.20 0.5494
1161.30 0.5493
1161.40 0.5492
1161.50 0.5491
1161.60 0.549
1161.70 0.5489
1161.80 0.5488
1161.90 0.5487
1162.00 0.5486
1162.10 0.5485
1162.20 0.5484
1162.30 0.5483
1162.40 0.5482
1162.50 0.5481
1162.60 0.548
1162.70 0.5479
1162.80 0.5478
1162.90 0.5477
1163.00 0.5477
1163.10 0.5476
1163.20 0.5475
1163.30 0.5474
1163.40 0.5473
1163.50 0.5472
1163.60 0.5471
1163.70 0.547
1163.80 0.5469
1163.90 0.5468
1164.00 0.5467
1164.10 0.5466
1164.20 0.5465
1164.30 0.5464
1164.40 0.5463
1164.50 0.5462
1164.60 0.5461
1164.70 0.546
1164.80 0.546
1164.90 0.5459
1165.00 0.5458
1165.10 0.5457
1165.20 0.5456
1165.30 0.5455
1165.40 0.5454
1165.50 0.5453
1165.60 0.5452
1165.70 0.5451
1165.80 0.545
1165.90 0.5449
1166.00 0.5448
1166.10 0.5447
1166.20 0.5446
1166.30 0.5445
1166.40 0.5444
1166.50 0.5444
1166.60 0.5443
1166.70 0.5442
1166.80 0.5441
1166.90 0.544
1167.00 0.5439
1167.10 0.5438
1167.20 0.5437
1167.30 0.5436
1167.40 0.5435
1167.50 0.5434
1167.60 0.5433
1167.70 0.5432
1167.80 0.5431
1167.90 0.543
1168.00 0.5429
1168.10 0.5429
1168.20 0.5428
1168.30 0.5427
1168.40 0.5426
1168.50 0.5425
1168.60 0.5424
1168.70 0.5423
1168.80 0.5422
1168.90 0.5421
1169.00 0.542
1169.10 0.5419
1169.20 0.5418
1169.30 0.5417
1169.40 0.5416
1169.50 0.5415
1169.60 0.5414
1169.70 0.5414
1169.80 0.5413
1169.90 0.5412
1170.00 0.5411
1170.10 0.541
1170.20 0.5409
1170.30 0.5408
1170.40 0.5407
1170.50 0.5406
1170.60 0.5405
1170.70 0.5404
1170.80 0.5403
1170.90 0.5402
1171.00 0.5401
1171.10 0.5401
1171.20 0.54
1171.30 0.5399
1171.40 0.5398
1171.50 0.5397
1171.60 0.5396
1171.70 0.5395
1171.80 0.5394
1171.90 0.5393
1172.00 0.5392
1172.10 0.5391
1172.20 0.539
1172.30 0.5389
1172.40 0.5388
1172.50 0.5387
1172.60 0.5387
1172.70 0.5386
1172.80 0.5385
1172.90 0.5384
1173.00 0.5383
1173.10 0.5382
1173.20 0.5381
1173.30 0.538
1173.40 0.5379
1173.50 0.5378
1173.60 0.5377
1173.70 0.5376
1173.80 0.5375
1173.90 0.5374
1174.00 0.5373
1174.10 0.5373
1174.20 0.5372
1174.30 0.5371
1174.40 0.537
1174.50 0.5369
1174.60 0.5368
1174.70 0.5367
1174.80 0.5366
1174.90 0.5365
1175.00 0.5364
1175.10 0.5363
1175.20 0.5362
1175.30 0.5361
1175.40 0.536
1175.50 0.536
1175.60 0.5359
1175.70 0.5358
1175.80 0.5357
1175.90 0.5356
1176.00 0.5355
1176.10 0.5354
1176.20 0.5353
1176.30 0.5352
1176.40 0.5351
1176.50 0.535
1176.60 0.5349
1176.70 0.5348
1176.80 0.5348
1176.90 0.5347
1177.00 0.5346
1177.10 0.5345
1177.20 0.5344
1177.30 0.5343
1177.40 0.5342
1177.50 0.5341
1177.60 0.534
1177.70 0.5339
1177.80 0.5338
1177.90 0.5337
1178.00 0.5336
1178.10 0.5335
1178.20 0.5335
1178.30 0.5334
1178.40 0.5333
1178.50 0.5332
1178.60 0.5331
1178.70 0.533
1178.80 0.5329
1178.90 0.5328
1179.00 0.5327
1179.10 0.5326
1179.20 0.5325
1179.30 0.5324
1179.40 0.5323
1179.50 0.5322
1179.60 0.5322
1179.70 0.5321
1179.80 0.532
1179.90 0.5319
1180.00 0.5318
1180.10 0.5317
1180.20 0.5316
1180.30 0.5315
1180.40 0.5314
1180.50 0.5313
1180.60 0.5312
1180.70 0.5311
1180.80 0.531
1180.90 0.531
1181.00 0.5309
1181.10 0.5308
1181.20 0.5307
1181.30 0.5306
1181.40 0.5305
1181.50 0.5304
1181.60 0.5303
1181.70 0.5302
1181.80 0.5301
1181.90 0.53
1182.00 0.5299
1182.10 0.5299
1182.20 0.5298
1182.30 0.5297
1182.40 0.5296
1182.50 0.5295
1182.60 0.5294
1182.70 0.5293
1182.80 0.5292
1182.90 0.5291
1183.00 0.529
1183.10 0.5289
1183.20 0.5288
1183.30 0.5287
1183.40 0.5287
1183.50 0.5286
1183.60 0.5285
1183.70 0.5284
1183.80 0.5283
1183.90 0.5282
1184.00 0.5281
1184.10 0.528
1184.20 0.5279
1184.30 0.5278
1184.40 0.5277
1184.50 0.5276
1184.60 0.5276
1184.70 0.5275
1184.80 0.5274
1184.90 0.5273
1185.00 0.5272
1185.10 0.5271
1185.20 0.527
1185.30 0.5269
1185.40 0.5268
1185.50 0.5267
1185.60 0.5266
1185.70 0.5266
1185.80 0.5265
1185.90 0.5264
1186.00 0.5263
1186.10 0.5262
1186.20 0.5261
1186.30 0.526
1186.40 0.5259
1186.50 0.5258
1186.60 0.5257
1186.70 0.5256
1186.80 0.5255
1186.90 0.5255
1187.00 0.5254
1187.10 0.5253
1187.20 0.5252
1187.30 0.5251
1187.40 0.525
1187.50 0.5249
1187.60 0.5248
1187.70 0.5247
1187.80 0.5246
1187.90 0.5245
1188.00 0.5245
1188.10 0.5244
1188.20 0.5243
1188.30 0.5242
1188.40 0.5241
1188.50 0.524
1188.60 0.5239
1188.70 0.5238
1188.80 0.5237
1188.90 0.5236
1189.00 0.5235
1189.10 0.5235
1189.20 0.5234
1189.30 0.5233
1189.40 0.5232
1189.50 0.5231
1189.60 0.523
1189.70 0.5229
1189.80 0.5228
1189.90 0.5227
1190.00 0.5226
1190.10 0.5225
1190.20 0.5225
1190.30 0.5224
1190.40 0.5223
1190.50 0.5222
1190.60 0.5221
1190.70 0.522
1190.80 0.5219
1190.90 0.5218
1191.00 0.5217
1191.10 0.5216
1191.20 0.5215
1191.30 0.5215
1191.40 0.5214
1191.50 0.5213
1191.60 0.5212
1191.70 0.5211
1191.80 0.521
1191.90 0.5209
1192.00 0.5208
1192.10 0.5207
1192.20 0.5206
1192.30 0.5206
1192.40 0.5205
1192.50 0.5204
1192.60 0.5203
1192.70 0.5202
1192.80 0.5201
1192.90 0.52
1193.00 0.5199
1193.10 0.5198
1193.20 0.5197
1193.30 0.5196
1193.40 0.5196
1193.50 0.5195
1193.60 0.5194
1193.70 0.5193
1193.80 0.5192
1193.90 0.5191
1194.00 0.519
1194.10 0.5189
1194.20 0.5188
1194.30 0.5187
1194.40 0.5186
1194.50 0.5186
1194.60 0.5185
1194.70 0.5184
1194.80 0.5183
1194.90 0.5182
1195.00 0.5181
1195.10 0.518
1195.20 0.5179
1195.30 0.5178
1195.40 0.5177
1195.50 0.5177
1195.60 0.5176
1195.70 0.5175
1195.80 0.5174
1195.90 0.5173
1196.00 0.5172
1196.10 0.5171
1196.20 0.517
1196.30 0.5169
1196.40 0.5168
1196.50 0.5168
1196.60 0.5167
1196.70 0.5166
1196.80 0.5165
1196.90 0.5164
1197.00 0.5163
1197.10 0.5162
1197.20 0.5161
1197.30 0.516
1197.40 0.5159
1197.50 0.5159
1197.60 0.5158
1197.70 0.5157
1197.80 0.5156
1197.90 0.5155
1198.00 0.5154
1198.10 0.5153
1198.20 0.5152
1198.30 0.5151
1198.40 0.515
1198.50 0.515
1198.60 0.5149
1198.70 0.5148
1198.80 0.5147
1198.90 0.5146
1199.00 0.5145
1199.10 0.5144
1199.20 0.5143
1199.30 0.5142
1199.40 0.5141
1199.50 0.5141
1199.60 0.514
1199.70 0.5139
1199.80 0.5138
1199.90 0.5137
1200.00 0
