# Version 2.1 - nm, norm@500 to 1, cut digits, bergeron_25000_80.dat_25000
# Wavelength(nm)  Flambda(ergs/cm^s/s/nm)
300.00 4.176
300.10 4.172
300.20 4.167
300.30 4.163
300.40 4.159
300.50 4.154
300.60 4.15
300.70 4.145
300.80 4.141
300.90 4.136
301.00 4.132
301.10 4.128
301.20 4.123
301.30 4.119
301.40 4.115
301.50 4.11
301.60 4.106
301.70 4.101
301.80 4.097
301.90 4.093
302.00 4.088
302.10 4.084
302.20 4.08
302.30 4.075
302.40 4.071
302.50 4.067
302.60 4.063
302.70 4.058
302.80 4.054
302.90 4.05
303.00 4.045
303.10 4.041
303.20 4.037
303.30 4.033
303.40 4.028
303.50 4.024
303.60 4.02
303.70 4.016
303.80 4.011
303.90 4.007
304.00 4.003
304.10 3.999
304.20 3.995
304.30 3.99
304.40 3.986
304.50 3.982
304.60 3.978
304.70 3.974
304.80 3.969
304.90 3.965
305.00 3.961
305.10 3.957
305.20 3.953
305.30 3.949
305.40 3.944
305.50 3.94
305.60 3.936
305.70 3.932
305.80 3.928
305.90 3.924
306.00 3.92
306.10 3.916
306.20 3.911
306.30 3.907
306.40 3.903
306.50 3.899
306.60 3.895
306.70 3.891
306.80 3.887
306.90 3.883
307.00 3.879
307.10 3.875
307.20 3.871
307.30 3.867
307.40 3.863
307.50 3.859
307.60 3.855
307.70 3.851
307.80 3.847
307.90 3.843
308.00 3.839
308.10 3.835
308.20 3.831
308.30 3.827
308.40 3.823
308.50 3.819
308.60 3.815
308.70 3.811
308.80 3.807
308.90 3.803
309.00 3.799
309.10 3.795
309.20 3.791
309.30 3.787
309.40 3.783
309.50 3.779
309.60 3.775
309.70 3.771
309.80 3.768
309.90 3.764
310.00 3.76
310.10 3.756
310.20 3.752
310.30 3.748
310.40 3.744
310.50 3.74
310.60 3.737
310.70 3.733
310.80 3.729
310.90 3.725
311.00 3.721
311.10 3.717
311.20 3.713
311.30 3.71
311.40 3.706
311.50 3.702
311.60 3.698
311.70 3.694
311.80 3.691
311.90 3.687
312.00 3.683
312.10 3.679
312.20 3.675
312.30 3.672
312.40 3.668
312.50 3.664
312.60 3.66
312.70 3.657
312.80 3.653
312.90 3.649
313.00 3.645
313.10 3.642
313.20 3.638
313.30 3.634
313.40 3.63
313.50 3.627
313.60 3.623
313.70 3.619
313.80 3.616
313.90 3.612
314.00 3.608
314.10 3.604
314.20 3.601
314.30 3.597
314.40 3.593
314.50 3.59
314.60 3.586
314.70 3.582
314.80 3.579
314.90 3.575
315.00 3.571
315.10 3.568
315.20 3.564
315.30 3.561
315.40 3.557
315.50 3.553
315.60 3.55
315.70 3.546
315.80 3.543
315.90 3.539
316.00 3.535
316.10 3.532
316.20 3.528
316.30 3.525
316.40 3.521
316.50 3.517
316.60 3.514
316.70 3.51
316.80 3.507
316.90 3.503
317.00 3.5
317.10 3.496
317.20 3.493
317.30 3.489
317.40 3.485
317.50 3.482
317.60 3.478
317.70 3.475
317.80 3.471
317.90 3.468
318.00 3.464
318.10 3.461
318.20 3.457
318.30 3.454
318.40 3.45
318.50 3.447
318.60 3.443
318.70 3.44
318.80 3.436
318.90 3.433
319.00 3.43
319.10 3.426
319.20 3.423
319.30 3.419
319.40 3.416
319.50 3.412
319.60 3.409
319.70 3.405
319.80 3.402
319.90 3.399
320.00 3.395
320.10 3.392
320.20 3.388
320.30 3.385
320.40 3.382
320.50 3.378
320.60 3.375
320.70 3.371
320.80 3.368
320.90 3.365
321.00 3.361
321.10 3.358
321.20 3.355
321.30 3.351
321.40 3.348
321.50 3.344
321.60 3.341
321.70 3.338
321.80 3.334
321.90 3.331
322.00 3.328
322.10 3.324
322.20 3.321
322.30 3.318
322.40 3.315
322.50 3.311
322.60 3.308
322.70 3.305
322.80 3.301
322.90 3.298
323.00 3.295
323.10 3.291
323.20 3.288
323.30 3.285
323.40 3.282
323.50 3.278
323.60 3.275
323.70 3.272
323.80 3.269
323.90 3.265
324.00 3.262
324.10 3.259
324.20 3.256
324.30 3.252
324.40 3.249
324.50 3.246
324.60 3.243
324.70 3.239
324.80 3.236
324.90 3.233
325.00 3.23
325.10 3.227
325.20 3.223
325.30 3.22
325.40 3.217
325.50 3.214
325.60 3.211
325.70 3.208
325.80 3.204
325.90 3.201
326.00 3.198
326.10 3.195
326.20 3.192
326.30 3.189
326.40 3.185
326.50 3.182
326.60 3.179
326.70 3.176
326.80 3.173
326.90 3.17
327.00 3.167
327.10 3.164
327.20 3.16
327.30 3.157
327.40 3.154
327.50 3.151
327.60 3.148
327.70 3.145
327.80 3.142
327.90 3.139
328.00 3.136
328.10 3.133
328.20 3.129
328.30 3.126
328.40 3.123
328.50 3.12
328.60 3.117
328.70 3.114
328.80 3.111
328.90 3.108
329.00 3.105
329.10 3.102
329.20 3.099
329.30 3.096
329.40 3.093
329.50 3.09
329.60 3.087
329.70 3.084
329.80 3.081
329.90 3.078
330.00 3.075
330.10 3.072
330.20 3.069
330.30 3.066
330.40 3.063
330.50 3.06
330.60 3.057
330.70 3.054
330.80 3.051
330.90 3.048
331.00 3.045
331.10 3.042
331.20 3.039
331.30 3.036
331.40 3.033
331.50 3.03
331.60 3.027
331.70 3.024
331.80 3.021
331.90 3.018
332.00 3.015
332.10 3.012
332.20 3.01
332.30 3.007
332.40 3.004
332.50 3.001
332.60 2.998
332.70 2.995
332.80 2.992
332.90 2.989
333.00 2.986
333.10 2.983
333.20 2.98
333.30 2.978
333.40 2.975
333.50 2.972
333.60 2.969
333.70 2.966
333.80 2.963
333.90 2.96
334.00 2.957
334.10 2.955
334.20 2.952
334.30 2.949
334.40 2.946
334.50 2.943
334.60 2.94
334.70 2.938
334.80 2.935
334.90 2.932
335.00 2.929
335.10 2.926
335.20 2.923
335.30 2.921
335.40 2.918
335.50 2.915
335.60 2.912
335.70 2.909
335.80 2.907
335.90 2.904
336.00 2.901
336.10 2.898
336.20 2.895
336.30 2.893
336.40 2.89
336.50 2.887
336.60 2.884
336.70 2.882
336.80 2.879
336.90 2.876
337.00 2.873
337.10 2.871
337.20 2.868
337.30 2.865
337.40 2.862
337.50 2.86
337.60 2.857
337.70 2.854
337.80 2.851
337.90 2.849
338.00 2.846
338.10 2.843
338.20 2.84
338.30 2.838
338.40 2.835
338.50 2.832
338.60 2.83
338.70 2.827
338.80 2.824
338.90 2.822
339.00 2.819
339.10 2.816
339.20 2.813
339.30 2.811
339.40 2.808
339.50 2.805
339.60 2.803
339.70 2.8
339.80 2.797
339.90 2.795
340.00 2.792
340.10 2.789
340.20 2.787
340.30 2.784
340.40 2.782
340.50 2.779
340.60 2.776
340.70 2.774
340.80 2.771
340.90 2.768
341.00 2.766
341.10 2.763
341.20 2.76
341.30 2.758
341.40 2.755
341.50 2.753
341.60 2.75
341.70 2.747
341.80 2.745
341.90 2.742
342.00 2.74
342.10 2.737
342.20 2.734
342.30 2.732
342.40 2.729
342.50 2.727
342.60 2.724
342.70 2.722
342.80 2.719
342.90 2.716
343.00 2.714
343.10 2.711
343.20 2.709
343.30 2.706
343.40 2.704
343.50 2.701
343.60 2.699
343.70 2.696
343.80 2.693
343.90 2.691
344.00 2.688
344.10 2.686
344.20 2.683
344.30 2.681
344.40 2.678
344.50 2.676
344.60 2.673
344.70 2.671
344.80 2.668
344.90 2.666
345.00 2.663
345.10 2.661
345.20 2.658
345.30 2.656
345.40 2.653
345.50 2.651
345.60 2.648
345.70 2.646
345.80 2.643
345.90 2.641
346.00 2.638
346.10 2.636
346.20 2.633
346.30 2.631
346.40 2.629
346.50 2.626
346.60 2.624
346.70 2.621
346.80 2.619
346.90 2.616
347.00 2.614
347.10 2.611
347.20 2.609
347.30 2.607
347.40 2.604
347.50 2.602
347.60 2.599
347.70 2.597
347.80 2.594
347.90 2.592
348.00 2.59
348.10 2.587
348.20 2.585
348.30 2.582
348.40 2.58
348.50 2.578
348.60 2.575
348.70 2.573
348.80 2.57
348.90 2.568
349.00 2.566
349.10 2.563
349.20 2.561
349.30 2.558
349.40 2.556
349.50 2.554
349.60 2.551
349.70 2.549
349.80 2.547
349.90 2.544
350.00 2.542
350.10 2.54
350.20 2.537
350.30 2.535
350.40 2.532
350.50 2.53
350.60 2.528
350.70 2.525
350.80 2.523
350.90 2.521
351.00 2.518
351.10 2.516
351.20 2.514
351.30 2.511
351.40 2.509
351.50 2.507
351.60 2.505
351.70 2.502
351.80 2.5
351.90 2.498
352.00 2.495
352.10 2.493
352.20 2.491
352.30 2.488
352.40 2.486
352.50 2.484
352.60 2.482
352.70 2.479
352.80 2.477
352.90 2.475
353.00 2.472
353.10 2.47
353.20 2.468
353.30 2.466
353.40 2.463
353.50 2.461
353.60 2.459
353.70 2.457
353.80 2.454
353.90 2.452
354.00 2.45
354.10 2.448
354.20 2.445
354.30 2.443
354.40 2.441
354.50 2.439
354.60 2.436
354.70 2.434
354.80 2.432
354.90 2.43
355.00 2.428
355.10 2.425
355.20 2.423
355.30 2.421
355.40 2.419
355.50 2.416
355.60 2.414
355.70 2.412
355.80 2.41
355.90 2.408
356.00 2.405
356.10 2.403
356.20 2.401
356.30 2.399
356.40 2.397
356.50 2.394
356.60 2.392
356.70 2.39
356.80 2.388
356.90 2.386
357.00 2.384
357.10 2.381
357.20 2.379
357.30 2.377
357.40 2.375
357.50 2.373
357.60 2.371
357.70 2.368
357.80 2.366
357.90 2.364
358.00 2.362
358.10 2.36
358.20 2.358
358.30 2.356
358.40 2.353
358.50 2.351
358.60 2.349
358.70 2.347
358.80 2.345
358.90 2.343
359.00 2.341
359.10 2.339
359.20 2.336
359.30 2.334
359.40 2.332
359.50 2.33
359.60 2.328
359.70 2.326
359.80 2.324
359.90 2.322
360.00 2.32
360.10 2.318
360.20 2.315
360.30 2.313
360.40 2.311
360.50 2.309
360.60 2.307
360.70 2.305
360.80 2.303
360.90 2.301
361.00 2.299
361.10 2.297
361.20 2.295
361.30 2.293
361.40 2.291
361.50 2.288
361.60 2.286
361.70 2.284
361.80 2.282
361.90 2.28
362.00 2.278
362.10 2.276
362.20 2.274
362.30 2.272
362.40 2.27
362.50 2.268
362.60 2.266
362.70 2.264
362.80 2.262
362.90 2.26
363.00 2.258
363.10 2.256
363.20 2.254
363.30 2.252
363.40 2.25
363.50 2.248
363.60 2.246
363.70 2.244
363.80 2.242
363.90 2.24
364.00 2.238
364.10 2.236
364.20 2.234
364.30 2.232
364.40 2.23
364.50 2.228
364.60 2.226
364.70 2.224
364.80 2.222
364.90 2.22
365.00 2.218
365.10 2.216
365.20 2.214
365.30 2.212
365.40 2.21
365.50 2.208
365.60 2.206
365.70 2.204
365.80 2.202
365.90 2.2
366.00 2.198
366.10 2.196
366.20 2.194
366.30 2.191
366.40 2.189
366.50 2.187
366.60 2.185
366.70 2.182
366.80 2.18
366.90 2.178
367.00 2.176
367.10 2.173
367.20 2.171
367.30 2.169
367.40 2.167
367.50 2.164
367.60 2.162
367.70 2.16
367.80 2.158
367.90 2.155
368.00 2.153
368.10 2.151
368.20 2.149
368.30 2.147
368.40 2.144
368.50 2.142
368.60 2.14
368.70 2.138
368.80 2.136
368.90 2.133
369.00 2.131
369.10 2.129
369.20 2.127
369.30 2.125
369.40 2.123
369.50 2.12
369.60 2.118
369.70 2.116
369.80 2.114
369.90 2.112
370.00 2.11
370.10 2.108
370.20 2.106
370.30 2.103
370.40 2.101
370.50 2.099
370.60 2.097
370.70 2.095
370.80 2.093
370.90 2.091
371.00 2.089
371.10 2.087
371.20 2.085
371.30 2.083
371.40 2.081
371.50 2.079
371.60 2.077
371.70 2.075
371.80 2.072
371.90 2.07
372.00 2.068
372.10 2.067
372.20 2.065
372.30 2.063
372.40 2.061
372.50 2.059
372.60 2.058
372.70 2.056
372.80 2.054
372.90 2.052
373.00 2.05
373.10 2.049
373.20 2.047
373.30 2.045
373.40 2.043
373.50 2.041
373.60 2.04
373.70 2.038
373.80 2.036
373.90 2.034
374.00 2.033
374.10 2.031
374.20 2.03
374.30 2.028
374.40 2.026
374.50 2.025
374.60 2.023
374.70 2.022
374.80 2.02
374.90 2.019
375.00 2.017
375.10 2.016
375.20 2.014
375.30 2.013
375.40 2.011
375.50 2.01
375.60 2.008
375.70 2.007
375.80 2.005
375.90 2.004
376.00 2.002
376.10 2
376.20 1.998
376.30 1.996
376.40 1.995
376.50 1.993
376.60 1.991
376.70 1.989
376.80 1.987
376.90 1.985
377.00 1.983
377.10 1.983
377.20 1.982
377.30 1.982
377.40 1.982
377.50 1.981
377.60 1.981
377.70 1.981
377.80 1.98
377.90 1.98
378.00 1.98
378.10 1.978
378.20 1.976
378.30 1.974
378.40 1.972
378.50 1.971
378.60 1.969
378.70 1.967
378.80 1.965
378.90 1.963
379.00 1.962
379.10 1.96
379.20 1.957
379.30 1.955
379.40 1.953
379.50 1.951
379.60 1.949
379.70 1.947
379.80 1.945
379.90 1.943
380.00 1.941
380.10 1.942
380.20 1.943
380.30 1.945
380.40 1.946
380.50 1.948
380.60 1.949
380.70 1.95
380.80 1.952
380.90 1.953
381.00 1.954
381.10 1.954
381.20 1.953
381.30 1.952
381.40 1.951
381.50 1.95
381.60 1.948
381.70 1.946
381.80 1.943
381.90 1.94
382.00 1.937
382.10 1.933
382.20 1.929
382.30 1.922
382.40 1.916
382.50 1.91
382.60 1.903
382.70 1.897
382.80 1.891
382.90 1.885
383.00 1.878
383.10 1.872
383.20 1.866
383.30 1.858
383.40 1.851
383.50 1.846
383.60 1.846
383.70 1.852
383.80 1.858
383.90 1.865
384.00 1.872
384.10 1.879
384.20 1.885
384.30 1.891
384.40 1.897
384.50 1.903
384.60 1.908
384.70 1.913
384.80 1.917
384.90 1.921
385.00 1.924
385.10 1.927
385.20 1.929
385.30 1.931
385.40 1.932
385.50 1.933
385.60 1.933
385.70 1.933
385.80 1.932
385.90 1.931
386.00 1.929
386.10 1.927
386.20 1.924
386.30 1.921
386.40 1.917
386.50 1.912
386.60 1.907
386.70 1.901
386.80 1.895
386.90 1.888
387.00 1.88
387.10 1.872
387.20 1.863
387.30 1.854
387.40 1.844
387.50 1.833
387.60 1.822
387.70 1.81
387.80 1.797
387.90 1.784
388.00 1.771
388.10 1.757
388.20 1.742
388.30 1.727
388.40 1.712
388.50 1.696
388.60 1.681
388.70 1.667
388.80 1.655
388.90 1.646
389.00 1.653
389.10 1.663
389.20 1.676
389.30 1.691
389.40 1.705
389.50 1.72
389.60 1.734
389.70 1.748
389.80 1.761
389.90 1.774
390.00 1.787
390.10 1.799
390.20 1.81
390.30 1.821
390.40 1.832
390.50 1.842
390.60 1.851
390.70 1.861
390.80 1.869
390.90 1.877
391.00 1.885
391.10 1.891
391.20 1.898
391.30 1.904
391.40 1.909
391.50 1.914
391.60 1.918
391.70 1.922
391.80 1.926
391.90 1.929
392.00 1.931
392.10 1.933
392.20 1.934
392.30 1.935
392.40 1.935
392.50 1.935
392.60 1.934
392.70 1.933
392.80 1.931
392.90 1.929
393.00 1.926
393.10 1.923
393.20 1.919
393.30 1.915
393.40 1.91
393.50 1.904
393.60 1.898
393.70 1.892
393.80 1.884
393.90 1.877
394.00 1.869
394.10 1.859
394.20 1.85
394.30 1.84
394.40 1.829
394.50 1.818
394.60 1.806
394.70 1.793
394.80 1.78
394.90 1.766
395.00 1.752
395.10 1.737
395.20 1.721
395.30 1.705
395.40 1.688
395.50 1.67
395.60 1.651
395.70 1.632
395.80 1.613
395.90 1.593
396.00 1.572
396.10 1.55
396.20 1.527
396.30 1.504
396.40 1.481
396.50 1.456
396.60 1.43
396.70 1.404
396.80 1.377
396.90 1.349
397.00 1.321
397.10 1.345
397.20 1.369
397.30 1.395
397.40 1.42
397.50 1.444
397.60 1.467
397.70 1.489
397.80 1.51
397.90 1.531
398.00 1.551
398.10 1.57
398.20 1.589
398.30 1.606
398.40 1.624
398.50 1.641
398.60 1.657
398.70 1.672
398.80 1.687
398.90 1.702
399.00 1.716
399.10 1.729
399.20 1.742
399.30 1.754
399.40 1.766
399.50 1.777
399.60 1.788
399.70 1.799
399.80 1.808
399.90 1.818
400.00 1.827
400.10 1.836
400.20 1.844
400.30 1.852
400.40 1.859
400.50 1.866
400.60 1.872
400.70 1.879
400.80 1.884
400.90 1.89
401.00 1.895
401.10 1.9
401.20 1.904
401.30 1.909
401.40 1.912
401.50 1.916
401.60 1.919
401.70 1.922
401.80 1.925
401.90 1.927
402.00 1.93
402.10 1.931
402.20 1.933
402.30 1.934
402.40 1.935
402.50 1.936
402.60 1.937
402.70 1.937
402.80 1.937
402.90 1.937
403.00 1.937
403.10 1.936
403.20 1.935
403.30 1.934
403.40 1.933
403.50 1.931
403.60 1.929
403.70 1.927
403.80 1.925
403.90 1.923
404.00 1.92
404.10 1.917
404.20 1.914
404.30 1.91
404.40 1.906
404.50 1.902
404.60 1.898
404.70 1.894
404.80 1.889
404.90 1.884
405.00 1.878
405.10 1.873
405.20 1.867
405.30 1.861
405.40 1.854
405.50 1.848
405.60 1.841
405.70 1.833
405.80 1.826
405.90 1.818
406.00 1.809
406.10 1.801
406.20 1.792
406.30 1.782
406.40 1.772
406.50 1.762
406.60 1.752
406.70 1.741
406.80 1.73
406.90 1.718
407.00 1.706
407.10 1.694
407.20 1.681
407.30 1.668
407.40 1.654
407.50 1.64
407.60 1.625
407.70 1.61
407.80 1.595
407.90 1.579
408.00 1.562
408.10 1.545
408.20 1.528
408.30 1.51
408.40 1.491
408.50 1.472
408.60 1.452
408.70 1.432
408.80 1.412
408.90 1.39
409.00 1.368
409.10 1.346
409.20 1.322
409.30 1.298
409.40 1.273
409.50 1.247
409.60 1.22
409.70 1.19
409.80 1.16
409.90 1.127
410.00 1.092
410.10 1.066
410.20 1.051
410.30 1.077
410.40 1.107
410.50 1.14
410.60 1.17
410.70 1.198
410.80 1.224
410.90 1.249
411.00 1.273
411.10 1.295
411.20 1.317
411.30 1.338
411.40 1.358
411.50 1.377
411.60 1.396
411.70 1.414
411.80 1.432
411.90 1.449
412.00 1.465
412.10 1.481
412.20 1.496
412.30 1.511
412.40 1.525
412.50 1.539
412.60 1.552
412.70 1.564
412.80 1.577
412.90 1.589
413.00 1.6
413.10 1.611
413.20 1.622
413.30 1.632
413.40 1.642
413.50 1.651
413.60 1.66
413.70 1.669
413.80 1.677
413.90 1.685
414.00 1.692
414.10 1.7
414.20 1.707
414.30 1.713
414.40 1.72
414.50 1.726
414.60 1.732
414.70 1.737
414.80 1.743
414.90 1.748
415.00 1.753
415.10 1.757
415.20 1.761
415.30 1.766
415.40 1.769
415.50 1.773
415.60 1.777
415.70 1.78
415.80 1.783
415.90 1.786
416.00 1.789
416.10 1.792
416.20 1.794
416.30 1.796
416.40 1.799
416.50 1.801
416.60 1.803
416.70 1.804
416.80 1.806
416.90 1.808
417.00 1.809
417.10 1.81
417.20 1.812
417.30 1.813
417.40 1.814
417.50 1.815
417.60 1.815
417.70 1.816
417.80 1.817
417.90 1.817
418.00 1.818
418.10 1.818
418.20 1.818
418.30 1.819
418.40 1.819
418.50 1.819
418.60 1.819
418.70 1.819
418.80 1.819
418.90 1.819
419.00 1.818
419.10 1.818
419.20 1.818
419.30 1.818
419.40 1.817
419.50 1.817
419.60 1.816
419.70 1.816
419.80 1.815
419.90 1.814
420.00 1.814
420.10 1.813
420.20 1.812
420.30 1.811
420.40 1.81
420.50 1.809
420.60 1.809
420.70 1.808
420.80 1.807
420.90 1.806
421.00 1.804
421.10 1.803
421.20 1.802
421.30 1.801
421.40 1.8
421.50 1.799
421.60 1.797
421.70 1.796
421.80 1.795
421.90 1.793
422.00 1.792
422.10 1.79
422.20 1.789
422.30 1.788
422.40 1.786
422.50 1.784
422.60 1.783
422.70 1.781
422.80 1.78
422.90 1.778
423.00 1.776
423.10 1.775
423.20 1.773
423.30 1.771
423.40 1.769
423.50 1.767
423.60 1.766
423.70 1.764
423.80 1.762
423.90 1.76
424.00 1.758
424.10 1.756
424.20 1.754
424.30 1.752
424.40 1.749
424.50 1.747
424.60 1.745
424.70 1.743
424.80 1.74
424.90 1.738
425.00 1.736
425.10 1.733
425.20 1.731
425.30 1.728
425.40 1.726
425.50 1.723
425.60 1.72
425.70 1.718
425.80 1.715
425.90 1.712
426.00 1.709
426.10 1.706
426.20 1.703
426.30 1.7
426.40 1.696
426.50 1.693
426.60 1.69
426.70 1.686
426.80 1.683
426.90 1.679
427.00 1.675
427.10 1.671
427.20 1.667
427.30 1.663
427.40 1.659
427.50 1.655
427.60 1.65
427.70 1.646
427.80 1.641
427.90 1.636
428.00 1.631
428.10 1.626
428.20 1.621
428.30 1.616
428.40 1.61
428.50 1.604
428.60 1.598
428.70 1.592
428.80 1.586
428.90 1.579
429.00 1.573
429.10 1.566
429.20 1.559
429.30 1.552
429.40 1.544
429.50 1.537
429.60 1.529
429.70 1.521
429.80 1.512
429.90 1.504
430.00 1.495
430.10 1.486
430.20 1.477
430.30 1.468
430.40 1.458
430.50 1.448
430.60 1.438
430.70 1.427
430.80 1.416
430.90 1.405
431.00 1.394
431.10 1.382
431.20 1.371
431.30 1.358
431.40 1.346
431.50 1.333
431.60 1.32
431.70 1.306
431.80 1.292
431.90 1.278
432.00 1.263
432.10 1.248
432.20 1.233
432.30 1.217
432.40 1.2
432.50 1.184
432.60 1.166
432.70 1.148
432.80 1.13
432.90 1.111
433.00 1.092
433.10 1.071
433.20 1.05
433.30 1.028
433.40 1.004
433.50 0.9787
433.60 0.952
433.70 0.9208
433.80 0.8857
433.90 0.8468
434.00 0.7927
434.10 0.7933
434.20 0.8485
434.30 0.8857
434.40 0.9191
434.50 0.9488
434.60 0.9738
434.70 0.9975
434.80 1.02
434.90 1.04
435.00 1.06
435.10 1.078
435.20 1.096
435.30 1.113
435.40 1.13
435.50 1.146
435.60 1.161
435.70 1.176
435.80 1.19
435.90 1.204
436.00 1.218
436.10 1.23
436.20 1.243
436.30 1.255
436.40 1.267
436.50 1.278
436.60 1.289
436.70 1.299
436.80 1.31
436.90 1.32
437.00 1.329
437.10 1.338
437.20 1.347
437.30 1.355
437.40 1.364
437.50 1.372
437.60 1.379
437.70 1.387
437.80 1.394
437.90 1.401
438.00 1.407
438.10 1.414
438.20 1.42
438.30 1.426
438.40 1.431
438.50 1.437
438.60 1.442
438.70 1.447
438.80 1.451
438.90 1.456
439.00 1.46
439.10 1.464
439.20 1.468
439.30 1.472
439.40 1.476
439.50 1.479
439.60 1.482
439.70 1.485
439.80 1.488
439.90 1.491
440.00 1.493
440.10 1.496
440.20 1.498
440.30 1.5
440.40 1.502
440.50 1.504
440.60 1.505
440.70 1.507
440.80 1.509
440.90 1.51
441.00 1.511
441.10 1.512
441.20 1.513
441.30 1.514
441.40 1.515
441.50 1.516
441.60 1.517
441.70 1.518
441.80 1.518
441.90 1.519
442.00 1.519
442.10 1.52
442.20 1.52
442.30 1.52
442.40 1.52
442.50 1.521
442.60 1.521
442.70 1.521
442.80 1.521
442.90 1.521
443.00 1.521
443.10 1.521
443.20 1.52
443.30 1.52
443.40 1.52
443.50 1.52
443.60 1.52
443.70 1.519
443.80 1.519
443.90 1.519
444.00 1.518
444.10 1.518
444.20 1.517
444.30 1.517
444.40 1.516
444.50 1.516
444.60 1.515
444.70 1.515
444.80 1.514
444.90 1.514
445.00 1.513
445.10 1.512
445.20 1.512
445.30 1.511
445.40 1.511
445.50 1.51
445.60 1.509
445.70 1.508
445.80 1.508
445.90 1.507
446.00 1.506
446.10 1.506
446.20 1.505
446.30 1.504
446.40 1.503
446.50 1.502
446.60 1.502
446.70 1.501
446.80 1.5
446.90 1.499
447.00 1.498
447.10 1.498
447.20 1.497
447.30 1.496
447.40 1.495
447.50 1.494
447.60 1.493
447.70 1.492
447.80 1.491
447.90 1.49
448.00 1.49
448.10 1.489
448.20 1.488
448.30 1.487
448.40 1.486
448.50 1.485
448.60 1.484
448.70 1.483
448.80 1.482
448.90 1.481
449.00 1.48
449.10 1.479
449.20 1.478
449.30 1.477
449.40 1.476
449.50 1.475
449.60 1.474
449.70 1.473
449.80 1.472
449.90 1.471
450.00 1.47
450.10 1.469
450.20 1.468
450.30 1.467
450.40 1.466
450.50 1.465
450.60 1.464
450.70 1.463
450.80 1.462
450.90 1.461
451.00 1.46
451.10 1.459
451.20 1.458
451.30 1.457
451.40 1.456
451.50 1.455
451.60 1.454
451.70 1.453
451.80 1.452
451.90 1.451
452.00 1.45
452.10 1.449
452.20 1.448
452.30 1.447
452.40 1.446
452.50 1.444
452.60 1.443
452.70 1.442
452.80 1.441
452.90 1.44
453.00 1.439
453.10 1.438
453.20 1.437
453.30 1.436
453.40 1.435
453.50 1.434
453.60 1.433
453.70 1.432
453.80 1.431
453.90 1.43
454.00 1.428
454.10 1.427
454.20 1.426
454.30 1.425
454.40 1.424
454.50 1.423
454.60 1.422
454.70 1.421
454.80 1.42
454.90 1.419
455.00 1.418
455.10 1.417
455.20 1.416
455.30 1.414
455.40 1.413
455.50 1.412
455.60 1.411
455.70 1.41
455.80 1.409
455.90 1.408
456.00 1.407
456.10 1.406
456.20 1.405
456.30 1.404
456.40 1.403
456.50 1.401
456.60 1.4
456.70 1.399
456.80 1.398
456.90 1.397
457.00 1.396
457.10 1.395
457.20 1.394
457.30 1.393
457.40 1.392
457.50 1.391
457.60 1.389
457.70 1.388
457.80 1.387
457.90 1.386
458.00 1.385
458.10 1.384
458.20 1.383
458.30 1.382
458.40 1.381
458.50 1.38
458.60 1.379
458.70 1.378
458.80 1.376
458.90 1.375
459.00 1.374
459.10 1.373
459.20 1.372
459.30 1.371
459.40 1.37
459.50 1.369
459.60 1.368
459.70 1.367
459.80 1.366
459.90 1.364
460.00 1.363
460.10 1.362
460.20 1.361
460.30 1.36
460.40 1.359
460.50 1.358
460.60 1.357
460.70 1.356
460.80 1.355
460.90 1.354
461.00 1.352
461.10 1.351
461.20 1.35
461.30 1.349
461.40 1.348
461.50 1.347
461.60 1.346
461.70 1.345
461.80 1.344
461.90 1.343
462.00 1.342
462.10 1.341
462.20 1.339
462.30 1.338
462.40 1.337
462.50 1.336
462.60 1.335
462.70 1.334
462.80 1.333
462.90 1.332
463.00 1.331
463.10 1.33
463.20 1.329
463.30 1.327
463.40 1.326
463.50 1.325
463.60 1.324
463.70 1.323
463.80 1.322
463.90 1.321
464.00 1.32
464.10 1.319
464.20 1.318
464.30 1.317
464.40 1.315
464.50 1.314
464.60 1.313
464.70 1.312
464.80 1.311
464.90 1.31
465.00 1.309
465.10 1.308
465.20 1.307
465.30 1.306
465.40 1.304
465.50 1.303
465.60 1.302
465.70 1.301
465.80 1.3
465.90 1.299
466.00 1.298
466.10 1.297
466.20 1.296
466.30 1.295
466.40 1.293
466.50 1.292
466.60 1.291
466.70 1.29
466.80 1.289
466.90 1.288
467.00 1.287
467.10 1.286
467.20 1.285
467.30 1.283
467.40 1.282
467.50 1.281
467.60 1.28
467.70 1.279
467.80 1.278
467.90 1.277
468.00 1.276
468.10 1.274
468.20 1.273
468.30 1.272
468.40 1.271
468.50 1.27
468.60 1.269
468.70 1.268
468.80 1.267
468.90 1.265
469.00 1.264
469.10 1.263
469.20 1.262
469.30 1.261
469.40 1.26
469.50 1.258
469.60 1.257
469.70 1.256
469.80 1.255
469.90 1.254
470.00 1.253
470.10 1.252
470.20 1.25
470.30 1.249
470.40 1.248
470.50 1.247
470.60 1.246
470.70 1.244
470.80 1.243
470.90 1.242
471.00 1.241
471.10 1.24
471.20 1.238
471.30 1.237
471.40 1.236
471.50 1.235
471.60 1.234
471.70 1.232
471.80 1.231
471.90 1.23
472.00 1.229
472.10 1.227
472.20 1.226
472.30 1.225
472.40 1.224
472.50 1.222
472.60 1.221
472.70 1.22
472.80 1.218
472.90 1.217
473.00 1.216
473.10 1.215
473.20 1.213
473.30 1.212
473.40 1.21
473.50 1.209
473.60 1.208
473.70 1.206
473.80 1.205
473.90 1.204
474.00 1.202
474.10 1.201
474.20 1.199
474.30 1.198
474.40 1.197
474.50 1.195
474.60 1.194
474.70 1.192
474.80 1.191
474.90 1.189
475.00 1.188
475.10 1.186
475.20 1.185
475.30 1.183
475.40 1.181
475.50 1.18
475.60 1.178
475.70 1.177
475.80 1.175
475.90 1.173
476.00 1.172
476.10 1.17
476.20 1.168
476.30 1.167
476.40 1.165
476.50 1.163
476.60 1.161
476.70 1.159
476.80 1.158
476.90 1.156
477.00 1.154
477.10 1.152
477.20 1.15
477.30 1.148
477.40 1.146
477.50 1.144
477.60 1.142
477.70 1.14
477.80 1.138
477.90 1.136
478.00 1.134
478.10 1.132
478.20 1.129
478.30 1.127
478.40 1.124
478.50 1.122
478.60 1.119
478.70 1.117
478.80 1.115
478.90 1.112
479.00 1.11
479.10 1.107
479.20 1.104
479.30 1.101
479.40 1.098
479.50 1.095
479.60 1.092
479.70 1.089
479.80 1.087
479.90 1.084
480.00 1.081
480.10 1.078
480.20 1.074
480.30 1.07
480.40 1.067
480.50 1.063
480.60 1.059
480.70 1.056
480.80 1.052
480.90 1.048
481.00 1.044
481.10 1.041
481.20 1.036
481.30 1.032
481.40 1.027
481.50 1.022
481.60 1.017
481.70 1.013
481.80 1.008
481.90 1.003
482.00 0.9986
482.10 0.9939
482.20 0.9883
482.30 0.9822
482.40 0.9761
482.50 0.9701
482.60 0.964
482.70 0.9579
482.80 0.9519
482.90 0.9458
483.00 0.9398
483.10 0.9337
483.20 0.9264
483.30 0.9185
483.40 0.9106
483.50 0.9028
483.60 0.8949
483.70 0.887
483.80 0.8792
483.90 0.8713
484.00 0.8635
484.10 0.8557
484.20 0.8466
484.30 0.837
484.40 0.8274
484.50 0.8178
484.60 0.8082
484.70 0.7974
484.80 0.7861
484.90 0.7748
485.00 0.7635
485.10 0.7522
485.20 0.7396
485.30 0.7264
485.40 0.7119
485.50 0.6969
485.60 0.6795
485.70 0.6611
485.80 0.6373
485.90 0.6111
486.00 0.5769
486.10 0.5246
486.20 0.5445
486.30 0.5895
486.40 0.6179
486.50 0.6435
486.60 0.6637
486.70 0.6814
486.80 0.6966
486.90 0.7107
487.00 0.7235
487.10 0.7356
487.20 0.7464
487.30 0.7566
487.40 0.7668
487.50 0.777
487.60 0.7872
487.70 0.7962
487.80 0.8045
487.90 0.8129
488.00 0.8212
488.10 0.8296
488.20 0.8366
488.30 0.8431
488.40 0.8496
488.50 0.856
488.60 0.8625
488.70 0.8689
488.80 0.8753
488.90 0.8818
489.00 0.8882
489.10 0.8946
489.20 0.8997
489.30 0.9042
489.40 0.9087
489.50 0.9132
489.60 0.9177
489.70 0.9222
489.80 0.9267
489.90 0.9312
490.00 0.9357
490.10 0.9401
490.20 0.9436
490.30 0.9467
490.40 0.9497
490.50 0.9527
490.60 0.9558
490.70 0.9588
490.80 0.9618
490.90 0.9649
491.00 0.9679
491.10 0.9709
491.20 0.9732
491.30 0.9752
491.40 0.9771
491.50 0.9791
491.60 0.9811
491.70 0.983
491.80 0.985
491.90 0.9869
492.00 0.9889
492.10 0.9908
492.20 0.9923
492.30 0.9935
492.40 0.9947
492.50 0.9959
492.60 0.9971
492.70 0.9983
492.80 0.9994
492.90 1.001
493.00 1.002
493.10 1.003
493.20 1.004
493.30 1.005
493.40 1.005
493.50 1.006
493.60 1.006
493.70 1.007
493.80 1.008
493.90 1.008
494.00 1.009
494.10 1.01
494.20 1.01
494.30 1.01
494.40 1.011
494.50 1.011
494.60 1.011
494.70 1.012
494.80 1.012
494.90 1.012
495.00 1.012
495.10 1.013
495.20 1.013
495.30 1.013
495.40 1.013
495.50 1.013
495.60 1.013
495.70 1.013
495.80 1.013
495.90 1.013
496.00 1.013
496.10 1.013
496.20 1.013
496.30 1.013
496.40 1.012
496.50 1.012
496.60 1.012
496.70 1.012
496.80 1.012
496.90 1.012
497.00 1.011
497.10 1.011
497.20 1.011
497.30 1.011
497.40 1.01
497.50 1.01
497.60 1.01
497.70 1.009
497.80 1.009
497.90 1.009
498.00 1.009
498.10 1.008
498.20 1.008
498.30 1.007
498.40 1.007
498.50 1.007
498.60 1.006
498.70 1.006
498.80 1.005
498.90 1.005
499.00 1.005
499.10 1.004
499.20 1.004
499.30 1.003
499.40 1.003
499.50 1.002
499.60 1.002
499.70 1.001
499.80 1.001
499.90 1
500.00 1
500.10 0.9995
500.20 0.999
500.30 0.9985
500.40 0.998
500.50 0.9975
500.60 0.9969
500.70 0.9964
500.80 0.9959
500.90 0.9954
501.00 0.9949
501.10 0.9943
501.20 0.9938
501.30 0.9932
501.40 0.9927
501.50 0.9921
501.60 0.9916
501.70 0.991
501.80 0.9905
501.90 0.9899
502.00 0.9894
502.10 0.9888
502.20 0.9882
502.30 0.9876
502.40 0.9871
502.50 0.9865
502.60 0.9859
502.70 0.9853
502.80 0.9847
502.90 0.9841
503.00 0.9836
503.10 0.983
503.20 0.9824
503.30 0.9818
503.40 0.9812
503.50 0.9806
503.60 0.98
503.70 0.9794
503.80 0.9788
503.90 0.9782
504.00 0.9776
504.10 0.977
504.20 0.9764
504.30 0.9757
504.40 0.9751
504.50 0.9745
504.60 0.9739
504.70 0.9733
504.80 0.9727
504.90 0.972
505.00 0.9714
505.10 0.9708
505.20 0.9702
505.30 0.9696
505.40 0.9689
505.50 0.9683
505.60 0.9677
505.70 0.9671
505.80 0.9665
505.90 0.9658
506.00 0.9652
506.10 0.9646
506.20 0.964
506.30 0.9633
506.40 0.9627
506.50 0.9621
506.60 0.9614
506.70 0.9608
506.80 0.9602
506.90 0.9595
507.00 0.9589
507.10 0.9583
507.20 0.9576
507.30 0.957
507.40 0.9564
507.50 0.9557
507.60 0.9551
507.70 0.9545
507.80 0.9538
507.90 0.9532
508.00 0.9526
508.10 0.9519
508.20 0.9513
508.30 0.9507
508.40 0.95
508.50 0.9494
508.60 0.9487
508.70 0.9481
508.80 0.9475
508.90 0.9468
509.00 0.9462
509.10 0.9456
509.20 0.9449
509.30 0.9443
509.40 0.9437
509.50 0.943
509.60 0.9424
509.70 0.9417
509.80 0.9411
509.90 0.9405
510.00 0.9398
510.10 0.9392
510.20 0.9386
510.30 0.9379
510.40 0.9373
510.50 0.9366
510.60 0.936
510.70 0.9354
510.80 0.9347
510.90 0.9341
511.00 0.9335
511.10 0.9328
511.20 0.9322
511.30 0.9316
511.40 0.9309
511.50 0.9303
511.60 0.9296
511.70 0.929
511.80 0.9284
511.90 0.9277
512.00 0.9271
512.10 0.9265
512.20 0.9258
512.30 0.9252
512.40 0.9246
512.50 0.9239
512.60 0.9233
512.70 0.9227
512.80 0.922
512.90 0.9214
513.00 0.9208
513.10 0.9201
513.20 0.9195
513.30 0.9189
513.40 0.9182
513.50 0.9176
513.60 0.917
513.70 0.9163
513.80 0.9157
513.90 0.9151
514.00 0.9145
514.10 0.9138
514.20 0.9132
514.30 0.9126
514.40 0.9119
514.50 0.9113
514.60 0.9107
514.70 0.9101
514.80 0.9094
514.90 0.9088
515.00 0.9082
515.10 0.9075
515.20 0.9069
515.30 0.9063
515.40 0.9057
515.50 0.905
515.60 0.9044
515.70 0.9038
515.80 0.9032
515.90 0.9025
516.00 0.9019
516.10 0.9013
516.20 0.9007
516.30 0.9001
516.40 0.8994
516.50 0.8988
516.60 0.8982
516.70 0.8976
516.80 0.897
516.90 0.8963
517.00 0.8957
517.10 0.8951
517.20 0.8945
517.30 0.8939
517.40 0.8932
517.50 0.8926
517.60 0.892
517.70 0.8914
517.80 0.8908
517.90 0.8902
518.00 0.8895
518.10 0.8889
518.20 0.8883
518.30 0.8877
518.40 0.8871
518.50 0.8865
518.60 0.8859
518.70 0.8852
518.80 0.8846
518.90 0.884
519.00 0.8834
519.10 0.8828
519.20 0.8822
519.30 0.8816
519.40 0.881
519.50 0.8804
519.60 0.8797
519.70 0.8791
519.80 0.8785
519.90 0.8779
520.00 0.8773
520.10 0.8767
520.20 0.8761
520.30 0.8755
520.40 0.8749
520.50 0.8743
520.60 0.8737
520.70 0.8731
520.80 0.8725
520.90 0.8719
521.00 0.8713
521.10 0.8707
521.20 0.8701
521.30 0.8695
521.40 0.8689
521.50 0.8683
521.60 0.8677
521.70 0.8671
521.80 0.8665
521.90 0.8659
522.00 0.8653
522.10 0.8647
522.20 0.8641
522.30 0.8635
522.40 0.8629
522.50 0.8623
522.60 0.8617
522.70 0.8611
522.80 0.8605
522.90 0.8599
523.00 0.8593
523.10 0.8587
523.20 0.8581
523.30 0.8575
523.40 0.8569
523.50 0.8563
523.60 0.8558
523.70 0.8552
523.80 0.8546
523.90 0.854
524.00 0.8534
524.10 0.8528
524.20 0.8522
524.30 0.8516
524.40 0.851
524.50 0.8505
524.60 0.8499
524.70 0.8493
524.80 0.8487
524.90 0.8481
525.00 0.8475
525.10 0.8469
525.20 0.8464
525.30 0.8458
525.40 0.8452
525.50 0.8446
525.60 0.844
525.70 0.8434
525.80 0.8429
525.90 0.8423
526.00 0.8417
526.10 0.8411
526.20 0.8405
526.30 0.84
526.40 0.8394
526.50 0.8388
526.60 0.8382
526.70 0.8376
526.80 0.8371
526.90 0.8365
527.00 0.8359
527.10 0.8353
527.20 0.8348
527.30 0.8342
527.40 0.8336
527.50 0.833
527.60 0.8325
527.70 0.8319
527.80 0.8313
527.90 0.8308
528.00 0.8302
528.10 0.8296
528.20 0.829
528.30 0.8285
528.40 0.8279
528.50 0.8273
528.60 0.8268
528.70 0.8262
528.80 0.8256
528.90 0.8251
529.00 0.8245
529.10 0.8239
529.20 0.8234
529.30 0.8228
529.40 0.8222
529.50 0.8217
529.60 0.8211
529.70 0.8206
529.80 0.82
529.90 0.8194
530.00 0.8189
530.10 0.8183
530.20 0.8177
530.30 0.8172
530.40 0.8166
530.50 0.8161
530.60 0.8155
530.70 0.8149
530.80 0.8144
530.90 0.8138
531.00 0.8133
531.10 0.8127
531.20 0.8122
531.30 0.8116
531.40 0.811
531.50 0.8105
531.60 0.8099
531.70 0.8094
531.80 0.8088
531.90 0.8083
532.00 0.8077
532.10 0.8072
532.20 0.8066
532.30 0.8061
532.40 0.8055
532.50 0.805
532.60 0.8044
532.70 0.8039
532.80 0.8033
532.90 0.8028
533.00 0.8022
533.10 0.8017
533.20 0.8011
533.30 0.8006
533.40 0.8
533.50 0.7995
533.60 0.7989
533.70 0.7984
533.80 0.7978
533.90 0.7973
534.00 0.7968
534.10 0.7962
534.20 0.7957
534.30 0.7951
534.40 0.7946
534.50 0.794
534.60 0.7935
534.70 0.793
534.80 0.7924
534.90 0.7919
535.00 0.7913
535.10 0.7908
535.20 0.7903
535.30 0.7897
535.40 0.7892
535.50 0.7887
535.60 0.7881
535.70 0.7876
535.80 0.787
535.90 0.7865
536.00 0.786
536.10 0.7854
536.20 0.7849
536.30 0.7844
536.40 0.7838
536.50 0.7833
536.60 0.7828
536.70 0.7822
536.80 0.7817
536.90 0.7812
537.00 0.7807
537.10 0.7801
537.20 0.7796
537.30 0.7791
537.40 0.7785
537.50 0.778
537.60 0.7775
537.70 0.777
537.80 0.7764
537.90 0.7759
538.00 0.7754
538.10 0.7748
538.20 0.7743
538.30 0.7738
538.40 0.7733
538.50 0.7727
538.60 0.7722
538.70 0.7717
538.80 0.7712
538.90 0.7707
539.00 0.7701
539.10 0.7696
539.20 0.7691
539.30 0.7686
539.40 0.768
539.50 0.7675
539.60 0.767
539.70 0.7665
539.80 0.766
539.90 0.7655
540.00 0.7649
540.10 0.7644
540.20 0.7639
540.30 0.7634
540.40 0.7629
540.50 0.7624
540.60 0.7618
540.70 0.7613
540.80 0.7608
540.90 0.7603
541.00 0.7598
541.10 0.7593
541.20 0.7588
541.30 0.7583
541.40 0.7577
541.50 0.7572
541.60 0.7567
541.70 0.7562
541.80 0.7557
541.90 0.7552
542.00 0.7547
542.10 0.7542
542.20 0.7537
542.30 0.7532
542.40 0.7527
542.50 0.7521
542.60 0.7516
542.70 0.7511
542.80 0.7506
542.90 0.7501
543.00 0.7496
543.10 0.7491
543.20 0.7486
543.30 0.7481
543.40 0.7476
543.50 0.7471
543.60 0.7466
543.70 0.7461
543.80 0.7456
543.90 0.7451
544.00 0.7446
544.10 0.7441
544.20 0.7436
544.30 0.7431
544.40 0.7426
544.50 0.7421
544.60 0.7416
544.70 0.7411
544.80 0.7406
544.90 0.7401
545.00 0.7396
545.10 0.7391
545.20 0.7386
545.30 0.7381
545.40 0.7376
545.50 0.7371
545.60 0.7366
545.70 0.7361
545.80 0.7357
545.90 0.7352
546.00 0.7347
546.10 0.7342
546.20 0.7337
546.30 0.7332
546.40 0.7327
546.50 0.7322
546.60 0.7317
546.70 0.7312
546.80 0.7307
546.90 0.7303
547.00 0.7298
547.10 0.7293
547.20 0.7288
547.30 0.7283
547.40 0.7278
547.50 0.7273
547.60 0.7268
547.70 0.7264
547.80 0.7259
547.90 0.7254
548.00 0.7249
548.10 0.7244
548.20 0.7239
548.30 0.7235
548.40 0.723
548.50 0.7225
548.60 0.722
548.70 0.7215
548.80 0.721
548.90 0.7206
549.00 0.7201
549.10 0.7196
549.20 0.7191
549.30 0.7186
549.40 0.7182
549.50 0.7177
549.60 0.7172
549.70 0.7167
549.80 0.7163
549.90 0.7158
550.00 0.7153
550.10 0.7148
550.20 0.7144
550.30 0.7139
550.40 0.7134
550.50 0.7129
550.60 0.7125
550.70 0.712
550.80 0.7115
550.90 0.711
551.00 0.7106
551.10 0.7101
551.20 0.7096
551.30 0.7092
551.40 0.7087
551.50 0.7082
551.60 0.7077
551.70 0.7073
551.80 0.7068
551.90 0.7063
552.00 0.7059
552.10 0.7054
552.20 0.7049
552.30 0.7045
552.40 0.704
552.50 0.7035
552.60 0.7031
552.70 0.7026
552.80 0.7021
552.90 0.7017
553.00 0.7012
553.10 0.7007
553.20 0.7003
553.30 0.6998
553.40 0.6993
553.50 0.6989
553.60 0.6984
553.70 0.698
553.80 0.6975
553.90 0.697
554.00 0.6966
554.10 0.6961
554.20 0.6957
554.30 0.6952
554.40 0.6947
554.50 0.6943
554.60 0.6938
554.70 0.6934
554.80 0.6929
554.90 0.6924
555.00 0.692
555.10 0.6915
555.20 0.6911
555.30 0.6906
555.40 0.6902
555.50 0.6897
555.60 0.6893
555.70 0.6888
555.80 0.6883
555.90 0.6879
556.00 0.6874
556.10 0.687
556.20 0.6865
556.30 0.6861
556.40 0.6856
556.50 0.6852
556.60 0.6847
556.70 0.6843
556.80 0.6838
556.90 0.6834
557.00 0.6829
557.10 0.6825
557.20 0.682
557.30 0.6816
557.40 0.6811
557.50 0.6807
557.60 0.6802
557.70 0.6798
557.80 0.6793
557.90 0.6789
558.00 0.6785
558.10 0.678
558.20 0.6776
558.30 0.6771
558.40 0.6767
558.50 0.6762
558.60 0.6758
558.70 0.6753
558.80 0.6749
558.90 0.6745
559.00 0.674
559.10 0.6736
559.20 0.6731
559.30 0.6727
559.40 0.6722
559.50 0.6718
559.60 0.6714
559.70 0.6709
559.80 0.6705
559.90 0.67
560.00 0.6696
560.10 0.6692
560.20 0.6687
560.30 0.6683
560.40 0.6679
560.50 0.6674
560.60 0.667
560.70 0.6665
560.80 0.6661
560.90 0.6657
561.00 0.6652
561.10 0.6648
561.20 0.6644
561.30 0.6639
561.40 0.6635
561.50 0.6631
561.60 0.6626
561.70 0.6622
561.80 0.6618
561.90 0.6613
562.00 0.6609
562.10 0.6605
562.20 0.66
562.30 0.6596
562.40 0.6592
562.50 0.6588
562.60 0.6583
562.70 0.6579
562.80 0.6575
562.90 0.657
563.00 0.6566
563.10 0.6562
563.20 0.6558
563.30 0.6553
563.40 0.6549
563.50 0.6545
563.60 0.6541
563.70 0.6536
563.80 0.6532
563.90 0.6528
564.00 0.6524
564.10 0.6519
564.20 0.6515
564.30 0.6511
564.40 0.6507
564.50 0.6502
564.60 0.6498
564.70 0.6494
564.80 0.649
564.90 0.6485
565.00 0.6481
565.10 0.6477
565.20 0.6473
565.30 0.6469
565.40 0.6464
565.50 0.646
565.60 0.6456
565.70 0.6452
565.80 0.6448
565.90 0.6444
566.00 0.6439
566.10 0.6435
566.20 0.6431
566.30 0.6427
566.40 0.6423
566.50 0.6418
566.60 0.6414
566.70 0.641
566.80 0.6406
566.90 0.6402
567.00 0.6398
567.10 0.6394
567.20 0.6389
567.30 0.6385
567.40 0.6381
567.50 0.6377
567.60 0.6373
567.70 0.6369
567.80 0.6365
567.90 0.6361
568.00 0.6356
568.10 0.6352
568.20 0.6348
568.30 0.6344
568.40 0.634
568.50 0.6336
568.60 0.6332
568.70 0.6328
568.80 0.6324
568.90 0.632
569.00 0.6316
569.10 0.6311
569.20 0.6307
569.30 0.6303
569.40 0.6299
569.50 0.6295
569.60 0.6291
569.70 0.6287
569.80 0.6283
569.90 0.6279
570.00 0.6275
570.10 0.6271
570.20 0.6267
570.30 0.6263
570.40 0.6259
570.50 0.6255
570.60 0.6251
570.70 0.6247
570.80 0.6243
570.90 0.6239
571.00 0.6235
571.10 0.6231
571.20 0.6227
571.30 0.6223
571.40 0.6219
571.50 0.6215
571.60 0.6211
571.70 0.6207
571.80 0.6203
571.90 0.6199
572.00 0.6195
572.10 0.6191
572.20 0.6187
572.30 0.6183
572.40 0.6179
572.50 0.6175
572.60 0.6171
572.70 0.6167
572.80 0.6163
572.90 0.6159
573.00 0.6155
573.10 0.6151
573.20 0.6147
573.30 0.6143
573.40 0.6139
573.50 0.6135
573.60 0.6131
573.70 0.6128
573.80 0.6124
573.90 0.612
574.00 0.6116
574.10 0.6112
574.20 0.6108
574.30 0.6104
574.40 0.61
574.50 0.6096
574.60 0.6092
574.70 0.6088
574.80 0.6085
574.90 0.6081
575.00 0.6077
575.10 0.6073
575.20 0.6069
575.30 0.6065
575.40 0.6061
575.50 0.6057
575.60 0.6054
575.70 0.605
575.80 0.6046
575.90 0.6042
576.00 0.6038
576.10 0.6034
576.20 0.603
576.30 0.6027
576.40 0.6023
576.50 0.6019
576.60 0.6015
576.70 0.6011
576.80 0.6007
576.90 0.6004
577.00 0.6
577.10 0.5996
577.20 0.5992
577.30 0.5988
577.40 0.5984
577.50 0.5981
577.60 0.5977
577.70 0.5973
577.80 0.5969
577.90 0.5965
578.00 0.5962
578.10 0.5958
578.20 0.5954
578.30 0.595
578.40 0.5946
578.50 0.5943
578.60 0.5939
578.70 0.5935
578.80 0.5931
578.90 0.5928
579.00 0.5924
579.10 0.592
579.20 0.5916
579.30 0.5913
579.40 0.5909
579.50 0.5905
579.60 0.5901
579.70 0.5898
579.80 0.5894
579.90 0.589
580.00 0.5886
580.10 0.5883
580.20 0.5879
580.30 0.5875
580.40 0.5871
580.50 0.5868
580.60 0.5864
580.70 0.586
580.80 0.5857
580.90 0.5853
581.00 0.5849
581.10 0.5845
581.20 0.5842
581.30 0.5838
581.40 0.5834
581.50 0.5831
581.60 0.5827
581.70 0.5823
581.80 0.582
581.90 0.5816
582.00 0.5812
582.10 0.5809
582.20 0.5805
582.30 0.5801
582.40 0.5798
582.50 0.5794
582.60 0.579
582.70 0.5787
582.80 0.5783
582.90 0.5779
583.00 0.5776
583.10 0.5772
583.20 0.5768
583.30 0.5765
583.40 0.5761
583.50 0.5757
583.60 0.5754
583.70 0.575
583.80 0.5747
583.90 0.5743
584.00 0.5739
584.10 0.5736
584.20 0.5732
584.30 0.5728
584.40 0.5725
584.50 0.5721
584.60 0.5718
584.70 0.5714
584.80 0.571
584.90 0.5707
585.00 0.5703
585.10 0.57
585.20 0.5696
585.30 0.5693
585.40 0.5689
585.50 0.5685
585.60 0.5682
585.70 0.5678
585.80 0.5675
585.90 0.5671
586.00 0.5668
586.10 0.5664
586.20 0.566
586.30 0.5657
586.40 0.5653
586.50 0.565
586.60 0.5646
586.70 0.5643
586.80 0.5639
586.90 0.5636
587.00 0.5632
587.10 0.5628
587.20 0.5625
587.30 0.5621
587.40 0.5618
587.50 0.5614
587.60 0.5611
587.70 0.5607
587.80 0.5604
587.90 0.56
588.00 0.5597
588.10 0.5593
588.20 0.559
588.30 0.5586
588.40 0.5583
588.50 0.5579
588.60 0.5576
588.70 0.5572
588.80 0.5569
588.90 0.5565
589.00 0.5562
589.10 0.5558
589.20 0.5555
589.30 0.5551
589.40 0.5548
589.50 0.5545
589.60 0.5541
589.70 0.5538
589.80 0.5534
589.90 0.5531
590.00 0.5527
590.10 0.5524
590.20 0.552
590.30 0.5517
590.40 0.5513
590.50 0.551
590.60 0.5507
590.70 0.5503
590.80 0.55
590.90 0.5496
591.00 0.5493
591.10 0.5489
591.20 0.5486
591.30 0.5483
591.40 0.5479
591.50 0.5476
591.60 0.5472
591.70 0.5469
591.80 0.5465
591.90 0.5462
592.00 0.5459
592.10 0.5455
592.20 0.5452
592.30 0.5448
592.40 0.5445
592.50 0.5442
592.60 0.5438
592.70 0.5435
592.80 0.5432
592.90 0.5428
593.00 0.5425
593.10 0.5421
593.20 0.5418
593.30 0.5415
593.40 0.5411
593.50 0.5408
593.60 0.5405
593.70 0.5401
593.80 0.5398
593.90 0.5395
594.00 0.5391
594.10 0.5388
594.20 0.5384
594.30 0.5381
594.40 0.5378
594.50 0.5374
594.60 0.5371
594.70 0.5368
594.80 0.5364
594.90 0.5361
595.00 0.5358
595.10 0.5354
595.20 0.5351
595.30 0.5348
595.40 0.5345
595.50 0.5341
595.60 0.5338
595.70 0.5335
595.80 0.5331
595.90 0.5328
596.00 0.5325
596.10 0.5321
596.20 0.5318
596.30 0.5315
596.40 0.5312
596.50 0.5308
596.60 0.5305
596.70 0.5302
596.80 0.5298
596.90 0.5295
597.00 0.5292
597.10 0.5289
597.20 0.5285
597.30 0.5282
597.40 0.5279
597.50 0.5276
597.60 0.5272
597.70 0.5269
597.80 0.5266
597.90 0.5262
598.00 0.5259
598.10 0.5256
598.20 0.5253
598.30 0.525
598.40 0.5246
598.50 0.5243
598.60 0.524
598.70 0.5237
598.80 0.5233
598.90 0.523
599.00 0.5227
599.10 0.5224
599.20 0.522
599.30 0.5217
599.40 0.5214
599.50 0.5211
599.60 0.5208
599.70 0.5204
599.80 0.5201
599.90 0.5198
600.00 0.5195
600.10 0.5192
600.20 0.5188
600.30 0.5185
600.40 0.5182
600.50 0.5179
600.60 0.5176
600.70 0.5172
600.80 0.5169
600.90 0.5166
601.00 0.5163
601.10 0.516
601.20 0.5157
601.30 0.5153
601.40 0.515
601.50 0.5147
601.60 0.5144
601.70 0.5141
601.80 0.5138
601.90 0.5134
602.00 0.5131
602.10 0.5128
602.20 0.5125
602.30 0.5122
602.40 0.5119
602.50 0.5116
602.60 0.5112
602.70 0.5109
602.80 0.5106
602.90 0.5103
603.00 0.51
603.10 0.5097
603.20 0.5094
603.30 0.509
603.40 0.5087
603.50 0.5084
603.60 0.5081
603.70 0.5078
603.80 0.5075
603.90 0.5072
604.00 0.5069
604.10 0.5066
604.20 0.5062
604.30 0.5059
604.40 0.5056
604.50 0.5053
604.60 0.505
604.70 0.5047
604.80 0.5044
604.90 0.5041
605.00 0.5038
605.10 0.5035
605.20 0.5032
605.30 0.5029
605.40 0.5025
605.50 0.5022
605.60 0.5019
605.70 0.5016
605.80 0.5013
605.90 0.501
606.00 0.5007
606.10 0.5004
606.20 0.5001
606.30 0.4998
606.40 0.4995
606.50 0.4992
606.60 0.4989
606.70 0.4986
606.80 0.4983
606.90 0.498
607.00 0.4977
607.10 0.4974
607.20 0.497
607.30 0.4967
607.40 0.4964
607.50 0.4961
607.60 0.4958
607.70 0.4955
607.80 0.4952
607.90 0.4949
608.00 0.4946
608.10 0.4943
608.20 0.494
608.30 0.4937
608.40 0.4934
608.50 0.4931
608.60 0.4928
608.70 0.4925
608.80 0.4922
608.90 0.4919
609.00 0.4916
609.10 0.4913
609.20 0.491
609.30 0.4907
609.40 0.4904
609.50 0.4901
609.60 0.4898
609.70 0.4895
609.80 0.4892
609.90 0.4889
610.00 0.4886
610.10 0.4883
610.20 0.488
610.30 0.4877
610.40 0.4874
610.50 0.4872
610.60 0.4869
610.70 0.4866
610.80 0.4863
610.90 0.486
611.00 0.4857
611.10 0.4854
611.20 0.4851
611.30 0.4848
611.40 0.4845
611.50 0.4842
611.60 0.4839
611.70 0.4836
611.80 0.4833
611.90 0.483
612.00 0.4827
612.10 0.4824
612.20 0.4821
612.30 0.4819
612.40 0.4816
612.50 0.4813
612.60 0.481
612.70 0.4807
612.80 0.4804
612.90 0.4801
613.00 0.4798
613.10 0.4795
613.20 0.4792
613.30 0.4789
613.40 0.4786
613.50 0.4784
613.60 0.4781
613.70 0.4778
613.80 0.4775
613.90 0.4772
614.00 0.4769
614.10 0.4766
614.20 0.4763
614.30 0.476
614.40 0.4758
614.50 0.4755
614.60 0.4752
614.70 0.4749
614.80 0.4746
614.90 0.4743
615.00 0.474
615.10 0.4737
615.20 0.4735
615.30 0.4732
615.40 0.4729
615.50 0.4726
615.60 0.4723
615.70 0.472
615.80 0.4717
615.90 0.4714
616.00 0.4712
616.10 0.4709
616.20 0.4706
616.30 0.4703
616.40 0.47
616.50 0.4697
616.60 0.4695
616.70 0.4692
616.80 0.4689
616.90 0.4686
617.00 0.4683
617.10 0.468
617.20 0.4678
617.30 0.4675
617.40 0.4672
617.50 0.4669
617.60 0.4666
617.70 0.4663
617.80 0.4661
617.90 0.4658
618.00 0.4655
618.10 0.4652
618.20 0.4649
618.30 0.4647
618.40 0.4644
618.50 0.4641
618.60 0.4638
618.70 0.4635
618.80 0.4632
618.90 0.463
619.00 0.4627
619.10 0.4624
619.20 0.4621
619.30 0.4618
619.40 0.4616
619.50 0.4613
619.60 0.461
619.70 0.4607
619.80 0.4605
619.90 0.4602
620.00 0.4599
620.10 0.4596
620.20 0.4593
620.30 0.4591
620.40 0.4588
620.50 0.4585
620.60 0.4582
620.70 0.458
620.80 0.4577
620.90 0.4574
621.00 0.4571
621.10 0.4568
621.20 0.4566
621.30 0.4563
621.40 0.456
621.50 0.4557
621.60 0.4555
621.70 0.4552
621.80 0.4549
621.90 0.4546
622.00 0.4544
622.10 0.4541
622.20 0.4538
622.30 0.4535
622.40 0.4533
622.50 0.453
622.60 0.4527
622.70 0.4524
622.80 0.4522
622.90 0.4519
623.00 0.4516
623.10 0.4514
623.20 0.4511
623.30 0.4508
623.40 0.4505
623.50 0.4503
623.60 0.45
623.70 0.4497
623.80 0.4494
623.90 0.4492
624.00 0.4489
624.10 0.4486
624.20 0.4484
624.30 0.4481
624.40 0.4478
624.50 0.4475
624.60 0.4473
624.70 0.447
624.80 0.4467
624.90 0.4465
625.00 0.4462
625.10 0.4459
625.20 0.4457
625.30 0.4454
625.40 0.4451
625.50 0.4448
625.60 0.4446
625.70 0.4443
625.80 0.444
625.90 0.4438
626.00 0.4435
626.10 0.4432
626.20 0.443
626.30 0.4427
626.40 0.4424
626.50 0.4421
626.60 0.4419
626.70 0.4416
626.80 0.4413
626.90 0.4411
627.00 0.4408
627.10 0.4405
627.20 0.4403
627.30 0.44
627.40 0.4397
627.50 0.4395
627.60 0.4392
627.70 0.4389
627.80 0.4387
627.90 0.4384
628.00 0.4381
628.10 0.4379
628.20 0.4376
628.30 0.4373
628.40 0.4371
628.50 0.4368
628.60 0.4365
628.70 0.4363
628.80 0.436
628.90 0.4357
629.00 0.4355
629.10 0.4352
629.20 0.4349
629.30 0.4347
629.40 0.4344
629.50 0.4341
629.60 0.4339
629.70 0.4336
629.80 0.4333
629.90 0.4331
630.00 0.4328
630.10 0.4325
630.20 0.4323
630.30 0.432
630.40 0.4317
630.50 0.4315
630.60 0.4312
630.70 0.4309
630.80 0.4307
630.90 0.4304
631.00 0.4301
631.10 0.4299
631.20 0.4296
631.30 0.4294
631.40 0.4291
631.50 0.4288
631.60 0.4286
631.70 0.4283
631.80 0.428
631.90 0.4278
632.00 0.4275
632.10 0.4272
632.20 0.427
632.30 0.4267
632.40 0.4264
632.50 0.4262
632.60 0.4259
632.70 0.4256
632.80 0.4254
632.90 0.4251
633.00 0.4248
633.10 0.4246
633.20 0.4243
633.30 0.424
633.40 0.4238
633.50 0.4235
633.60 0.4233
633.70 0.423
633.80 0.4227
633.90 0.4225
634.00 0.4222
634.10 0.4219
634.20 0.4217
634.30 0.4214
634.40 0.4211
634.50 0.4209
634.60 0.4206
634.70 0.4203
634.80 0.4201
634.90 0.4198
635.00 0.4195
635.10 0.4193
635.20 0.419
635.30 0.4187
635.40 0.4185
635.50 0.4182
635.60 0.4179
635.70 0.4177
635.80 0.4174
635.90 0.4171
636.00 0.4168
636.10 0.4166
636.20 0.4163
636.30 0.416
636.40 0.4158
636.50 0.4155
636.60 0.4152
636.70 0.415
636.80 0.4147
636.90 0.4144
637.00 0.4142
637.10 0.4139
637.20 0.4136
637.30 0.4133
637.40 0.4131
637.50 0.4128
637.60 0.4125
637.70 0.4122
637.80 0.412
637.90 0.4117
638.00 0.4114
638.10 0.4112
638.20 0.4109
638.30 0.4106
638.40 0.4103
638.50 0.4101
638.60 0.4098
638.70 0.4095
638.80 0.4092
638.90 0.4089
639.00 0.4087
639.10 0.4084
639.20 0.4081
639.30 0.4078
639.40 0.4075
639.50 0.4073
639.60 0.407
639.70 0.4067
639.80 0.4064
639.90 0.4061
640.00 0.4058
640.10 0.4056
640.20 0.4053
640.30 0.405
640.40 0.4047
640.50 0.4044
640.60 0.4041
640.70 0.4038
640.80 0.4035
640.90 0.4032
641.00 0.4029
641.10 0.4027
641.20 0.4024
641.30 0.4021
641.40 0.4018
641.50 0.4015
641.60 0.4012
641.70 0.4009
641.80 0.4006
641.90 0.4003
642.00 0.4
642.10 0.3997
642.20 0.3994
642.30 0.3991
642.40 0.3987
642.50 0.3984
642.60 0.3981
642.70 0.3978
642.80 0.3975
642.90 0.3972
643.00 0.3968
643.10 0.3965
643.20 0.3962
643.30 0.3959
643.40 0.3956
643.50 0.3952
643.60 0.3949
643.70 0.3946
643.80 0.3942
643.90 0.3939
644.00 0.3935
644.10 0.3932
644.20 0.3929
644.30 0.3925
644.40 0.3922
644.50 0.3918
644.60 0.3915
644.70 0.3911
644.80 0.3907
644.90 0.3904
645.00 0.39
645.10 0.3897
645.20 0.3893
645.30 0.3889
645.40 0.3885
645.50 0.3882
645.60 0.3878
645.70 0.3874
645.80 0.387
645.90 0.3866
646.00 0.3862
646.10 0.3858
646.20 0.3854
646.30 0.385
646.40 0.3846
646.50 0.3841
646.60 0.3837
646.70 0.3832
646.80 0.3828
646.90 0.3824
647.00 0.3819
647.10 0.3815
647.20 0.381
647.30 0.3806
647.40 0.3801
647.50 0.3796
647.60 0.3791
647.70 0.3786
647.80 0.3781
647.90 0.3776
648.00 0.3771
648.10 0.3766
648.20 0.3761
648.30 0.3755
648.40 0.3749
648.50 0.3743
648.60 0.3738
648.70 0.3732
648.80 0.3726
648.90 0.372
649.00 0.3714
649.10 0.3708
649.20 0.3702
649.30 0.3696
649.40 0.3689
649.50 0.3681
649.60 0.3674
649.70 0.3667
649.80 0.366
649.90 0.3653
650.00 0.3646
650.10 0.3638
650.20 0.3631
650.30 0.3624
650.40 0.3615
650.50 0.3606
650.60 0.3597
650.70 0.3588
650.80 0.3579
650.90 0.357
651.00 0.3562
651.10 0.3553
651.20 0.3544
651.30 0.3534
651.40 0.3523
651.50 0.3512
651.60 0.35
651.70 0.3489
651.80 0.3478
651.90 0.3466
652.00 0.3455
652.10 0.3444
652.20 0.3433
652.30 0.3421
652.40 0.3406
652.50 0.3391
652.60 0.3377
652.70 0.3362
652.80 0.3347
652.90 0.3333
653.00 0.3318
653.10 0.3303
653.20 0.3289
653.30 0.3273
653.40 0.3254
653.50 0.3234
653.60 0.3215
653.70 0.3196
653.80 0.3176
653.90 0.3157
654.00 0.3138
654.10 0.3118
654.20 0.3099
654.30 0.3079
654.40 0.3054
654.50 0.303
654.60 0.3005
654.70 0.2981
654.80 0.2955
654.90 0.2925
655.00 0.2895
655.10 0.2865
655.20 0.2835
655.30 0.2803
655.40 0.2766
655.50 0.2728
655.60 0.2683
655.70 0.2637
655.80 0.258
655.90 0.2519
656.00 0.2435
656.10 0.2346
656.20 0.2177
656.30 0.1861
656.40 0.2255
656.50 0.2377
656.60 0.2459
656.70 0.2535
656.80 0.2589
656.90 0.264
657.00 0.2681
657.10 0.2721
657.20 0.2755
657.30 0.2788
657.40 0.2815
657.50 0.2842
657.60 0.2869
657.70 0.2895
657.80 0.2921
657.90 0.2942
658.00 0.2963
658.10 0.2984
658.20 0.3005
658.30 0.3025
658.40 0.3041
658.50 0.3057
658.60 0.3072
658.70 0.3088
658.80 0.3104
658.90 0.3119
659.00 0.3135
659.10 0.3151
659.20 0.3166
659.30 0.3181
659.40 0.3191
659.50 0.3202
659.60 0.3213
659.70 0.3223
659.80 0.3234
659.90 0.3245
660.00 0.3255
660.10 0.3266
660.20 0.3276
660.30 0.3286
660.40 0.3293
660.50 0.3301
660.60 0.3308
660.70 0.3315
660.80 0.3322
660.90 0.3329
661.00 0.3336
661.10 0.3343
661.20 0.335
661.30 0.3357
661.40 0.3361
661.50 0.3366
661.60 0.3371
661.70 0.3375
661.80 0.338
661.90 0.3384
662.00 0.3389
662.10 0.3393
662.20 0.3398
662.30 0.3402
662.40 0.3405
662.50 0.3408
662.60 0.3411
662.70 0.3413
662.80 0.3416
662.90 0.3419
663.00 0.3422
663.10 0.3425
663.20 0.3427
663.30 0.343
663.40 0.3431
663.50 0.3433
663.60 0.3434
663.70 0.3436
663.80 0.3437
663.90 0.3439
664.00 0.344
664.10 0.3442
664.20 0.3443
664.30 0.3445
664.40 0.3445
664.50 0.3446
664.60 0.3447
664.70 0.3447
664.80 0.3448
664.90 0.3449
665.00 0.3449
665.10 0.345
665.20 0.345
665.30 0.3451
665.40 0.3451
665.50 0.3451
665.60 0.3451
665.70 0.3451
665.80 0.3451
665.90 0.3451
666.00 0.3451
666.10 0.3451
666.20 0.3451
666.30 0.3451
666.40 0.345
666.50 0.345
666.60 0.3449
666.70 0.3449
666.80 0.3448
666.90 0.3448
667.00 0.3447
667.10 0.3447
667.20 0.3446
667.30 0.3446
667.40 0.3445
667.50 0.3444
667.60 0.3444
667.70 0.3443
667.80 0.3442
667.90 0.3441
668.00 0.344
668.10 0.344
668.20 0.3439
668.30 0.3438
668.40 0.3437
668.50 0.3436
668.60 0.3435
668.70 0.3434
668.80 0.3433
668.90 0.3432
669.00 0.3431
669.10 0.343
669.20 0.3429
669.30 0.3428
669.40 0.3426
669.50 0.3425
669.60 0.3424
669.70 0.3423
669.80 0.3422
669.90 0.342
670.00 0.3419
670.10 0.3418
670.20 0.3417
670.30 0.3416
670.40 0.3414
670.50 0.3413
670.60 0.3412
670.70 0.341
670.80 0.3409
670.90 0.3408
671.00 0.3406
671.10 0.3405
671.20 0.3404
671.30 0.3402
671.40 0.3401
671.50 0.3399
671.60 0.3398
671.70 0.3396
671.80 0.3395
671.90 0.3394
672.00 0.3392
672.10 0.3391
672.20 0.3389
672.30 0.3388
672.40 0.3386
672.50 0.3385
672.60 0.3383
672.70 0.3382
672.80 0.338
672.90 0.3379
673.00 0.3377
673.10 0.3376
673.20 0.3374
673.30 0.3373
673.40 0.3371
673.50 0.337
673.60 0.3368
673.70 0.3367
673.80 0.3365
673.90 0.3364
674.00 0.3362
674.10 0.336
674.20 0.3359
674.30 0.3357
674.40 0.3356
674.50 0.3354
674.60 0.3352
674.70 0.3351
674.80 0.3349
674.90 0.3348
675.00 0.3346
675.10 0.3345
675.20 0.3343
675.30 0.3341
675.40 0.334
675.50 0.3338
675.60 0.3336
675.70 0.3335
675.80 0.3333
675.90 0.3332
676.00 0.333
676.10 0.3328
676.20 0.3327
676.30 0.3325
676.40 0.3323
676.50 0.3322
676.60 0.332
676.70 0.3319
676.80 0.3317
676.90 0.3315
677.00 0.3314
677.10 0.3312
677.20 0.331
677.30 0.3309
677.40 0.3307
677.50 0.3305
677.60 0.3304
677.70 0.3302
677.80 0.33
677.90 0.3299
678.00 0.3297
678.10 0.3295
678.20 0.3294
678.30 0.3292
678.40 0.329
678.50 0.3289
678.60 0.3287
678.70 0.3285
678.80 0.3284
678.90 0.3282
679.00 0.328
679.10 0.3279
679.20 0.3277
679.30 0.3275
679.40 0.3274
679.50 0.3272
679.60 0.327
679.70 0.3269
679.80 0.3267
679.90 0.3265
680.00 0.3264
680.10 0.3262
680.20 0.326
680.30 0.3259
680.40 0.3257
680.50 0.3255
680.60 0.3254
680.70 0.3252
680.80 0.325
680.90 0.3249
681.00 0.3247
681.10 0.3245
681.20 0.3244
681.30 0.3242
681.40 0.324
681.50 0.3239
681.60 0.3237
681.70 0.3235
681.80 0.3233
681.90 0.3232
682.00 0.323
682.10 0.3228
682.20 0.3227
682.30 0.3225
682.40 0.3223
682.50 0.3222
682.60 0.322
682.70 0.3218
682.80 0.3217
682.90 0.3215
683.00 0.3213
683.10 0.3212
683.20 0.321
683.30 0.3208
683.40 0.3207
683.50 0.3205
683.60 0.3203
683.70 0.3202
683.80 0.32
683.90 0.3198
684.00 0.3197
684.10 0.3195
684.20 0.3193
684.30 0.3192
684.40 0.319
684.50 0.3188
684.60 0.3187
684.70 0.3185
684.80 0.3183
684.90 0.3182
685.00 0.318
685.10 0.3178
685.20 0.3177
685.30 0.3175
685.40 0.3173
685.50 0.3172
685.60 0.317
685.70 0.3168
685.80 0.3167
685.90 0.3165
686.00 0.3163
686.10 0.3162
686.20 0.316
686.30 0.3158
686.40 0.3157
686.50 0.3155
686.60 0.3153
686.70 0.3152
686.80 0.315
686.90 0.3148
687.00 0.3147
687.10 0.3145
687.20 0.3143
687.30 0.3142
687.40 0.314
687.50 0.3138
687.60 0.3137
687.70 0.3135
687.80 0.3133
687.90 0.3132
688.00 0.313
688.10 0.3128
688.20 0.3127
688.30 0.3125
688.40 0.3123
688.50 0.3122
688.60 0.312
688.70 0.3118
688.80 0.3117
688.90 0.3115
689.00 0.3114
689.10 0.3112
689.20 0.311
689.30 0.3109
689.40 0.3107
689.50 0.3105
689.60 0.3104
689.70 0.3102
689.80 0.31
689.90 0.3099
690.00 0.3097
690.10 0.3096
690.20 0.3094
690.30 0.3092
690.40 0.3091
690.50 0.3089
690.60 0.3087
690.70 0.3086
690.80 0.3084
690.90 0.3082
691.00 0.3081
691.10 0.3079
691.20 0.3078
691.30 0.3076
691.40 0.3074
691.50 0.3073
691.60 0.3071
691.70 0.3069
691.80 0.3068
691.90 0.3066
692.00 0.3065
692.10 0.3063
692.20 0.3061
692.30 0.306
692.40 0.3058
692.50 0.3057
692.60 0.3055
692.70 0.3053
692.80 0.3052
692.90 0.305
693.00 0.3048
693.10 0.3047
693.20 0.3045
693.30 0.3044
693.40 0.3042
693.50 0.304
693.60 0.3039
693.70 0.3037
693.80 0.3036
693.90 0.3034
694.00 0.3032
694.10 0.3031
694.20 0.3029
694.30 0.3028
694.40 0.3026
694.50 0.3024
694.60 0.3023
694.70 0.3021
694.80 0.302
694.90 0.3018
695.00 0.3016
695.10 0.3015
695.20 0.3013
695.30 0.3012
695.40 0.301
695.50 0.3008
695.60 0.3007
695.70 0.3005
695.80 0.3004
695.90 0.3002
696.00 0.3
696.10 0.2999
696.20 0.2997
696.30 0.2996
696.40 0.2994
696.50 0.2993
696.60 0.2991
696.70 0.2989
696.80 0.2988
696.90 0.2986
697.00 0.2985
697.10 0.2983
697.20 0.2982
697.30 0.298
697.40 0.2978
697.50 0.2977
697.60 0.2975
697.70 0.2974
697.80 0.2972
697.90 0.2971
698.00 0.2969
698.10 0.2967
698.20 0.2966
698.30 0.2964
698.40 0.2963
698.50 0.2961
698.60 0.296
698.70 0.2958
698.80 0.2956
698.90 0.2955
699.00 0.2953
699.10 0.2952
699.20 0.295
699.30 0.2949
699.40 0.2947
699.50 0.2946
699.60 0.2944
699.70 0.2942
699.80 0.2941
699.90 0.2939
700.00 0.2938
700.10 0.2936
700.20 0.2935
700.30 0.2933
700.40 0.2932
700.50 0.293
700.60 0.2929
700.70 0.2927
700.80 0.2925
700.90 0.2924
701.00 0.2922
701.10 0.2921
701.20 0.2919
701.30 0.2918
701.40 0.2916
701.50 0.2915
701.60 0.2913
701.70 0.2912
701.80 0.291
701.90 0.2909
702.00 0.2907
702.10 0.2906
702.20 0.2904
702.30 0.2903
702.40 0.2901
702.50 0.2899
702.60 0.2898
702.70 0.2896
702.80 0.2895
702.90 0.2893
703.00 0.2892
703.10 0.289
703.20 0.2889
703.30 0.2887
703.40 0.2886
703.50 0.2884
703.60 0.2883
703.70 0.2881
703.80 0.288
703.90 0.2878
704.00 0.2877
704.10 0.2875
704.20 0.2874
704.30 0.2872
704.40 0.2871
704.50 0.2869
704.60 0.2868
704.70 0.2866
704.80 0.2865
704.90 0.2863
705.00 0.2862
705.10 0.286
705.20 0.2859
705.30 0.2857
705.40 0.2856
705.50 0.2854
705.60 0.2853
705.70 0.2851
705.80 0.285
705.90 0.2848
706.00 0.2847
706.10 0.2845
706.20 0.2844
706.30 0.2842
706.40 0.2841
706.50 0.2839
706.60 0.2838
706.70 0.2836
706.80 0.2835
706.90 0.2833
707.00 0.2832
707.10 0.283
707.20 0.2829
707.30 0.2827
707.40 0.2826
707.50 0.2824
707.60 0.2823
707.70 0.2821
707.80 0.282
707.90 0.2819
708.00 0.2817
708.10 0.2816
708.20 0.2814
708.30 0.2813
708.40 0.2811
708.50 0.281
708.60 0.2808
708.70 0.2807
708.80 0.2805
708.90 0.2804
709.00 0.2802
709.10 0.2801
709.20 0.2799
709.30 0.2798
709.40 0.2796
709.50 0.2795
709.60 0.2794
709.70 0.2792
709.80 0.2791
709.90 0.2789
710.00 0.2788
710.10 0.2786
710.20 0.2785
710.30 0.2783
710.40 0.2782
710.50 0.278
710.60 0.2779
710.70 0.2778
710.80 0.2776
710.90 0.2775
711.00 0.2773
711.10 0.2772
711.20 0.277
711.30 0.2769
711.40 0.2767
711.50 0.2766
711.60 0.2765
711.70 0.2763
711.80 0.2762
711.90 0.276
712.00 0.2759
712.10 0.2757
712.20 0.2756
712.30 0.2755
712.40 0.2753
712.50 0.2752
712.60 0.275
712.70 0.2749
712.80 0.2747
712.90 0.2746
713.00 0.2745
713.10 0.2743
713.20 0.2742
713.30 0.274
713.40 0.2739
713.50 0.2737
713.60 0.2736
713.70 0.2735
713.80 0.2733
713.90 0.2732
714.00 0.273
714.10 0.2729
714.20 0.2727
714.30 0.2726
714.40 0.2725
714.50 0.2723
714.60 0.2722
714.70 0.272
714.80 0.2719
714.90 0.2718
715.00 0.2716
715.10 0.2715
715.20 0.2713
715.30 0.2712
715.40 0.271
715.50 0.2709
715.60 0.2708
715.70 0.2706
715.80 0.2705
715.90 0.2703
716.00 0.2702
716.10 0.2701
716.20 0.2699
716.30 0.2698
716.40 0.2697
716.50 0.2695
716.60 0.2694
716.70 0.2692
716.80 0.2691
716.90 0.269
717.00 0.2688
717.10 0.2687
717.20 0.2685
717.30 0.2684
717.40 0.2683
717.50 0.2681
717.60 0.268
717.70 0.2678
717.80 0.2677
717.90 0.2676
718.00 0.2674
718.10 0.2673
718.20 0.2672
718.30 0.267
718.40 0.2669
718.50 0.2667
718.60 0.2666
718.70 0.2665
718.80 0.2663
718.90 0.2662
719.00 0.266
719.10 0.2659
719.20 0.2658
719.30 0.2656
719.40 0.2655
719.50 0.2654
719.60 0.2652
719.70 0.2651
719.80 0.265
719.90 0.2648
720.00 0.2647
720.10 0.2645
720.20 0.2644
720.30 0.2643
720.40 0.2641
720.50 0.264
720.60 0.2639
720.70 0.2637
720.80 0.2636
720.90 0.2635
721.00 0.2633
721.10 0.2632
721.20 0.263
721.30 0.2629
721.40 0.2628
721.50 0.2626
721.60 0.2625
721.70 0.2624
721.80 0.2622
721.90 0.2621
722.00 0.262
722.10 0.2618
722.20 0.2617
722.30 0.2616
722.40 0.2614
722.50 0.2613
722.60 0.2612
722.70 0.261
722.80 0.2609
722.90 0.2608
723.00 0.2606
723.10 0.2605
723.20 0.2604
723.30 0.2602
723.40 0.2601
723.50 0.26
723.60 0.2598
723.70 0.2597
723.80 0.2596
723.90 0.2594
724.00 0.2593
724.10 0.2592
724.20 0.259
724.30 0.2589
724.40 0.2588
724.50 0.2586
724.60 0.2585
724.70 0.2584
724.80 0.2582
724.90 0.2581
725.00 0.258
725.10 0.2578
725.20 0.2577
725.30 0.2576
725.40 0.2574
725.50 0.2573
725.60 0.2572
725.70 0.257
725.80 0.2569
725.90 0.2568
726.00 0.2566
726.10 0.2565
726.20 0.2564
726.30 0.2563
726.40 0.2561
726.50 0.256
726.60 0.2559
726.70 0.2557
726.80 0.2556
726.90 0.2555
727.00 0.2553
727.10 0.2552
727.20 0.2551
727.30 0.2549
727.40 0.2548
727.50 0.2547
727.60 0.2546
727.70 0.2544
727.80 0.2543
727.90 0.2542
728.00 0.254
728.10 0.2539
728.20 0.2538
728.30 0.2536
728.40 0.2535
728.50 0.2534
728.60 0.2533
728.70 0.2531
728.80 0.253
728.90 0.2529
729.00 0.2527
729.10 0.2526
729.20 0.2525
729.30 0.2524
729.40 0.2522
729.50 0.2521
729.60 0.252
729.70 0.2518
729.80 0.2517
729.90 0.2516
730.00 0.2515
730.10 0.2513
730.20 0.2512
730.30 0.2511
730.40 0.2509
730.50 0.2508
730.60 0.2507
730.70 0.2506
730.80 0.2504
730.90 0.2503
731.00 0.2502
731.10 0.2501
731.20 0.2499
731.30 0.2498
731.40 0.2497
731.50 0.2496
731.60 0.2494
731.70 0.2493
731.80 0.2492
731.90 0.249
732.00 0.2489
732.10 0.2488
732.20 0.2487
732.30 0.2485
732.40 0.2484
732.50 0.2483
732.60 0.2482
732.70 0.248
732.80 0.2479
732.90 0.2478
733.00 0.2477
733.10 0.2475
733.20 0.2474
733.30 0.2473
733.40 0.2472
733.50 0.247
733.60 0.2469
733.70 0.2468
733.80 0.2467
733.90 0.2465
734.00 0.2464
734.10 0.2463
734.20 0.2462
734.30 0.246
734.40 0.2459
734.50 0.2458
734.60 0.2457
734.70 0.2455
734.80 0.2454
734.90 0.2453
735.00 0.2452
735.10 0.245
735.20 0.2449
735.30 0.2448
735.40 0.2447
735.50 0.2446
735.60 0.2444
735.70 0.2443
735.80 0.2442
735.90 0.2441
736.00 0.2439
736.10 0.2438
736.20 0.2437
736.30 0.2436
736.40 0.2434
736.50 0.2433
736.60 0.2432
736.70 0.2431
736.80 0.2429
736.90 0.2428
737.00 0.2427
737.10 0.2426
737.20 0.2425
737.30 0.2423
737.40 0.2422
737.50 0.2421
737.60 0.242
737.70 0.2418
737.80 0.2417
737.90 0.2416
738.00 0.2415
738.10 0.2414
738.20 0.2412
738.30 0.2411
738.40 0.241
738.50 0.2409
738.60 0.2407
738.70 0.2406
738.80 0.2405
738.90 0.2404
739.00 0.2403
739.10 0.2401
739.20 0.24
739.30 0.2399
739.40 0.2398
739.50 0.2396
739.60 0.2395
739.70 0.2394
739.80 0.2393
739.90 0.2392
740.00 0.239
740.10 0.2389
740.20 0.2388
740.30 0.2387
740.40 0.2386
740.50 0.2384
740.60 0.2383
740.70 0.2382
740.80 0.2381
740.90 0.238
741.00 0.2378
741.10 0.2377
741.20 0.2376
741.30 0.2375
741.40 0.2374
741.50 0.2373
741.60 0.2371
741.70 0.237
741.80 0.2369
741.90 0.2368
742.00 0.2367
742.10 0.2365
742.20 0.2364
742.30 0.2363
742.40 0.2362
742.50 0.2361
742.60 0.236
742.70 0.2358
742.80 0.2357
742.90 0.2356
743.00 0.2355
743.10 0.2354
743.20 0.2353
743.30 0.2351
743.40 0.235
743.50 0.2349
743.60 0.2348
743.70 0.2347
743.80 0.2345
743.90 0.2344
744.00 0.2343
744.10 0.2342
744.20 0.2341
744.30 0.234
744.40 0.2338
744.50 0.2337
744.60 0.2336
744.70 0.2335
744.80 0.2334
744.90 0.2333
745.00 0.2331
745.10 0.233
745.20 0.2329
745.30 0.2328
745.40 0.2327
745.50 0.2326
745.60 0.2324
745.70 0.2323
745.80 0.2322
745.90 0.2321
746.00 0.232
746.10 0.2319
746.20 0.2318
746.30 0.2316
746.40 0.2315
746.50 0.2314
746.60 0.2313
746.70 0.2312
746.80 0.2311
746.90 0.2309
747.00 0.2308
747.10 0.2307
747.20 0.2306
747.30 0.2305
747.40 0.2304
747.50 0.2302
747.60 0.2301
747.70 0.23
747.80 0.2299
747.90 0.2298
748.00 0.2297
748.10 0.2296
748.20 0.2294
748.30 0.2293
748.40 0.2292
748.50 0.2291
748.60 0.229
748.70 0.2289
748.80 0.2288
748.90 0.2286
749.00 0.2285
749.10 0.2284
749.20 0.2283
749.30 0.2282
749.40 0.2281
749.50 0.228
749.60 0.2278
749.70 0.2277
749.80 0.2276
749.90 0.2275
750.00 0.2274
750.10 0.2273
750.20 0.2272
750.30 0.227
750.40 0.2269
750.50 0.2268
750.60 0.2267
750.70 0.2266
750.80 0.2265
750.90 0.2264
751.00 0.2263
751.10 0.2262
751.20 0.226
751.30 0.2259
751.40 0.2258
751.50 0.2257
751.60 0.2256
751.70 0.2255
751.80 0.2254
751.90 0.2253
752.00 0.2252
752.10 0.225
752.20 0.2249
752.30 0.2248
752.40 0.2247
752.50 0.2246
752.60 0.2245
752.70 0.2244
752.80 0.2243
752.90 0.2242
753.00 0.224
753.10 0.2239
753.20 0.2238
753.30 0.2237
753.40 0.2236
753.50 0.2235
753.60 0.2234
753.70 0.2233
753.80 0.2232
753.90 0.2231
754.00 0.2229
754.10 0.2228
754.20 0.2227
754.30 0.2226
754.40 0.2225
754.50 0.2224
754.60 0.2223
754.70 0.2222
754.80 0.2221
754.90 0.222
755.00 0.2218
755.10 0.2217
755.20 0.2216
755.30 0.2215
755.40 0.2214
755.50 0.2213
755.60 0.2212
755.70 0.2211
755.80 0.221
755.90 0.2209
756.00 0.2208
756.10 0.2206
756.20 0.2205
756.30 0.2204
756.40 0.2203
756.50 0.2202
756.60 0.2201
756.70 0.22
756.80 0.2199
756.90 0.2198
757.00 0.2197
757.10 0.2196
757.20 0.2194
757.30 0.2193
757.40 0.2192
757.50 0.2191
757.60 0.219
757.70 0.2189
757.80 0.2188
757.90 0.2187
758.00 0.2186
758.10 0.2185
758.20 0.2184
758.30 0.2183
758.40 0.2181
758.50 0.218
758.60 0.2179
758.70 0.2178
758.80 0.2177
758.90 0.2176
759.00 0.2175
759.10 0.2174
759.20 0.2173
759.30 0.2172
759.40 0.2171
759.50 0.217
759.60 0.2169
759.70 0.2168
759.80 0.2166
759.90 0.2165
760.00 0.2164
760.10 0.2163
760.20 0.2162
760.30 0.2161
760.40 0.216
760.50 0.2159
760.60 0.2158
760.70 0.2157
760.80 0.2156
760.90 0.2155
761.00 0.2154
761.10 0.2153
761.20 0.2152
761.30 0.2151
761.40 0.215
761.50 0.2149
761.60 0.2148
761.70 0.2146
761.80 0.2145
761.90 0.2144
762.00 0.2143
762.10 0.2142
762.20 0.2141
762.30 0.214
762.40 0.2139
762.50 0.2138
762.60 0.2137
762.70 0.2136
762.80 0.2135
762.90 0.2134
763.00 0.2133
763.10 0.2132
763.20 0.2131
763.30 0.213
763.40 0.2129
763.50 0.2128
763.60 0.2127
763.70 0.2126
763.80 0.2125
763.90 0.2124
764.00 0.2123
764.10 0.2122
764.20 0.212
764.30 0.2119
764.40 0.2118
764.50 0.2117
764.60 0.2116
764.70 0.2115
764.80 0.2114
764.90 0.2113
765.00 0.2112
765.10 0.2111
765.20 0.211
765.30 0.2109
765.40 0.2108
765.50 0.2107
765.60 0.2106
765.70 0.2105
765.80 0.2104
765.90 0.2103
766.00 0.2102
766.10 0.2101
766.20 0.21
766.30 0.2099
766.40 0.2098
766.50 0.2097
766.60 0.2096
766.70 0.2095
766.80 0.2094
766.90 0.2093
767.00 0.2092
767.10 0.2091
767.20 0.209
767.30 0.2089
767.40 0.2088
767.50 0.2087
767.60 0.2086
767.70 0.2085
767.80 0.2084
767.90 0.2083
768.00 0.2082
768.10 0.2081
768.20 0.2079
768.30 0.2078
768.40 0.2077
768.50 0.2076
768.60 0.2075
768.70 0.2074
768.80 0.2073
768.90 0.2072
769.00 0.2071
769.10 0.207
769.20 0.2069
769.30 0.2068
769.40 0.2067
769.50 0.2066
769.60 0.2065
769.70 0.2064
769.80 0.2063
769.90 0.2062
770.00 0.2061
770.10 0.206
770.20 0.2059
770.30 0.2058
770.40 0.2057
770.50 0.2056
770.60 0.2055
770.70 0.2054
770.80 0.2053
770.90 0.2052
771.00 0.2051
771.10 0.205
771.20 0.2049
771.30 0.2048
771.40 0.2047
771.50 0.2046
771.60 0.2045
771.70 0.2045
771.80 0.2044
771.90 0.2043
772.00 0.2042
772.10 0.2041
772.20 0.204
772.30 0.2039
772.40 0.2038
772.50 0.2037
772.60 0.2036
772.70 0.2035
772.80 0.2034
772.90 0.2033
773.00 0.2032
773.10 0.2031
773.20 0.203
773.30 0.2029
773.40 0.2028
773.50 0.2027
773.60 0.2026
773.70 0.2025
773.80 0.2024
773.90 0.2023
774.00 0.2022
774.10 0.2021
774.20 0.202
774.30 0.2019
774.40 0.2018
774.50 0.2017
774.60 0.2016
774.70 0.2015
774.80 0.2014
774.90 0.2013
775.00 0.2012
775.10 0.2011
775.20 0.201
775.30 0.2009
775.40 0.2008
775.50 0.2007
775.60 0.2006
775.70 0.2006
775.80 0.2005
775.90 0.2004
776.00 0.2003
776.10 0.2002
776.20 0.2001
776.30 0.2
776.40 0.1999
776.50 0.1998
776.60 0.1997
776.70 0.1996
776.80 0.1995
776.90 0.1994
777.00 0.1993
777.10 0.1992
777.20 0.1991
777.30 0.199
777.40 0.1989
777.50 0.1988
777.60 0.1987
777.70 0.1986
777.80 0.1985
777.90 0.1984
778.00 0.1983
778.10 0.1982
778.20 0.1981
778.30 0.1981
778.40 0.198
778.50 0.1979
778.60 0.1978
778.70 0.1977
778.80 0.1976
778.90 0.1975
779.00 0.1974
779.10 0.1973
779.20 0.1972
779.30 0.1971
779.40 0.197
779.50 0.1969
779.60 0.1968
779.70 0.1967
779.80 0.1966
779.90 0.1965
780.00 0.1964
780.10 0.1963
780.20 0.1962
780.30 0.1962
780.40 0.1961
780.50 0.196
780.60 0.1959
780.70 0.1958
780.80 0.1957
780.90 0.1956
781.00 0.1955
781.10 0.1954
781.20 0.1953
781.30 0.1952
781.40 0.1951
781.50 0.195
781.60 0.1949
781.70 0.1949
781.80 0.1948
781.90 0.1947
782.00 0.1946
782.10 0.1945
782.20 0.1944
782.30 0.1943
782.40 0.1942
782.50 0.1941
782.60 0.194
782.70 0.1939
782.80 0.1938
782.90 0.1937
783.00 0.1937
783.10 0.1936
783.20 0.1935
783.30 0.1934
783.40 0.1933
783.50 0.1932
783.60 0.1931
783.70 0.193
783.80 0.1929
783.90 0.1928
784.00 0.1927
784.10 0.1926
784.20 0.1926
784.30 0.1925
784.40 0.1924
784.50 0.1923
784.60 0.1922
784.70 0.1921
784.80 0.192
784.90 0.1919
785.00 0.1918
785.10 0.1917
785.20 0.1916
785.30 0.1915
785.40 0.1915
785.50 0.1914
785.60 0.1913
785.70 0.1912
785.80 0.1911
785.90 0.191
786.00 0.1909
786.10 0.1908
786.20 0.1907
786.30 0.1906
786.40 0.1905
786.50 0.1905
786.60 0.1904
786.70 0.1903
786.80 0.1902
786.90 0.1901
787.00 0.19
787.10 0.1899
787.20 0.1898
787.30 0.1897
787.40 0.1896
787.50 0.1896
787.60 0.1895
787.70 0.1894
787.80 0.1893
787.90 0.1892
788.00 0.1891
788.10 0.189
788.20 0.1889
788.30 0.1888
788.40 0.1887
788.50 0.1886
788.60 0.1886
788.70 0.1885
788.80 0.1884
788.90 0.1883
789.00 0.1882
789.10 0.1881
789.20 0.188
789.30 0.1879
789.40 0.1878
789.50 0.1878
789.60 0.1877
789.70 0.1876
789.80 0.1875
789.90 0.1874
790.00 0.1873
790.10 0.1872
790.20 0.1871
790.30 0.187
790.40 0.187
790.50 0.1869
790.60 0.1868
790.70 0.1867
790.80 0.1866
790.90 0.1865
791.00 0.1864
791.10 0.1863
791.20 0.1863
791.30 0.1862
791.40 0.1861
791.50 0.186
791.60 0.1859
791.70 0.1858
791.80 0.1857
791.90 0.1856
792.00 0.1856
792.10 0.1855
792.20 0.1854
792.30 0.1853
792.40 0.1852
792.50 0.1851
792.60 0.185
792.70 0.1849
792.80 0.1849
792.90 0.1848
793.00 0.1847
793.10 0.1846
793.20 0.1845
793.30 0.1844
793.40 0.1843
793.50 0.1843
793.60 0.1842
793.70 0.1841
793.80 0.184
793.90 0.1839
794.00 0.1838
794.10 0.1837
794.20 0.1836
794.30 0.1836
794.40 0.1835
794.50 0.1834
794.60 0.1833
794.70 0.1832
794.80 0.1831
794.90 0.183
795.00 0.183
795.10 0.1829
795.20 0.1828
795.30 0.1827
795.40 0.1826
795.50 0.1825
795.60 0.1824
795.70 0.1824
795.80 0.1823
795.90 0.1822
796.00 0.1821
796.10 0.182
796.20 0.1819
796.30 0.1818
796.40 0.1818
796.50 0.1817
796.60 0.1816
796.70 0.1815
796.80 0.1814
796.90 0.1813
797.00 0.1812
797.10 0.1812
797.20 0.1811
797.30 0.181
797.40 0.1809
797.50 0.1808
797.60 0.1807
797.70 0.1806
797.80 0.1806
797.90 0.1805
798.00 0.1804
798.10 0.1803
798.20 0.1802
798.30 0.1801
798.40 0.1801
798.50 0.18
798.60 0.1799
798.70 0.1798
798.80 0.1797
798.90 0.1796
799.00 0.1795
799.10 0.1795
799.20 0.1794
799.30 0.1793
799.40 0.1792
799.50 0.1791
799.60 0.179
799.70 0.179
799.80 0.1789
799.90 0.1788
800.00 0.1787
800.10 0.1786
800.20 0.1785
800.30 0.1785
800.40 0.1784
800.50 0.1783
800.60 0.1782
800.70 0.1781
800.80 0.178
800.90 0.178
801.00 0.1779
801.10 0.1778
801.20 0.1777
801.30 0.1776
801.40 0.1775
801.50 0.1775
801.60 0.1774
801.70 0.1773
801.80 0.1772
801.90 0.1771
802.00 0.1771
802.10 0.177
802.20 0.1769
802.30 0.1768
802.40 0.1767
802.50 0.1766
802.60 0.1766
802.70 0.1765
802.80 0.1764
802.90 0.1763
803.00 0.1762
803.10 0.1761
803.20 0.1761
803.30 0.176
803.40 0.1759
803.50 0.1758
803.60 0.1757
803.70 0.1757
803.80 0.1756
803.90 0.1755
804.00 0.1754
804.10 0.1753
804.20 0.1753
804.30 0.1752
804.40 0.1751
804.50 0.175
804.60 0.1749
804.70 0.1748
804.80 0.1748
804.90 0.1747
805.00 0.1746
805.10 0.1745
805.20 0.1744
805.30 0.1744
805.40 0.1743
805.50 0.1742
805.60 0.1741
805.70 0.174
805.80 0.174
805.90 0.1739
806.00 0.1738
806.10 0.1737
806.20 0.1736
806.30 0.1735
806.40 0.1735
806.50 0.1734
806.60 0.1733
806.70 0.1732
806.80 0.1731
806.90 0.1731
807.00 0.173
807.10 0.1729
807.20 0.1728
807.30 0.1727
807.40 0.1727
807.50 0.1726
807.60 0.1725
807.70 0.1724
807.80 0.1723
807.90 0.1723
808.00 0.1722
808.10 0.1721
808.20 0.172
808.30 0.1719
808.40 0.1719
808.50 0.1718
808.60 0.1717
808.70 0.1716
808.80 0.1715
808.90 0.1715
809.00 0.1714
809.10 0.1713
809.20 0.1712
809.30 0.1711
809.40 0.1711
809.50 0.171
809.60 0.1709
809.70 0.1708
809.80 0.1707
809.90 0.1707
810.00 0.1706
810.10 0.1705
810.20 0.1704
810.30 0.1704
810.40 0.1703
810.50 0.1702
810.60 0.1701
810.70 0.17
810.80 0.17
810.90 0.1699
811.00 0.1698
811.10 0.1697
811.20 0.1697
811.30 0.1696
811.40 0.1695
811.50 0.1694
811.60 0.1693
811.70 0.1693
811.80 0.1692
811.90 0.1691
812.00 0.169
812.10 0.169
812.20 0.1689
812.30 0.1688
812.40 0.1687
812.50 0.1686
812.60 0.1686
812.70 0.1685
812.80 0.1684
812.90 0.1683
813.00 0.1683
813.10 0.1682
813.20 0.1681
813.30 0.168
813.40 0.1679
813.50 0.1679
813.60 0.1678
813.70 0.1677
813.80 0.1676
813.90 0.1676
814.00 0.1675
814.10 0.1674
814.20 0.1673
814.30 0.1673
814.40 0.1672
814.50 0.1671
814.60 0.167
814.70 0.1669
814.80 0.1669
814.90 0.1668
815.00 0.1667
815.10 0.1666
815.20 0.1666
815.30 0.1665
815.40 0.1664
815.50 0.1663
815.60 0.1663
815.70 0.1662
815.80 0.1661
815.90 0.166
816.00 0.166
816.10 0.1659
816.20 0.1658
816.30 0.1657
816.40 0.1656
816.50 0.1656
816.60 0.1655
816.70 0.1654
816.80 0.1653
816.90 0.1653
817.00 0.1652
817.10 0.1651
817.20 0.165
817.30 0.165
817.40 0.1649
817.50 0.1648
817.60 0.1647
817.70 0.1647
817.80 0.1646
817.90 0.1645
818.00 0.1644
818.10 0.1644
818.20 0.1643
818.30 0.1642
818.40 0.1641
818.50 0.1641
818.60 0.164
818.70 0.1639
818.80 0.1638
818.90 0.1638
819.00 0.1637
819.10 0.1636
819.20 0.1635
819.30 0.1635
819.40 0.1634
819.50 0.1633
819.60 0.1632
819.70 0.1632
819.80 0.1631
819.90 0.163
820.00 0.1629
820.10 0.1629
820.20 0.1628
820.30 0.1627
820.40 0.1626
820.50 0.1626
820.60 0.1625
820.70 0.1624
820.80 0.1623
820.90 0.1623
821.00 0.1622
821.10 0.1621
821.20 0.162
821.30 0.162
821.40 0.1619
821.50 0.1618
821.60 0.1617
821.70 0.1617
821.80 0.1616
821.90 0.1615
822.00 0.1615
822.10 0.1614
822.20 0.1613
822.30 0.1612
822.40 0.1612
822.50 0.1611
822.60 0.161
822.70 0.1609
822.80 0.1609
822.90 0.1608
823.00 0.1607
823.10 0.1606
823.20 0.1606
823.30 0.1605
823.40 0.1604
823.50 0.1604
823.60 0.1603
823.70 0.1602
823.80 0.1601
823.90 0.1601
824.00 0.16
824.10 0.1599
824.20 0.1598
824.30 0.1598
824.40 0.1597
824.50 0.1596
824.60 0.1596
824.70 0.1595
824.80 0.1594
824.90 0.1593
825.00 0.1593
825.10 0.1592
825.20 0.1591
825.30 0.159
825.40 0.159
825.50 0.1589
825.60 0.1588
825.70 0.1588
825.80 0.1587
825.90 0.1586
826.00 0.1585
826.10 0.1585
826.20 0.1584
826.30 0.1583
826.40 0.1583
826.50 0.1582
826.60 0.1581
826.70 0.158
826.80 0.158
826.90 0.1579
827.00 0.1578
827.10 0.1578
827.20 0.1577
827.30 0.1576
827.40 0.1575
827.50 0.1575
827.60 0.1574
827.70 0.1573
827.80 0.1573
827.90 0.1572
828.00 0.1571
828.10 0.157
828.20 0.157
828.30 0.1569
828.40 0.1568
828.50 0.1568
828.60 0.1567
828.70 0.1566
828.80 0.1565
828.90 0.1565
829.00 0.1564
829.10 0.1563
829.20 0.1563
829.30 0.1562
829.40 0.1561
829.50 0.156
829.60 0.156
829.70 0.1559
829.80 0.1558
829.90 0.1558
830.00 0.1557
830.10 0.1556
830.20 0.1556
830.30 0.1555
830.40 0.1554
830.50 0.1553
830.60 0.1553
830.70 0.1552
830.80 0.1551
830.90 0.1551
831.00 0.155
831.10 0.1549
831.20 0.1548
831.30 0.1548
831.40 0.1547
831.50 0.1546
831.60 0.1546
831.70 0.1545
831.80 0.1544
831.90 0.1544
832.00 0.1543
832.10 0.1542
832.20 0.1541
832.30 0.1541
832.40 0.154
832.50 0.1539
832.60 0.1539
832.70 0.1538
832.80 0.1537
832.90 0.1536
833.00 0.1536
833.10 0.1535
833.20 0.1534
833.30 0.1534
833.40 0.1533
833.50 0.1532
833.60 0.1532
833.70 0.1531
833.80 0.153
833.90 0.1529
834.00 0.1529
834.10 0.1528
834.20 0.1527
834.30 0.1527
834.40 0.1526
834.50 0.1525
834.60 0.1524
834.70 0.1524
834.80 0.1523
834.90 0.1522
835.00 0.1522
835.10 0.1521
835.20 0.152
835.30 0.152
835.40 0.1519
835.50 0.1518
835.60 0.1517
835.70 0.1517
835.80 0.1516
835.90 0.1515
836.00 0.1515
836.10 0.1514
836.20 0.1513
836.30 0.1512
836.40 0.1512
836.50 0.1511
836.60 0.151
836.70 0.151
836.80 0.1509
836.90 0.1508
837.00 0.1508
837.10 0.1507
837.20 0.1506
837.30 0.1506
837.40 0.1505
837.50 0.1504
837.60 0.1503
837.70 0.1503
837.80 0.1502
837.90 0.1501
838.00 0.1501
838.10 0.15
838.20 0.1499
838.30 0.1499
838.40 0.1498
838.50 0.1497
838.60 0.1497
838.70 0.1496
838.80 0.1495
838.90 0.1495
839.00 0.1494
839.10 0.1493
839.20 0.1493
839.30 0.1492
839.40 0.1491
839.50 0.1491
839.60 0.149
839.70 0.1489
839.80 0.1489
839.90 0.1488
840.00 0.1487
840.10 0.1486
840.20 0.1486
840.30 0.1485
840.40 0.1484
840.50 0.1484
840.60 0.1483
840.70 0.1482
840.80 0.1482
840.90 0.1481
841.00 0.148
841.10 0.148
841.20 0.1479
841.30 0.1478
841.40 0.1478
841.50 0.1477
841.60 0.1476
841.70 0.1476
841.80 0.1475
841.90 0.1474
842.00 0.1474
842.10 0.1473
842.20 0.1472
842.30 0.1472
842.40 0.1471
842.50 0.147
842.60 0.147
842.70 0.1469
842.80 0.1468
842.90 0.1468
843.00 0.1467
843.10 0.1466
843.20 0.1466
843.30 0.1465
843.40 0.1464
843.50 0.1464
843.60 0.1463
843.70 0.1462
843.80 0.1462
843.90 0.1461
844.00 0.146
844.10 0.146
844.20 0.1459
844.30 0.1458
844.40 0.1458
844.50 0.1457
844.60 0.1456
844.70 0.1456
844.80 0.1455
844.90 0.1454
845.00 0.1454
845.10 0.1453
845.20 0.1452
845.30 0.1452
845.40 0.1451
845.50 0.145
845.60 0.145
845.70 0.1449
845.80 0.1448
845.90 0.1448
846.00 0.1447
846.10 0.1447
846.20 0.1446
846.30 0.1445
846.40 0.1445
846.50 0.1444
846.60 0.1443
846.70 0.1443
846.80 0.1442
846.90 0.1441
847.00 0.1441
847.10 0.144
847.20 0.1439
847.30 0.1439
847.40 0.1438
847.50 0.1437
847.60 0.1437
847.70 0.1436
847.80 0.1435
847.90 0.1435
848.00 0.1434
848.10 0.1434
848.20 0.1433
848.30 0.1432
848.40 0.1432
848.50 0.1431
848.60 0.143
848.70 0.143
848.80 0.1429
848.90 0.1428
849.00 0.1428
849.10 0.1427
849.20 0.1426
849.30 0.1426
849.40 0.1425
849.50 0.1425
849.60 0.1424
849.70 0.1423
849.80 0.1423
849.90 0.1422
850.00 0.1421
850.10 0.1421
850.20 0.142
850.30 0.1419
850.40 0.1419
850.50 0.1418
850.60 0.1418
850.70 0.1417
850.80 0.1416
850.90 0.1416
851.00 0.1415
851.10 0.1414
851.20 0.1414
851.30 0.1413
851.40 0.1412
851.50 0.1412
851.60 0.1411
851.70 0.1411
851.80 0.141
851.90 0.1409
852.00 0.1409
852.10 0.1408
852.20 0.1407
852.30 0.1407
852.40 0.1406
852.50 0.1405
852.60 0.1405
852.70 0.1404
852.80 0.1404
852.90 0.1403
853.00 0.1402
853.10 0.1402
853.20 0.1401
853.30 0.1401
853.40 0.14
853.50 0.1399
853.60 0.1399
853.70 0.1398
853.80 0.1397
853.90 0.1397
854.00 0.1396
854.10 0.1396
854.20 0.1395
854.30 0.1394
854.40 0.1394
854.50 0.1393
854.60 0.1392
854.70 0.1392
854.80 0.1391
854.90 0.1391
855.00 0.139
855.10 0.1389
855.20 0.1389
855.30 0.1388
855.40 0.1387
855.50 0.1387
855.60 0.1386
855.70 0.1386
855.80 0.1385
855.90 0.1384
856.00 0.1384
856.10 0.1383
856.20 0.1383
856.30 0.1382
856.40 0.1381
856.50 0.1381
856.60 0.138
856.70 0.1379
856.80 0.1379
856.90 0.1378
857.00 0.1378
857.10 0.1377
857.20 0.1376
857.30 0.1376
857.40 0.1375
857.50 0.1375
857.60 0.1374
857.70 0.1373
857.80 0.1373
857.90 0.1372
858.00 0.1372
858.10 0.1371
858.20 0.137
858.30 0.137
858.40 0.1369
858.50 0.1369
858.60 0.1368
858.70 0.1368
858.80 0.1367
858.90 0.1366
859.00 0.1366
859.10 0.1365
859.20 0.1365
859.30 0.1364
859.40 0.1363
859.50 0.1363
859.60 0.1362
859.70 0.1362
859.80 0.1361
859.90 0.136
860.00 0.136
860.10 0.1359
860.20 0.1359
860.30 0.1358
860.40 0.1357
860.50 0.1357
860.60 0.1356
860.70 0.1356
860.80 0.1355
860.90 0.1354
861.00 0.1354
861.10 0.1353
861.20 0.1353
861.30 0.1352
861.40 0.1352
861.50 0.1351
861.60 0.135
861.70 0.135
861.80 0.1349
861.90 0.1349
862.00 0.1348
862.10 0.1347
862.20 0.1347
862.30 0.1346
862.40 0.1346
862.50 0.1345
862.60 0.1344
862.70 0.1344
862.80 0.1343
862.90 0.1343
863.00 0.1342
863.10 0.1342
863.20 0.1341
863.30 0.134
863.40 0.134
863.50 0.1339
863.60 0.1339
863.70 0.1338
863.80 0.1337
863.90 0.1337
864.00 0.1336
864.10 0.1336
864.20 0.1335
864.30 0.1335
864.40 0.1334
864.50 0.1333
864.60 0.1333
864.70 0.1332
864.80 0.1332
864.90 0.1331
865.00 0.133
865.10 0.133
865.20 0.1329
865.30 0.1329
865.40 0.1328
865.50 0.1328
865.60 0.1327
865.70 0.1326
865.80 0.1326
865.90 0.1325
866.00 0.1325
866.10 0.1324
866.20 0.1324
866.30 0.1323
866.40 0.1322
866.50 0.1322
866.60 0.1321
866.70 0.1321
866.80 0.132
866.90 0.1319
867.00 0.1319
867.10 0.1318
867.20 0.1318
867.30 0.1317
867.40 0.1317
867.50 0.1316
867.60 0.1316
867.70 0.1315
867.80 0.1314
867.90 0.1314
868.00 0.1313
868.10 0.1313
868.20 0.1312
868.30 0.1312
868.40 0.1311
868.50 0.1311
868.60 0.131
868.70 0.1309
868.80 0.1309
868.90 0.1308
869.00 0.1308
869.10 0.1307
869.20 0.1307
869.30 0.1306
869.40 0.1306
869.50 0.1305
869.60 0.1304
869.70 0.1304
869.80 0.1303
869.90 0.1303
870.00 0.1302
870.10 0.1302
870.20 0.1301
870.30 0.1301
870.40 0.13
870.50 0.1299
870.60 0.1299
870.70 0.1298
870.80 0.1298
870.90 0.1297
871.00 0.1297
871.10 0.1296
871.20 0.1296
871.30 0.1295
871.40 0.1294
871.50 0.1294
871.60 0.1293
871.70 0.1293
871.80 0.1292
871.90 0.1292
872.00 0.1291
872.10 0.1291
872.20 0.129
872.30 0.129
872.40 0.1289
872.50 0.1288
872.60 0.1288
872.70 0.1287
872.80 0.1287
872.90 0.1286
873.00 0.1286
873.10 0.1285
873.20 0.1285
873.30 0.1284
873.40 0.1284
873.50 0.1283
873.60 0.1283
873.70 0.1282
873.80 0.1281
873.90 0.1281
874.00 0.128
874.10 0.128
874.20 0.1279
874.30 0.1279
874.40 0.1278
874.50 0.1278
874.60 0.1277
874.70 0.1277
874.80 0.1276
874.90 0.1276
875.00 0.1275
875.10 0.1274
875.20 0.1274
875.30 0.1273
875.40 0.1273
875.50 0.1272
875.60 0.1272
875.70 0.1271
875.80 0.1271
875.90 0.127
876.00 0.127
876.10 0.1269
876.20 0.1269
876.30 0.1268
876.40 0.1268
876.50 0.1267
876.60 0.1266
876.70 0.1266
876.80 0.1265
876.90 0.1265
877.00 0.1264
877.10 0.1264
877.20 0.1263
877.30 0.1263
877.40 0.1262
877.50 0.1262
877.60 0.1261
877.70 0.1261
877.80 0.126
877.90 0.126
878.00 0.1259
878.10 0.1259
878.20 0.1258
878.30 0.1258
878.40 0.1257
878.50 0.1256
878.60 0.1256
878.70 0.1255
878.80 0.1255
878.90 0.1254
879.00 0.1254
879.10 0.1253
879.20 0.1253
879.30 0.1252
879.40 0.1252
879.50 0.1251
879.60 0.1251
879.70 0.125
879.80 0.125
879.90 0.1249
880.00 0.1249
880.10 0.1248
880.20 0.1248
880.30 0.1247
880.40 0.1247
880.50 0.1246
880.60 0.1246
880.70 0.1245
880.80 0.1245
880.90 0.1244
881.00 0.1244
881.10 0.1243
881.20 0.1243
881.30 0.1242
881.40 0.1242
881.50 0.1241
881.60 0.124
881.70 0.124
881.80 0.1239
881.90 0.1239
882.00 0.1238
882.10 0.1238
882.20 0.1237
882.30 0.1237
882.40 0.1236
882.50 0.1236
882.60 0.1235
882.70 0.1235
882.80 0.1234
882.90 0.1234
883.00 0.1233
883.10 0.1233
883.20 0.1232
883.30 0.1232
883.40 0.1231
883.50 0.1231
883.60 0.123
883.70 0.123
883.80 0.1229
883.90 0.1228
884.00 0.1228
884.10 0.1227
884.20 0.1227
884.30 0.1226
884.40 0.1226
884.50 0.1225
884.60 0.1225
884.70 0.1224
884.80 0.1224
884.90 0.1223
885.00 0.1223
885.10 0.1222
885.20 0.1222
885.30 0.1221
885.40 0.1221
885.50 0.122
885.60 0.122
885.70 0.1219
885.80 0.1219
885.90 0.1218
886.00 0.1218
886.10 0.1217
886.20 0.1217
886.30 0.1216
886.40 0.1215
886.50 0.1215
886.60 0.1214
886.70 0.1214
886.80 0.1213
886.90 0.1213
887.00 0.1212
887.10 0.1212
887.20 0.1211
887.30 0.1211
887.40 0.1211
887.50 0.121
887.60 0.121
887.70 0.1209
887.80 0.1209
887.90 0.1208
888.00 0.1208
888.10 0.1207
888.20 0.1207
888.30 0.1206
888.40 0.1206
888.50 0.1206
888.60 0.1205
888.70 0.1205
888.80 0.1204
888.90 0.1204
889.00 0.1203
889.10 0.1203
889.20 0.1202
889.30 0.1202
889.40 0.1201
889.50 0.1201
889.60 0.1201
889.70 0.12
889.80 0.12
889.90 0.1199
890.00 0.1199
890.10 0.1198
890.20 0.1198
890.30 0.1197
890.40 0.1197
890.50 0.1196
890.60 0.1196
890.70 0.1196
890.80 0.1195
890.90 0.1195
891.00 0.1194
891.10 0.1194
891.20 0.1193
891.30 0.1193
891.40 0.1192
891.50 0.1192
891.60 0.1191
891.70 0.1191
891.80 0.1191
891.90 0.119
892.00 0.119
892.10 0.1189
892.20 0.1189
892.30 0.1188
892.40 0.1188
892.50 0.1187
892.60 0.1187
892.70 0.1186
892.80 0.1186
892.90 0.1185
893.00 0.1184
893.10 0.1184
893.20 0.1183
893.30 0.1183
893.40 0.1182
893.50 0.1182
893.60 0.1181
893.70 0.1181
893.80 0.118
893.90 0.118
894.00 0.1179
894.10 0.1179
894.20 0.1178
894.30 0.1178
894.40 0.1177
894.50 0.1177
894.60 0.1176
894.70 0.1176
894.80 0.1175
894.90 0.1175
895.00 0.1174
895.10 0.1174
895.20 0.1173
895.30 0.1173
895.40 0.1172
895.50 0.1172
895.60 0.1171
895.70 0.1171
895.80 0.117
895.90 0.117
896.00 0.1169
896.10 0.1169
896.20 0.1168
896.30 0.1168
896.40 0.1167
896.50 0.1166
896.60 0.1166
896.70 0.1165
896.80 0.1165
896.90 0.1164
897.00 0.1164
897.10 0.1163
897.20 0.1163
897.30 0.1162
897.40 0.1162
897.50 0.1161
897.60 0.1161
897.70 0.116
897.80 0.116
897.90 0.1159
898.00 0.1159
898.10 0.1158
898.20 0.1157
898.30 0.1157
898.40 0.1156
898.50 0.1156
898.60 0.1155
898.70 0.1155
898.80 0.1154
898.90 0.1154
899.00 0.1153
899.10 0.1153
899.20 0.1152
899.30 0.1152
899.40 0.1151
899.50 0.115
899.60 0.115
899.70 0.1149
899.80 0.1149
899.90 0.1148
900.00 0.1148
900.10 0.1147
900.20 0.1147
900.30 0.1146
900.40 0.1146
900.50 0.1145
900.60 0.1145
900.70 0.1144
900.80 0.1143
900.90 0.1143
901.00 0.1142
901.10 0.1142
901.20 0.1141
901.30 0.1141
901.40 0.114
901.50 0.114
901.60 0.1139
901.70 0.1139
901.80 0.1138
901.90 0.1138
902.00 0.1137
902.10 0.1137
902.20 0.1136
902.30 0.1136
902.40 0.1136
902.50 0.1135
902.60 0.1135
902.70 0.1135
902.80 0.1134
902.90 0.1134
903.00 0.1134
903.10 0.1133
903.20 0.1133
903.30 0.1133
903.40 0.1132
903.50 0.1132
903.60 0.1132
903.70 0.1131
903.80 0.1131
903.90 0.1131
904.00 0.113
904.10 0.113
904.20 0.113
904.30 0.1129
904.40 0.1129
904.50 0.1129
904.60 0.1128
904.70 0.1128
904.80 0.1128
904.90 0.1127
905.00 0.1127
905.10 0.1127
905.20 0.1126
905.30 0.1126
905.40 0.1126
905.50 0.1125
905.60 0.1125
905.70 0.1125
905.80 0.1125
905.90 0.1124
906.00 0.1124
906.10 0.1124
906.20 0.1123
906.30 0.1123
906.40 0.1123
906.50 0.1122
906.60 0.1122
906.70 0.1122
906.80 0.1121
906.90 0.1121
907.00 0.1121
907.10 0.112
907.20 0.112
907.30 0.1119
907.40 0.1119
907.50 0.1118
907.60 0.1118
907.70 0.1118
907.80 0.1117
907.90 0.1117
908.00 0.1116
908.10 0.1116
908.20 0.1115
908.30 0.1115
908.40 0.1115
908.50 0.1114
908.60 0.1114
908.70 0.1113
908.80 0.1113
908.90 0.1112
909.00 0.1112
909.10 0.1112
909.20 0.1111
909.30 0.1111
909.40 0.111
909.50 0.111
909.60 0.111
909.70 0.1109
909.80 0.1109
909.90 0.1108
910.00 0.1108
910.10 0.1107
910.20 0.1107
910.30 0.1107
910.40 0.1106
910.50 0.1106
910.60 0.1105
910.70 0.1105
910.80 0.1104
910.90 0.1104
911.00 0.1104
911.10 0.1103
911.20 0.1103
911.30 0.1102
911.40 0.1102
911.50 0.1102
911.60 0.1101
911.70 0.1101
911.80 0.11
911.90 0.11
912.00 0.1099
912.10 0.1099
912.20 0.1098
912.30 0.1098
912.40 0.1097
912.50 0.1097
912.60 0.1096
912.70 0.1096
912.80 0.1095
912.90 0.1094
913.00 0.1094
913.10 0.1093
913.20 0.1093
913.30 0.1092
913.40 0.1092
913.50 0.1091
913.60 0.1091
913.70 0.109
913.80 0.1089
913.90 0.1089
914.00 0.1088
914.10 0.1088
914.20 0.1087
914.30 0.1087
914.40 0.1086
914.50 0.1086
914.60 0.1085
914.70 0.1084
914.80 0.1084
914.90 0.1083
915.00 0.1083
915.10 0.1082
915.20 0.1082
915.30 0.1081
915.40 0.1081
915.50 0.108
915.60 0.108
915.70 0.1079
915.80 0.1078
915.90 0.1078
916.00 0.1077
916.10 0.1077
916.20 0.1076
916.30 0.1076
916.40 0.1075
916.50 0.1075
916.60 0.1074
916.70 0.1074
916.80 0.1073
916.90 0.1072
917.00 0.1072
917.10 0.1071
917.20 0.1071
917.30 0.107
917.40 0.1069
917.50 0.1069
917.60 0.1068
917.70 0.1067
917.80 0.1067
917.90 0.1066
918.00 0.1065
918.10 0.1065
918.20 0.1064
918.30 0.1063
918.40 0.1063
918.50 0.1062
918.60 0.1061
918.70 0.1061
918.80 0.106
918.90 0.1059
919.00 0.1059
919.10 0.1058
919.20 0.1057
919.30 0.1057
919.40 0.1056
919.50 0.1055
919.60 0.1055
919.70 0.1054
919.80 0.1053
919.90 0.1053
920.00 0.1052
920.10 0.1051
920.20 0.1051
920.30 0.105
920.40 0.1049
920.50 0.1049
920.60 0.1048
920.70 0.1047
920.80 0.1047
920.90 0.1046
921.00 0.1045
921.10 0.1045
921.20 0.1044
921.30 0.1043
921.40 0.1043
921.50 0.1042
921.60 0.1041
921.70 0.1041
921.80 0.104
921.90 0.1039
922.00 0.1039
922.10 0.1039
922.20 0.1038
922.30 0.1038
922.40 0.1038
922.50 0.1038
922.60 0.1038
922.70 0.1037
922.80 0.1037
922.90 0.1037
923.00 0.1037
923.10 0.1037
923.20 0.1036
923.30 0.1036
923.40 0.1036
923.50 0.1036
923.60 0.1036
923.70 0.1035
923.80 0.1035
923.90 0.1035
924.00 0.1035
924.10 0.1035
924.20 0.1034
924.30 0.1034
924.40 0.1034
924.50 0.1034
924.60 0.1033
924.70 0.1033
924.80 0.1033
924.90 0.1033
925.00 0.1033
925.10 0.1032
925.20 0.1032
925.30 0.1032
925.40 0.1032
925.50 0.1032
925.60 0.1031
925.70 0.1031
925.80 0.1031
925.90 0.1031
926.00 0.1031
926.10 0.103
926.20 0.103
926.30 0.103
926.40 0.103
926.50 0.103
926.60 0.1029
926.70 0.1029
926.80 0.1029
926.90 0.1029
927.00 0.1029
927.10 0.1028
927.20 0.1028
927.30 0.1028
927.40 0.1028
927.50 0.1028
927.60 0.1027
927.70 0.1027
927.80 0.1027
927.90 0.1027
928.00 0.1027
928.10 0.1026
928.20 0.1026
928.30 0.1026
928.40 0.1026
928.50 0.1026
928.60 0.1026
928.70 0.1025
928.80 0.1025
928.90 0.1025
929.00 0.1025
929.10 0.1025
929.20 0.1024
929.30 0.1024
929.40 0.1024
929.50 0.1024
929.60 0.1024
929.70 0.1023
929.80 0.1023
929.90 0.1023
930.00 0.1023
930.10 0.1023
930.20 0.1022
930.30 0.1022
930.40 0.1022
930.50 0.1022
930.60 0.1022
930.70 0.1021
930.80 0.1021
930.90 0.1021
931.00 0.1021
931.10 0.1021
931.20 0.1021
931.30 0.102
931.40 0.102
931.50 0.102
931.60 0.102
931.70 0.102
931.80 0.1019
931.90 0.1019
932.00 0.1019
932.10 0.1019
932.20 0.1018
932.30 0.1018
932.40 0.1018
932.50 0.1018
932.60 0.1017
932.70 0.1017
932.80 0.1017
932.90 0.1016
933.00 0.1016
933.10 0.1016
933.20 0.1015
933.30 0.1015
933.40 0.1015
933.50 0.1015
933.60 0.1014
933.70 0.1014
933.80 0.1014
933.90 0.1013
934.00 0.1013
934.10 0.1013
934.20 0.1012
934.30 0.1012
934.40 0.1012
934.50 0.1011
934.60 0.1011
934.70 0.1011
934.80 0.101
934.90 0.101
935.00 0.101
935.10 0.1009
935.20 0.1009
935.30 0.1009
935.40 0.1008
935.50 0.1008
935.60 0.1007
935.70 0.1007
935.80 0.1007
935.90 0.1006
936.00 0.1006
936.10 0.1006
936.20 0.1005
936.30 0.1005
936.40 0.1005
936.50 0.1004
936.60 0.1004
936.70 0.1003
936.80 0.1003
936.90 0.1003
937.00 0.1002
937.10 0.1002
937.20 0.1002
937.30 0.1001
937.40 0.1001
937.50 0.1
937.60 0.09999
937.70 0.09994
937.80 0.0999
937.90 0.09986
938.00 0.09982
938.10 0.09978
938.20 0.09974
938.30 0.0997
938.40 0.09965
938.50 0.0996
938.60 0.09956
938.70 0.09951
938.80 0.09946
938.90 0.09942
939.00 0.09937
939.10 0.09933
939.20 0.09928
939.30 0.09924
939.40 0.09919
939.50 0.09914
939.60 0.0991
939.70 0.09905
939.80 0.09901
939.90 0.09896
940.00 0.09891
940.10 0.09887
940.20 0.09882
940.30 0.09878
940.40 0.09873
940.50 0.09867
940.60 0.09862
940.70 0.09857
940.80 0.09852
940.90 0.09847
941.00 0.09842
941.10 0.09837
941.20 0.09832
941.30 0.09826
941.40 0.09821
941.50 0.09816
941.60 0.09811
941.70 0.09806
941.80 0.09801
941.90 0.09796
942.00 0.09791
942.10 0.09785
942.20 0.0978
942.30 0.09774
942.40 0.09769
942.50 0.09763
942.60 0.09757
942.70 0.09751
942.80 0.09745
942.90 0.0974
943.00 0.09734
943.10 0.09728
943.20 0.09722
943.30 0.09716
943.40 0.09711
943.50 0.09705
943.60 0.09699
943.70 0.09693
943.80 0.09687
943.90 0.09682
944.00 0.09676
944.10 0.0967
944.20 0.09664
944.30 0.09658
944.40 0.09652
944.50 0.09646
944.60 0.0964
944.70 0.09633
944.80 0.09627
944.90 0.09621
945.00 0.09614
945.10 0.09608
945.20 0.09602
945.30 0.09595
945.40 0.09589
945.50 0.09582
945.60 0.09575
945.70 0.09568
945.80 0.09561
945.90 0.09554
946.00 0.09547
946.10 0.09541
946.20 0.09534
946.30 0.09527
946.40 0.0952
946.50 0.09513
946.60 0.09506
946.70 0.095
946.80 0.09493
946.90 0.09486
947.00 0.09479
947.10 0.09472
947.20 0.09465
947.30 0.09457
947.40 0.0945
947.50 0.09442
947.60 0.09434
947.70 0.09426
947.80 0.09419
947.90 0.09411
948.00 0.09403
948.10 0.09395
948.20 0.09388
948.30 0.0938
948.40 0.09372
948.50 0.09364
948.60 0.09357
948.70 0.09349
948.80 0.09341
948.90 0.09333
949.00 0.09326
949.10 0.09318
949.20 0.0931
949.30 0.09302
949.40 0.09294
949.50 0.09285
949.60 0.09276
949.70 0.09267
949.80 0.09259
949.90 0.0925
950.00 0.09241
950.10 0.09233
950.20 0.09224
950.30 0.09215
950.40 0.09207
950.50 0.09198
950.60 0.09189
950.70 0.0918
950.80 0.09172
950.90 0.09163
951.00 0.09154
951.10 0.09146
951.20 0.09137
951.30 0.09128
951.40 0.09119
951.50 0.0911
951.60 0.091
951.70 0.09091
951.80 0.09082
951.90 0.09072
952.00 0.09063
952.10 0.09053
952.20 0.09044
952.30 0.09034
952.40 0.09024
952.50 0.09015
952.60 0.09005
952.70 0.08995
952.80 0.08986
952.90 0.08976
953.00 0.08966
953.10 0.08957
953.20 0.08947
953.30 0.08937
953.40 0.08927
953.50 0.08918
953.60 0.08908
953.70 0.08899
953.80 0.08889
953.90 0.08879
954.00 0.0887
954.10 0.08861
954.20 0.08852
954.30 0.08844
954.40 0.08836
954.50 0.08829
954.60 0.08826
954.70 0.08823
954.80 0.08825
954.90 0.08826
955.00 0.08828
955.10 0.0883
955.20 0.08833
955.30 0.08836
955.40 0.08839
955.50 0.08842
955.60 0.08845
955.70 0.08848
955.80 0.08851
955.90 0.08854
956.00 0.08857
956.10 0.0886
956.20 0.08863
956.30 0.08866
956.40 0.08869
956.50 0.08872
956.60 0.08875
956.70 0.08878
956.80 0.08882
956.90 0.08885
957.00 0.08888
957.10 0.08891
957.20 0.08893
957.30 0.08896
957.40 0.08898
957.50 0.08901
957.60 0.08903
957.70 0.08905
957.80 0.08907
957.90 0.08909
958.00 0.08912
958.10 0.08914
958.20 0.08916
958.30 0.08918
958.40 0.08921
958.50 0.08923
958.60 0.08925
958.70 0.08927
958.80 0.08929
958.90 0.08932
959.00 0.08934
959.10 0.08936
959.20 0.08938
959.30 0.0894
959.40 0.08942
959.50 0.08943
959.60 0.08944
959.70 0.08945
959.80 0.08946
959.90 0.08947
960.00 0.08948
960.10 0.0895
960.20 0.08951
960.30 0.08952
960.40 0.08953
960.50 0.08954
960.60 0.08955
960.70 0.08956
960.80 0.08958
960.90 0.08959
961.00 0.0896
961.10 0.08961
961.20 0.08962
961.30 0.08963
961.40 0.08964
961.50 0.08964
961.60 0.08965
961.70 0.08965
961.80 0.08966
961.90 0.08966
962.00 0.08967
962.10 0.08967
962.20 0.08967
962.30 0.08967
962.40 0.08967
962.50 0.08967
962.60 0.08967
962.70 0.08967
962.80 0.08967
962.90 0.08967
963.00 0.08967
963.10 0.08967
963.20 0.08967
963.30 0.08967
963.40 0.08967
963.50 0.08966
963.60 0.08966
963.70 0.08966
963.80 0.08965
963.90 0.08965
964.00 0.08964
964.10 0.08964
964.20 0.08964
964.30 0.08963
964.40 0.08962
964.50 0.08961
964.60 0.0896
964.70 0.0896
964.80 0.08959
964.90 0.08958
965.00 0.08957
965.10 0.08956
965.20 0.08955
965.30 0.08954
965.40 0.08953
965.50 0.08952
965.60 0.08951
965.70 0.0895
965.80 0.08949
965.90 0.08949
966.00 0.08948
966.10 0.08947
966.20 0.08946
966.30 0.08945
966.40 0.08944
966.50 0.08942
966.60 0.08941
966.70 0.0894
966.80 0.08938
966.90 0.08937
967.00 0.08936
967.10 0.08934
967.20 0.08932
967.30 0.08931
967.40 0.08929
967.50 0.08928
967.60 0.08926
967.70 0.08925
967.80 0.08923
967.90 0.08921
968.00 0.0892
968.10 0.08918
968.20 0.08917
968.30 0.08915
968.40 0.08913
968.50 0.08911
968.60 0.08909
968.70 0.08907
968.80 0.08905
968.90 0.08903
969.00 0.08901
969.10 0.08899
969.20 0.08897
969.30 0.08895
969.40 0.08893
969.50 0.08892
969.60 0.0889
969.70 0.08888
969.80 0.08886
969.90 0.08884
970.00 0.08882
970.10 0.0888
970.20 0.08878
970.30 0.08876
970.40 0.08874
970.50 0.08871
970.60 0.08869
970.70 0.08867
970.80 0.08864
970.90 0.08862
971.00 0.0886
971.10 0.08857
971.20 0.08855
971.30 0.08853
971.40 0.0885
971.50 0.08848
971.60 0.08846
971.70 0.08843
971.80 0.08841
971.90 0.08839
972.00 0.08836
972.10 0.08834
972.20 0.08831
972.30 0.08829
972.40 0.08826
972.50 0.08823
972.60 0.08821
972.70 0.08818
972.80 0.08815
972.90 0.08813
973.00 0.0881
973.10 0.08807
973.20 0.08805
973.30 0.08802
973.40 0.08799
973.50 0.08797
973.60 0.08794
973.70 0.08792
973.80 0.08789
973.90 0.08786
974.00 0.08784
974.10 0.08781
974.20 0.08778
974.30 0.08776
974.40 0.08773
974.50 0.0877
974.60 0.08767
974.70 0.08764
974.80 0.08761
974.90 0.08758
975.00 0.08755
975.10 0.08752
975.20 0.08749
975.30 0.08746
975.40 0.08743
975.50 0.0874
975.60 0.08737
975.70 0.08734
975.80 0.08731
975.90 0.08728
976.00 0.08725
976.10 0.08722
976.20 0.08719
976.30 0.08716
976.40 0.08713
976.50 0.0871
976.60 0.08707
976.70 0.08704
976.80 0.08701
976.90 0.08698
977.00 0.08695
977.10 0.08692
977.20 0.08689
977.30 0.08685
977.40 0.08682
977.50 0.08678
977.60 0.08675
977.70 0.08671
977.80 0.08668
977.90 0.08664
978.00 0.08661
978.10 0.08658
978.20 0.08654
978.30 0.08651
978.40 0.08647
978.50 0.08644
978.60 0.0864
978.70 0.08637
978.80 0.08633
978.90 0.0863
979.00 0.08627
979.10 0.08623
979.20 0.0862
979.30 0.08616
979.40 0.08613
979.50 0.08609
979.60 0.08606
979.70 0.08603
979.80 0.08599
979.90 0.08596
980.00 0.08592
980.10 0.08589
980.20 0.08585
980.30 0.08582
980.40 0.08579
980.50 0.08575
980.60 0.08572
980.70 0.08568
980.80 0.08565
980.90 0.08561
981.00 0.08558
981.10 0.08555
981.20 0.08551
981.30 0.08548
981.40 0.08544
981.50 0.08541
981.60 0.08538
981.70 0.08534
981.80 0.08531
981.90 0.08527
982.00 0.08524
982.10 0.0852
982.20 0.08516
982.30 0.08512
982.40 0.08508
982.50 0.08504
982.60 0.08501
982.70 0.08497
982.80 0.08493
982.90 0.08489
983.00 0.08485
983.10 0.08481
983.20 0.08477
983.30 0.08473
983.40 0.08469
983.50 0.08465
983.60 0.08462
983.70 0.08458
983.80 0.08454
983.90 0.0845
984.00 0.08446
984.10 0.08442
984.20 0.08438
984.30 0.08434
984.40 0.0843
984.50 0.08426
984.60 0.08423
984.70 0.08418
984.80 0.08414
984.90 0.0841
985.00 0.08406
985.10 0.08401
985.20 0.08397
985.30 0.08393
985.40 0.08388
985.50 0.08384
985.60 0.0838
985.70 0.08376
985.80 0.08371
985.90 0.08367
986.00 0.08363
986.10 0.08358
986.20 0.08354
986.30 0.0835
986.40 0.08346
986.50 0.08341
986.60 0.08337
986.70 0.08333
986.80 0.08329
986.90 0.08324
987.00 0.0832
987.10 0.08315
987.20 0.08311
987.30 0.08306
987.40 0.08301
987.50 0.08297
987.60 0.08292
987.70 0.08287
987.80 0.08283
987.90 0.08278
988.00 0.08273
988.10 0.08269
988.20 0.08264
988.30 0.0826
988.40 0.08255
988.50 0.0825
988.60 0.08246
988.70 0.08241
988.80 0.08236
988.90 0.0823
989.00 0.08225
989.10 0.0822
989.20 0.08215
989.30 0.0821
989.40 0.08205
989.50 0.082
989.60 0.08195
989.70 0.0819
989.80 0.08185
989.90 0.0818
990.00 0.08175
990.10 0.0817
990.20 0.08164
990.30 0.08159
990.40 0.08154
990.50 0.08149
990.60 0.08144
990.70 0.08139
990.80 0.08133
990.90 0.08128
991.00 0.08122
991.10 0.08117
991.20 0.08111
991.30 0.08105
991.40 0.081
991.50 0.08094
991.60 0.08089
991.70 0.08083
991.80 0.08078
991.90 0.08072
992.00 0.08067
992.10 0.08061
992.20 0.08055
992.30 0.08049
992.40 0.08043
992.50 0.08037
992.60 0.08031
992.70 0.08025
992.80 0.08019
992.90 0.08012
993.00 0.08006
993.10 0.07999
993.20 0.07993
993.30 0.07987
993.40 0.0798
993.50 0.07974
993.60 0.07967
993.70 0.07961
993.80 0.07955
993.90 0.07948
994.00 0.07942
994.10 0.07935
994.20 0.07929
994.30 0.07923
994.40 0.07916
994.50 0.0791
994.60 0.07903
994.70 0.07897
994.80 0.07889
994.90 0.07882
995.00 0.07875
995.10 0.07868
995.20 0.07861
995.30 0.07854
995.40 0.07847
995.50 0.0784
995.60 0.07833
995.70 0.07825
995.80 0.07817
995.90 0.0781
996.00 0.07802
996.10 0.07794
996.20 0.07786
996.30 0.07779
996.40 0.07771
996.50 0.07763
996.60 0.07755
996.70 0.07748
996.80 0.0774
996.90 0.07732
997.00 0.07725
997.10 0.07716
997.20 0.07708
997.30 0.07699
997.40 0.07691
997.50 0.07683
997.60 0.07674
997.70 0.07665
997.80 0.07656
997.90 0.07647
998.00 0.07637
998.10 0.07628
998.20 0.07619
998.30 0.07609
998.40 0.076
998.50 0.0759
998.60 0.07581
998.70 0.07572
998.80 0.07562
998.90 0.07553
999.00 0.07544
999.10 0.07535
999.20 0.07525
999.30 0.07516
999.40 0.07507
999.50 0.07497
999.60 0.07488
999.70 0.07477
999.80 0.07466
999.90 0.07455
1000.00 0.07444
1000.10 0.07433
1000.20 0.07421
1000.30 0.0741
1000.40 0.07399
1000.50 0.07388
1000.60 0.07377
1000.70 0.07366
1000.80 0.07355
1000.90 0.07343
1001.00 0.07332
1001.10 0.07321
1001.20 0.0731
1001.30 0.07299
1001.40 0.07288
1001.50 0.07277
1001.60 0.07266
1001.70 0.07254
1001.80 0.07241
1001.90 0.07229
1002.00 0.07216
1002.10 0.07203
1002.20 0.0719
1002.30 0.07177
1002.40 0.07163
1002.50 0.0715
1002.60 0.07137
1002.70 0.07124
1002.80 0.07111
1002.90 0.07097
1003.00 0.07084
1003.10 0.07071
1003.20 0.07058
1003.30 0.07044
1003.40 0.0703
1003.50 0.07017
1003.60 0.07003
1003.70 0.0699
1003.80 0.06976
1003.90 0.06963
1004.00 0.06951
1004.10 0.06939
1004.20 0.06926
1004.30 0.06916
1004.40 0.06907
1004.50 0.06898
1004.60 0.06893
1004.70 0.06891
1004.80 0.06893
1004.90 0.06892
1005.00 0.06891
1005.10 0.06889
1005.20 0.06885
1005.30 0.06882
1005.40 0.06879
1005.50 0.06884
1005.60 0.0689
1005.70 0.06897
1005.80 0.06904
1005.90 0.06911
1006.00 0.06917
1006.10 0.06924
1006.20 0.06932
1006.30 0.06941
1006.40 0.06949
1006.50 0.06958
1006.60 0.06966
1006.70 0.06975
1006.80 0.06983
1006.90 0.06992
1007.00 0.07
1007.10 0.07008
1007.20 0.07016
1007.30 0.07024
1007.40 0.07033
1007.50 0.07041
1007.60 0.07049
1007.70 0.07055
1007.80 0.07062
1007.90 0.07068
1008.00 0.07075
1008.10 0.07081
1008.20 0.07087
1008.30 0.07094
1008.40 0.071
1008.50 0.07107
1008.60 0.07113
1008.70 0.07119
1008.80 0.07126
1008.90 0.07132
1009.00 0.07138
1009.10 0.07145
1009.20 0.07151
1009.30 0.07158
1009.40 0.07164
1009.50 0.0717
1009.60 0.07177
1009.70 0.07181
1009.80 0.07186
1009.90 0.0719
1010.00 0.07194
1010.10 0.07198
1010.20 0.07203
1010.30 0.07207
1010.40 0.07211
1010.50 0.07215
1010.60 0.07219
1010.70 0.07224
1010.80 0.07228
1010.90 0.07232
1011.00 0.07236
1011.10 0.0724
1011.20 0.07245
1011.30 0.07249
1011.40 0.07253
1011.50 0.07257
1011.60 0.07261
1011.70 0.07265
1011.80 0.07268
1011.90 0.07271
1012.00 0.07274
1012.10 0.07277
1012.20 0.07279
1012.30 0.07282
1012.40 0.07284
1012.50 0.07286
1012.60 0.07289
1012.70 0.07291
1012.80 0.07294
1012.90 0.07296
1013.00 0.07298
1013.10 0.07301
1013.20 0.07303
1013.30 0.07306
1013.40 0.07308
1013.50 0.0731
1013.60 0.07313
1013.70 0.07315
1013.80 0.07316
1013.90 0.07318
1014.00 0.07319
1014.10 0.07321
1014.20 0.07322
1014.30 0.07324
1014.40 0.07326
1014.50 0.07327
1014.60 0.07329
1014.70 0.0733
1014.80 0.0733
1014.90 0.07331
1015.00 0.07332
1015.10 0.07333
1015.20 0.07334
1015.30 0.07334
1015.40 0.07335
1015.50 0.07336
1015.60 0.07337
1015.70 0.07337
1015.80 0.07338
1015.90 0.07339
1016.00 0.0734
1016.10 0.07341
1016.20 0.07341
1016.30 0.07342
1016.40 0.07343
1016.50 0.07344
1016.60 0.07344
1016.70 0.07345
1016.80 0.07345
1016.90 0.07345
1017.00 0.07345
1017.10 0.07345
1017.20 0.07345
1017.30 0.07345
1017.40 0.07345
1017.50 0.07345
1017.60 0.07345
1017.70 0.07345
1017.80 0.07344
1017.90 0.07344
1018.00 0.07344
1018.10 0.07344
1018.20 0.07344
1018.30 0.07344
1018.40 0.07344
1018.50 0.07344
1018.60 0.07343
1018.70 0.07343
1018.80 0.07342
1018.90 0.07342
1019.00 0.07341
1019.10 0.0734
1019.20 0.0734
1019.30 0.07339
1019.40 0.07338
1019.50 0.07337
1019.60 0.07337
1019.70 0.07336
1019.80 0.07335
1019.90 0.07335
1020.00 0.07334
1020.10 0.07333
1020.20 0.07333
1020.30 0.07332
1020.40 0.07331
1020.50 0.07331
1020.60 0.0733
1020.70 0.07329
1020.80 0.07328
1020.90 0.07327
1021.00 0.07326
1021.10 0.07325
1021.20 0.07324
1021.30 0.07323
1021.40 0.07321
1021.50 0.0732
1021.60 0.07319
1021.70 0.07318
1021.80 0.07317
1021.90 0.07316
1022.00 0.07315
1022.10 0.07313
1022.20 0.07312
1022.30 0.07311
1022.40 0.07309
1022.50 0.07308
1022.60 0.07306
1022.70 0.07305
1022.80 0.07303
1022.90 0.07302
1023.00 0.073
1023.10 0.07299
1023.20 0.07298
1023.30 0.07296
1023.40 0.07295
1023.50 0.07293
1023.60 0.07292
1023.70 0.0729
1023.80 0.07289
1023.90 0.07287
1024.00 0.07286
1024.10 0.07285
1024.20 0.07283
1024.30 0.07282
1024.40 0.0728
1024.50 0.07279
1024.60 0.07277
1024.70 0.07276
1024.80 0.07274
1024.90 0.07272
1025.00 0.0727
1025.10 0.07268
1025.20 0.07267
1025.30 0.07265
1025.40 0.07263
1025.50 0.07261
1025.60 0.0726
1025.70 0.07258
1025.80 0.07256
1025.90 0.07254
1026.00 0.07252
1026.10 0.07251
1026.20 0.07249
1026.30 0.07247
1026.40 0.07245
1026.50 0.07244
1026.60 0.07242
1026.70 0.0724
1026.80 0.07238
1026.90 0.07236
1027.00 0.07235
1027.10 0.07233
1027.20 0.07231
1027.30 0.07228
1027.40 0.07226
1027.50 0.07224
1027.60 0.07222
1027.70 0.0722
1027.80 0.07218
1027.90 0.07216
1028.00 0.07214
1028.10 0.07212
1028.20 0.0721
1028.30 0.07208
1028.40 0.07205
1028.50 0.07203
1028.60 0.07201
1028.70 0.07199
1028.80 0.07197
1028.90 0.07195
1029.00 0.07193
1029.10 0.07191
1029.20 0.07189
1029.30 0.07187
1029.40 0.07185
1029.50 0.07183
1029.60 0.07181
1029.70 0.07178
1029.80 0.07176
1029.90 0.07174
1030.00 0.07172
1030.10 0.0717
1030.20 0.07168
1030.30 0.07166
1030.40 0.07164
1030.50 0.07162
1030.60 0.0716
1030.70 0.07158
1030.80 0.07156
1030.90 0.07154
1031.00 0.07152
1031.10 0.07149
1031.20 0.07147
1031.30 0.07145
1031.40 0.07143
1031.50 0.07141
1031.60 0.07139
1031.70 0.07137
1031.80 0.07135
1031.90 0.07133
1032.00 0.07131
1032.10 0.07129
1032.20 0.07126
1032.30 0.07124
1032.40 0.07122
1032.50 0.07119
1032.60 0.07117
1032.70 0.07115
1032.80 0.07112
1032.90 0.0711
1033.00 0.07108
1033.10 0.07105
1033.20 0.07103
1033.30 0.07101
1033.40 0.07099
1033.50 0.07096
1033.60 0.07094
1033.70 0.07092
1033.80 0.07089
1033.90 0.07087
1034.00 0.07085
1034.10 0.07082
1034.20 0.0708
1034.30 0.07078
1034.40 0.07076
1034.50 0.07073
1034.60 0.07071
1034.70 0.07069
1034.80 0.07066
1034.90 0.07064
1035.00 0.07062
1035.10 0.07059
1035.20 0.07057
1035.30 0.07055
1035.40 0.07053
1035.50 0.0705
1035.60 0.07048
1035.70 0.07046
1035.80 0.07043
1035.90 0.07041
1036.00 0.07039
1036.10 0.07037
1036.20 0.07034
1036.30 0.07032
1036.40 0.0703
1036.50 0.07027
1036.60 0.07025
1036.70 0.07023
1036.80 0.07021
1036.90 0.07018
1037.00 0.07016
1037.10 0.07014
1037.20 0.07011
1037.30 0.07009
1037.40 0.07006
1037.50 0.07004
1037.60 0.07002
1037.70 0.06999
1037.80 0.06997
1037.90 0.06994
1038.00 0.06992
1038.10 0.06989
1038.20 0.06987
1038.30 0.06985
1038.40 0.06982
1038.50 0.0698
1038.60 0.06977
1038.70 0.06975
1038.80 0.06973
1038.90 0.0697
1039.00 0.06968
1039.10 0.06965
1039.20 0.06963
1039.30 0.06961
1039.40 0.06958
1039.50 0.06956
1039.60 0.06953
1039.70 0.06951
1039.80 0.06949
1039.90 0.06946
1040.00 0.06944
1040.10 0.06941
1040.20 0.06939
1040.30 0.06937
1040.40 0.06934
1040.50 0.06932
1040.60 0.0693
1040.70 0.06927
1040.80 0.06925
1040.90 0.06922
1041.00 0.0692
1041.10 0.06918
1041.20 0.06915
1041.30 0.06913
1041.40 0.0691
1041.50 0.06908
1041.60 0.06906
1041.70 0.06903
1041.80 0.06901
1041.90 0.06899
1042.00 0.06896
1042.10 0.06894
1042.20 0.06891
1042.30 0.06889
1042.40 0.06886
1042.50 0.06884
1042.60 0.06881
1042.70 0.06879
1042.80 0.06876
1042.90 0.06874
1043.00 0.06872
1043.10 0.06869
1043.20 0.06867
1043.30 0.06864
1043.40 0.06862
1043.50 0.06859
1043.60 0.06857
1043.70 0.06854
1043.80 0.06852
1043.90 0.06849
1044.00 0.06847
1044.10 0.06845
1044.20 0.06842
1044.30 0.0684
1044.40 0.06837
1044.50 0.06835
1044.60 0.06832
1044.70 0.0683
1044.80 0.06827
1044.90 0.06825
1045.00 0.06823
1045.10 0.0682
1045.20 0.06818
1045.30 0.06815
1045.40 0.06813
1045.50 0.0681
1045.60 0.06808
1045.70 0.06806
1045.80 0.06803
1045.90 0.06801
1046.00 0.06798
1046.10 0.06796
1046.20 0.06793
1046.30 0.06791
1046.40 0.06789
1046.50 0.06786
1046.60 0.06784
1046.70 0.06781
1046.80 0.06779
1046.90 0.06776
1047.00 0.06774
1047.10 0.06771
1047.20 0.06769
1047.30 0.06767
1047.40 0.06764
1047.50 0.06762
1047.60 0.06759
1047.70 0.06757
1047.80 0.06754
1047.90 0.06752
1048.00 0.06749
1048.10 0.06747
1048.20 0.06744
1048.30 0.06742
1048.40 0.06739
1048.50 0.06737
1048.60 0.06734
1048.70 0.06732
1048.80 0.06729
1048.90 0.06727
1049.00 0.06724
1049.10 0.06722
1049.20 0.06719
1049.30 0.06717
1049.40 0.06715
1049.50 0.06712
1049.60 0.0671
1049.70 0.06707
1049.80 0.06705
1049.90 0.06702
1050.00 0.067
1050.10 0.06697
1050.20 0.06695
1050.30 0.06692
1050.40 0.0669
1050.50 0.06687
1050.60 0.06685
1050.70 0.06683
1050.80 0.0668
1050.90 0.06678
1051.00 0.06675
1051.10 0.06673
1051.20 0.0667
1051.30 0.06668
1051.40 0.06665
1051.50 0.06663
1051.60 0.0666
1051.70 0.06658
1051.80 0.06656
1051.90 0.06653
1052.00 0.06651
1052.10 0.06648
1052.20 0.06646
1052.30 0.06643
1052.40 0.06641
1052.50 0.06638
1052.60 0.06636
1052.70 0.06633
1052.80 0.06631
1052.90 0.06628
1053.00 0.06626
1053.10 0.06623
1053.20 0.06621
1053.30 0.06618
1053.40 0.06616
1053.50 0.06613
1053.60 0.06611
1053.70 0.06608
1053.80 0.06606
1053.90 0.06603
1054.00 0.06601
1054.10 0.06598
1054.20 0.06596
1054.30 0.06593
1054.40 0.06591
1054.50 0.06588
1054.60 0.06586
1054.70 0.06583
1054.80 0.06581
1054.90 0.06578
1055.00 0.06576
1055.10 0.06573
1055.20 0.06571
1055.30 0.06568
1055.40 0.06566
1055.50 0.06563
1055.60 0.06561
1055.70 0.06558
1055.80 0.06556
1055.90 0.06553
1056.00 0.06551
1056.10 0.06548
1056.20 0.06546
1056.30 0.06543
1056.40 0.06541
1056.50 0.06539
1056.60 0.06536
1056.70 0.06534
1056.80 0.06531
1056.90 0.06529
1057.00 0.06526
1057.10 0.06524
1057.20 0.06521
1057.30 0.06518
1057.40 0.06516
1057.50 0.06513
1057.60 0.06511
1057.70 0.06508
1057.80 0.06506
1057.90 0.06503
1058.00 0.06501
1058.10 0.06498
1058.20 0.06495
1058.30 0.06493
1058.40 0.0649
1058.50 0.06488
1058.60 0.06485
1058.70 0.06483
1058.80 0.0648
1058.90 0.06478
1059.00 0.06475
1059.10 0.06473
1059.20 0.0647
1059.30 0.06468
1059.40 0.06465
1059.50 0.06462
1059.60 0.0646
1059.70 0.06457
1059.80 0.06455
1059.90 0.06452
1060.00 0.0645
1060.10 0.06447
1060.20 0.06445
1060.30 0.06442
1060.40 0.0644
1060.50 0.06437
1060.60 0.06435
1060.70 0.06432
1060.80 0.0643
1060.90 0.06427
1061.00 0.06424
1061.10 0.06422
1061.20 0.06419
1061.30 0.06417
1061.40 0.06414
1061.50 0.06412
1061.60 0.06409
1061.70 0.06407
1061.80 0.06404
1061.90 0.06402
1062.00 0.06399
1062.10 0.06397
1062.20 0.06394
1062.30 0.06391
1062.40 0.06389
1062.50 0.06386
1062.60 0.06383
1062.70 0.06381
1062.80 0.06378
1062.90 0.06375
1063.00 0.06373
1063.10 0.0637
1063.20 0.06367
1063.30 0.06365
1063.40 0.06362
1063.50 0.06359
1063.60 0.06357
1063.70 0.06354
1063.80 0.06351
1063.90 0.06349
1064.00 0.06346
1064.10 0.06344
1064.20 0.06341
1064.30 0.06338
1064.40 0.06336
1064.50 0.06333
1064.60 0.0633
1064.70 0.06328
1064.80 0.06325
1064.90 0.06322
1065.00 0.0632
1065.10 0.06317
1065.20 0.06314
1065.30 0.06312
1065.40 0.06309
1065.50 0.06307
1065.60 0.06304
1065.70 0.06301
1065.80 0.06299
1065.90 0.06296
1066.00 0.06293
1066.10 0.06291
1066.20 0.06288
1066.30 0.06286
1066.40 0.06283
1066.50 0.0628
1066.60 0.06278
1066.70 0.06275
1066.80 0.06272
1066.90 0.0627
1067.00 0.06267
1067.10 0.06264
1067.20 0.06261
1067.30 0.06259
1067.40 0.06256
1067.50 0.06253
1067.60 0.0625
1067.70 0.06247
1067.80 0.06244
1067.90 0.06241
1068.00 0.06238
1068.10 0.06236
1068.20 0.06233
1068.30 0.0623
1068.40 0.06227
1068.50 0.06224
1068.60 0.06221
1068.70 0.06218
1068.80 0.06215
1068.90 0.06213
1069.00 0.0621
1069.10 0.06207
1069.20 0.06204
1069.30 0.06201
1069.40 0.06198
1069.50 0.06195
1069.60 0.06193
1069.70 0.0619
1069.80 0.06187
1069.90 0.06184
1070.00 0.06181
1070.10 0.06178
1070.20 0.06175
1070.30 0.06173
1070.40 0.0617
1070.50 0.06167
1070.60 0.06164
1070.70 0.06161
1070.80 0.06158
1070.90 0.06156
1071.00 0.06153
1071.10 0.0615
1071.20 0.06147
1071.30 0.06144
1071.40 0.06141
1071.50 0.06138
1071.60 0.06136
1071.70 0.06133
1071.80 0.0613
1071.90 0.06127
1072.00 0.06124
1072.10 0.06121
1072.20 0.06118
1072.30 0.06115
1072.40 0.06112
1072.50 0.06109
1072.60 0.06106
1072.70 0.06103
1072.80 0.06099
1072.90 0.06096
1073.00 0.06093
1073.10 0.0609
1073.20 0.06087
1073.30 0.06084
1073.40 0.06081
1073.50 0.06078
1073.60 0.06074
1073.70 0.06071
1073.80 0.06067
1073.90 0.06064
1074.00 0.06061
1074.10 0.06057
1074.20 0.06054
1074.30 0.0605
1074.40 0.06047
1074.50 0.06044
1074.60 0.0604
1074.70 0.06037
1074.80 0.06033
1074.90 0.0603
1075.00 0.06027
1075.10 0.06023
1075.20 0.0602
1075.30 0.06016
1075.40 0.06013
1075.50 0.0601
1075.60 0.06006
1075.70 0.06003
1075.80 0.05999
1075.90 0.05996
1076.00 0.05993
1076.10 0.05989
1076.20 0.05986
1076.30 0.05982
1076.40 0.05979
1076.50 0.05976
1076.60 0.05972
1076.70 0.05969
1076.80 0.05965
1076.90 0.05962
1077.00 0.05959
1077.10 0.05955
1077.20 0.05951
1077.30 0.05948
1077.40 0.05944
1077.50 0.0594
1077.60 0.05936
1077.70 0.05932
1077.80 0.05928
1077.90 0.05924
1078.00 0.0592
1078.10 0.05916
1078.20 0.05912
1078.30 0.05908
1078.40 0.05904
1078.50 0.059
1078.60 0.05896
1078.70 0.05892
1078.80 0.05888
1078.90 0.05884
1079.00 0.0588
1079.10 0.05876
1079.20 0.05873
1079.30 0.05869
1079.40 0.05865
1079.50 0.0586
1079.60 0.05856
1079.70 0.05851
1079.80 0.05847
1079.90 0.05842
1080.00 0.05838
1080.10 0.05833
1080.20 0.05829
1080.30 0.05824
1080.40 0.0582
1080.50 0.05816
1080.60 0.05811
1080.70 0.05807
1080.80 0.05802
1080.90 0.05798
1081.00 0.05793
1081.10 0.05789
1081.20 0.05784
1081.30 0.0578
1081.40 0.05775
1081.50 0.05771
1081.60 0.05766
1081.70 0.05761
1081.80 0.05756
1081.90 0.05751
1082.00 0.05746
1082.10 0.05741
1082.20 0.05735
1082.30 0.0573
1082.40 0.05725
1082.50 0.0572
1082.60 0.05714
1082.70 0.05709
1082.80 0.05704
1082.90 0.05698
1083.00 0.05693
1083.10 0.05688
1083.20 0.05683
1083.30 0.05677
1083.40 0.05672
1083.50 0.05667
1083.60 0.05661
1083.70 0.05655
1083.80 0.05649
1083.90 0.05643
1084.00 0.05637
1084.10 0.05632
1084.20 0.05626
1084.30 0.0562
1084.40 0.05614
1084.50 0.05608
1084.60 0.05601
1084.70 0.05595
1084.80 0.05588
1084.90 0.05581
1085.00 0.05575
1085.10 0.05568
1085.20 0.05561
1085.30 0.05555
1085.40 0.05548
1085.50 0.05541
1085.60 0.05535
1085.70 0.05528
1085.80 0.05521
1085.90 0.05515
1086.00 0.05508
1086.10 0.05501
1086.20 0.05495
1086.30 0.05488
1086.40 0.05481
1086.50 0.05475
1086.60 0.05467
1086.70 0.0546
1086.80 0.05452
1086.90 0.05445
1087.00 0.05437
1087.10 0.05429
1087.20 0.0542
1087.30 0.05412
1087.40 0.05404
1087.50 0.05395
1087.60 0.05387
1087.70 0.05379
1087.80 0.05371
1087.90 0.05362
1088.00 0.05354
1088.10 0.05346
1088.20 0.05337
1088.30 0.05329
1088.40 0.05321
1088.50 0.05312
1088.60 0.05302
1088.70 0.05292
1088.80 0.05282
1088.90 0.05272
1089.00 0.05262
1089.10 0.05251
1089.20 0.05241
1089.30 0.05231
1089.40 0.05221
1089.50 0.05211
1089.60 0.05201
1089.70 0.05191
1089.80 0.05181
1089.90 0.05171
1090.00 0.05161
1090.10 0.05151
1090.20 0.05141
1090.30 0.05131
1090.40 0.05121
1090.50 0.0511
1090.60 0.05097
1090.70 0.05084
1090.80 0.05072
1090.90 0.05059
1091.00 0.05046
1091.10 0.05034
1091.20 0.05021
1091.30 0.05008
1091.40 0.04996
1091.50 0.04983
1091.60 0.0497
1091.70 0.04958
1091.80 0.04945
1091.90 0.04933
1092.00 0.04919
1092.10 0.04904
1092.20 0.04889
1092.30 0.04874
1092.40 0.04859
1092.50 0.04844
1092.60 0.04828
1092.70 0.04813
1092.80 0.04796
1092.90 0.04779
1093.00 0.04762
1093.10 0.04744
1093.20 0.04725
1093.30 0.04705
1093.40 0.04684
1093.50 0.0466
1093.60 0.04631
1093.70 0.0461
1093.80 0.04598
1093.90 0.04597
1094.00 0.0462
1094.10 0.04643
1094.20 0.04667
1094.30 0.04687
1094.40 0.04702
1094.50 0.04717
1094.60 0.04732
1094.70 0.04747
1094.80 0.04762
1094.90 0.04776
1095.00 0.0479
1095.10 0.04801
1095.20 0.04811
1095.30 0.04822
1095.40 0.04833
1095.50 0.04844
1095.60 0.04855
1095.70 0.04865
1095.80 0.04876
1095.90 0.04887
1096.00 0.04898
1096.10 0.04908
1096.20 0.04919
1096.30 0.0493
1096.40 0.0494
1096.50 0.0495
1096.60 0.04959
1096.70 0.04967
1096.80 0.04976
1096.90 0.04984
1097.00 0.04993
1097.10 0.05
1097.20 0.05007
1097.30 0.05014
1097.40 0.05021
1097.50 0.05028
1097.60 0.05035
1097.70 0.05042
1097.80 0.05049
1097.90 0.05056
1098.00 0.05062
1098.10 0.05069
1098.20 0.05076
1098.30 0.05083
1098.40 0.0509
1098.50 0.05096
1098.60 0.05101
1098.70 0.05106
1098.80 0.05111
1098.90 0.05116
1099.00 0.05121
1099.10 0.05126
1099.20 0.05131
1099.30 0.05136
1099.40 0.05141
1099.50 0.05146
1099.60 0.0515
1099.70 0.05155
1099.80 0.0516
1099.90 0.05165
1100.00 0.0517
1100.10 0.05175
1100.20 0.0518
1100.30 0.05185
1100.40 0.0519
1100.50 0.05194
1100.60 0.05197
1100.70 0.05201
1100.80 0.05204
1100.90 0.05207
1101.00 0.05211
1101.10 0.05214
1101.20 0.05217
1101.30 0.05221
1101.40 0.05224
1101.50 0.05227
1101.60 0.05231
1101.70 0.05234
1101.80 0.05238
1101.90 0.05241
1102.00 0.05244
1102.10 0.05247
1102.20 0.05249
1102.30 0.05252
1102.40 0.05255
1102.50 0.05257
1102.60 0.05259
1102.70 0.05262
1102.80 0.05264
1102.90 0.05266
1103.00 0.05268
1103.10 0.0527
1103.20 0.05273
1103.30 0.05275
1103.40 0.05277
1103.50 0.05279
1103.60 0.0528
1103.70 0.05282
1103.80 0.05283
1103.90 0.05285
1104.00 0.05286
1104.10 0.05287
1104.20 0.05289
1104.30 0.0529
1104.40 0.05292
1104.50 0.05293
1104.60 0.05295
1104.70 0.05296
1104.80 0.05297
1104.90 0.05299
1105.00 0.053
1105.10 0.05302
1105.20 0.05303
1105.30 0.05304
1105.40 0.05306
1105.50 0.05307
1105.60 0.05308
1105.70 0.05308
1105.80 0.05309
1105.90 0.0531
1106.00 0.0531
1106.10 0.05311
1106.20 0.05312
1106.30 0.05313
1106.40 0.05313
1106.50 0.05314
1106.60 0.05315
1106.70 0.05315
1106.80 0.05316
1106.90 0.05317
1107.00 0.05317
1107.10 0.05318
1107.20 0.05318
1107.30 0.05318
1107.40 0.05319
1107.50 0.05319
1107.60 0.05319
1107.70 0.05319
1107.80 0.05319
1107.90 0.05319
1108.00 0.05319
1108.10 0.05319
1108.20 0.05319
1108.30 0.05319
1108.40 0.05319
1108.50 0.05319
1108.60 0.05319
1108.70 0.05319
1108.80 0.05319
1108.90 0.05319
1109.00 0.05319
1109.10 0.05319
1109.20 0.05319
1109.30 0.05319
1109.40 0.05319
1109.50 0.05319
1109.60 0.05319
1109.70 0.05318
1109.80 0.05318
1109.90 0.05317
1110.00 0.05317
1110.10 0.05316
1110.20 0.05316
1110.30 0.05315
1110.40 0.05315
1110.50 0.05314
1110.60 0.05314
1110.70 0.05313
1110.80 0.05313
1110.90 0.05312
1111.00 0.05312
1111.10 0.05311
1111.20 0.05311
1111.30 0.0531
1111.40 0.0531
1111.50 0.05309
1111.60 0.05309
1111.70 0.05309
1111.80 0.05308
1111.90 0.05308
1112.00 0.05307
1112.10 0.05306
1112.20 0.05305
1112.30 0.05305
1112.40 0.05304
1112.50 0.05303
1112.60 0.05302
1112.70 0.05302
1112.80 0.05301
1112.90 0.053
1113.00 0.05299
1113.10 0.05298
1113.20 0.05298
1113.30 0.05297
1113.40 0.05296
1113.50 0.05295
1113.60 0.05294
1113.70 0.05293
1113.80 0.05292
1113.90 0.05291
1114.00 0.0529
1114.10 0.05289
1114.20 0.05288
1114.30 0.05287
1114.40 0.05285
1114.50 0.05284
1114.60 0.05283
1114.70 0.05282
1114.80 0.05281
1114.90 0.0528
1115.00 0.05279
1115.10 0.05278
1115.20 0.05277
1115.30 0.05276
1115.40 0.05275
1115.50 0.05274
1115.60 0.05273
1115.70 0.05272
1115.80 0.05271
1115.90 0.05269
1116.00 0.05268
1116.10 0.05267
1116.20 0.05266
1116.30 0.05265
1116.40 0.05264
1116.50 0.05263
1116.60 0.05262
1116.70 0.05261
1116.80 0.0526
1116.90 0.05259
1117.00 0.05258
1117.10 0.05256
1117.20 0.05255
1117.30 0.05254
1117.40 0.05252
1117.50 0.05251
1117.60 0.0525
1117.70 0.05248
1117.80 0.05247
1117.90 0.05246
1118.00 0.05244
1118.10 0.05243
1118.20 0.05242
1118.30 0.0524
1118.40 0.05239
1118.50 0.05238
1118.60 0.05236
1118.70 0.05235
1118.80 0.05233
1118.90 0.05232
1119.00 0.05231
1119.10 0.05229
1119.20 0.05228
1119.30 0.05227
1119.40 0.05225
1119.50 0.05224
1119.60 0.05223
1119.70 0.05221
1119.80 0.0522
1119.90 0.05219
1120.00 0.05217
1120.10 0.05216
1120.20 0.05215
1120.30 0.05213
1120.40 0.05212
1120.50 0.05211
1120.60 0.05209
1120.70 0.05208
1120.80 0.05207
1120.90 0.05205
1121.00 0.05204
1121.10 0.05203
1121.20 0.05201
1121.30 0.052
1121.40 0.05199
1121.50 0.05197
1121.60 0.05196
1121.70 0.05195
1121.80 0.05193
1121.90 0.05192
1122.00 0.05191
1122.10 0.05189
1122.20 0.05188
1122.30 0.05186
1122.40 0.05185
1122.50 0.05183
1122.60 0.05181
1122.70 0.0518
1122.80 0.05178
1122.90 0.05177
1123.00 0.05175
1123.10 0.05174
1123.20 0.05172
1123.30 0.05171
1123.40 0.05169
1123.50 0.05168
1123.60 0.05166
1123.70 0.05165
1123.80 0.05163
1123.90 0.05162
1124.00 0.0516
1124.10 0.05159
1124.20 0.05157
1124.30 0.05156
1124.40 0.05154
1124.50 0.05153
1124.60 0.05151
1124.70 0.0515
1124.80 0.05148
1124.90 0.05147
1125.00 0.05145
1125.10 0.05144
1125.20 0.05142
1125.30 0.05141
1125.40 0.05139
1125.50 0.05138
1125.60 0.05136
1125.70 0.05135
1125.80 0.05133
1125.90 0.05132
1126.00 0.0513
1126.10 0.05129
1126.20 0.05127
1126.30 0.05126
1126.40 0.05124
1126.50 0.05123
1126.60 0.05121
1126.70 0.0512
1126.80 0.05118
1126.90 0.05117
1127.00 0.05115
1127.10 0.05114
1127.20 0.05112
1127.30 0.05111
1127.40 0.05109
1127.50 0.05107
1127.60 0.05106
1127.70 0.05104
1127.80 0.05103
1127.90 0.05101
1128.00 0.05099
1128.10 0.05098
1128.20 0.05096
1128.30 0.05095
1128.40 0.05093
1128.50 0.05092
1128.60 0.0509
1128.70 0.05088
1128.80 0.05087
1128.90 0.05085
1129.00 0.05084
1129.10 0.05082
1129.20 0.0508
1129.30 0.05079
1129.40 0.05077
1129.50 0.05076
1129.60 0.05074
1129.70 0.05073
1129.80 0.05071
1129.90 0.05069
1130.00 0.05068
1130.10 0.05066
1130.20 0.05065
1130.30 0.05063
1130.40 0.05062
1130.50 0.0506
1130.60 0.05058
1130.70 0.05057
1130.80 0.05055
1130.90 0.05054
1131.00 0.05052
1131.10 0.05051
1131.20 0.05049
1131.30 0.05047
1131.40 0.05046
1131.50 0.05044
1131.60 0.05043
1131.70 0.05041
1131.80 0.0504
1131.90 0.05038
1132.00 0.05037
1132.10 0.05035
1132.20 0.05033
1132.30 0.05032
1132.40 0.0503
1132.50 0.05028
1132.60 0.05027
1132.70 0.05025
1132.80 0.05024
1132.90 0.05022
1133.00 0.0502
1133.10 0.05019
1133.20 0.05017
1133.30 0.05016
1133.40 0.05014
1133.50 0.05012
1133.60 0.05011
1133.70 0.05009
1133.80 0.05008
1133.90 0.05006
1134.00 0.05004
1134.10 0.05003
1134.20 0.05001
1134.30 0.05
1134.40 0.04998
1134.50 0.04996
1134.60 0.04995
1134.70 0.04993
1134.80 0.04992
1134.90 0.0499
1135.00 0.04988
1135.10 0.04987
1135.20 0.04985
1135.30 0.04984
1135.40 0.04982
1135.50 0.0498
1135.60 0.04979
1135.70 0.04977
1135.80 0.04976
1135.90 0.04974
1136.00 0.04973
1136.10 0.04971
1136.20 0.04969
1136.30 0.04968
1136.40 0.04966
1136.50 0.04965
1136.60 0.04963
1136.70 0.04961
1136.80 0.0496
1136.90 0.04958
1137.00 0.04957
1137.10 0.04955
1137.20 0.04953
1137.30 0.04952
1137.40 0.0495
1137.50 0.04949
1137.60 0.04947
1137.70 0.04945
1137.80 0.04944
1137.90 0.04942
1138.00 0.04941
1138.10 0.04939
1138.20 0.04937
1138.30 0.04936
1138.40 0.04934
1138.50 0.04933
1138.60 0.04931
1138.70 0.04929
1138.80 0.04928
1138.90 0.04926
1139.00 0.04925
1139.10 0.04923
1139.20 0.04921
1139.30 0.0492
1139.40 0.04918
1139.50 0.04917
1139.60 0.04915
1139.70 0.04913
1139.80 0.04912
1139.90 0.0491
1140.00 0.04909
1140.10 0.04907
1140.20 0.04905
1140.30 0.04904
1140.40 0.04902
1140.50 0.04901
1140.60 0.04899
1140.70 0.04897
1140.80 0.04896
1140.90 0.04894
1141.00 0.04893
1141.10 0.04891
1141.20 0.04889
1141.30 0.04888
1141.40 0.04886
1141.50 0.04885
1141.60 0.04883
1141.70 0.04882
1141.80 0.0488
1141.90 0.04878
1142.00 0.04877
1142.10 0.04875
1142.20 0.04874
1142.30 0.04872
1142.40 0.0487
1142.50 0.04869
1142.60 0.04867
1142.70 0.04866
1142.80 0.04864
1142.90 0.04862
1143.00 0.04861
1143.10 0.04859
1143.20 0.04858
1143.30 0.04856
1143.40 0.04854
1143.50 0.04853
1143.60 0.04851
1143.70 0.0485
1143.80 0.04848
1143.90 0.04847
1144.00 0.04845
1144.10 0.04843
1144.20 0.04842
1144.30 0.0484
1144.40 0.04839
1144.50 0.04837
1144.60 0.04835
1144.70 0.04834
1144.80 0.04832
1144.90 0.04831
1145.00 0.04829
1145.10 0.04828
1145.20 0.04826
1145.30 0.04824
1145.40 0.04823
1145.50 0.04821
1145.60 0.0482
1145.70 0.04818
1145.80 0.04816
1145.90 0.04815
1146.00 0.04813
1146.10 0.04812
1146.20 0.0481
1146.30 0.04809
1146.40 0.04807
1146.50 0.04805
1146.60 0.04804
1146.70 0.04802
1146.80 0.04801
1146.90 0.04799
1147.00 0.04798
1147.10 0.04796
1147.20 0.04794
1147.30 0.04793
1147.40 0.04791
1147.50 0.0479
1147.60 0.04788
1147.70 0.04787
1147.80 0.04785
1147.90 0.04783
1148.00 0.04782
1148.10 0.0478
1148.20 0.04779
1148.30 0.04777
1148.40 0.04776
1148.50 0.04774
1148.60 0.04772
1148.70 0.04771
1148.80 0.04769
1148.90 0.04768
1149.00 0.04766
1149.10 0.04765
1149.20 0.04763
1149.30 0.04761
1149.40 0.0476
1149.50 0.04758
1149.60 0.04757
1149.70 0.04755
1149.80 0.04754
1149.90 0.04752
1150.00 0.04751
1150.10 0.04749
1150.20 0.04747
1150.30 0.04746
1150.40 0.04744
1150.50 0.04743
1150.60 0.04741
1150.70 0.0474
1150.80 0.04738
1150.90 0.04736
1151.00 0.04735
1151.10 0.04733
1151.20 0.04732
1151.30 0.0473
1151.40 0.04729
1151.50 0.04727
1151.60 0.04726
1151.70 0.04724
1151.80 0.04723
1151.90 0.04721
1152.00 0.04719
1152.10 0.04718
1152.20 0.04716
1152.30 0.04715
1152.40 0.04713
1152.50 0.04712
1152.60 0.0471
1152.70 0.04709
1152.80 0.04707
1152.90 0.04705
1153.00 0.04704
1153.10 0.04702
1153.20 0.04701
1153.30 0.04699
1153.40 0.04698
1153.50 0.04696
1153.60 0.04695
1153.70 0.04693
1153.80 0.04692
1153.90 0.0469
1154.00 0.04688
1154.10 0.04687
1154.20 0.04685
1154.30 0.04684
1154.40 0.04682
1154.50 0.04681
1154.60 0.04679
1154.70 0.04678
1154.80 0.04676
1154.90 0.04675
1155.00 0.04673
1155.10 0.04672
1155.20 0.0467
1155.30 0.04668
1155.40 0.04667
1155.50 0.04665
1155.60 0.04664
1155.70 0.04662
1155.80 0.04661
1155.90 0.04659
1156.00 0.04658
1156.10 0.04656
1156.20 0.04655
1156.30 0.04653
1156.40 0.04652
1156.50 0.0465
1156.60 0.04648
1156.70 0.04647
1156.80 0.04645
1156.90 0.04644
1157.00 0.04642
1157.10 0.04641
1157.20 0.04639
1157.30 0.04638
1157.40 0.04636
1157.50 0.04635
1157.60 0.04633
1157.70 0.04632
1157.80 0.0463
1157.90 0.04629
1158.00 0.04627
1158.10 0.04626
1158.20 0.04624
1158.30 0.04623
1158.40 0.04621
1158.50 0.0462
1158.60 0.04618
1158.70 0.04617
1158.80 0.04615
1158.90 0.04613
1159.00 0.04612
1159.10 0.0461
1159.20 0.04609
1159.30 0.04607
1159.40 0.04606
1159.50 0.04604
1159.60 0.04603
1159.70 0.04601
1159.80 0.046
1159.90 0.04598
1160.00 0.04597
1160.10 0.04595
1160.20 0.04594
1160.30 0.04592
1160.40 0.04591
1160.50 0.04589
1160.60 0.04588
1160.70 0.04586
1160.80 0.04585
1160.90 0.04583
1161.00 0.04582
1161.10 0.0458
1161.20 0.04579
1161.30 0.04577
1161.40 0.04576
1161.50 0.04574
1161.60 0.04573
1161.70 0.04571
1161.80 0.0457
1161.90 0.04568
1162.00 0.04567
1162.10 0.04565
1162.20 0.04564
1162.30 0.04562
1162.40 0.04561
1162.50 0.04559
1162.60 0.04558
1162.70 0.04556
1162.80 0.04555
1162.90 0.04553
1163.00 0.04552
1163.10 0.0455
1163.20 0.04549
1163.30 0.04547
1163.40 0.04546
1163.50 0.04544
1163.60 0.04543
1163.70 0.04541
1163.80 0.0454
1163.90 0.04538
1164.00 0.04537
1164.10 0.04535
1164.20 0.04534
1164.30 0.04532
1164.40 0.04531
1164.50 0.04529
1164.60 0.04528
1164.70 0.04526
1164.80 0.04525
1164.90 0.04523
1165.00 0.04522
1165.10 0.0452
1165.20 0.04519
1165.30 0.04517
1165.40 0.04516
1165.50 0.04514
1165.60 0.04513
1165.70 0.04512
1165.80 0.0451
1165.90 0.04509
1166.00 0.04507
1166.10 0.04506
1166.20 0.04504
1166.30 0.04503
1166.40 0.04501
1166.50 0.045
1166.60 0.04498
1166.70 0.04497
1166.80 0.04495
1166.90 0.04494
1167.00 0.04492
1167.10 0.04491
1167.20 0.04489
1167.30 0.04488
1167.40 0.04486
1167.50 0.04485
1167.60 0.04483
1167.70 0.04482
1167.80 0.04481
1167.90 0.04479
1168.00 0.04478
1168.10 0.04476
1168.20 0.04475
1168.30 0.04473
1168.40 0.04472
1168.50 0.0447
1168.60 0.04469
1168.70 0.04467
1168.80 0.04466
1168.90 0.04464
1169.00 0.04463
1169.10 0.04461
1169.20 0.0446
1169.30 0.04459
1169.40 0.04457
1169.50 0.04456
1169.60 0.04454
1169.70 0.04453
1169.80 0.04451
1169.90 0.0445
1170.00 0.04448
1170.10 0.04447
1170.20 0.04445
1170.30 0.04444
1170.40 0.04443
1170.50 0.04441
1170.60 0.0444
1170.70 0.04438
1170.80 0.04437
1170.90 0.04435
1171.00 0.04434
1171.10 0.04432
1171.20 0.04431
1171.30 0.04429
1171.40 0.04428
1171.50 0.04427
1171.60 0.04425
1171.70 0.04424
1171.80 0.04422
1171.90 0.04421
1172.00 0.04419
1172.10 0.04418
1172.20 0.04416
1172.30 0.04415
1172.40 0.04413
1172.50 0.04412
1172.60 0.04411
1172.70 0.04409
1172.80 0.04408
1172.90 0.04406
1173.00 0.04405
1173.10 0.04403
1173.20 0.04402
1173.30 0.04401
1173.40 0.04399
1173.50 0.04398
1173.60 0.04396
1173.70 0.04395
1173.80 0.04393
1173.90 0.04392
1174.00 0.0439
1174.10 0.04389
1174.20 0.04388
1174.30 0.04386
1174.40 0.04385
1174.50 0.04383
1174.60 0.04382
1174.70 0.0438
1174.80 0.04379
1174.90 0.04378
1175.00 0.04376
1175.10 0.04375
1175.20 0.04373
1175.30 0.04372
1175.40 0.0437
1175.50 0.04369
1175.60 0.04368
1175.70 0.04366
1175.80 0.04365
1175.90 0.04363
1176.00 0.04362
1176.10 0.0436
1176.20 0.04359
1176.30 0.04358
1176.40 0.04356
1176.50 0.04355
1176.60 0.04353
1176.70 0.04352
1176.80 0.0435
1176.90 0.04349
1177.00 0.04348
1177.10 0.04346
1177.20 0.04345
1177.30 0.04343
1177.40 0.04342
1177.50 0.0434
1177.60 0.04339
1177.70 0.04338
1177.80 0.04336
1177.90 0.04335
1178.00 0.04333
1178.10 0.04332
1178.20 0.04331
1178.30 0.04329
1178.40 0.04328
1178.50 0.04326
1178.60 0.04325
1178.70 0.04324
1178.80 0.04322
1178.90 0.04321
1179.00 0.04319
1179.10 0.04318
1179.20 0.04316
1179.30 0.04315
1179.40 0.04314
1179.50 0.04312
1179.60 0.04311
1179.70 0.04309
1179.80 0.04308
1179.90 0.04307
1180.00 0.04305
1180.10 0.04304
1180.20 0.04302
1180.30 0.04301
1180.40 0.043
1180.50 0.04298
1180.60 0.04297
1180.70 0.04295
1180.80 0.04294
1180.90 0.04293
1181.00 0.04291
1181.10 0.0429
1181.20 0.04288
1181.30 0.04287
1181.40 0.04286
1181.50 0.04284
1181.60 0.04283
1181.70 0.04281
1181.80 0.0428
1181.90 0.04279
1182.00 0.04277
1182.10 0.04276
1182.20 0.04274
1182.30 0.04273
1182.40 0.04272
1182.50 0.0427
1182.60 0.04269
1182.70 0.04268
1182.80 0.04266
1182.90 0.04265
1183.00 0.04263
1183.10 0.04262
1183.20 0.04261
1183.30 0.04259
1183.40 0.04258
1183.50 0.04256
1183.60 0.04255
1183.70 0.04254
1183.80 0.04252
1183.90 0.04251
1184.00 0.0425
1184.10 0.04248
1184.20 0.04247
1184.30 0.04245
1184.40 0.04244
1184.50 0.04243
1184.60 0.04241
1184.70 0.0424
1184.80 0.04238
1184.90 0.04237
1185.00 0.04236
1185.10 0.04234
1185.20 0.04233
1185.30 0.04232
1185.40 0.0423
1185.50 0.04229
1185.60 0.04227
1185.70 0.04226
1185.80 0.04225
1185.90 0.04223
1186.00 0.04222
1186.10 0.04221
1186.20 0.04219
1186.30 0.04218
1186.40 0.04216
1186.50 0.04215
1186.60 0.04214
1186.70 0.04212
1186.80 0.04211
1186.90 0.0421
1187.00 0.04208
1187.10 0.04207
1187.20 0.04205
1187.30 0.04204
1187.40 0.04203
1187.50 0.04201
1187.60 0.042
1187.70 0.04199
1187.80 0.04197
1187.90 0.04196
1188.00 0.04195
1188.10 0.04193
1188.20 0.04192
1188.30 0.04191
1188.40 0.04189
1188.50 0.04188
1188.60 0.04186
1188.70 0.04185
1188.80 0.04184
1188.90 0.04182
1189.00 0.04181
1189.10 0.0418
1189.20 0.04178
1189.30 0.04177
1189.40 0.04176
1189.50 0.04174
1189.60 0.04173
1189.70 0.04172
1189.80 0.0417
1189.90 0.04169
1190.00 0.04167
1190.10 0.04166
1190.20 0.04165
1190.30 0.04163
1190.40 0.04162
1190.50 0.04161
1190.60 0.04159
1190.70 0.04158
1190.80 0.04157
1190.90 0.04155
1191.00 0.04154
1191.10 0.04153
1191.20 0.04151
1191.30 0.0415
1191.40 0.04149
1191.50 0.04147
1191.60 0.04146
1191.70 0.04145
1191.80 0.04143
1191.90 0.04142
1192.00 0.0414
1192.10 0.04139
1192.20 0.04138
1192.30 0.04136
1192.40 0.04135
1192.50 0.04134
1192.60 0.04132
1192.70 0.04131
1192.80 0.0413
1192.90 0.04128
1193.00 0.04127
1193.10 0.04126
1193.20 0.04124
1193.30 0.04123
1193.40 0.04122
1193.50 0.0412
1193.60 0.04119
1193.70 0.04118
1193.80 0.04116
1193.90 0.04115
1194.00 0.04114
1194.10 0.04112
1194.20 0.04111
1194.30 0.0411
1194.40 0.04108
1194.50 0.04107
1194.60 0.04106
1194.70 0.04104
1194.80 0.04103
1194.90 0.04102
1195.00 0.041
1195.10 0.04099
1195.20 0.04098
1195.30 0.04097
1195.40 0.04095
1195.50 0.04094
1195.60 0.04093
1195.70 0.04091
1195.80 0.0409
1195.90 0.04089
1196.00 0.04087
1196.10 0.04086
1196.20 0.04085
1196.30 0.04083
1196.40 0.04082
1196.50 0.04081
1196.60 0.04079
1196.70 0.04078
1196.80 0.04077
1196.90 0.04075
1197.00 0.04074
1197.10 0.04073
1197.20 0.04071
1197.30 0.0407
1197.40 0.04069
1197.50 0.04067
1197.60 0.04066
1197.70 0.04065
1197.80 0.04064
1197.90 0.04062
1198.00 0.04061
1198.10 0.0406
1198.20 0.04058
1198.30 0.04057
1198.40 0.04056
1198.50 0.04054
1198.60 0.04053
1198.70 0.04052
1198.80 0.0405
1198.90 0.04049
1199.00 0.04048
1199.10 0.04046
1199.20 0.04045
1199.30 0.04044
1199.40 0.04043
1199.50 0.04041
1199.60 0.0404
1199.70 0.04039
1199.80 0.04037
1199.90 0.04036
1200.00 0
