# Version 2.1 - nm, norm@500 to 1, cut digits, bergeron_14000_65.dat_14000
# Wavelength(nm)  Flambda(ergs/cm^s/s/nm)
300.00 1.885
300.10 1.883
300.20 1.882
300.30 1.881
300.40 1.879
300.50 1.878
300.60 1.877
300.70 1.875
300.80 1.874
300.90 1.873
301.00 1.871
301.10 1.87
301.20 1.869
301.30 1.867
301.40 1.866
301.50 1.865
301.60 1.864
301.70 1.862
301.80 1.861
301.90 1.86
302.00 1.858
302.10 1.857
302.20 1.856
302.30 1.854
302.40 1.853
302.50 1.852
302.60 1.85
302.70 1.849
302.80 1.848
302.90 1.847
303.00 1.845
303.10 1.844
303.20 1.843
303.30 1.841
303.40 1.84
303.50 1.839
303.60 1.838
303.70 1.836
303.80 1.835
303.90 1.834
304.00 1.832
304.10 1.831
304.20 1.83
304.30 1.829
304.40 1.827
304.50 1.826
304.60 1.825
304.70 1.824
304.80 1.822
304.90 1.821
305.00 1.82
305.10 1.818
305.20 1.817
305.30 1.816
305.40 1.815
305.50 1.813
305.60 1.812
305.70 1.811
305.80 1.81
305.90 1.808
306.00 1.807
306.10 1.806
306.20 1.805
306.30 1.803
306.40 1.802
306.50 1.801
306.60 1.8
306.70 1.798
306.80 1.797
306.90 1.796
307.00 1.795
307.10 1.793
307.20 1.792
307.30 1.791
307.40 1.79
307.50 1.788
307.60 1.787
307.70 1.786
307.80 1.785
307.90 1.784
308.00 1.782
308.10 1.781
308.20 1.78
308.30 1.779
308.40 1.777
308.50 1.776
308.60 1.775
308.70 1.774
308.80 1.772
308.90 1.771
309.00 1.77
309.10 1.769
309.20 1.768
309.30 1.766
309.40 1.765
309.50 1.764
309.60 1.763
309.70 1.762
309.80 1.76
309.90 1.759
310.00 1.758
310.10 1.757
310.20 1.755
310.30 1.754
310.40 1.753
310.50 1.752
310.60 1.751
310.70 1.749
310.80 1.748
310.90 1.747
311.00 1.746
311.10 1.745
311.20 1.743
311.30 1.742
311.40 1.741
311.50 1.74
311.60 1.739
311.70 1.738
311.80 1.736
311.90 1.735
312.00 1.734
312.10 1.733
312.20 1.732
312.30 1.73
312.40 1.729
312.50 1.728
312.60 1.727
312.70 1.726
312.80 1.725
312.90 1.723
313.00 1.722
313.10 1.721
313.20 1.72
313.30 1.719
313.40 1.717
313.50 1.716
313.60 1.715
313.70 1.714
313.80 1.713
313.90 1.712
314.00 1.71
314.10 1.709
314.20 1.708
314.30 1.707
314.40 1.706
314.50 1.705
314.60 1.704
314.70 1.702
314.80 1.701
314.90 1.7
315.00 1.699
315.10 1.698
315.20 1.697
315.30 1.695
315.40 1.694
315.50 1.693
315.60 1.692
315.70 1.691
315.80 1.69
315.90 1.689
316.00 1.687
316.10 1.686
316.20 1.685
316.30 1.684
316.40 1.683
316.50 1.682
316.60 1.681
316.70 1.679
316.80 1.678
316.90 1.677
317.00 1.676
317.10 1.675
317.20 1.674
317.30 1.673
317.40 1.672
317.50 1.67
317.60 1.669
317.70 1.668
317.80 1.667
317.90 1.666
318.00 1.665
318.10 1.664
318.20 1.663
318.30 1.661
318.40 1.66
318.50 1.659
318.60 1.658
318.70 1.657
318.80 1.656
318.90 1.655
319.00 1.654
319.10 1.653
319.20 1.651
319.30 1.65
319.40 1.649
319.50 1.648
319.60 1.647
319.70 1.646
319.80 1.645
319.90 1.644
320.00 1.643
320.10 1.642
320.20 1.64
320.30 1.639
320.40 1.638
320.50 1.637
320.60 1.636
320.70 1.635
320.80 1.634
320.90 1.633
321.00 1.632
321.10 1.631
321.20 1.63
321.30 1.628
321.40 1.627
321.50 1.626
321.60 1.625
321.70 1.624
321.80 1.623
321.90 1.622
322.00 1.621
322.10 1.62
322.20 1.619
322.30 1.618
322.40 1.617
322.50 1.615
322.60 1.614
322.70 1.613
322.80 1.612
322.90 1.611
323.00 1.61
323.10 1.609
323.20 1.608
323.30 1.607
323.40 1.606
323.50 1.605
323.60 1.604
323.70 1.603
323.80 1.602
323.90 1.6
324.00 1.599
324.10 1.598
324.20 1.597
324.30 1.596
324.40 1.595
324.50 1.594
324.60 1.593
324.70 1.592
324.80 1.591
324.90 1.59
325.00 1.589
325.10 1.588
325.20 1.587
325.30 1.586
325.40 1.585
325.50 1.584
325.60 1.583
325.70 1.582
325.80 1.58
325.90 1.579
326.00 1.578
326.10 1.577
326.20 1.576
326.30 1.575
326.40 1.574
326.50 1.573
326.60 1.572
326.70 1.571
326.80 1.57
326.90 1.569
327.00 1.568
327.10 1.567
327.20 1.566
327.30 1.565
327.40 1.564
327.50 1.563
327.60 1.562
327.70 1.561
327.80 1.56
327.90 1.559
328.00 1.558
328.10 1.557
328.20 1.556
328.30 1.555
328.40 1.554
328.50 1.553
328.60 1.552
328.70 1.551
328.80 1.55
328.90 1.549
329.00 1.548
329.10 1.547
329.20 1.545
329.30 1.544
329.40 1.543
329.50 1.542
329.60 1.541
329.70 1.54
329.80 1.539
329.90 1.538
330.00 1.537
330.10 1.536
330.20 1.535
330.30 1.534
330.40 1.533
330.50 1.532
330.60 1.531
330.70 1.53
330.80 1.529
330.90 1.528
331.00 1.527
331.10 1.526
331.20 1.525
331.30 1.524
331.40 1.523
331.50 1.522
331.60 1.521
331.70 1.52
331.80 1.519
331.90 1.518
332.00 1.517
332.10 1.517
332.20 1.516
332.30 1.515
332.40 1.514
332.50 1.513
332.60 1.512
332.70 1.511
332.80 1.51
332.90 1.509
333.00 1.508
333.10 1.507
333.20 1.506
333.30 1.505
333.40 1.504
333.50 1.503
333.60 1.502
333.70 1.501
333.80 1.5
333.90 1.499
334.00 1.498
334.10 1.497
334.20 1.496
334.30 1.495
334.40 1.494
334.50 1.493
334.60 1.492
334.70 1.491
334.80 1.49
334.90 1.489
335.00 1.488
335.10 1.487
335.20 1.486
335.30 1.485
335.40 1.484
335.50 1.483
335.60 1.482
335.70 1.482
335.80 1.481
335.90 1.48
336.00 1.479
336.10 1.478
336.20 1.477
336.30 1.476
336.40 1.475
336.50 1.474
336.60 1.473
336.70 1.472
336.80 1.471
336.90 1.47
337.00 1.469
337.10 1.468
337.20 1.467
337.30 1.466
337.40 1.465
337.50 1.464
337.60 1.463
337.70 1.463
337.80 1.462
337.90 1.461
338.00 1.46
338.10 1.459
338.20 1.458
338.30 1.457
338.40 1.456
338.50 1.455
338.60 1.454
338.70 1.453
338.80 1.452
338.90 1.451
339.00 1.45
339.10 1.449
339.20 1.449
339.30 1.448
339.40 1.447
339.50 1.446
339.60 1.445
339.70 1.444
339.80 1.443
339.90 1.442
340.00 1.441
340.10 1.44
340.20 1.439
340.30 1.438
340.40 1.437
340.50 1.437
340.60 1.436
340.70 1.435
340.80 1.434
340.90 1.433
341.00 1.432
341.10 1.431
341.20 1.43
341.30 1.429
341.40 1.428
341.50 1.427
341.60 1.426
341.70 1.426
341.80 1.425
341.90 1.424
342.00 1.423
342.10 1.422
342.20 1.421
342.30 1.42
342.40 1.419
342.50 1.418
342.60 1.417
342.70 1.417
342.80 1.416
342.90 1.415
343.00 1.414
343.10 1.413
343.20 1.412
343.30 1.411
343.40 1.41
343.50 1.409
343.60 1.408
343.70 1.408
343.80 1.407
343.90 1.406
344.00 1.405
344.10 1.404
344.20 1.403
344.30 1.402
344.40 1.401
344.50 1.4
344.60 1.4
344.70 1.399
344.80 1.398
344.90 1.397
345.00 1.396
345.10 1.395
345.20 1.394
345.30 1.393
345.40 1.392
345.50 1.392
345.60 1.391
345.70 1.39
345.80 1.389
345.90 1.388
346.00 1.387
346.10 1.386
346.20 1.385
346.30 1.385
346.40 1.384
346.50 1.383
346.60 1.382
346.70 1.381
346.80 1.38
346.90 1.379
347.00 1.378
347.10 1.378
347.20 1.377
347.30 1.376
347.40 1.375
347.50 1.374
347.60 1.373
347.70 1.372
347.80 1.372
347.90 1.371
348.00 1.37
348.10 1.369
348.20 1.368
348.30 1.367
348.40 1.366
348.50 1.366
348.60 1.365
348.70 1.364
348.80 1.363
348.90 1.362
349.00 1.361
349.10 1.36
349.20 1.36
349.30 1.359
349.40 1.358
349.50 1.357
349.60 1.356
349.70 1.355
349.80 1.354
349.90 1.354
350.00 1.353
350.10 1.352
350.20 1.351
350.30 1.35
350.40 1.349
350.50 1.348
350.60 1.348
350.70 1.347
350.80 1.346
350.90 1.345
351.00 1.344
351.10 1.343
351.20 1.343
351.30 1.342
351.40 1.341
351.50 1.34
351.60 1.339
351.70 1.338
351.80 1.338
351.90 1.337
352.00 1.336
352.10 1.335
352.20 1.334
352.30 1.333
352.40 1.333
352.50 1.332
352.60 1.331
352.70 1.33
352.80 1.329
352.90 1.328
353.00 1.328
353.10 1.327
353.20 1.326
353.30 1.325
353.40 1.324
353.50 1.323
353.60 1.323
353.70 1.322
353.80 1.321
353.90 1.32
354.00 1.319
354.10 1.319
354.20 1.318
354.30 1.317
354.40 1.316
354.50 1.315
354.60 1.314
354.70 1.314
354.80 1.313
354.90 1.312
355.00 1.311
355.10 1.31
355.20 1.31
355.30 1.309
355.40 1.308
355.50 1.307
355.60 1.306
355.70 1.306
355.80 1.305
355.90 1.304
356.00 1.303
356.10 1.302
356.20 1.301
356.30 1.301
356.40 1.3
356.50 1.299
356.60 1.298
356.70 1.297
356.80 1.297
356.90 1.296
357.00 1.295
357.10 1.294
357.20 1.293
357.30 1.293
357.40 1.292
357.50 1.291
357.60 1.29
357.70 1.289
357.80 1.289
357.90 1.288
358.00 1.287
358.10 1.286
358.20 1.285
358.30 1.285
358.40 1.284
358.50 1.283
358.60 1.282
358.70 1.282
358.80 1.281
358.90 1.28
359.00 1.279
359.10 1.278
359.20 1.278
359.30 1.277
359.40 1.276
359.50 1.275
359.60 1.274
359.70 1.274
359.80 1.273
359.90 1.272
360.00 1.271
360.10 1.271
360.20 1.27
360.30 1.269
360.40 1.268
360.50 1.267
360.60 1.267
360.70 1.266
360.80 1.265
360.90 1.264
361.00 1.264
361.10 1.263
361.20 1.262
361.30 1.261
361.40 1.26
361.50 1.26
361.60 1.259
361.70 1.258
361.80 1.257
361.90 1.257
362.00 1.256
362.10 1.255
362.20 1.254
362.30 1.254
362.40 1.253
362.50 1.252
362.60 1.251
362.70 1.25
362.80 1.25
362.90 1.249
363.00 1.248
363.10 1.247
363.20 1.247
363.30 1.246
363.40 1.245
363.50 1.244
363.60 1.243
363.70 1.243
363.80 1.242
363.90 1.241
364.00 1.24
364.10 1.24
364.20 1.239
364.30 1.238
364.40 1.237
364.50 1.237
364.60 1.236
364.70 1.235
364.80 1.234
364.90 1.234
365.00 1.233
365.10 1.232
365.20 1.232
365.30 1.231
365.40 1.23
365.50 1.23
365.60 1.229
365.70 1.228
365.80 1.228
365.90 1.227
366.00 1.226
366.10 1.226
366.20 1.225
366.30 1.225
366.40 1.224
366.50 1.223
366.60 1.223
366.70 1.222
366.80 1.221
366.90 1.221
367.00 1.22
367.10 1.22
367.20 1.219
367.30 1.218
367.40 1.218
367.50 1.217
367.60 1.217
367.70 1.216
367.80 1.215
367.90 1.215
368.00 1.214
368.10 1.215
368.20 1.216
368.30 1.217
368.40 1.218
368.50 1.219
368.60 1.22
368.70 1.221
368.80 1.222
368.90 1.223
369.00 1.223
369.10 1.224
369.20 1.225
369.30 1.226
369.40 1.227
369.50 1.228
369.60 1.229
369.70 1.23
369.80 1.231
369.90 1.232
370.00 1.233
370.10 1.236
370.20 1.24
370.30 1.244
370.40 1.247
370.50 1.251
370.60 1.255
370.70 1.258
370.80 1.262
370.90 1.266
371.00 1.269
371.10 1.273
371.20 1.276
371.30 1.28
371.40 1.284
371.50 1.287
371.60 1.291
371.70 1.294
371.80 1.298
371.90 1.302
372.00 1.305
372.10 1.311
372.20 1.317
372.30 1.323
372.40 1.328
372.50 1.334
372.60 1.34
372.70 1.346
372.80 1.351
372.90 1.357
373.00 1.363
373.10 1.369
373.20 1.374
373.30 1.38
373.40 1.386
373.50 1.392
373.60 1.397
373.70 1.403
373.80 1.409
373.90 1.414
374.00 1.42
374.10 1.426
374.20 1.432
374.30 1.438
374.40 1.443
374.50 1.449
374.60 1.455
374.70 1.461
374.80 1.467
374.90 1.472
375.00 1.478
375.10 1.484
375.20 1.49
375.30 1.496
375.40 1.501
375.50 1.507
375.60 1.513
375.70 1.519
375.80 1.524
375.90 1.53
376.00 1.536
376.10 1.538
376.20 1.541
376.30 1.544
376.40 1.546
376.50 1.549
376.60 1.552
376.70 1.554
376.80 1.557
376.90 1.56
377.00 1.562
377.10 1.556
377.20 1.551
377.30 1.545
377.40 1.539
377.50 1.533
377.60 1.528
377.70 1.522
377.80 1.516
377.90 1.511
378.00 1.505
378.10 1.476
378.20 1.448
378.30 1.419
378.40 1.391
378.50 1.362
378.60 1.334
378.70 1.306
378.80 1.277
378.90 1.249
379.00 1.221
379.10 1.197
379.20 1.173
379.30 1.15
379.40 1.126
379.50 1.102
379.60 1.079
379.70 1.055
379.80 1.032
379.90 1.008
380.00 0.9848
380.10 1.022
380.20 1.059
380.30 1.095
380.40 1.132
380.50 1.169
380.60 1.206
380.70 1.243
380.80 1.279
380.90 1.316
381.00 1.352
381.10 1.369
381.20 1.385
381.30 1.402
381.40 1.418
381.50 1.435
381.60 1.438
381.70 1.436
381.80 1.429
381.90 1.419
382.00 1.403
382.10 1.383
382.20 1.357
382.30 1.315
382.40 1.274
382.50 1.232
382.60 1.19
382.70 1.148
382.80 1.107
382.90 1.065
383.00 1.023
383.10 0.9819
383.20 0.9404
383.30 0.8935
383.40 0.844
383.50 0.7884
383.60 0.8013
383.70 0.8543
383.80 0.9026
383.90 0.9487
384.00 0.994
384.10 1.04
384.20 1.086
384.30 1.132
384.40 1.178
384.50 1.225
384.60 1.269
384.70 1.312
384.80 1.351
384.90 1.387
385.00 1.42
385.10 1.449
385.20 1.475
385.30 1.498
385.40 1.518
385.50 1.534
385.60 1.549
385.70 1.56
385.80 1.57
385.90 1.577
386.00 1.581
386.10 1.583
386.20 1.583
386.30 1.58
386.40 1.575
386.50 1.569
386.60 1.559
386.70 1.547
386.80 1.533
386.90 1.516
387.00 1.497
387.10 1.476
387.20 1.45
387.30 1.423
387.40 1.393
387.50 1.359
387.60 1.322
387.70 1.283
387.80 1.239
387.90 1.194
388.00 1.147
388.10 1.097
388.20 1.048
388.30 0.9991
388.40 0.951
388.50 0.903
388.60 0.855
388.70 0.8041
388.80 0.7464
388.90 0.682
389.00 0.7422
389.10 0.7977
389.20 0.8484
389.30 0.8957
389.40 0.9429
389.50 0.99
389.60 1.038
389.70 1.087
389.80 1.135
389.90 1.183
390.00 1.229
390.10 1.273
390.20 1.313
390.30 1.352
390.40 1.388
390.50 1.421
390.60 1.452
390.70 1.481
390.80 1.507
390.90 1.532
391.00 1.555
391.10 1.576
391.20 1.596
391.30 1.615
391.40 1.631
391.50 1.647
391.60 1.662
391.70 1.674
391.80 1.686
391.90 1.697
392.00 1.706
392.10 1.714
392.20 1.722
392.30 1.728
392.40 1.733
392.50 1.737
392.60 1.739
392.70 1.741
392.80 1.742
392.90 1.742
393.00 1.741
393.10 1.739
393.20 1.735
393.30 1.731
393.40 1.726
393.50 1.719
393.60 1.711
393.70 1.703
393.80 1.693
393.90 1.682
394.00 1.67
394.10 1.656
394.20 1.641
394.30 1.626
394.40 1.608
394.50 1.59
394.60 1.57
394.70 1.549
394.80 1.526
394.90 1.503
395.00 1.477
395.10 1.45
395.20 1.422
395.30 1.391
395.40 1.359
395.50 1.326
395.60 1.29
395.70 1.252
395.80 1.213
395.90 1.171
396.00 1.128
396.10 1.083
396.20 1.037
396.30 0.9906
396.40 0.9434
396.50 0.8969
396.60 0.8506
396.70 0.8045
396.80 0.7541
396.90 0.6873
397.00 0.6041
397.10 0.6816
397.20 0.7456
397.30 0.7963
397.40 0.8417
397.50 0.8871
397.60 0.9325
397.70 0.9786
397.80 1.024
397.90 1.069
398.00 1.113
398.10 1.155
398.20 1.196
398.30 1.234
398.40 1.27
398.50 1.306
398.60 1.338
398.70 1.369
398.80 1.399
398.90 1.426
399.00 1.453
399.10 1.478
399.20 1.502
399.30 1.524
399.40 1.546
399.50 1.566
399.60 1.585
399.70 1.604
399.80 1.62
399.90 1.636
400.00 1.652
400.10 1.666
400.20 1.679
400.30 1.692
400.40 1.704
400.50 1.715
400.60 1.725
400.70 1.734
400.80 1.743
400.90 1.752
401.00 1.759
401.10 1.766
401.20 1.773
401.30 1.779
401.40 1.785
401.50 1.79
401.60 1.795
401.70 1.799
401.80 1.803
401.90 1.806
402.00 1.81
402.10 1.812
402.20 1.815
402.30 1.817
402.40 1.819
402.50 1.82
402.60 1.821
402.70 1.822
402.80 1.823
402.90 1.824
403.00 1.824
403.10 1.824
403.20 1.823
403.30 1.823
403.40 1.822
403.50 1.821
403.60 1.82
403.70 1.818
403.80 1.817
403.90 1.815
404.00 1.812
404.10 1.81
404.20 1.807
404.30 1.804
404.40 1.801
404.50 1.798
404.60 1.794
404.70 1.79
404.80 1.786
404.90 1.781
405.00 1.776
405.10 1.771
405.20 1.766
405.30 1.76
405.40 1.754
405.50 1.747
405.60 1.74
405.70 1.733
405.80 1.725
405.90 1.717
406.00 1.708
406.10 1.699
406.20 1.689
406.30 1.679
406.40 1.668
406.50 1.657
406.60 1.645
406.70 1.632
406.80 1.619
406.90 1.605
407.00 1.59
407.10 1.574
407.20 1.558
407.30 1.54
407.40 1.521
407.50 1.502
407.60 1.481
407.70 1.46
407.80 1.437
407.90 1.414
408.00 1.389
408.10 1.364
408.20 1.338
408.30 1.31
408.40 1.283
408.50 1.253
408.60 1.223
408.70 1.192
408.80 1.16
408.90 1.127
409.00 1.093
409.10 1.056
409.20 1.019
409.30 0.9817
409.40 0.9419
409.50 0.9015
409.60 0.8604
409.70 0.8193
409.80 0.7781
409.90 0.7368
410.00 0.6866
410.10 0.6265
410.20 0.5566
410.30 0.646
410.40 0.713
410.50 0.7577
410.60 0.7978
410.70 0.838
410.80 0.8783
410.90 0.9179
411.00 0.9566
411.10 0.9944
411.20 1.03
411.30 1.065
411.40 1.099
411.50 1.131
411.60 1.162
411.70 1.192
411.80 1.22
411.90 1.248
412.00 1.275
412.10 1.3
412.20 1.325
412.30 1.349
412.40 1.371
412.50 1.393
412.60 1.414
412.70 1.433
412.80 1.452
412.90 1.47
413.00 1.486
413.10 1.502
413.20 1.517
413.30 1.531
413.40 1.544
413.50 1.557
413.60 1.568
413.70 1.579
413.80 1.589
413.90 1.599
414.00 1.608
414.10 1.616
414.20 1.624
414.30 1.631
414.40 1.639
414.50 1.645
414.60 1.651
414.70 1.657
414.80 1.662
414.90 1.667
415.00 1.672
415.10 1.676
415.20 1.681
415.30 1.685
415.40 1.688
415.50 1.691
415.60 1.694
415.70 1.697
415.80 1.7
415.90 1.702
416.00 1.705
416.10 1.707
416.20 1.709
416.30 1.711
416.40 1.712
416.50 1.714
416.60 1.715
416.70 1.716
416.80 1.717
416.90 1.719
417.00 1.719
417.10 1.72
417.20 1.721
417.30 1.722
417.40 1.722
417.50 1.723
417.60 1.723
417.70 1.723
417.80 1.724
417.90 1.724
418.00 1.724
418.10 1.724
418.20 1.724
418.30 1.724
418.40 1.724
418.50 1.724
418.60 1.723
418.70 1.723
418.80 1.723
418.90 1.722
419.00 1.722
419.10 1.722
419.20 1.721
419.30 1.72
419.40 1.72
419.50 1.719
419.60 1.719
419.70 1.718
419.80 1.717
419.90 1.717
420.00 1.716
420.10 1.715
420.20 1.714
420.30 1.714
420.40 1.713
420.50 1.712
420.60 1.711
420.70 1.71
420.80 1.709
420.90 1.708
421.00 1.707
421.10 1.706
421.20 1.705
421.30 1.704
421.40 1.703
421.50 1.702
421.60 1.701
421.70 1.7
421.80 1.699
421.90 1.697
422.00 1.696
422.10 1.695
422.20 1.694
422.30 1.692
422.40 1.691
422.50 1.69
422.60 1.688
422.70 1.687
422.80 1.686
422.90 1.684
423.00 1.683
423.10 1.682
423.20 1.68
423.30 1.679
423.40 1.677
423.50 1.676
423.60 1.674
423.70 1.673
423.80 1.671
423.90 1.669
424.00 1.668
424.10 1.666
424.20 1.664
424.30 1.663
424.40 1.661
424.50 1.659
424.60 1.657
424.70 1.656
424.80 1.654
424.90 1.652
425.00 1.65
425.10 1.648
425.20 1.646
425.30 1.644
425.40 1.642
425.50 1.639
425.60 1.637
425.70 1.635
425.80 1.633
425.90 1.63
426.00 1.628
426.10 1.625
426.20 1.623
426.30 1.62
426.40 1.617
426.50 1.614
426.60 1.612
426.70 1.609
426.80 1.606
426.90 1.603
427.00 1.6
427.10 1.597
427.20 1.593
427.30 1.59
427.40 1.586
427.50 1.583
427.60 1.579
427.70 1.575
427.80 1.572
427.90 1.568
428.00 1.563
428.10 1.559
428.20 1.555
428.30 1.55
428.40 1.545
428.50 1.54
428.60 1.535
428.70 1.53
428.80 1.525
428.90 1.519
429.00 1.513
429.10 1.507
429.20 1.501
429.30 1.494
429.40 1.487
429.50 1.48
429.60 1.473
429.70 1.465
429.80 1.457
429.90 1.449
430.00 1.44
430.10 1.431
430.20 1.422
430.30 1.412
430.40 1.402
430.50 1.391
430.60 1.381
430.70 1.369
430.80 1.357
430.90 1.345
431.00 1.332
431.10 1.319
431.20 1.306
431.30 1.292
431.40 1.277
431.50 1.262
431.60 1.245
431.70 1.228
431.80 1.21
431.90 1.191
432.00 1.171
432.10 1.15
432.20 1.127
432.30 1.103
432.40 1.078
432.50 1.051
432.60 1.023
432.70 0.9944
432.80 0.9647
432.90 0.9352
433.00 0.906
433.10 0.8776
433.20 0.8487
433.30 0.8194
433.40 0.7878
433.50 0.7554
433.60 0.7224
433.70 0.6886
433.80 0.6515
433.90 0.6111
434.00 0.5044
434.10 0.5055
434.20 0.6144
434.30 0.6534
434.40 0.6894
434.50 0.7225
434.60 0.7546
434.70 0.786
434.80 0.8166
434.90 0.8448
435.00 0.8725
435.10 0.8997
435.20 0.9277
435.30 0.9558
435.40 0.984
435.50 1.011
435.60 1.038
435.70 1.063
435.80 1.086
435.90 1.108
436.00 1.128
436.10 1.147
436.20 1.165
436.30 1.183
436.40 1.198
436.50 1.213
436.60 1.227
436.70 1.241
436.80 1.253
436.90 1.265
437.00 1.276
437.10 1.287
437.20 1.297
437.30 1.307
437.40 1.317
437.50 1.326
437.60 1.334
437.70 1.342
437.80 1.35
437.90 1.357
438.00 1.364
438.10 1.371
438.20 1.377
438.30 1.382
438.40 1.388
438.50 1.393
438.60 1.398
438.70 1.402
438.80 1.407
438.90 1.411
439.00 1.415
439.10 1.418
439.20 1.422
439.30 1.425
439.40 1.428
439.50 1.43
439.60 1.433
439.70 1.435
439.80 1.438
439.90 1.44
440.00 1.442
440.10 1.444
440.20 1.445
440.30 1.447
440.40 1.448
440.50 1.45
440.60 1.451
440.70 1.452
440.80 1.453
440.90 1.454
441.00 1.455
441.10 1.456
441.20 1.456
441.30 1.457
441.40 1.457
441.50 1.458
441.60 1.458
441.70 1.459
441.80 1.459
441.90 1.459
442.00 1.459
442.10 1.46
442.20 1.46
442.30 1.46
442.40 1.46
442.50 1.46
442.60 1.46
442.70 1.459
442.80 1.459
442.90 1.459
443.00 1.459
443.10 1.459
443.20 1.458
443.30 1.458
443.40 1.458
443.50 1.457
443.60 1.457
443.70 1.456
443.80 1.456
443.90 1.455
444.00 1.455
444.10 1.454
444.20 1.454
444.30 1.453
444.40 1.453
444.50 1.452
444.60 1.452
444.70 1.451
444.80 1.45
444.90 1.45
445.00 1.449
445.10 1.448
445.20 1.448
445.30 1.447
445.40 1.446
445.50 1.446
445.60 1.445
445.70 1.444
445.80 1.443
445.90 1.443
446.00 1.442
446.10 1.441
446.20 1.44
446.30 1.44
446.40 1.439
446.50 1.438
446.60 1.437
446.70 1.437
446.80 1.436
446.90 1.435
447.00 1.434
447.10 1.433
447.20 1.432
447.30 1.432
447.40 1.431
447.50 1.43
447.60 1.429
447.70 1.428
447.80 1.427
447.90 1.426
448.00 1.426
448.10 1.425
448.20 1.424
448.30 1.423
448.40 1.422
448.50 1.421
448.60 1.42
448.70 1.419
448.80 1.419
448.90 1.418
449.00 1.417
449.10 1.416
449.20 1.415
449.30 1.414
449.40 1.413
449.50 1.412
449.60 1.412
449.70 1.411
449.80 1.41
449.90 1.409
450.00 1.408
450.10 1.407
450.20 1.406
450.30 1.405
450.40 1.404
450.50 1.403
450.60 1.403
450.70 1.402
450.80 1.401
450.90 1.4
451.00 1.399
451.10 1.398
451.20 1.397
451.30 1.396
451.40 1.395
451.50 1.394
451.60 1.393
451.70 1.392
451.80 1.391
451.90 1.391
452.00 1.39
452.10 1.389
452.20 1.388
452.30 1.387
452.40 1.386
452.50 1.385
452.60 1.384
452.70 1.383
452.80 1.382
452.90 1.381
453.00 1.38
453.10 1.379
453.20 1.378
453.30 1.377
453.40 1.377
453.50 1.376
453.60 1.375
453.70 1.374
453.80 1.373
453.90 1.372
454.00 1.371
454.10 1.37
454.20 1.369
454.30 1.368
454.40 1.367
454.50 1.366
454.60 1.365
454.70 1.365
454.80 1.364
454.90 1.363
455.00 1.362
455.10 1.361
455.20 1.36
455.30 1.359
455.40 1.358
455.50 1.357
455.60 1.356
455.70 1.355
455.80 1.354
455.90 1.353
456.00 1.352
456.10 1.351
456.20 1.351
456.30 1.35
456.40 1.349
456.50 1.348
456.60 1.347
456.70 1.346
456.80 1.345
456.90 1.344
457.00 1.343
457.10 1.342
457.20 1.341
457.30 1.34
457.40 1.339
457.50 1.339
457.60 1.338
457.70 1.337
457.80 1.336
457.90 1.335
458.00 1.334
458.10 1.333
458.20 1.332
458.30 1.331
458.40 1.33
458.50 1.329
458.60 1.328
458.70 1.327
458.80 1.326
458.90 1.325
459.00 1.325
459.10 1.324
459.20 1.323
459.30 1.322
459.40 1.321
459.50 1.32
459.60 1.319
459.70 1.318
459.80 1.317
459.90 1.316
460.00 1.315
460.10 1.314
460.20 1.313
460.30 1.313
460.40 1.312
460.50 1.311
460.60 1.31
460.70 1.309
460.80 1.308
460.90 1.307
461.00 1.306
461.10 1.305
461.20 1.304
461.30 1.303
461.40 1.302
461.50 1.301
461.60 1.301
461.70 1.3
461.80 1.299
461.90 1.298
462.00 1.297
462.10 1.296
462.20 1.295
462.30 1.294
462.40 1.293
462.50 1.292
462.60 1.291
462.70 1.29
462.80 1.289
462.90 1.289
463.00 1.288
463.10 1.287
463.20 1.286
463.30 1.285
463.40 1.284
463.50 1.283
463.60 1.282
463.70 1.281
463.80 1.28
463.90 1.279
464.00 1.278
464.10 1.278
464.20 1.277
464.30 1.276
464.40 1.275
464.50 1.274
464.60 1.273
464.70 1.272
464.80 1.271
464.90 1.27
465.00 1.269
465.10 1.268
465.20 1.267
465.30 1.266
465.40 1.265
465.50 1.265
465.60 1.264
465.70 1.263
465.80 1.262
465.90 1.261
466.00 1.26
466.10 1.259
466.20 1.258
466.30 1.257
466.40 1.256
466.50 1.255
466.60 1.254
466.70 1.253
466.80 1.253
466.90 1.252
467.00 1.251
467.10 1.25
467.20 1.249
467.30 1.248
467.40 1.247
467.50 1.246
467.60 1.245
467.70 1.244
467.80 1.243
467.90 1.242
468.00 1.241
468.10 1.24
468.20 1.24
468.30 1.239
468.40 1.238
468.50 1.237
468.60 1.236
468.70 1.235
468.80 1.234
468.90 1.233
469.00 1.232
469.10 1.231
469.20 1.23
469.30 1.229
469.40 1.228
469.50 1.227
469.60 1.226
469.70 1.225
469.80 1.224
469.90 1.223
470.00 1.223
470.10 1.222
470.20 1.221
470.30 1.22
470.40 1.219
470.50 1.218
470.60 1.217
470.70 1.216
470.80 1.215
470.90 1.214
471.00 1.213
471.10 1.212
471.20 1.211
471.30 1.21
471.40 1.209
471.50 1.208
471.60 1.207
471.70 1.206
471.80 1.205
471.90 1.204
472.00 1.203
472.10 1.202
472.20 1.201
472.30 1.2
472.40 1.199
472.50 1.198
472.60 1.197
472.70 1.196
472.80 1.195
472.90 1.194
473.00 1.193
473.10 1.192
473.20 1.191
473.30 1.19
473.40 1.188
473.50 1.187
473.60 1.186
473.70 1.185
473.80 1.184
473.90 1.183
474.00 1.182
474.10 1.181
474.20 1.18
474.30 1.179
474.40 1.177
474.50 1.176
474.60 1.175
474.70 1.174
474.80 1.173
474.90 1.172
475.00 1.17
475.10 1.169
475.20 1.168
475.30 1.167
475.40 1.165
475.50 1.164
475.60 1.163
475.70 1.162
475.80 1.16
475.90 1.159
476.00 1.158
476.10 1.157
476.20 1.155
476.30 1.154
476.40 1.152
476.50 1.151
476.60 1.149
476.70 1.148
476.80 1.147
476.90 1.145
477.00 1.144
477.10 1.142
477.20 1.141
477.30 1.139
477.40 1.137
477.50 1.136
477.60 1.134
477.70 1.132
477.80 1.131
477.90 1.129
478.00 1.127
478.10 1.126
478.20 1.124
478.30 1.122
478.40 1.12
478.50 1.118
478.60 1.116
478.70 1.113
478.80 1.111
478.90 1.109
479.00 1.107
479.10 1.105
479.20 1.103
479.30 1.1
479.40 1.098
479.50 1.095
479.60 1.092
479.70 1.09
479.80 1.087
479.90 1.084
480.00 1.082
480.10 1.079
480.20 1.076
480.30 1.072
480.40 1.069
480.50 1.065
480.60 1.061
480.70 1.058
480.80 1.054
480.90 1.051
481.00 1.047
481.10 1.044
481.20 1.039
481.30 1.034
481.40 1.029
481.50 1.024
481.60 1.018
481.70 1.013
481.80 1.008
481.90 1.003
482.00 0.9979
482.10 0.9928
482.20 0.9861
482.30 0.9786
482.40 0.9711
482.50 0.9636
482.60 0.9561
482.70 0.9486
482.80 0.9412
482.90 0.9337
483.00 0.9262
483.10 0.9188
483.20 0.909
483.30 0.8981
483.40 0.8872
483.50 0.8763
483.60 0.8654
483.70 0.8546
483.80 0.8437
483.90 0.8329
484.00 0.822
484.10 0.8112
484.20 0.7984
484.30 0.7848
484.40 0.7712
484.50 0.7576
484.60 0.744
484.70 0.7291
484.80 0.7136
484.90 0.6981
485.00 0.6827
485.10 0.6672
485.20 0.651
485.30 0.6344
485.40 0.6169
485.50 0.5989
485.60 0.5798
485.70 0.5602
485.80 0.5383
485.90 0.5154
486.00 0.4857
486.10 0.3783
486.20 0.4388
486.30 0.4971
486.40 0.5219
486.50 0.5445
486.60 0.5647
486.70 0.5837
486.80 0.6016
486.90 0.6189
487.00 0.6353
487.10 0.6511
487.20 0.6661
487.30 0.6807
487.40 0.6953
487.50 0.7099
487.60 0.7244
487.70 0.7376
487.80 0.7502
487.90 0.7627
488.00 0.7753
488.10 0.7878
488.20 0.7983
488.30 0.8079
488.40 0.8175
488.50 0.827
488.60 0.8366
488.70 0.8461
488.80 0.8556
488.90 0.8652
489.00 0.8747
489.10 0.8842
489.20 0.8913
489.30 0.8973
489.40 0.9032
489.50 0.9092
489.60 0.9151
489.70 0.9211
489.80 0.927
489.90 0.933
490.00 0.9389
490.10 0.9449
490.20 0.9491
490.30 0.9527
490.40 0.9562
490.50 0.9597
490.60 0.9632
490.70 0.9667
490.80 0.9702
490.90 0.9737
491.00 0.9772
491.10 0.9807
491.20 0.9831
491.30 0.9851
491.40 0.9871
491.50 0.989
491.60 0.991
491.70 0.9929
491.80 0.9948
491.90 0.9968
492.00 0.9987
492.10 1.001
492.20 1.002
492.30 1.003
492.40 1.004
492.50 1.005
492.60 1.006
492.70 1.007
492.80 1.008
492.90 1.009
493.00 1.01
493.10 1.011
493.20 1.012
493.30 1.012
493.40 1.013
493.50 1.013
493.60 1.014
493.70 1.014
493.80 1.014
493.90 1.015
494.00 1.015
494.10 1.016
494.20 1.016
494.30 1.016
494.40 1.016
494.50 1.016
494.60 1.016
494.70 1.016
494.80 1.017
494.90 1.017
495.00 1.017
495.10 1.017
495.20 1.017
495.30 1.017
495.40 1.016
495.50 1.016
495.60 1.016
495.70 1.016
495.80 1.016
495.90 1.016
496.00 1.016
496.10 1.015
496.20 1.015
496.30 1.015
496.40 1.015
496.50 1.014
496.60 1.014
496.70 1.014
496.80 1.014
496.90 1.013
497.00 1.013
497.10 1.013
497.20 1.012
497.30 1.012
497.40 1.012
497.50 1.011
497.60 1.011
497.70 1.01
497.80 1.01
497.90 1.01
498.00 1.009
498.10 1.009
498.20 1.008
498.30 1.008
498.40 1.008
498.50 1.007
498.60 1.007
498.70 1.006
498.80 1.006
498.90 1.005
499.00 1.005
499.10 1.004
499.20 1.004
499.30 1.003
499.40 1.003
499.50 1.002
499.60 1.002
499.70 1.001
499.80 1.001
499.90 1
500.00 1
500.10 0.9995
500.20 0.999
500.30 0.9985
500.40 0.9979
500.50 0.9974
500.60 0.9969
500.70 0.9964
500.80 0.9958
500.90 0.9953
501.00 0.9948
501.10 0.9943
501.20 0.9937
501.30 0.9932
501.40 0.9926
501.50 0.9921
501.60 0.9915
501.70 0.991
501.80 0.9904
501.90 0.9899
502.00 0.9893
502.10 0.9888
502.20 0.9882
502.30 0.9876
502.40 0.9871
502.50 0.9865
502.60 0.986
502.70 0.9854
502.80 0.9849
502.90 0.9843
503.00 0.9837
503.10 0.9832
503.20 0.9826
503.30 0.9821
503.40 0.9815
503.50 0.9809
503.60 0.9803
503.70 0.9798
503.80 0.9792
503.90 0.9786
504.00 0.978
504.10 0.9775
504.20 0.9769
504.30 0.9763
504.40 0.9757
504.50 0.9752
504.60 0.9746
504.70 0.974
504.80 0.9734
504.90 0.9728
505.00 0.9723
505.10 0.9717
505.20 0.9711
505.30 0.9705
505.40 0.9699
505.50 0.9693
505.60 0.9688
505.70 0.9682
505.80 0.9676
505.90 0.967
506.00 0.9664
506.10 0.9658
506.20 0.9653
506.30 0.9647
506.40 0.9641
506.50 0.9635
506.60 0.9629
506.70 0.9624
506.80 0.9618
506.90 0.9612
507.00 0.9606
507.10 0.96
507.20 0.9594
507.30 0.9588
507.40 0.9582
507.50 0.9576
507.60 0.9571
507.70 0.9565
507.80 0.9559
507.90 0.9553
508.00 0.9547
508.10 0.9541
508.20 0.9535
508.30 0.9529
508.40 0.9523
508.50 0.9517
508.60 0.9512
508.70 0.9506
508.80 0.95
508.90 0.9494
509.00 0.9488
509.10 0.9482
509.20 0.9477
509.30 0.9471
509.40 0.9465
509.50 0.9459
509.60 0.9453
509.70 0.9447
509.80 0.9441
509.90 0.9436
510.00 0.943
510.10 0.9424
510.20 0.9418
510.30 0.9412
510.40 0.9406
510.50 0.9401
510.60 0.9395
510.70 0.9389
510.80 0.9383
510.90 0.9377
511.00 0.9371
511.10 0.9366
511.20 0.936
511.30 0.9354
511.40 0.9348
511.50 0.9342
511.60 0.9336
511.70 0.9331
511.80 0.9325
511.90 0.9319
512.00 0.9313
512.10 0.9307
512.20 0.9302
512.30 0.9296
512.40 0.929
512.50 0.9284
512.60 0.9278
512.70 0.9273
512.80 0.9267
512.90 0.9261
513.00 0.9255
513.10 0.9249
513.20 0.9244
513.30 0.9238
513.40 0.9232
513.50 0.9226
513.60 0.9221
513.70 0.9215
513.80 0.9209
513.90 0.9203
514.00 0.9198
514.10 0.9192
514.20 0.9186
514.30 0.918
514.40 0.9175
514.50 0.9169
514.60 0.9163
514.70 0.9157
514.80 0.9152
514.90 0.9146
515.00 0.914
515.10 0.9135
515.20 0.9129
515.30 0.9123
515.40 0.9117
515.50 0.9112
515.60 0.9106
515.70 0.91
515.80 0.9095
515.90 0.9089
516.00 0.9083
516.10 0.9078
516.20 0.9072
516.30 0.9066
516.40 0.9061
516.50 0.9055
516.60 0.9049
516.70 0.9044
516.80 0.9038
516.90 0.9032
517.00 0.9027
517.10 0.9021
517.20 0.9015
517.30 0.901
517.40 0.9004
517.50 0.8999
517.60 0.8993
517.70 0.8987
517.80 0.8982
517.90 0.8976
518.00 0.897
518.10 0.8965
518.20 0.8959
518.30 0.8954
518.40 0.8948
518.50 0.8942
518.60 0.8937
518.70 0.8931
518.80 0.8926
518.90 0.892
519.00 0.8915
519.10 0.8909
519.20 0.8903
519.30 0.8898
519.40 0.8892
519.50 0.8887
519.60 0.8881
519.70 0.8876
519.80 0.887
519.90 0.8865
520.00 0.8859
520.10 0.8853
520.20 0.8848
520.30 0.8842
520.40 0.8837
520.50 0.8831
520.60 0.8826
520.70 0.882
520.80 0.8815
520.90 0.8809
521.00 0.8804
521.10 0.8798
521.20 0.8793
521.30 0.8787
521.40 0.8782
521.50 0.8776
521.60 0.8771
521.70 0.8766
521.80 0.876
521.90 0.8755
522.00 0.8749
522.10 0.8744
522.20 0.8738
522.30 0.8733
522.40 0.8727
522.50 0.8722
522.60 0.8716
522.70 0.8711
522.80 0.8706
522.90 0.87
523.00 0.8695
523.10 0.8689
523.20 0.8684
523.30 0.8679
523.40 0.8673
523.50 0.8668
523.60 0.8662
523.70 0.8657
523.80 0.8652
523.90 0.8646
524.00 0.8641
524.10 0.8635
524.20 0.863
524.30 0.8625
524.40 0.8619
524.50 0.8614
524.60 0.8609
524.70 0.8603
524.80 0.8598
524.90 0.8593
525.00 0.8587
525.10 0.8582
525.20 0.8577
525.30 0.8571
525.40 0.8566
525.50 0.8561
525.60 0.8555
525.70 0.855
525.80 0.8545
525.90 0.8539
526.00 0.8534
526.10 0.8529
526.20 0.8523
526.30 0.8518
526.40 0.8513
526.50 0.8508
526.60 0.8502
526.70 0.8497
526.80 0.8492
526.90 0.8486
527.00 0.8481
527.10 0.8476
527.20 0.8471
527.30 0.8465
527.40 0.846
527.50 0.8455
527.60 0.845
527.70 0.8445
527.80 0.8439
527.90 0.8434
528.00 0.8429
528.10 0.8424
528.20 0.8418
528.30 0.8413
528.40 0.8408
528.50 0.8403
528.60 0.8398
528.70 0.8392
528.80 0.8387
528.90 0.8382
529.00 0.8377
529.10 0.8372
529.20 0.8366
529.30 0.8361
529.40 0.8356
529.50 0.8351
529.60 0.8346
529.70 0.8341
529.80 0.8335
529.90 0.833
530.00 0.8325
530.10 0.832
530.20 0.8315
530.30 0.831
530.40 0.8305
530.50 0.8299
530.60 0.8294
530.70 0.8289
530.80 0.8284
530.90 0.8279
531.00 0.8274
531.10 0.8269
531.20 0.8264
531.30 0.8259
531.40 0.8253
531.50 0.8248
531.60 0.8243
531.70 0.8238
531.80 0.8233
531.90 0.8228
532.00 0.8223
532.10 0.8218
532.20 0.8213
532.30 0.8208
532.40 0.8203
532.50 0.8198
532.60 0.8193
532.70 0.8188
532.80 0.8183
532.90 0.8178
533.00 0.8173
533.10 0.8167
533.20 0.8162
533.30 0.8157
533.40 0.8152
533.50 0.8147
533.60 0.8142
533.70 0.8137
533.80 0.8132
533.90 0.8127
534.00 0.8122
534.10 0.8117
534.20 0.8112
534.30 0.8107
534.40 0.8102
534.50 0.8098
534.60 0.8093
534.70 0.8088
534.80 0.8083
534.90 0.8078
535.00 0.8073
535.10 0.8068
535.20 0.8063
535.30 0.8058
535.40 0.8053
535.50 0.8048
535.60 0.8043
535.70 0.8038
535.80 0.8033
535.90 0.8028
536.00 0.8023
536.10 0.8018
536.20 0.8013
536.30 0.8009
536.40 0.8004
536.50 0.7999
536.60 0.7994
536.70 0.7989
536.80 0.7984
536.90 0.7979
537.00 0.7974
537.10 0.7969
537.20 0.7965
537.30 0.796
537.40 0.7955
537.50 0.795
537.60 0.7945
537.70 0.794
537.80 0.7935
537.90 0.7931
538.00 0.7926
538.10 0.7921
538.20 0.7916
538.30 0.7911
538.40 0.7906
538.50 0.7902
538.60 0.7897
538.70 0.7892
538.80 0.7887
538.90 0.7882
539.00 0.7877
539.10 0.7873
539.20 0.7868
539.30 0.7863
539.40 0.7858
539.50 0.7853
539.60 0.7849
539.70 0.7844
539.80 0.7839
539.90 0.7834
540.00 0.783
540.10 0.7825
540.20 0.782
540.30 0.7815
540.40 0.7811
540.50 0.7806
540.60 0.7801
540.70 0.7796
540.80 0.7792
540.90 0.7787
541.00 0.7782
541.10 0.7777
541.20 0.7773
541.30 0.7768
541.40 0.7763
541.50 0.7759
541.60 0.7754
541.70 0.7749
541.80 0.7744
541.90 0.774
542.00 0.7735
542.10 0.773
542.20 0.7726
542.30 0.7721
542.40 0.7716
542.50 0.7711
542.60 0.7707
542.70 0.7702
542.80 0.7697
542.90 0.7693
543.00 0.7688
543.10 0.7683
543.20 0.7679
543.30 0.7674
543.40 0.767
543.50 0.7665
543.60 0.766
543.70 0.7656
543.80 0.7651
543.90 0.7646
544.00 0.7642
544.10 0.7637
544.20 0.7632
544.30 0.7628
544.40 0.7623
544.50 0.7619
544.60 0.7614
544.70 0.7609
544.80 0.7605
544.90 0.76
545.00 0.7596
545.10 0.7591
545.20 0.7586
545.30 0.7582
545.40 0.7577
545.50 0.7573
545.60 0.7568
545.70 0.7564
545.80 0.7559
545.90 0.7554
546.00 0.755
546.10 0.7545
546.20 0.7541
546.30 0.7536
546.40 0.7532
546.50 0.7527
546.60 0.7523
546.70 0.7519
546.80 0.7514
546.90 0.751
547.00 0.7505
547.10 0.7501
547.20 0.7496
547.30 0.7492
547.40 0.7487
547.50 0.7483
547.60 0.7478
547.70 0.7474
547.80 0.7469
547.90 0.7465
548.00 0.746
548.10 0.7456
548.20 0.7451
548.30 0.7447
548.40 0.7442
548.50 0.7438
548.60 0.7433
548.70 0.7429
548.80 0.7424
548.90 0.742
549.00 0.7416
549.10 0.7411
549.20 0.7407
549.30 0.7402
549.40 0.7398
549.50 0.7393
549.60 0.7389
549.70 0.7384
549.80 0.738
549.90 0.7376
550.00 0.7371
550.10 0.7367
550.20 0.7362
550.30 0.7358
550.40 0.7353
550.50 0.7349
550.60 0.7345
550.70 0.734
550.80 0.7336
550.90 0.7331
551.00 0.7327
551.10 0.7323
551.20 0.7318
551.30 0.7314
551.40 0.7309
551.50 0.7305
551.60 0.7301
551.70 0.7296
551.80 0.7292
551.90 0.7288
552.00 0.7283
552.10 0.7279
552.20 0.7275
552.30 0.727
552.40 0.7266
552.50 0.7262
552.60 0.7257
552.70 0.7253
552.80 0.7249
552.90 0.7244
553.00 0.724
553.10 0.7236
553.20 0.7231
553.30 0.7227
553.40 0.7223
553.50 0.7218
553.60 0.7214
553.70 0.721
553.80 0.7205
553.90 0.7201
554.00 0.7197
554.10 0.7192
554.20 0.7188
554.30 0.7184
554.40 0.718
554.50 0.7175
554.60 0.7171
554.70 0.7167
554.80 0.7163
554.90 0.7158
555.00 0.7154
555.10 0.715
555.20 0.7145
555.30 0.7141
555.40 0.7137
555.50 0.7133
555.60 0.7128
555.70 0.7124
555.80 0.712
555.90 0.7116
556.00 0.7112
556.10 0.7107
556.20 0.7103
556.30 0.7099
556.40 0.7095
556.50 0.709
556.60 0.7086
556.70 0.7082
556.80 0.7078
556.90 0.7074
557.00 0.7069
557.10 0.7065
557.20 0.7061
557.30 0.7057
557.40 0.7053
557.50 0.7048
557.60 0.7044
557.70 0.704
557.80 0.7036
557.90 0.7032
558.00 0.7028
558.10 0.7023
558.20 0.7019
558.30 0.7015
558.40 0.7011
558.50 0.7007
558.60 0.7003
558.70 0.6998
558.80 0.6994
558.90 0.699
559.00 0.6986
559.10 0.6982
559.20 0.6978
559.30 0.6974
559.40 0.697
559.50 0.6965
559.60 0.6961
559.70 0.6957
559.80 0.6953
559.90 0.6949
560.00 0.6945
560.10 0.6941
560.20 0.6937
560.30 0.6933
560.40 0.6928
560.50 0.6924
560.60 0.692
560.70 0.6916
560.80 0.6912
560.90 0.6908
561.00 0.6904
561.10 0.69
561.20 0.6896
561.30 0.6892
561.40 0.6888
561.50 0.6884
561.60 0.688
561.70 0.6875
561.80 0.6871
561.90 0.6867
562.00 0.6863
562.10 0.6859
562.20 0.6855
562.30 0.6851
562.40 0.6847
562.50 0.6843
562.60 0.6839
562.70 0.6835
562.80 0.6831
562.90 0.6827
563.00 0.6823
563.10 0.6819
563.20 0.6815
563.30 0.6811
563.40 0.6807
563.50 0.6803
563.60 0.6799
563.70 0.6795
563.80 0.6791
563.90 0.6787
564.00 0.6783
564.10 0.6779
564.20 0.6775
564.30 0.6771
564.40 0.6767
564.50 0.6763
564.60 0.6759
564.70 0.6755
564.80 0.6751
564.90 0.6747
565.00 0.6743
565.10 0.6739
565.20 0.6736
565.30 0.6732
565.40 0.6728
565.50 0.6724
565.60 0.672
565.70 0.6716
565.80 0.6712
565.90 0.6708
566.00 0.6704
566.10 0.67
566.20 0.6696
566.30 0.6692
566.40 0.6688
566.50 0.6684
566.60 0.668
566.70 0.6677
566.80 0.6673
566.90 0.6669
567.00 0.6665
567.10 0.6661
567.20 0.6657
567.30 0.6653
567.40 0.6649
567.50 0.6645
567.60 0.6642
567.70 0.6638
567.80 0.6634
567.90 0.663
568.00 0.6626
568.10 0.6622
568.20 0.6618
568.30 0.6614
568.40 0.6611
568.50 0.6607
568.60 0.6603
568.70 0.6599
568.80 0.6595
568.90 0.6591
569.00 0.6588
569.10 0.6584
569.20 0.658
569.30 0.6576
569.40 0.6572
569.50 0.6568
569.60 0.6565
569.70 0.6561
569.80 0.6557
569.90 0.6553
570.00 0.6549
570.10 0.6545
570.20 0.6542
570.30 0.6538
570.40 0.6534
570.50 0.653
570.60 0.6526
570.70 0.6523
570.80 0.6519
570.90 0.6515
571.00 0.6511
571.10 0.6508
571.20 0.6504
571.30 0.65
571.40 0.6496
571.50 0.6492
571.60 0.6489
571.70 0.6485
571.80 0.6481
571.90 0.6477
572.00 0.6474
572.10 0.647
572.20 0.6466
572.30 0.6462
572.40 0.6459
572.50 0.6455
572.60 0.6451
572.70 0.6447
572.80 0.6444
572.90 0.644
573.00 0.6436
573.10 0.6432
573.20 0.6429
573.30 0.6425
573.40 0.6421
573.50 0.6418
573.60 0.6414
573.70 0.641
573.80 0.6406
573.90 0.6403
574.00 0.6399
574.10 0.6395
574.20 0.6392
574.30 0.6388
574.40 0.6384
574.50 0.6381
574.60 0.6377
574.70 0.6373
574.80 0.637
574.90 0.6366
575.00 0.6362
575.10 0.6358
575.20 0.6355
575.30 0.6351
575.40 0.6347
575.50 0.6344
575.60 0.634
575.70 0.6336
575.80 0.6333
575.90 0.6329
576.00 0.6326
576.10 0.6322
576.20 0.6318
576.30 0.6315
576.40 0.6311
576.50 0.6307
576.60 0.6304
576.70 0.63
576.80 0.6296
576.90 0.6293
577.00 0.6289
577.10 0.6286
577.20 0.6282
577.30 0.6278
577.40 0.6275
577.50 0.6271
577.60 0.6268
577.70 0.6264
577.80 0.626
577.90 0.6257
578.00 0.6253
578.10 0.625
578.20 0.6246
578.30 0.6242
578.40 0.6239
578.50 0.6235
578.60 0.6232
578.70 0.6228
578.80 0.6224
578.90 0.6221
579.00 0.6217
579.10 0.6214
579.20 0.621
579.30 0.6207
579.40 0.6203
579.50 0.62
579.60 0.6196
579.70 0.6192
579.80 0.6189
579.90 0.6185
580.00 0.6182
580.10 0.6178
580.20 0.6175
580.30 0.6171
580.40 0.6168
580.50 0.6164
580.60 0.6161
580.70 0.6157
580.80 0.6154
580.90 0.615
581.00 0.6146
581.10 0.6143
581.20 0.6139
581.30 0.6136
581.40 0.6132
581.50 0.6129
581.60 0.6125
581.70 0.6122
581.80 0.6118
581.90 0.6115
582.00 0.6111
582.10 0.6108
582.20 0.6104
582.30 0.6101
582.40 0.6097
582.50 0.6094
582.60 0.6091
582.70 0.6087
582.80 0.6084
582.90 0.608
583.00 0.6077
583.10 0.6073
583.20 0.607
583.30 0.6066
583.40 0.6063
583.50 0.6059
583.60 0.6056
583.70 0.6052
583.80 0.6049
583.90 0.6046
584.00 0.6042
584.10 0.6039
584.20 0.6035
584.30 0.6032
584.40 0.6028
584.50 0.6025
584.60 0.6021
584.70 0.6018
584.80 0.6015
584.90 0.6011
585.00 0.6008
585.10 0.6004
585.20 0.6001
585.30 0.5998
585.40 0.5994
585.50 0.5991
585.60 0.5987
585.70 0.5984
585.80 0.5981
585.90 0.5977
586.00 0.5974
586.10 0.597
586.20 0.5967
586.30 0.5964
586.40 0.596
586.50 0.5957
586.60 0.5953
586.70 0.595
586.80 0.5947
586.90 0.5943
587.00 0.594
587.10 0.5937
587.20 0.5933
587.30 0.593
587.40 0.5927
587.50 0.5923
587.60 0.592
587.70 0.5916
587.80 0.5913
587.90 0.591
588.00 0.5906
588.10 0.5903
588.20 0.59
588.30 0.5896
588.40 0.5893
588.50 0.589
588.60 0.5886
588.70 0.5883
588.80 0.588
588.90 0.5876
589.00 0.5873
589.10 0.587
589.20 0.5866
589.30 0.5863
589.40 0.586
589.50 0.5856
589.60 0.5853
589.70 0.585
589.80 0.5847
589.90 0.5843
590.00 0.584
590.10 0.5837
590.20 0.5833
590.30 0.583
590.40 0.5827
590.50 0.5824
590.60 0.582
590.70 0.5817
590.80 0.5814
590.90 0.581
591.00 0.5807
591.10 0.5804
591.20 0.5801
591.30 0.5797
591.40 0.5794
591.50 0.5791
591.60 0.5788
591.70 0.5784
591.80 0.5781
591.90 0.5778
592.00 0.5775
592.10 0.5771
592.20 0.5768
592.30 0.5765
592.40 0.5762
592.50 0.5758
592.60 0.5755
592.70 0.5752
592.80 0.5749
592.90 0.5745
593.00 0.5742
593.10 0.5739
593.20 0.5736
593.30 0.5732
593.40 0.5729
593.50 0.5726
593.60 0.5723
593.70 0.572
593.80 0.5716
593.90 0.5713
594.00 0.571
594.10 0.5707
594.20 0.5704
594.30 0.57
594.40 0.5697
594.50 0.5694
594.60 0.5691
594.70 0.5688
594.80 0.5684
594.90 0.5681
595.00 0.5678
595.10 0.5675
595.20 0.5672
595.30 0.5669
595.40 0.5665
595.50 0.5662
595.60 0.5659
595.70 0.5656
595.80 0.5653
595.90 0.5649
596.00 0.5646
596.10 0.5643
596.20 0.564
596.30 0.5637
596.40 0.5633
596.50 0.563
596.60 0.5627
596.70 0.5623
596.80 0.562
596.90 0.5617
597.00 0.5613
597.10 0.561
597.20 0.5607
597.30 0.5604
597.40 0.56
597.50 0.5597
597.60 0.5594
597.70 0.5591
597.80 0.5588
597.90 0.5585
598.00 0.5582
598.10 0.5579
598.20 0.5575
598.30 0.5572
598.40 0.5569
598.50 0.5566
598.60 0.5563
598.70 0.556
598.80 0.5557
598.90 0.5554
599.00 0.5551
599.10 0.5548
599.20 0.5544
599.30 0.5541
599.40 0.5538
599.50 0.5535
599.60 0.5532
599.70 0.5529
599.80 0.5526
599.90 0.5523
600.00 0.552
600.10 0.5517
600.20 0.5514
600.30 0.5511
600.40 0.5507
600.50 0.5504
600.60 0.5501
600.70 0.5498
600.80 0.5495
600.90 0.5492
601.00 0.5489
601.10 0.5486
601.20 0.5483
601.30 0.548
601.40 0.5477
601.50 0.5474
601.60 0.5471
601.70 0.5468
601.80 0.5465
601.90 0.5462
602.00 0.5459
602.10 0.5456
602.20 0.5453
602.30 0.545
602.40 0.5446
602.50 0.5443
602.60 0.544
602.70 0.5437
602.80 0.5434
602.90 0.5431
603.00 0.5428
603.10 0.5425
603.20 0.5422
603.30 0.5419
603.40 0.5416
603.50 0.5413
603.60 0.541
603.70 0.5407
603.80 0.5404
603.90 0.5401
604.00 0.5398
604.10 0.5395
604.20 0.5392
604.30 0.5389
604.40 0.5386
604.50 0.5383
604.60 0.538
604.70 0.5377
604.80 0.5374
604.90 0.5371
605.00 0.5369
605.10 0.5366
605.20 0.5363
605.30 0.536
605.40 0.5357
605.50 0.5354
605.60 0.5351
605.70 0.5348
605.80 0.5345
605.90 0.5342
606.00 0.5339
606.10 0.5336
606.20 0.5333
606.30 0.533
606.40 0.5327
606.50 0.5324
606.60 0.5321
606.70 0.5318
606.80 0.5315
606.90 0.5312
607.00 0.5309
607.10 0.5306
607.20 0.5304
607.30 0.5301
607.40 0.5298
607.50 0.5295
607.60 0.5292
607.70 0.5289
607.80 0.5286
607.90 0.5283
608.00 0.528
608.10 0.5277
608.20 0.5274
608.30 0.5271
608.40 0.5269
608.50 0.5266
608.60 0.5263
608.70 0.526
608.80 0.5257
608.90 0.5254
609.00 0.5251
609.10 0.5248
609.20 0.5245
609.30 0.5242
609.40 0.524
609.50 0.5237
609.60 0.5234
609.70 0.5231
609.80 0.5228
609.90 0.5225
610.00 0.5222
610.10 0.5219
610.20 0.5217
610.30 0.5214
610.40 0.5211
610.50 0.5208
610.60 0.5205
610.70 0.5202
610.80 0.5199
610.90 0.5197
611.00 0.5194
611.10 0.5191
611.20 0.5188
611.30 0.5185
611.40 0.5182
611.50 0.5179
611.60 0.5177
611.70 0.5174
611.80 0.5171
611.90 0.5168
612.00 0.5165
612.10 0.5162
612.20 0.516
612.30 0.5157
612.40 0.5154
612.50 0.5151
612.60 0.5148
612.70 0.5145
612.80 0.5143
612.90 0.514
613.00 0.5137
613.10 0.5134
613.20 0.5131
613.30 0.5128
613.40 0.5126
613.50 0.5123
613.60 0.512
613.70 0.5117
613.80 0.5114
613.90 0.5112
614.00 0.5109
614.10 0.5106
614.20 0.5103
614.30 0.51
614.40 0.5098
614.50 0.5095
614.60 0.5092
614.70 0.5089
614.80 0.5086
614.90 0.5084
615.00 0.5081
615.10 0.5078
615.20 0.5075
615.30 0.5073
615.40 0.507
615.50 0.5067
615.60 0.5064
615.70 0.5061
615.80 0.5059
615.90 0.5056
616.00 0.5053
616.10 0.505
616.20 0.5048
616.30 0.5045
616.40 0.5042
616.50 0.5039
616.60 0.5037
616.70 0.5034
616.80 0.5031
616.90 0.5028
617.00 0.5026
617.10 0.5023
617.20 0.502
617.30 0.5017
617.40 0.5015
617.50 0.5012
617.60 0.5009
617.70 0.5006
617.80 0.5004
617.90 0.5001
618.00 0.4998
618.10 0.4995
618.20 0.4993
618.30 0.499
618.40 0.4987
618.50 0.4984
618.60 0.4982
618.70 0.4979
618.80 0.4976
618.90 0.4974
619.00 0.4971
619.10 0.4968
619.20 0.4965
619.30 0.4963
619.40 0.496
619.50 0.4957
619.60 0.4955
619.70 0.4952
619.80 0.4949
619.90 0.4947
620.00 0.4944
620.10 0.4941
620.20 0.4938
620.30 0.4936
620.40 0.4933
620.50 0.493
620.60 0.4928
620.70 0.4925
620.80 0.4922
620.90 0.492
621.00 0.4917
621.10 0.4914
621.20 0.4912
621.30 0.4909
621.40 0.4906
621.50 0.4904
621.60 0.4901
621.70 0.4898
621.80 0.4895
621.90 0.4893
622.00 0.489
622.10 0.4887
622.20 0.4885
622.30 0.4882
622.40 0.4879
622.50 0.4877
622.60 0.4874
622.70 0.4872
622.80 0.4869
622.90 0.4866
623.00 0.4864
623.10 0.4861
623.20 0.4858
623.30 0.4856
623.40 0.4853
623.50 0.485
623.60 0.4848
623.70 0.4845
623.80 0.4842
623.90 0.484
624.00 0.4837
624.10 0.4834
624.20 0.4832
624.30 0.4829
624.40 0.4827
624.50 0.4824
624.60 0.4821
624.70 0.4819
624.80 0.4816
624.90 0.4813
625.00 0.4811
625.10 0.4808
625.20 0.4805
625.30 0.4803
625.40 0.48
625.50 0.4798
625.60 0.4795
625.70 0.4792
625.80 0.479
625.90 0.4787
626.00 0.4784
626.10 0.4782
626.20 0.4779
626.30 0.4777
626.40 0.4774
626.50 0.4771
626.60 0.4769
626.70 0.4766
626.80 0.4764
626.90 0.4761
627.00 0.4758
627.10 0.4756
627.20 0.4753
627.30 0.4751
627.40 0.4748
627.50 0.4745
627.60 0.4743
627.70 0.474
627.80 0.4738
627.90 0.4735
628.00 0.4732
628.10 0.473
628.20 0.4727
628.30 0.4725
628.40 0.4722
628.50 0.472
628.60 0.4717
628.70 0.4714
628.80 0.4712
628.90 0.4709
629.00 0.4707
629.10 0.4704
629.20 0.4702
629.30 0.4699
629.40 0.4696
629.50 0.4694
629.60 0.4691
629.70 0.4689
629.80 0.4686
629.90 0.4684
630.00 0.4681
630.10 0.4678
630.20 0.4676
630.30 0.4673
630.40 0.4671
630.50 0.4668
630.60 0.4666
630.70 0.4663
630.80 0.466
630.90 0.4658
631.00 0.4655
631.10 0.4653
631.20 0.465
631.30 0.4648
631.40 0.4645
631.50 0.4642
631.60 0.464
631.70 0.4637
631.80 0.4635
631.90 0.4632
632.00 0.463
632.10 0.4627
632.20 0.4625
632.30 0.4622
632.40 0.4619
632.50 0.4617
632.60 0.4614
632.70 0.4612
632.80 0.4609
632.90 0.4607
633.00 0.4604
633.10 0.4602
633.20 0.4599
633.30 0.4596
633.40 0.4594
633.50 0.4591
633.60 0.4589
633.70 0.4586
633.80 0.4584
633.90 0.4581
634.00 0.4579
634.10 0.4576
634.20 0.4573
634.30 0.4571
634.40 0.4568
634.50 0.4566
634.60 0.4563
634.70 0.4561
634.80 0.4558
634.90 0.4555
635.00 0.4553
635.10 0.455
635.20 0.4548
635.30 0.4545
635.40 0.4543
635.50 0.454
635.60 0.4538
635.70 0.4535
635.80 0.4532
635.90 0.453
636.00 0.4527
636.10 0.4525
636.20 0.4522
636.30 0.452
636.40 0.4517
636.50 0.4514
636.60 0.4512
636.70 0.4509
636.80 0.4507
636.90 0.4504
637.00 0.4502
637.10 0.4499
637.20 0.4496
637.30 0.4494
637.40 0.4491
637.50 0.4489
637.60 0.4486
637.70 0.4483
637.80 0.4481
637.90 0.4478
638.00 0.4476
638.10 0.4473
638.20 0.447
638.30 0.4468
638.40 0.4465
638.50 0.4462
638.60 0.446
638.70 0.4457
638.80 0.4455
638.90 0.4452
639.00 0.4449
639.10 0.4447
639.20 0.4444
639.30 0.4441
639.40 0.4439
639.50 0.4436
639.60 0.4433
639.70 0.4431
639.80 0.4428
639.90 0.4425
640.00 0.4423
640.10 0.442
640.20 0.4417
640.30 0.4415
640.40 0.4412
640.50 0.4409
640.60 0.4406
640.70 0.4404
640.80 0.4401
640.90 0.4398
641.00 0.4396
641.10 0.4393
641.20 0.439
641.30 0.4387
641.40 0.4385
641.50 0.4382
641.60 0.4379
641.70 0.4376
641.80 0.4373
641.90 0.4371
642.00 0.4368
642.10 0.4365
642.20 0.4362
642.30 0.4359
642.40 0.4356
642.50 0.4353
642.60 0.4351
642.70 0.4348
642.80 0.4345
642.90 0.4342
643.00 0.4339
643.10 0.4336
643.20 0.4333
643.30 0.433
643.40 0.4327
643.50 0.4324
643.60 0.4321
643.70 0.4318
643.80 0.4315
643.90 0.4312
644.00 0.4308
644.10 0.4305
644.20 0.4302
644.30 0.4299
644.40 0.4296
644.50 0.4293
644.60 0.4289
644.70 0.4286
644.80 0.4283
644.90 0.4279
645.00 0.4276
645.10 0.4273
645.20 0.427
645.30 0.4266
645.40 0.4263
645.50 0.4259
645.60 0.4255
645.70 0.4252
645.80 0.4248
645.90 0.4244
646.00 0.4241
646.10 0.4237
646.20 0.4234
646.30 0.423
646.40 0.4226
646.50 0.4222
646.60 0.4218
646.70 0.4214
646.80 0.421
646.90 0.4206
647.00 0.4202
647.10 0.4198
647.20 0.4194
647.30 0.4189
647.40 0.4185
647.50 0.418
647.60 0.4175
647.70 0.417
647.80 0.4166
647.90 0.4161
648.00 0.4156
648.10 0.4152
648.20 0.4147
648.30 0.4142
648.40 0.4136
648.50 0.4131
648.60 0.4125
648.70 0.4119
648.80 0.4113
648.90 0.4108
649.00 0.4102
649.10 0.4096
649.20 0.4091
649.30 0.4085
649.40 0.4077
649.50 0.407
649.60 0.4063
649.70 0.4056
649.80 0.4049
649.90 0.4041
650.00 0.4034
650.10 0.4027
650.20 0.402
650.30 0.4012
650.40 0.4003
650.50 0.3993
650.60 0.3983
650.70 0.3974
650.80 0.3964
650.90 0.3955
651.00 0.3945
651.10 0.3936
651.20 0.3926
651.30 0.3916
651.40 0.3902
651.50 0.3889
651.60 0.3876
651.70 0.3862
651.80 0.3849
651.90 0.3836
652.00 0.3823
652.10 0.3809
652.20 0.3796
652.30 0.3782
652.40 0.3763
652.50 0.3744
652.60 0.3725
652.70 0.3706
652.80 0.3687
652.90 0.3668
653.00 0.3649
653.10 0.363
653.20 0.3612
653.30 0.3591
653.40 0.3564
653.50 0.3538
653.60 0.3511
653.70 0.3484
653.80 0.3458
653.90 0.3431
654.00 0.3404
654.10 0.3378
654.20 0.3351
654.30 0.3323
654.40 0.3289
654.50 0.3255
654.60 0.3221
654.70 0.3188
654.80 0.3152
654.90 0.3111
655.00 0.307
655.10 0.303
655.20 0.2989
655.30 0.2947
655.40 0.2902
655.50 0.2856
655.60 0.2806
655.70 0.2754
655.80 0.2697
655.90 0.2636
656.00 0.2558
656.10 0.2473
656.20 0.2146
656.30 0.1828
656.40 0.2366
656.50 0.2505
656.60 0.2581
656.70 0.2653
656.80 0.2708
656.90 0.2761
657.00 0.2809
657.10 0.2855
657.20 0.2898
657.30 0.2939
657.40 0.2977
657.50 0.3015
657.60 0.3053
657.70 0.3091
657.80 0.3127
657.90 0.3157
658.00 0.3188
658.10 0.3218
658.20 0.3249
658.30 0.3278
658.40 0.3301
658.50 0.3324
658.60 0.3346
658.70 0.3369
658.80 0.3392
658.90 0.3415
659.00 0.3438
659.10 0.3461
659.20 0.3483
659.30 0.3504
659.40 0.3519
659.50 0.3534
659.60 0.3548
659.70 0.3563
659.80 0.3578
659.90 0.3592
660.00 0.3607
660.10 0.3622
660.20 0.3636
660.30 0.365
660.40 0.3659
660.50 0.3668
660.60 0.3677
660.70 0.3685
660.80 0.3694
660.90 0.3703
661.00 0.3712
661.10 0.3721
661.20 0.373
661.30 0.3738
661.40 0.3743
661.50 0.3748
661.60 0.3753
661.70 0.3758
661.80 0.3763
661.90 0.3768
662.00 0.3773
662.10 0.3778
662.20 0.3784
662.30 0.3788
662.40 0.3791
662.50 0.3794
662.60 0.3796
662.70 0.3799
662.80 0.3802
662.90 0.3804
663.00 0.3807
663.10 0.381
663.20 0.3812
663.30 0.3815
663.40 0.3816
663.50 0.3817
663.60 0.3819
663.70 0.382
663.80 0.3821
663.90 0.3822
664.00 0.3824
664.10 0.3825
664.20 0.3826
664.30 0.3827
664.40 0.3827
664.50 0.3828
664.60 0.3828
664.70 0.3828
664.80 0.3829
664.90 0.3829
665.00 0.3829
665.10 0.3829
665.20 0.383
665.30 0.383
665.40 0.3829
665.50 0.3829
665.60 0.3829
665.70 0.3828
665.80 0.3828
665.90 0.3828
666.00 0.3827
666.10 0.3827
666.20 0.3827
666.30 0.3826
666.40 0.3825
666.50 0.3825
666.60 0.3824
666.70 0.3823
666.80 0.3822
666.90 0.3821
667.00 0.3821
667.10 0.382
667.20 0.3819
667.30 0.3818
667.40 0.3817
667.50 0.3816
667.60 0.3815
667.70 0.3814
667.80 0.3813
667.90 0.3812
668.00 0.3811
668.10 0.381
668.20 0.3809
668.30 0.3808
668.40 0.3806
668.50 0.3805
668.60 0.3804
668.70 0.3803
668.80 0.3801
668.90 0.38
669.00 0.3799
669.10 0.3798
669.20 0.3796
669.30 0.3795
669.40 0.3794
669.50 0.3792
669.60 0.3791
669.70 0.3789
669.80 0.3788
669.90 0.3787
670.00 0.3785
670.10 0.3784
670.20 0.3782
670.30 0.3781
670.40 0.378
670.50 0.3778
670.60 0.3776
670.70 0.3775
670.80 0.3773
670.90 0.3772
671.00 0.377
671.10 0.3769
671.20 0.3767
671.30 0.3766
671.40 0.3764
671.50 0.3763
671.60 0.3761
671.70 0.376
671.80 0.3758
671.90 0.3757
672.00 0.3755
672.10 0.3753
672.20 0.3752
672.30 0.375
672.40 0.3749
672.50 0.3747
672.60 0.3745
672.70 0.3744
672.80 0.3742
672.90 0.374
673.00 0.3739
673.10 0.3737
673.20 0.3736
673.30 0.3734
673.40 0.3732
673.50 0.3731
673.60 0.3729
673.70 0.3727
673.80 0.3726
673.90 0.3724
674.00 0.3722
674.10 0.3721
674.20 0.3719
674.30 0.3717
674.40 0.3716
674.50 0.3714
674.60 0.3712
674.70 0.3711
674.80 0.3709
674.90 0.3707
675.00 0.3706
675.10 0.3704
675.20 0.3702
675.30 0.37
675.40 0.3699
675.50 0.3697
675.60 0.3695
675.70 0.3694
675.80 0.3692
675.90 0.369
676.00 0.3689
676.10 0.3687
676.20 0.3685
676.30 0.3683
676.40 0.3682
676.50 0.368
676.60 0.3678
676.70 0.3677
676.80 0.3675
676.90 0.3673
677.00 0.3671
677.10 0.367
677.20 0.3668
677.30 0.3666
677.40 0.3664
677.50 0.3663
677.60 0.3661
677.70 0.3659
677.80 0.3658
677.90 0.3656
678.00 0.3654
678.10 0.3652
678.20 0.3651
678.30 0.3649
678.40 0.3647
678.50 0.3645
678.60 0.3644
678.70 0.3642
678.80 0.364
678.90 0.3639
679.00 0.3637
679.10 0.3635
679.20 0.3633
679.30 0.3632
679.40 0.363
679.50 0.3628
679.60 0.3626
679.70 0.3625
679.80 0.3623
679.90 0.3621
680.00 0.3619
680.10 0.3618
680.20 0.3616
680.30 0.3614
680.40 0.3613
680.50 0.3611
680.60 0.3609
680.70 0.3607
680.80 0.3606
680.90 0.3604
681.00 0.3602
681.10 0.36
681.20 0.3599
681.30 0.3597
681.40 0.3595
681.50 0.3594
681.60 0.3592
681.70 0.359
681.80 0.3588
681.90 0.3587
682.00 0.3585
682.10 0.3583
682.20 0.3581
682.30 0.358
682.40 0.3578
682.50 0.3576
682.60 0.3575
682.70 0.3573
682.80 0.3571
682.90 0.3569
683.00 0.3568
683.10 0.3566
683.20 0.3564
683.30 0.3562
683.40 0.3561
683.50 0.3559
683.60 0.3557
683.70 0.3556
683.80 0.3554
683.90 0.3552
684.00 0.355
684.10 0.3549
684.20 0.3547
684.30 0.3545
684.40 0.3544
684.50 0.3542
684.60 0.354
684.70 0.3538
684.80 0.3537
684.90 0.3535
685.00 0.3533
685.10 0.3532
685.20 0.353
685.30 0.3528
685.40 0.3526
685.50 0.3525
685.60 0.3523
685.70 0.3521
685.80 0.352
685.90 0.3518
686.00 0.3516
686.10 0.3514
686.20 0.3513
686.30 0.3511
686.40 0.3509
686.50 0.3508
686.60 0.3506
686.70 0.3504
686.80 0.3502
686.90 0.3501
687.00 0.3499
687.10 0.3497
687.20 0.3496
687.30 0.3494
687.40 0.3492
687.50 0.3491
687.60 0.3489
687.70 0.3487
687.80 0.3486
687.90 0.3484
688.00 0.3482
688.10 0.348
688.20 0.3479
688.30 0.3477
688.40 0.3475
688.50 0.3474
688.60 0.3472
688.70 0.347
688.80 0.3469
688.90 0.3467
689.00 0.3465
689.10 0.3464
689.20 0.3462
689.30 0.346
689.40 0.3459
689.50 0.3457
689.60 0.3455
689.70 0.3454
689.80 0.3452
689.90 0.345
690.00 0.3449
690.10 0.3447
690.20 0.3445
690.30 0.3443
690.40 0.3442
690.50 0.344
690.60 0.3438
690.70 0.3437
690.80 0.3435
690.90 0.3433
691.00 0.3432
691.10 0.343
691.20 0.3429
691.30 0.3427
691.40 0.3425
691.50 0.3424
691.60 0.3422
691.70 0.342
691.80 0.3419
691.90 0.3417
692.00 0.3415
692.10 0.3414
692.20 0.3412
692.30 0.341
692.40 0.3409
692.50 0.3407
692.60 0.3405
692.70 0.3404
692.80 0.3402
692.90 0.34
693.00 0.3399
693.10 0.3397
693.20 0.3395
693.30 0.3394
693.40 0.3392
693.50 0.339
693.60 0.3389
693.70 0.3387
693.80 0.3386
693.90 0.3384
694.00 0.3382
694.10 0.3381
694.20 0.3379
694.30 0.3377
694.40 0.3376
694.50 0.3374
694.60 0.3372
694.70 0.3371
694.80 0.3369
694.90 0.3368
695.00 0.3366
695.10 0.3364
695.20 0.3363
695.30 0.3361
695.40 0.3359
695.50 0.3358
695.60 0.3356
695.70 0.3355
695.80 0.3353
695.90 0.3351
696.00 0.335
696.10 0.3348
696.20 0.3346
696.30 0.3345
696.40 0.3343
696.50 0.3342
696.60 0.334
696.70 0.3338
696.80 0.3337
696.90 0.3335
697.00 0.3333
697.10 0.3332
697.20 0.333
697.30 0.3329
697.40 0.3327
697.50 0.3325
697.60 0.3324
697.70 0.3322
697.80 0.3321
697.90 0.3319
698.00 0.3317
698.10 0.3316
698.20 0.3314
698.30 0.3313
698.40 0.3311
698.50 0.3309
698.60 0.3308
698.70 0.3306
698.80 0.3305
698.90 0.3303
699.00 0.3301
699.10 0.33
699.20 0.3298
699.30 0.3297
699.40 0.3295
699.50 0.3293
699.60 0.3292
699.70 0.329
699.80 0.3289
699.90 0.3287
700.00 0.3285
700.10 0.3284
700.20 0.3282
700.30 0.328
700.40 0.3279
700.50 0.3277
700.60 0.3275
700.70 0.3274
700.80 0.3272
700.90 0.3271
701.00 0.3269
701.10 0.3267
701.20 0.3266
701.30 0.3264
701.40 0.3262
701.50 0.3261
701.60 0.3259
701.70 0.3257
701.80 0.3256
701.90 0.3254
702.00 0.3252
702.10 0.3251
702.20 0.3249
702.30 0.3248
702.40 0.3246
702.50 0.3244
702.60 0.3243
702.70 0.3241
702.80 0.3239
702.90 0.3238
703.00 0.3236
703.10 0.3234
703.20 0.3233
703.30 0.3231
703.40 0.323
703.50 0.3228
703.60 0.3226
703.70 0.3225
703.80 0.3223
703.90 0.3221
704.00 0.322
704.10 0.3218
704.20 0.3217
704.30 0.3215
704.40 0.3213
704.50 0.3212
704.60 0.321
704.70 0.3208
704.80 0.3207
704.90 0.3205
705.00 0.3204
705.10 0.3202
705.20 0.3201
705.30 0.3199
705.40 0.3197
705.50 0.3196
705.60 0.3194
705.70 0.3193
705.80 0.3191
705.90 0.319
706.00 0.3188
706.10 0.3187
706.20 0.3185
706.30 0.3184
706.40 0.3182
706.50 0.3181
706.60 0.3179
706.70 0.3178
706.80 0.3176
706.90 0.3175
707.00 0.3173
707.10 0.3171
707.20 0.317
707.30 0.3168
707.40 0.3167
707.50 0.3165
707.60 0.3164
707.70 0.3162
707.80 0.3161
707.90 0.3159
708.00 0.3158
708.10 0.3156
708.20 0.3155
708.30 0.3153
708.40 0.3152
708.50 0.315
708.60 0.3149
708.70 0.3147
708.80 0.3146
708.90 0.3144
709.00 0.3143
709.10 0.3141
709.20 0.314
709.30 0.3138
709.40 0.3137
709.50 0.3135
709.60 0.3134
709.70 0.3132
709.80 0.3131
709.90 0.3129
710.00 0.3128
710.10 0.3126
710.20 0.3125
710.30 0.3123
710.40 0.3122
710.50 0.312
710.60 0.3119
710.70 0.3117
710.80 0.3116
710.90 0.3114
711.00 0.3113
711.10 0.3111
711.20 0.311
711.30 0.3108
711.40 0.3107
711.50 0.3105
711.60 0.3104
711.70 0.3102
711.80 0.3101
711.90 0.3099
712.00 0.3098
712.10 0.3096
712.20 0.3095
712.30 0.3093
712.40 0.3092
712.50 0.309
712.60 0.3089
712.70 0.3088
712.80 0.3086
712.90 0.3085
713.00 0.3083
713.10 0.3082
713.20 0.308
713.30 0.3079
713.40 0.3077
713.50 0.3076
713.60 0.3074
713.70 0.3073
713.80 0.3071
713.90 0.307
714.00 0.3068
714.10 0.3067
714.20 0.3066
714.30 0.3064
714.40 0.3063
714.50 0.3061
714.60 0.306
714.70 0.3058
714.80 0.3057
714.90 0.3055
715.00 0.3054
715.10 0.3052
715.20 0.3051
715.30 0.3049
715.40 0.3048
715.50 0.3047
715.60 0.3045
715.70 0.3044
715.80 0.3042
715.90 0.3041
716.00 0.3039
716.10 0.3038
716.20 0.3037
716.30 0.3035
716.40 0.3034
716.50 0.3032
716.60 0.3031
716.70 0.3029
716.80 0.3028
716.90 0.3027
717.00 0.3025
717.10 0.3024
717.20 0.3022
717.30 0.3021
717.40 0.3019
717.50 0.3018
717.60 0.3017
717.70 0.3015
717.80 0.3014
717.90 0.3012
718.00 0.3011
718.10 0.3009
718.20 0.3008
718.30 0.3007
718.40 0.3005
718.50 0.3004
718.60 0.3002
718.70 0.3001
718.80 0.2999
718.90 0.2998
719.00 0.2997
719.10 0.2995
719.20 0.2994
719.30 0.2992
719.40 0.2991
719.50 0.299
719.60 0.2988
719.70 0.2987
719.80 0.2985
719.90 0.2984
720.00 0.2983
720.10 0.2981
720.20 0.298
720.30 0.2978
720.40 0.2977
720.50 0.2975
720.60 0.2974
720.70 0.2973
720.80 0.2971
720.90 0.297
721.00 0.2968
721.10 0.2967
721.20 0.2966
721.30 0.2964
721.40 0.2963
721.50 0.2961
721.60 0.296
721.70 0.2959
721.80 0.2957
721.90 0.2956
722.00 0.2954
722.10 0.2953
722.20 0.2952
722.30 0.295
722.40 0.2949
722.50 0.2948
722.60 0.2946
722.70 0.2945
722.80 0.2943
722.90 0.2942
723.00 0.2941
723.10 0.2939
723.20 0.2938
723.30 0.2936
723.40 0.2935
723.50 0.2934
723.60 0.2932
723.70 0.2931
723.80 0.2929
723.90 0.2928
724.00 0.2927
724.10 0.2925
724.20 0.2924
724.30 0.2923
724.40 0.2921
724.50 0.292
724.60 0.2918
724.70 0.2917
724.80 0.2916
724.90 0.2914
725.00 0.2913
725.10 0.2912
725.20 0.291
725.30 0.2909
725.40 0.2907
725.50 0.2906
725.60 0.2905
725.70 0.2903
725.80 0.2902
725.90 0.2901
726.00 0.2899
726.10 0.2898
726.20 0.2897
726.30 0.2895
726.40 0.2894
726.50 0.2892
726.60 0.2891
726.70 0.289
726.80 0.2888
726.90 0.2887
727.00 0.2886
727.10 0.2884
727.20 0.2883
727.30 0.2882
727.40 0.288
727.50 0.2879
727.60 0.2878
727.70 0.2876
727.80 0.2875
727.90 0.2874
728.00 0.2872
728.10 0.2871
728.20 0.2869
728.30 0.2868
728.40 0.2867
728.50 0.2865
728.60 0.2864
728.70 0.2863
728.80 0.2861
728.90 0.286
729.00 0.2859
729.10 0.2857
729.20 0.2856
729.30 0.2855
729.40 0.2853
729.50 0.2852
729.60 0.2851
729.70 0.2849
729.80 0.2848
729.90 0.2847
730.00 0.2845
730.10 0.2844
730.20 0.2843
730.30 0.2841
730.40 0.284
730.50 0.2839
730.60 0.2837
730.70 0.2836
730.80 0.2835
730.90 0.2833
731.00 0.2832
731.10 0.2831
731.20 0.2829
731.30 0.2828
731.40 0.2827
731.50 0.2826
731.60 0.2824
731.70 0.2823
731.80 0.2822
731.90 0.282
732.00 0.2819
732.10 0.2818
732.20 0.2816
732.30 0.2815
732.40 0.2814
732.50 0.2812
732.60 0.2811
732.70 0.281
732.80 0.2808
732.90 0.2807
733.00 0.2806
733.10 0.2805
733.20 0.2803
733.30 0.2802
733.40 0.2801
733.50 0.2799
733.60 0.2798
733.70 0.2797
733.80 0.2795
733.90 0.2794
734.00 0.2793
734.10 0.2792
734.20 0.279
734.30 0.2789
734.40 0.2788
734.50 0.2786
734.60 0.2785
734.70 0.2784
734.80 0.2782
734.90 0.2781
735.00 0.278
735.10 0.2779
735.20 0.2777
735.30 0.2776
735.40 0.2775
735.50 0.2773
735.60 0.2772
735.70 0.2771
735.80 0.277
735.90 0.2768
736.00 0.2767
736.10 0.2766
736.20 0.2764
736.30 0.2763
736.40 0.2762
736.50 0.2761
736.60 0.2759
736.70 0.2758
736.80 0.2757
736.90 0.2755
737.00 0.2754
737.10 0.2753
737.20 0.2752
737.30 0.275
737.40 0.2749
737.50 0.2748
737.60 0.2746
737.70 0.2745
737.80 0.2744
737.90 0.2743
738.00 0.2741
738.10 0.274
738.20 0.2739
738.30 0.2738
738.40 0.2736
738.50 0.2735
738.60 0.2734
738.70 0.2732
738.80 0.2731
738.90 0.273
739.00 0.2729
739.10 0.2727
739.20 0.2726
739.30 0.2725
739.40 0.2724
739.50 0.2722
739.60 0.2721
739.70 0.272
739.80 0.2719
739.90 0.2717
740.00 0.2716
740.10 0.2715
740.20 0.2713
740.30 0.2712
740.40 0.2711
740.50 0.271
740.60 0.2708
740.70 0.2707
740.80 0.2706
740.90 0.2705
741.00 0.2704
741.10 0.2702
741.20 0.2701
741.30 0.27
741.40 0.2699
741.50 0.2697
741.60 0.2696
741.70 0.2695
741.80 0.2694
741.90 0.2692
742.00 0.2691
742.10 0.269
742.20 0.2689
742.30 0.2687
742.40 0.2686
742.50 0.2685
742.60 0.2684
742.70 0.2682
742.80 0.2681
742.90 0.268
743.00 0.2679
743.10 0.2678
743.20 0.2676
743.30 0.2675
743.40 0.2674
743.50 0.2673
743.60 0.2671
743.70 0.267
743.80 0.2669
743.90 0.2668
744.00 0.2666
744.10 0.2665
744.20 0.2664
744.30 0.2663
744.40 0.2662
744.50 0.266
744.60 0.2659
744.70 0.2658
744.80 0.2657
744.90 0.2655
745.00 0.2654
745.10 0.2653
745.20 0.2652
745.30 0.2651
745.40 0.2649
745.50 0.2648
745.60 0.2647
745.70 0.2646
745.80 0.2645
745.90 0.2643
746.00 0.2642
746.10 0.2641
746.20 0.264
746.30 0.2638
746.40 0.2637
746.50 0.2636
746.60 0.2635
746.70 0.2634
746.80 0.2632
746.90 0.2631
747.00 0.263
747.10 0.2629
747.20 0.2628
747.30 0.2626
747.40 0.2625
747.50 0.2624
747.60 0.2623
747.70 0.2622
747.80 0.262
747.90 0.2619
748.00 0.2618
748.10 0.2617
748.20 0.2615
748.30 0.2614
748.40 0.2613
748.50 0.2612
748.60 0.2611
748.70 0.2609
748.80 0.2608
748.90 0.2607
749.00 0.2606
749.10 0.2605
749.20 0.2603
749.30 0.2602
749.40 0.2601
749.50 0.26
749.60 0.2599
749.70 0.2598
749.80 0.2596
749.90 0.2595
750.00 0.2594
750.10 0.2593
750.20 0.2592
750.30 0.259
750.40 0.2589
750.50 0.2588
750.60 0.2587
750.70 0.2586
750.80 0.2585
750.90 0.2583
751.00 0.2582
751.10 0.2581
751.20 0.258
751.30 0.2579
751.40 0.2577
751.50 0.2576
751.60 0.2575
751.70 0.2574
751.80 0.2573
751.90 0.2572
752.00 0.257
752.10 0.2569
752.20 0.2568
752.30 0.2567
752.40 0.2566
752.50 0.2565
752.60 0.2563
752.70 0.2562
752.80 0.2561
752.90 0.256
753.00 0.2559
753.10 0.2558
753.20 0.2557
753.30 0.2555
753.40 0.2554
753.50 0.2553
753.60 0.2552
753.70 0.2551
753.80 0.255
753.90 0.2548
754.00 0.2547
754.10 0.2546
754.20 0.2545
754.30 0.2544
754.40 0.2543
754.50 0.2541
754.60 0.254
754.70 0.2539
754.80 0.2538
754.90 0.2537
755.00 0.2536
755.10 0.2535
755.20 0.2533
755.30 0.2532
755.40 0.2531
755.50 0.253
755.60 0.2529
755.70 0.2528
755.80 0.2527
755.90 0.2525
756.00 0.2524
756.10 0.2523
756.20 0.2522
756.30 0.2521
756.40 0.252
756.50 0.2518
756.60 0.2517
756.70 0.2516
756.80 0.2515
756.90 0.2514
757.00 0.2513
757.10 0.2512
757.20 0.2511
757.30 0.2509
757.40 0.2508
757.50 0.2507
757.60 0.2506
757.70 0.2505
757.80 0.2504
757.90 0.2503
758.00 0.2501
758.10 0.25
758.20 0.2499
758.30 0.2498
758.40 0.2497
758.50 0.2496
758.60 0.2495
758.70 0.2493
758.80 0.2492
758.90 0.2491
759.00 0.249
759.10 0.2489
759.20 0.2488
759.30 0.2487
759.40 0.2486
759.50 0.2484
759.60 0.2483
759.70 0.2482
759.80 0.2481
759.90 0.248
760.00 0.2479
760.10 0.2478
760.20 0.2477
760.30 0.2475
760.40 0.2474
760.50 0.2473
760.60 0.2472
760.70 0.2471
760.80 0.247
760.90 0.2469
761.00 0.2468
761.10 0.2467
761.20 0.2465
761.30 0.2464
761.40 0.2463
761.50 0.2462
761.60 0.2461
761.70 0.246
761.80 0.2459
761.90 0.2458
762.00 0.2457
762.10 0.2456
762.20 0.2454
762.30 0.2453
762.40 0.2452
762.50 0.2451
762.60 0.245
762.70 0.2449
762.80 0.2448
762.90 0.2447
763.00 0.2446
763.10 0.2445
763.20 0.2443
763.30 0.2442
763.40 0.2441
763.50 0.244
763.60 0.2439
763.70 0.2438
763.80 0.2437
763.90 0.2436
764.00 0.2435
764.10 0.2434
764.20 0.2432
764.30 0.2431
764.40 0.243
764.50 0.2429
764.60 0.2428
764.70 0.2427
764.80 0.2426
764.90 0.2425
765.00 0.2424
765.10 0.2423
765.20 0.2422
765.30 0.2421
765.40 0.2419
765.50 0.2418
765.60 0.2417
765.70 0.2416
765.80 0.2415
765.90 0.2414
766.00 0.2413
766.10 0.2412
766.20 0.2411
766.30 0.241
766.40 0.2409
766.50 0.2408
766.60 0.2406
766.70 0.2405
766.80 0.2404
766.90 0.2403
767.00 0.2402
767.10 0.2401
767.20 0.24
767.30 0.2399
767.40 0.2398
767.50 0.2397
767.60 0.2396
767.70 0.2395
767.80 0.2393
767.90 0.2392
768.00 0.2391
768.10 0.239
768.20 0.2389
768.30 0.2388
768.40 0.2387
768.50 0.2386
768.60 0.2385
768.70 0.2384
768.80 0.2383
768.90 0.2382
769.00 0.2381
769.10 0.238
769.20 0.2378
769.30 0.2377
769.40 0.2376
769.50 0.2375
769.60 0.2374
769.70 0.2373
769.80 0.2372
769.90 0.2371
770.00 0.237
770.10 0.2369
770.20 0.2368
770.30 0.2367
770.40 0.2366
770.50 0.2365
770.60 0.2364
770.70 0.2363
770.80 0.2362
770.90 0.2361
771.00 0.2359
771.10 0.2358
771.20 0.2357
771.30 0.2356
771.40 0.2355
771.50 0.2354
771.60 0.2353
771.70 0.2352
771.80 0.2351
771.90 0.235
772.00 0.2349
772.10 0.2348
772.20 0.2347
772.30 0.2346
772.40 0.2345
772.50 0.2344
772.60 0.2343
772.70 0.2342
772.80 0.2341
772.90 0.234
773.00 0.2339
773.10 0.2338
773.20 0.2337
773.30 0.2336
773.40 0.2334
773.50 0.2333
773.60 0.2332
773.70 0.2331
773.80 0.233
773.90 0.2329
774.00 0.2328
774.10 0.2327
774.20 0.2326
774.30 0.2325
774.40 0.2324
774.50 0.2323
774.60 0.2322
774.70 0.2321
774.80 0.232
774.90 0.2319
775.00 0.2318
775.10 0.2317
775.20 0.2316
775.30 0.2315
775.40 0.2314
775.50 0.2313
775.60 0.2312
775.70 0.2311
775.80 0.231
775.90 0.2309
776.00 0.2308
776.10 0.2307
776.20 0.2306
776.30 0.2305
776.40 0.2304
776.50 0.2303
776.60 0.2302
776.70 0.2301
776.80 0.23
776.90 0.2299
777.00 0.2297
777.10 0.2296
777.20 0.2295
777.30 0.2294
777.40 0.2293
777.50 0.2292
777.60 0.2291
777.70 0.229
777.80 0.2289
777.90 0.2288
778.00 0.2287
778.10 0.2286
778.20 0.2285
778.30 0.2284
778.40 0.2283
778.50 0.2282
778.60 0.2281
778.70 0.228
778.80 0.2279
778.90 0.2278
779.00 0.2277
779.10 0.2276
779.20 0.2275
779.30 0.2274
779.40 0.2273
779.50 0.2272
779.60 0.2271
779.70 0.227
779.80 0.2269
779.90 0.2268
780.00 0.2267
780.10 0.2266
780.20 0.2265
780.30 0.2264
780.40 0.2263
780.50 0.2262
780.60 0.2261
780.70 0.226
780.80 0.2259
780.90 0.2258
781.00 0.2257
781.10 0.2256
781.20 0.2255
781.30 0.2254
781.40 0.2253
781.50 0.2252
781.60 0.2251
781.70 0.225
781.80 0.2249
781.90 0.2248
782.00 0.2247
782.10 0.2246
782.20 0.2245
782.30 0.2244
782.40 0.2243
782.50 0.2242
782.60 0.2241
782.70 0.224
782.80 0.2239
782.90 0.2238
783.00 0.2237
783.10 0.2236
783.20 0.2236
783.30 0.2235
783.40 0.2234
783.50 0.2233
783.60 0.2232
783.70 0.2231
783.80 0.223
783.90 0.2229
784.00 0.2228
784.10 0.2227
784.20 0.2226
784.30 0.2225
784.40 0.2224
784.50 0.2223
784.60 0.2222
784.70 0.2221
784.80 0.222
784.90 0.2219
785.00 0.2218
785.10 0.2217
785.20 0.2216
785.30 0.2215
785.40 0.2214
785.50 0.2213
785.60 0.2212
785.70 0.2211
785.80 0.221
785.90 0.2209
786.00 0.2208
786.10 0.2207
786.20 0.2206
786.30 0.2205
786.40 0.2204
786.50 0.2203
786.60 0.2202
786.70 0.2201
786.80 0.22
786.90 0.22
787.00 0.2199
787.10 0.2198
787.20 0.2197
787.30 0.2196
787.40 0.2195
787.50 0.2194
787.60 0.2193
787.70 0.2192
787.80 0.2191
787.90 0.219
788.00 0.2189
788.10 0.2188
788.20 0.2187
788.30 0.2186
788.40 0.2185
788.50 0.2184
788.60 0.2183
788.70 0.2182
788.80 0.2181
788.90 0.218
789.00 0.2179
789.10 0.2178
789.20 0.2177
789.30 0.2177
789.40 0.2176
789.50 0.2175
789.60 0.2174
789.70 0.2173
789.80 0.2172
789.90 0.2171
790.00 0.217
790.10 0.2169
790.20 0.2168
790.30 0.2167
790.40 0.2166
790.50 0.2165
790.60 0.2164
790.70 0.2163
790.80 0.2162
790.90 0.2161
791.00 0.216
791.10 0.216
791.20 0.2159
791.30 0.2158
791.40 0.2157
791.50 0.2156
791.60 0.2155
791.70 0.2154
791.80 0.2153
791.90 0.2152
792.00 0.2151
792.10 0.215
792.20 0.2149
792.30 0.2148
792.40 0.2147
792.50 0.2146
792.60 0.2146
792.70 0.2145
792.80 0.2144
792.90 0.2143
793.00 0.2142
793.10 0.2141
793.20 0.214
793.30 0.2139
793.40 0.2138
793.50 0.2137
793.60 0.2136
793.70 0.2135
793.80 0.2134
793.90 0.2133
794.00 0.2133
794.10 0.2132
794.20 0.2131
794.30 0.213
794.40 0.2129
794.50 0.2128
794.60 0.2127
794.70 0.2126
794.80 0.2125
794.90 0.2124
795.00 0.2123
795.10 0.2122
795.20 0.2121
795.30 0.2121
795.40 0.212
795.50 0.2119
795.60 0.2118
795.70 0.2117
795.80 0.2116
795.90 0.2115
796.00 0.2114
796.10 0.2113
796.20 0.2112
796.30 0.2111
796.40 0.211
796.50 0.211
796.60 0.2109
796.70 0.2108
796.80 0.2107
796.90 0.2106
797.00 0.2105
797.10 0.2104
797.20 0.2103
797.30 0.2102
797.40 0.2101
797.50 0.21
797.60 0.2099
797.70 0.2099
797.80 0.2098
797.90 0.2097
798.00 0.2096
798.10 0.2095
798.20 0.2094
798.30 0.2093
798.40 0.2092
798.50 0.2091
798.60 0.209
798.70 0.209
798.80 0.2089
798.90 0.2088
799.00 0.2087
799.10 0.2086
799.20 0.2085
799.30 0.2084
799.40 0.2083
799.50 0.2082
799.60 0.2081
799.70 0.208
799.80 0.208
799.90 0.2079
800.00 0.2078
800.10 0.2077
800.20 0.2076
800.30 0.2075
800.40 0.2074
800.50 0.2073
800.60 0.2072
800.70 0.2072
800.80 0.2071
800.90 0.207
801.00 0.2069
801.10 0.2068
801.20 0.2067
801.30 0.2066
801.40 0.2065
801.50 0.2064
801.60 0.2064
801.70 0.2063
801.80 0.2062
801.90 0.2061
802.00 0.206
802.10 0.2059
802.20 0.2058
802.30 0.2057
802.40 0.2056
802.50 0.2056
802.60 0.2055
802.70 0.2054
802.80 0.2053
802.90 0.2052
803.00 0.2051
803.10 0.205
803.20 0.2049
803.30 0.2049
803.40 0.2048
803.50 0.2047
803.60 0.2046
803.70 0.2045
803.80 0.2044
803.90 0.2043
804.00 0.2042
804.10 0.2042
804.20 0.2041
804.30 0.204
804.40 0.2039
804.50 0.2038
804.60 0.2037
804.70 0.2036
804.80 0.2035
804.90 0.2035
805.00 0.2034
805.10 0.2033
805.20 0.2032
805.30 0.2031
805.40 0.203
805.50 0.2029
805.60 0.2028
805.70 0.2028
805.80 0.2027
805.90 0.2026
806.00 0.2025
806.10 0.2024
806.20 0.2023
806.30 0.2022
806.40 0.2022
806.50 0.2021
806.60 0.202
806.70 0.2019
806.80 0.2018
806.90 0.2017
807.00 0.2016
807.10 0.2015
807.20 0.2015
807.30 0.2014
807.40 0.2013
807.50 0.2012
807.60 0.2011
807.70 0.201
807.80 0.2009
807.90 0.2009
808.00 0.2008
808.10 0.2007
808.20 0.2006
808.30 0.2005
808.40 0.2004
808.50 0.2003
808.60 0.2003
808.70 0.2002
808.80 0.2001
808.90 0.2
809.00 0.1999
809.10 0.1998
809.20 0.1997
809.30 0.1997
809.40 0.1996
809.50 0.1995
809.60 0.1994
809.70 0.1993
809.80 0.1992
809.90 0.1991
810.00 0.1991
810.10 0.199
810.20 0.1989
810.30 0.1988
810.40 0.1987
810.50 0.1986
810.60 0.1986
810.70 0.1985
810.80 0.1984
810.90 0.1983
811.00 0.1982
811.10 0.1981
811.20 0.198
811.30 0.198
811.40 0.1979
811.50 0.1978
811.60 0.1977
811.70 0.1976
811.80 0.1975
811.90 0.1975
812.00 0.1974
812.10 0.1973
812.20 0.1972
812.30 0.1971
812.40 0.197
812.50 0.197
812.60 0.1969
812.70 0.1968
812.80 0.1967
812.90 0.1966
813.00 0.1965
813.10 0.1965
813.20 0.1964
813.30 0.1963
813.40 0.1962
813.50 0.1961
813.60 0.196
813.70 0.196
813.80 0.1959
813.90 0.1958
814.00 0.1957
814.10 0.1956
814.20 0.1955
814.30 0.1955
814.40 0.1954
814.50 0.1953
814.60 0.1952
814.70 0.1951
814.80 0.195
814.90 0.195
815.00 0.1949
815.10 0.1948
815.20 0.1947
815.30 0.1946
815.40 0.1946
815.50 0.1945
815.60 0.1944
815.70 0.1943
815.80 0.1942
815.90 0.1941
816.00 0.1941
816.10 0.194
816.20 0.1939
816.30 0.1938
816.40 0.1937
816.50 0.1936
816.60 0.1936
816.70 0.1935
816.80 0.1934
816.90 0.1933
817.00 0.1932
817.10 0.1932
817.20 0.1931
817.30 0.193
817.40 0.1929
817.50 0.1928
817.60 0.1927
817.70 0.1927
817.80 0.1926
817.90 0.1925
818.00 0.1924
818.10 0.1923
818.20 0.1923
818.30 0.1922
818.40 0.1921
818.50 0.192
818.60 0.1919
818.70 0.1918
818.80 0.1918
818.90 0.1917
819.00 0.1916
819.10 0.1915
819.20 0.1914
819.30 0.1914
819.40 0.1913
819.50 0.1912
819.60 0.1911
819.70 0.191
819.80 0.191
819.90 0.1909
820.00 0.1908
820.10 0.1907
820.20 0.1906
820.30 0.1906
820.40 0.1905
820.50 0.1904
820.60 0.1903
820.70 0.1902
820.80 0.1902
820.90 0.1901
821.00 0.19
821.10 0.1899
821.20 0.1898
821.30 0.1898
821.40 0.1897
821.50 0.1896
821.60 0.1895
821.70 0.1894
821.80 0.1894
821.90 0.1893
822.00 0.1892
822.10 0.1891
822.20 0.189
822.30 0.189
822.40 0.1889
822.50 0.1888
822.60 0.1887
822.70 0.1886
822.80 0.1886
822.90 0.1885
823.00 0.1884
823.10 0.1883
823.20 0.1882
823.30 0.1882
823.40 0.1881
823.50 0.188
823.60 0.1879
823.70 0.1878
823.80 0.1878
823.90 0.1877
824.00 0.1876
824.10 0.1875
824.20 0.1875
824.30 0.1874
824.40 0.1873
824.50 0.1872
824.60 0.1871
824.70 0.1871
824.80 0.187
824.90 0.1869
825.00 0.1868
825.10 0.1867
825.20 0.1867
825.30 0.1866
825.40 0.1865
825.50 0.1864
825.60 0.1864
825.70 0.1863
825.80 0.1862
825.90 0.1861
826.00 0.186
826.10 0.186
826.20 0.1859
826.30 0.1858
826.40 0.1857
826.50 0.1857
826.60 0.1856
826.70 0.1855
826.80 0.1854
826.90 0.1853
827.00 0.1853
827.10 0.1852
827.20 0.1851
827.30 0.185
827.40 0.185
827.50 0.1849
827.60 0.1848
827.70 0.1847
827.80 0.1846
827.90 0.1846
828.00 0.1845
828.10 0.1844
828.20 0.1843
828.30 0.1843
828.40 0.1842
828.50 0.1841
828.60 0.184
828.70 0.184
828.80 0.1839
828.90 0.1838
829.00 0.1837
829.10 0.1836
829.20 0.1836
829.30 0.1835
829.40 0.1834
829.50 0.1833
829.60 0.1833
829.70 0.1832
829.80 0.1831
829.90 0.183
830.00 0.183
830.10 0.1829
830.20 0.1828
830.30 0.1827
830.40 0.1827
830.50 0.1826
830.60 0.1825
830.70 0.1824
830.80 0.1823
830.90 0.1823
831.00 0.1822
831.10 0.1821
831.20 0.182
831.30 0.182
831.40 0.1819
831.50 0.1818
831.60 0.1817
831.70 0.1817
831.80 0.1816
831.90 0.1815
832.00 0.1814
832.10 0.1814
832.20 0.1813
832.30 0.1812
832.40 0.1811
832.50 0.1811
832.60 0.181
832.70 0.1809
832.80 0.1808
832.90 0.1808
833.00 0.1807
833.10 0.1806
833.20 0.1805
833.30 0.1805
833.40 0.1804
833.50 0.1803
833.60 0.1802
833.70 0.1802
833.80 0.1801
833.90 0.18
834.00 0.1799
834.10 0.1799
834.20 0.1798
834.30 0.1797
834.40 0.1796
834.50 0.1796
834.60 0.1795
834.70 0.1794
834.80 0.1793
834.90 0.1793
835.00 0.1792
835.10 0.1791
835.20 0.179
835.30 0.179
835.40 0.1789
835.50 0.1788
835.60 0.1787
835.70 0.1787
835.80 0.1786
835.90 0.1785
836.00 0.1785
836.10 0.1784
836.20 0.1783
836.30 0.1782
836.40 0.1782
836.50 0.1781
836.60 0.178
836.70 0.1779
836.80 0.1779
836.90 0.1778
837.00 0.1777
837.10 0.1776
837.20 0.1776
837.30 0.1775
837.40 0.1774
837.50 0.1773
837.60 0.1773
837.70 0.1772
837.80 0.1771
837.90 0.1771
838.00 0.177
838.10 0.1769
838.20 0.1768
838.30 0.1768
838.40 0.1767
838.50 0.1766
838.60 0.1765
838.70 0.1765
838.80 0.1764
838.90 0.1763
839.00 0.1762
839.10 0.1762
839.20 0.1761
839.30 0.176
839.40 0.176
839.50 0.1759
839.60 0.1758
839.70 0.1757
839.80 0.1757
839.90 0.1756
840.00 0.1755
840.10 0.1754
840.20 0.1754
840.30 0.1753
840.40 0.1752
840.50 0.1752
840.60 0.1751
840.70 0.175
840.80 0.1749
840.90 0.1749
841.00 0.1748
841.10 0.1747
841.20 0.1747
841.30 0.1746
841.40 0.1745
841.50 0.1744
841.60 0.1744
841.70 0.1743
841.80 0.1742
841.90 0.1741
842.00 0.1741
842.10 0.174
842.20 0.1739
842.30 0.1739
842.40 0.1738
842.50 0.1737
842.60 0.1736
842.70 0.1736
842.80 0.1735
842.90 0.1734
843.00 0.1733
843.10 0.1733
843.20 0.1732
843.30 0.1731
843.40 0.173
843.50 0.173
843.60 0.1729
843.70 0.1728
843.80 0.1728
843.90 0.1727
844.00 0.1726
844.10 0.1725
844.20 0.1725
844.30 0.1724
844.40 0.1723
844.50 0.1722
844.60 0.1722
844.70 0.1721
844.80 0.172
844.90 0.172
845.00 0.1719
845.10 0.1718
845.20 0.1717
845.30 0.1717
845.40 0.1716
845.50 0.1715
845.60 0.1714
845.70 0.1714
845.80 0.1713
845.90 0.1712
846.00 0.1712
846.10 0.1711
846.20 0.171
846.30 0.1709
846.40 0.1709
846.50 0.1708
846.60 0.1707
846.70 0.1706
846.80 0.1706
846.90 0.1705
847.00 0.1704
847.10 0.1704
847.20 0.1704
847.30 0.1704
847.40 0.1703
847.50 0.1703
847.60 0.1703
847.70 0.1703
847.80 0.1703
847.90 0.1702
848.00 0.1702
848.10 0.1702
848.20 0.1702
848.30 0.1702
848.40 0.1701
848.50 0.1701
848.60 0.1701
848.70 0.1701
848.80 0.1701
848.90 0.17
849.00 0.17
849.10 0.17
849.20 0.17
849.30 0.17
849.40 0.1699
849.50 0.1699
849.60 0.1699
849.70 0.1699
849.80 0.1699
849.90 0.1698
850.00 0.1698
850.10 0.1698
850.20 0.1698
850.30 0.1698
850.40 0.1697
850.50 0.1697
850.60 0.1697
850.70 0.1697
850.80 0.1697
850.90 0.1696
851.00 0.1696
851.10 0.1696
851.20 0.1696
851.30 0.1696
851.40 0.1695
851.50 0.1695
851.60 0.1695
851.70 0.1695
851.80 0.1695
851.90 0.1694
852.00 0.1694
852.10 0.1694
852.20 0.1694
852.30 0.1693
852.40 0.1693
852.50 0.1692
852.60 0.1692
852.70 0.1692
852.80 0.1691
852.90 0.1691
853.00 0.1691
853.10 0.169
853.20 0.169
853.30 0.169
853.40 0.1689
853.50 0.1689
853.60 0.1688
853.70 0.1688
853.80 0.1688
853.90 0.1687
854.00 0.1687
854.10 0.1687
854.20 0.1686
854.30 0.1686
854.40 0.1686
854.50 0.1685
854.60 0.1685
854.70 0.1684
854.80 0.1684
854.90 0.1684
855.00 0.1683
855.10 0.1683
855.20 0.1683
855.30 0.1682
855.40 0.1682
855.50 0.1682
855.60 0.1681
855.70 0.1681
855.80 0.1681
855.90 0.168
856.00 0.168
856.10 0.1679
856.20 0.1679
856.30 0.1679
856.40 0.1678
856.50 0.1678
856.60 0.1678
856.70 0.1677
856.80 0.1677
856.90 0.1677
857.00 0.1676
857.10 0.1676
857.20 0.1676
857.30 0.1675
857.40 0.1675
857.50 0.1674
857.60 0.1674
857.70 0.1674
857.80 0.1673
857.90 0.1673
858.00 0.1673
858.10 0.1672
858.20 0.1672
858.30 0.1672
858.40 0.1671
858.50 0.1671
858.60 0.1671
858.70 0.167
858.80 0.167
858.90 0.167
859.00 0.1669
859.10 0.1669
859.20 0.1669
859.30 0.1668
859.40 0.1668
859.50 0.1667
859.60 0.1667
859.70 0.1667
859.80 0.1666
859.90 0.1666
860.00 0.1666
860.10 0.1665
860.20 0.1665
860.30 0.1665
860.40 0.1664
860.50 0.1664
860.60 0.1664
860.70 0.1663
860.80 0.1663
860.90 0.1663
861.00 0.1662
861.10 0.1662
861.20 0.1662
861.30 0.1661
861.40 0.1661
861.50 0.1661
861.60 0.166
861.70 0.166
861.80 0.1659
861.90 0.1659
862.00 0.1659
862.10 0.1658
862.20 0.1656
862.30 0.1655
862.40 0.1654
862.50 0.1652
862.60 0.1651
862.70 0.165
862.80 0.1649
862.90 0.1647
863.00 0.1646
863.10 0.1645
863.20 0.1644
863.30 0.1642
863.40 0.1641
863.50 0.164
863.60 0.1639
863.70 0.1637
863.80 0.1636
863.90 0.1635
864.00 0.1634
864.10 0.1632
864.20 0.1631
864.30 0.163
864.40 0.1629
864.50 0.1627
864.60 0.1626
864.70 0.1625
864.80 0.1624
864.90 0.1622
865.00 0.1621
865.10 0.162
865.20 0.1619
865.30 0.1617
865.40 0.1616
865.50 0.1615
865.60 0.1614
865.70 0.1612
865.80 0.1611
865.90 0.161
866.00 0.1609
866.10 0.1607
866.20 0.1606
866.30 0.1605
866.40 0.1604
866.50 0.1603
866.60 0.1601
866.70 0.16
866.80 0.1599
866.90 0.1598
867.00 0.1596
867.10 0.1597
867.20 0.1597
867.30 0.1598
867.40 0.1598
867.50 0.1599
867.60 0.1599
867.70 0.16
867.80 0.16
867.90 0.1601
868.00 0.1601
868.10 0.1602
868.20 0.1602
868.30 0.1602
868.40 0.1603
868.50 0.1603
868.60 0.1604
868.70 0.1604
868.80 0.1605
868.90 0.1605
869.00 0.1606
869.10 0.1606
869.20 0.1607
869.30 0.1607
869.40 0.1608
869.50 0.1608
869.60 0.1609
869.70 0.1609
869.80 0.161
869.90 0.161
870.00 0.161
870.10 0.1611
870.20 0.1611
870.30 0.1612
870.40 0.1612
870.50 0.1613
870.60 0.1613
870.70 0.1614
870.80 0.1614
870.90 0.1615
871.00 0.1615
871.10 0.1616
871.20 0.1616
871.30 0.1617
871.40 0.1617
871.50 0.1617
871.60 0.1618
871.70 0.1618
871.80 0.1619
871.90 0.1619
872.00 0.162
872.10 0.1618
872.20 0.1617
872.30 0.1615
872.40 0.1613
872.50 0.1612
872.60 0.161
872.70 0.1608
872.80 0.1607
872.90 0.1605
873.00 0.1604
873.10 0.1602
873.20 0.16
873.30 0.1599
873.40 0.1597
873.50 0.1595
873.60 0.1594
873.70 0.1592
873.80 0.1591
873.90 0.1589
874.00 0.1587
874.10 0.1586
874.20 0.1584
874.30 0.1583
874.40 0.1581
874.50 0.1579
874.60 0.1578
874.70 0.1576
874.80 0.1575
874.90 0.1573
875.00 0.1571
875.10 0.157
875.20 0.1568
875.30 0.1567
875.40 0.1565
875.50 0.1563
875.60 0.1562
875.70 0.156
875.80 0.1559
875.90 0.1557
876.00 0.1555
876.10 0.1554
876.20 0.1552
876.30 0.1551
876.40 0.1549
876.50 0.1547
876.60 0.1546
876.70 0.1544
876.80 0.1543
876.90 0.1541
877.00 0.1539
877.10 0.154
877.20 0.154
877.30 0.1541
877.40 0.1541
877.50 0.1541
877.60 0.1542
877.70 0.1542
877.80 0.1543
877.90 0.1543
878.00 0.1543
878.10 0.1544
878.20 0.1544
878.30 0.1545
878.40 0.1545
878.50 0.1546
878.60 0.1546
878.70 0.1546
878.80 0.1547
878.90 0.1547
879.00 0.1548
879.10 0.1548
879.20 0.1548
879.30 0.1549
879.40 0.1549
879.50 0.155
879.60 0.155
879.70 0.155
879.80 0.1551
879.90 0.1551
880.00 0.1552
880.10 0.1552
880.20 0.1552
880.30 0.1553
880.40 0.1553
880.50 0.1554
880.60 0.1554
880.70 0.1554
880.80 0.1555
880.90 0.1555
881.00 0.1556
881.10 0.1556
881.20 0.1556
881.30 0.1557
881.40 0.1557
881.50 0.1558
881.60 0.1558
881.70 0.1558
881.80 0.1559
881.90 0.1559
882.00 0.156
882.10 0.1555
882.20 0.155
882.30 0.1546
882.40 0.1541
882.50 0.1537
882.60 0.1532
882.70 0.1527
882.80 0.1523
882.90 0.1518
883.00 0.1513
883.10 0.1509
883.20 0.1504
883.30 0.15
883.40 0.1495
883.50 0.149
883.60 0.1486
883.70 0.1481
883.80 0.1477
883.90 0.1472
884.00 0.1467
884.10 0.1463
884.20 0.1458
884.30 0.1454
884.40 0.1449
884.50 0.1445
884.60 0.144
884.70 0.1435
884.80 0.1431
884.90 0.1426
885.00 0.1422
885.10 0.1417
885.20 0.1413
885.30 0.1408
885.40 0.1403
885.50 0.1399
885.60 0.1394
885.70 0.139
885.80 0.1385
885.90 0.1381
886.00 0.1376
886.10 0.1372
886.20 0.1367
886.30 0.1363
886.40 0.1358
886.50 0.1353
886.60 0.1349
886.70 0.1344
886.80 0.134
886.90 0.1335
887.00 0.1331
887.10 0.1334
887.20 0.1338
887.30 0.1341
887.40 0.1345
887.50 0.1348
887.60 0.1352
887.70 0.1355
887.80 0.1358
887.90 0.1362
888.00 0.1365
888.10 0.1369
888.20 0.1372
888.30 0.1376
888.40 0.1379
888.50 0.1382
888.60 0.1386
888.70 0.1389
888.80 0.1393
888.90 0.1396
889.00 0.14
889.10 0.1403
889.20 0.1406
889.30 0.141
889.40 0.1413
889.50 0.1417
889.60 0.142
889.70 0.1424
889.80 0.1427
889.90 0.143
890.00 0.1434
890.10 0.1437
890.20 0.1441
890.30 0.1444
890.40 0.1447
890.50 0.1451
890.60 0.1454
890.70 0.1458
890.80 0.1461
890.90 0.1464
891.00 0.1468
891.10 0.1471
891.20 0.1475
891.30 0.1478
891.40 0.1481
891.50 0.1485
891.60 0.1488
891.70 0.1491
891.80 0.1495
891.90 0.1498
892.00 0.1502
892.10 0.15
892.20 0.1499
892.30 0.1497
892.40 0.1495
892.50 0.1494
892.60 0.1492
892.70 0.1491
892.80 0.1489
892.90 0.1488
893.00 0.1486
893.10 0.1485
893.20 0.1483
893.30 0.1482
893.40 0.148
893.50 0.1479
893.60 0.1477
893.70 0.1475
893.80 0.1474
893.90 0.1472
894.00 0.1471
894.10 0.1469
894.20 0.1468
894.30 0.1466
894.40 0.1465
894.50 0.1463
894.60 0.1462
894.70 0.146
894.80 0.1459
894.90 0.1457
895.00 0.1456
895.10 0.1454
895.20 0.1453
895.30 0.1451
895.40 0.1449
895.50 0.1448
895.60 0.1446
895.70 0.1445
895.80 0.1443
895.90 0.1442
896.00 0.144
896.10 0.1439
896.20 0.1437
896.30 0.1436
896.40 0.1434
896.50 0.1433
896.60 0.1431
896.70 0.143
896.80 0.1428
896.90 0.1427
897.00 0.1425
897.10 0.142
897.20 0.1415
897.30 0.141
897.40 0.1405
897.50 0.14
897.60 0.1395
897.70 0.139
897.80 0.1385
897.90 0.1381
898.00 0.1376
898.10 0.1371
898.20 0.1366
898.30 0.1361
898.40 0.1356
898.50 0.1351
898.60 0.1346
898.70 0.1341
898.80 0.1336
898.90 0.1331
899.00 0.1326
899.10 0.1321
899.20 0.1316
899.30 0.1311
899.40 0.1306
899.50 0.1302
899.60 0.1297
899.70 0.1292
899.80 0.1287
899.90 0.1282
900.00 0.1277
900.10 0.1272
900.20 0.1267
900.30 0.1262
900.40 0.1257
900.50 0.1252
900.60 0.1248
900.70 0.1243
900.80 0.1238
900.90 0.1233
901.00 0.1228
901.10 0.1223
901.20 0.1218
901.30 0.1213
901.40 0.1208
901.50 0.1204
901.60 0.1199
901.70 0.1194
901.80 0.1189
901.90 0.1184
902.00 0.1179
902.10 0.1183
902.20 0.1187
902.30 0.1191
902.40 0.1195
902.50 0.1199
902.60 0.1203
902.70 0.1207
902.80 0.1211
902.90 0.1215
903.00 0.1219
903.10 0.1223
903.20 0.1227
903.30 0.1231
903.40 0.1235
903.50 0.1239
903.60 0.1243
903.70 0.1247
903.80 0.1251
903.90 0.1255
904.00 0.1259
904.10 0.1263
904.20 0.1267
904.30 0.1271
904.40 0.1275
904.50 0.1279
904.60 0.1283
904.70 0.1287
904.80 0.1291
904.90 0.1295
905.00 0.1299
905.10 0.1303
905.20 0.1307
905.30 0.1311
905.40 0.1315
905.50 0.1319
905.60 0.1323
905.70 0.1327
905.80 0.1331
905.90 0.1335
906.00 0.1339
906.10 0.1343
906.20 0.1347
906.30 0.1351
906.40 0.1355
906.50 0.1358
906.60 0.1362
906.70 0.1366
906.80 0.137
906.90 0.1374
907.00 0.1378
907.10 0.1379
907.20 0.1379
907.30 0.138
907.40 0.138
907.50 0.1381
907.60 0.1382
907.70 0.1382
907.80 0.1383
907.90 0.1383
908.00 0.1384
908.10 0.1384
908.20 0.1385
908.30 0.1385
908.40 0.1386
908.50 0.1386
908.60 0.1387
908.70 0.1388
908.80 0.1388
908.90 0.1389
909.00 0.1389
909.10 0.139
909.20 0.139
909.30 0.1391
909.40 0.1391
909.50 0.1392
909.60 0.1393
909.70 0.1393
909.80 0.1394
909.90 0.1394
910.00 0.1395
910.10 0.1395
910.20 0.1396
910.30 0.1396
910.40 0.1397
910.50 0.1397
910.60 0.1398
910.70 0.1399
910.80 0.1399
910.90 0.14
911.00 0.14
911.10 0.1401
911.20 0.1401
911.30 0.1402
911.40 0.1402
911.50 0.1403
911.60 0.1403
911.70 0.1404
911.80 0.1405
911.90 0.1405
912.00 0.1406
912.10 0.1404
912.20 0.1402
912.30 0.14
912.40 0.1398
912.50 0.1396
912.60 0.1394
912.70 0.1392
912.80 0.139
912.90 0.1388
913.00 0.1386
913.10 0.1384
913.20 0.1382
913.30 0.1381
913.40 0.1379
913.50 0.1377
913.60 0.1375
913.70 0.1373
913.80 0.1371
913.90 0.1369
914.00 0.1367
914.10 0.1365
914.20 0.1363
914.30 0.1361
914.40 0.1359
914.50 0.1358
914.60 0.1356
914.70 0.1354
914.80 0.1352
914.90 0.135
915.00 0.1348
915.10 0.1346
915.20 0.1344
915.30 0.1342
915.40 0.134
915.50 0.1338
915.60 0.1337
915.70 0.1335
915.80 0.1333
915.90 0.1331
916.00 0.1329
916.10 0.1327
916.20 0.1325
916.30 0.1323
916.40 0.1321
916.50 0.1319
916.60 0.1318
916.70 0.1316
916.80 0.1314
916.90 0.1312
917.00 0.131
917.10 0.1305
917.20 0.1299
917.30 0.1294
917.40 0.1288
917.50 0.1283
917.60 0.1277
917.70 0.1272
917.80 0.1266
917.90 0.1261
918.00 0.1255
918.10 0.125
918.20 0.1245
918.30 0.1239
918.40 0.1234
918.50 0.1228
918.60 0.1223
918.70 0.1217
918.80 0.1212
918.90 0.1207
919.00 0.1201
919.10 0.1196
919.20 0.119
919.30 0.1185
919.40 0.118
919.50 0.1174
919.60 0.1169
919.70 0.1163
919.80 0.1158
919.90 0.1153
920.00 0.1147
920.10 0.1142
920.20 0.1136
920.30 0.1131
920.40 0.1126
920.50 0.112
920.60 0.1115
920.70 0.111
920.80 0.1104
920.90 0.1099
921.00 0.1093
921.10 0.1088
921.20 0.1083
921.30 0.1077
921.40 0.1072
921.50 0.1067
921.60 0.1061
921.70 0.1056
921.80 0.1051
921.90 0.1045
922.00 0.104
922.10 0.1044
922.20 0.1047
922.30 0.1051
922.40 0.1055
922.50 0.1058
922.60 0.1062
922.70 0.1066
922.80 0.1069
922.90 0.1073
923.00 0.1077
923.10 0.108
923.20 0.1084
923.30 0.1088
923.40 0.1091
923.50 0.1095
923.60 0.1099
923.70 0.1102
923.80 0.1106
923.90 0.111
924.00 0.1113
924.10 0.1117
924.20 0.1121
924.30 0.1124
924.40 0.1128
924.50 0.1132
924.60 0.1135
924.70 0.1139
924.80 0.1143
924.90 0.1146
925.00 0.115
925.10 0.1154
925.20 0.1157
925.30 0.1161
925.40 0.1165
925.50 0.1168
925.60 0.1172
925.70 0.1176
925.80 0.1179
925.90 0.1183
926.00 0.1186
926.10 0.119
926.20 0.1194
926.30 0.1197
926.40 0.1201
926.50 0.1205
926.60 0.1208
926.70 0.1212
926.80 0.1215
926.90 0.1219
927.00 0.1223
927.10 0.1224
927.20 0.1226
927.30 0.1228
927.40 0.123
927.50 0.1232
927.60 0.1234
927.70 0.1235
927.80 0.1237
927.90 0.1239
928.00 0.1241
928.10 0.1243
928.20 0.1245
928.30 0.1246
928.40 0.1248
928.50 0.125
928.60 0.1252
928.70 0.1254
928.80 0.1255
928.90 0.1257
929.00 0.1259
929.10 0.1261
929.20 0.1263
929.30 0.1264
929.40 0.1266
929.50 0.1268
929.60 0.127
929.70 0.1272
929.80 0.1273
929.90 0.1275
930.00 0.1277
930.10 0.1279
930.20 0.1281
930.30 0.1282
930.40 0.1284
930.50 0.1286
930.60 0.1288
930.70 0.129
930.80 0.1291
930.90 0.1293
931.00 0.1295
931.10 0.1297
931.20 0.1299
931.30 0.13
931.40 0.1302
931.50 0.1304
931.60 0.1306
931.70 0.1308
931.80 0.1309
931.90 0.1311
932.00 0.1313
932.10 0.1313
932.20 0.1314
932.30 0.1314
932.40 0.1314
932.50 0.1315
932.60 0.1315
932.70 0.1315
932.80 0.1316
932.90 0.1316
933.00 0.1316
933.10 0.1316
933.20 0.1317
933.30 0.1317
933.40 0.1317
933.50 0.1318
933.60 0.1318
933.70 0.1318
933.80 0.1319
933.90 0.1319
934.00 0.1319
934.10 0.132
934.20 0.132
934.30 0.132
934.40 0.132
934.50 0.132
934.60 0.132
934.70 0.132
934.80 0.132
934.90 0.1319
935.00 0.1319
935.10 0.1319
935.20 0.1319
935.30 0.1319
935.40 0.1319
935.50 0.1319
935.60 0.1318
935.70 0.1318
935.80 0.1318
935.90 0.1318
936.00 0.1318
936.10 0.1318
936.20 0.1318
936.30 0.1317
936.40 0.1317
936.50 0.1317
936.60 0.1317
936.70 0.1317
936.80 0.1317
936.90 0.1317
937.00 0.1316
937.10 0.1316
937.20 0.1316
937.30 0.1315
937.40 0.1315
937.50 0.1314
937.60 0.1314
937.70 0.1314
937.80 0.1313
937.90 0.1313
938.00 0.1312
938.10 0.1312
938.20 0.1312
938.30 0.1311
938.40 0.1311
938.50 0.131
938.60 0.131
938.70 0.1309
938.80 0.1308
938.90 0.1308
939.00 0.1307
939.10 0.1307
939.20 0.1306
939.30 0.1306
939.40 0.1305
939.50 0.1304
939.60 0.1304
939.70 0.1303
939.80 0.1303
939.90 0.1302
940.00 0.1302
940.10 0.1301
940.20 0.13
940.30 0.13
940.40 0.1299
940.50 0.1298
940.60 0.1298
940.70 0.1297
940.80 0.1296
940.90 0.1295
941.00 0.1295
941.10 0.1294
941.20 0.1293
941.30 0.1292
941.40 0.1291
941.50 0.1291
941.60 0.129
941.70 0.1289
941.80 0.1288
941.90 0.1288
942.00 0.1287
942.10 0.1286
942.20 0.1285
942.30 0.1284
942.40 0.1283
942.50 0.1282
942.60 0.128
942.70 0.1279
942.80 0.1278
942.90 0.1277
943.00 0.1276
943.10 0.1275
943.20 0.1274
943.30 0.1273
943.40 0.1271
943.50 0.127
943.60 0.1269
943.70 0.1268
943.80 0.1267
943.90 0.1266
944.00 0.1265
944.10 0.1263
944.20 0.1262
944.30 0.1261
944.40 0.126
944.50 0.1258
944.60 0.1257
944.70 0.1255
944.80 0.1254
944.90 0.1252
945.00 0.1251
945.10 0.1249
945.20 0.1248
945.30 0.1246
945.40 0.1244
945.50 0.1242
945.60 0.124
945.70 0.1238
945.80 0.1236
945.90 0.1234
946.00 0.1233
946.10 0.1231
946.20 0.1229
946.30 0.1227
946.40 0.1225
946.50 0.1223
946.60 0.1221
946.70 0.1219
946.80 0.1217
946.90 0.1215
947.00 0.1213
947.10 0.1211
947.20 0.1208
947.30 0.1206
947.40 0.1203
947.50 0.12
947.60 0.1197
947.70 0.1194
947.80 0.1191
947.90 0.1188
948.00 0.1185
948.10 0.1182
948.20 0.1178
948.30 0.1175
948.40 0.1172
948.50 0.1169
948.60 0.1166
948.70 0.1163
948.80 0.116
948.90 0.1157
949.00 0.1154
949.10 0.1151
949.20 0.1148
949.30 0.1145
949.40 0.1141
949.50 0.1136
949.60 0.1132
949.70 0.1127
949.80 0.1123
949.90 0.1119
950.00 0.1114
950.10 0.111
950.20 0.1105
950.30 0.1101
950.40 0.1096
950.50 0.1092
950.60 0.1088
950.70 0.1083
950.80 0.1079
950.90 0.1074
951.00 0.107
951.10 0.1065
951.20 0.1061
951.30 0.1057
951.40 0.1051
951.50 0.1046
951.60 0.104
951.70 0.1035
951.80 0.1029
951.90 0.1024
952.00 0.1018
952.10 0.1012
952.20 0.1006
952.30 0.09998
952.40 0.09937
952.50 0.09876
952.60 0.09815
952.70 0.09754
952.80 0.09693
952.90 0.09627
953.00 0.09562
953.10 0.09496
953.20 0.0943
953.30 0.09364
953.40 0.09298
953.50 0.09233
953.60 0.09164
953.70 0.09095
953.80 0.09027
953.90 0.08958
954.00 0.08894
954.10 0.0883
954.20 0.08796
954.30 0.08903
954.40 0.0879
954.50 0.0882
954.60 0.08878
954.70 0.08936
954.80 0.08998
954.90 0.09061
955.00 0.09123
955.10 0.09185
955.20 0.09244
955.30 0.09303
955.40 0.09362
955.50 0.09421
955.60 0.09479
955.70 0.09538
955.80 0.09597
955.90 0.09649
956.00 0.097
956.10 0.09752
956.20 0.09803
956.30 0.09855
956.40 0.09906
956.50 0.09958
956.60 0.1001
956.70 0.1006
956.80 0.1011
956.90 0.1016
957.00 0.1022
957.10 0.1026
957.20 0.1031
957.30 0.1035
957.40 0.1039
957.50 0.1042
957.60 0.1046
957.70 0.1049
957.80 0.1053
957.90 0.1056
958.00 0.106
958.10 0.1063
958.20 0.1067
958.30 0.107
958.40 0.1074
958.50 0.1077
958.60 0.1081
958.70 0.1084
958.80 0.1088
958.90 0.1091
959.00 0.1095
959.10 0.1098
959.20 0.1102
959.30 0.1105
959.40 0.1107
959.50 0.111
959.60 0.1112
959.70 0.1114
959.80 0.1116
959.90 0.1118
960.00 0.112
960.10 0.1122
960.20 0.1124
960.30 0.1126
960.40 0.1128
960.50 0.113
960.60 0.1132
960.70 0.1135
960.80 0.1137
960.90 0.1139
961.00 0.1141
961.10 0.1143
961.20 0.1145
961.30 0.1147
961.40 0.1148
961.50 0.115
961.60 0.1151
961.70 0.1152
961.80 0.1154
961.90 0.1155
962.00 0.1156
962.10 0.1157
962.20 0.1158
962.30 0.1159
962.40 0.116
962.50 0.1161
962.60 0.1162
962.70 0.1163
962.80 0.1164
962.90 0.1165
963.00 0.1166
963.10 0.1167
963.20 0.1168
963.30 0.1169
963.40 0.1169
963.50 0.117
963.60 0.117
963.70 0.1171
963.80 0.1172
963.90 0.1172
964.00 0.1173
964.10 0.1173
964.20 0.1174
964.30 0.1175
964.40 0.1175
964.50 0.1175
964.60 0.1175
964.70 0.1176
964.80 0.1176
964.90 0.1176
965.00 0.1176
965.10 0.1177
965.20 0.1177
965.30 0.1177
965.40 0.1177
965.50 0.1178
965.60 0.1178
965.70 0.1178
965.80 0.1178
965.90 0.1179
966.00 0.1179
966.10 0.1179
966.20 0.1179
966.30 0.118
966.40 0.118
966.50 0.118
966.60 0.118
966.70 0.118
966.80 0.118
966.90 0.118
967.00 0.118
967.10 0.118
967.20 0.118
967.30 0.118
967.40 0.118
967.50 0.118
967.60 0.118
967.70 0.118
967.80 0.118
967.90 0.118
968.00 0.1179
968.10 0.1179
968.20 0.1179
968.30 0.1179
968.40 0.1179
968.50 0.1179
968.60 0.1179
968.70 0.1179
968.80 0.1178
968.90 0.1178
969.00 0.1178
969.10 0.1178
969.20 0.1178
969.30 0.1177
969.40 0.1177
969.50 0.1177
969.60 0.1177
969.70 0.1177
969.80 0.1177
969.90 0.1176
970.00 0.1176
970.10 0.1176
970.20 0.1176
970.30 0.1176
970.40 0.1175
970.50 0.1175
970.60 0.1175
970.70 0.1175
970.80 0.1174
970.90 0.1174
971.00 0.1174
971.10 0.1173
971.20 0.1173
971.30 0.1173
971.40 0.1173
971.50 0.1172
971.60 0.1172
971.70 0.1172
971.80 0.1172
971.90 0.1171
972.00 0.1171
972.10 0.1171
972.20 0.117
972.30 0.117
972.40 0.117
972.50 0.1169
972.60 0.1169
972.70 0.1169
972.80 0.1168
972.90 0.1168
973.00 0.1168
973.10 0.1167
973.20 0.1167
973.30 0.1167
973.40 0.1166
973.50 0.1166
973.60 0.1166
973.70 0.1165
973.80 0.1165
973.90 0.1165
974.00 0.1164
974.10 0.1164
974.20 0.1164
974.30 0.1163
974.40 0.1163
974.50 0.1163
974.60 0.1162
974.70 0.1162
974.80 0.1162
974.90 0.1161
975.00 0.1161
975.10 0.116
975.20 0.116
975.30 0.116
975.40 0.1159
975.50 0.1159
975.60 0.1158
975.70 0.1158
975.80 0.1158
975.90 0.1157
976.00 0.1157
976.10 0.1157
976.20 0.1156
976.30 0.1156
976.40 0.1155
976.50 0.1155
976.60 0.1155
976.70 0.1154
976.80 0.1154
976.90 0.1153
977.00 0.1153
977.10 0.1153
977.20 0.1152
977.30 0.1152
977.40 0.1151
977.50 0.1151
977.60 0.1151
977.70 0.115
977.80 0.115
977.90 0.1149
978.00 0.1149
978.10 0.1148
978.20 0.1148
978.30 0.1148
978.40 0.1147
978.50 0.1147
978.60 0.1146
978.70 0.1146
978.80 0.1145
978.90 0.1145
979.00 0.1145
979.10 0.1144
979.20 0.1144
979.30 0.1143
979.40 0.1143
979.50 0.1142
979.60 0.1142
979.70 0.1142
979.80 0.1141
979.90 0.1141
980.00 0.114
980.10 0.114
980.20 0.1139
980.30 0.1139
980.40 0.1139
980.50 0.1138
980.60 0.1138
980.70 0.1137
980.80 0.1137
980.90 0.1137
981.00 0.1136
981.10 0.1136
981.20 0.1135
981.30 0.1135
981.40 0.1134
981.50 0.1134
981.60 0.1134
981.70 0.1133
981.80 0.1133
981.90 0.1132
982.00 0.1132
982.10 0.1131
982.20 0.1131
982.30 0.113
982.40 0.113
982.50 0.113
982.60 0.1129
982.70 0.1129
982.80 0.1128
982.90 0.1128
983.00 0.1127
983.10 0.1127
983.20 0.1126
983.30 0.1126
983.40 0.1125
983.50 0.1125
983.60 0.1124
983.70 0.1124
983.80 0.1123
983.90 0.1123
984.00 0.1123
984.10 0.1122
984.20 0.1122
984.30 0.1121
984.40 0.1121
984.50 0.112
984.60 0.112
984.70 0.1119
984.80 0.1119
984.90 0.1118
985.00 0.1118
985.10 0.1117
985.20 0.1117
985.30 0.1116
985.40 0.1116
985.50 0.1115
985.60 0.1115
985.70 0.1114
985.80 0.1114
985.90 0.1113
986.00 0.1113
986.10 0.1112
986.20 0.1111
986.30 0.1111
986.40 0.111
986.50 0.111
986.60 0.1109
986.70 0.1109
986.80 0.1108
986.90 0.1108
987.00 0.1107
987.10 0.1107
987.20 0.1106
987.30 0.1106
987.40 0.1105
987.50 0.1105
987.60 0.1104
987.70 0.1103
987.80 0.1103
987.90 0.1102
988.00 0.1102
988.10 0.1101
988.20 0.1101
988.30 0.11
988.40 0.11
988.50 0.1099
988.60 0.1098
988.70 0.1098
988.80 0.1097
988.90 0.1096
989.00 0.1096
989.10 0.1095
989.20 0.1095
989.30 0.1094
989.40 0.1093
989.50 0.1093
989.60 0.1092
989.70 0.1091
989.80 0.1091
989.90 0.109
990.00 0.1089
990.10 0.1089
990.20 0.1088
990.30 0.1087
990.40 0.1087
990.50 0.1086
990.60 0.1085
990.70 0.1085
990.80 0.1084
990.90 0.1083
991.00 0.1082
991.10 0.1082
991.20 0.1081
991.30 0.108
991.40 0.1079
991.50 0.1078
991.60 0.1078
991.70 0.1077
991.80 0.1076
991.90 0.1075
992.00 0.1075
992.10 0.1074
992.20 0.1073
992.30 0.1072
992.40 0.1071
992.50 0.107
992.60 0.107
992.70 0.1069
992.80 0.1067
992.90 0.1066
993.00 0.1065
993.10 0.1064
993.20 0.1063
993.30 0.1062
993.40 0.1061
993.50 0.106
993.60 0.1059
993.70 0.1058
993.80 0.1057
993.90 0.1056
994.00 0.1055
994.10 0.1054
994.20 0.1053
994.30 0.1052
994.40 0.1051
994.50 0.105
994.60 0.1049
994.70 0.1048
994.80 0.1046
994.90 0.1045
995.00 0.1043
995.10 0.1042
995.20 0.1041
995.30 0.1039
995.40 0.1038
995.50 0.1037
995.60 0.1035
995.70 0.1034
995.80 0.1032
995.90 0.1031
996.00 0.1029
996.10 0.1027
996.20 0.1026
996.30 0.1024
996.40 0.1023
996.50 0.1021
996.60 0.1019
996.70 0.1018
996.80 0.1016
996.90 0.1014
997.00 0.1013
997.10 0.1011
997.20 0.1009
997.30 0.1007
997.40 0.1005
997.50 0.1003
997.60 0.1001
997.70 0.09985
997.80 0.0996
997.90 0.09935
998.00 0.0991
998.10 0.09885
998.20 0.0986
998.30 0.09835
998.40 0.09809
998.50 0.09784
998.60 0.09759
998.70 0.09734
998.80 0.09709
998.90 0.09684
999.00 0.09659
999.10 0.09634
999.20 0.09609
999.30 0.09584
999.40 0.09559
999.50 0.09534
999.60 0.09509
999.70 0.09476
999.80 0.0944
999.90 0.09404
1000.00 0.09368
1000.10 0.09333
1000.20 0.09297
1000.30 0.09261
1000.40 0.09225
1000.50 0.0919
1000.60 0.09154
1000.70 0.09118
1000.80 0.09083
1000.90 0.09047
1001.00 0.09011
1001.10 0.08976
1001.20 0.0894
1001.30 0.08904
1001.40 0.08869
1001.50 0.08833
1001.60 0.08798
1001.70 0.08756
1001.80 0.08713
1001.90 0.0867
1002.00 0.08627
1002.10 0.08579
1002.20 0.08531
1002.30 0.08483
1002.40 0.08435
1002.50 0.08386
1002.60 0.08338
1002.70 0.0829
1002.80 0.08242
1002.90 0.08194
1003.00 0.08146
1003.10 0.08098
1003.20 0.08044
1003.30 0.07988
1003.40 0.07932
1003.50 0.07876
1003.60 0.07821
1003.70 0.07765
1003.80 0.07709
1003.90 0.07643
1004.00 0.07573
1004.10 0.07504
1004.20 0.07435
1004.30 0.07345
1004.40 0.07249
1004.50 0.07147
1004.60 0.07112
1004.70 0.07101
1004.80 0.07195
1004.90 0.07287
1005.00 0.07378
1005.10 0.07449
1005.20 0.07513
1005.30 0.07577
1005.40 0.07642
1005.50 0.07695
1005.60 0.07746
1005.70 0.07796
1005.80 0.07846
1005.90 0.07897
1006.00 0.07947
1006.10 0.07997
1006.20 0.08042
1006.30 0.08085
1006.40 0.08127
1006.50 0.0817
1006.60 0.08213
1006.70 0.08256
1006.80 0.08298
1006.90 0.08341
1007.00 0.08384
1007.10 0.08421
1007.20 0.08458
1007.30 0.08496
1007.40 0.08533
1007.50 0.0857
1007.60 0.08607
1007.70 0.08638
1007.80 0.08666
1007.90 0.08695
1008.00 0.08723
1008.10 0.08752
1008.20 0.08781
1008.30 0.08809
1008.40 0.08838
1008.50 0.08866
1008.60 0.08895
1008.70 0.08923
1008.80 0.08951
1008.90 0.0898
1009.00 0.09008
1009.10 0.09037
1009.20 0.09065
1009.30 0.09094
1009.40 0.09122
1009.50 0.0915
1009.60 0.09179
1009.70 0.09199
1009.80 0.09216
1009.90 0.09233
1010.00 0.09251
1010.10 0.09268
1010.20 0.09285
1010.30 0.09303
1010.40 0.0932
1010.50 0.09337
1010.60 0.09355
1010.70 0.09372
1010.80 0.09389
1010.90 0.09407
1011.00 0.09424
1011.10 0.09441
1011.20 0.09458
1011.30 0.09476
1011.40 0.09493
1011.50 0.0951
1011.60 0.09528
1011.70 0.09541
1011.80 0.09552
1011.90 0.09564
1012.00 0.09576
1012.10 0.09585
1012.20 0.09594
1012.30 0.09603
1012.40 0.09612
1012.50 0.09621
1012.60 0.0963
1012.70 0.09639
1012.80 0.09648
1012.90 0.09657
1013.00 0.09665
1013.10 0.09674
1013.20 0.09683
1013.30 0.09692
1013.40 0.09701
1013.50 0.0971
1013.60 0.09719
1013.70 0.09725
1013.80 0.0973
1013.90 0.09735
1014.00 0.0974
1014.10 0.09745
1014.20 0.0975
1014.30 0.09755
1014.40 0.0976
1014.50 0.09765
1014.60 0.0977
1014.70 0.09774
1014.80 0.09776
1014.90 0.09779
1015.00 0.09782
1015.10 0.09785
1015.20 0.09788
1015.30 0.0979
1015.40 0.09793
1015.50 0.09796
1015.60 0.09799
1015.70 0.09801
1015.80 0.09804
1015.90 0.09807
1016.00 0.0981
1016.10 0.09813
1016.20 0.09815
1016.30 0.09818
1016.40 0.09821
1016.50 0.09824
1016.60 0.09826
1016.70 0.09828
1016.80 0.09828
1016.90 0.09829
1017.00 0.0983
1017.10 0.0983
1017.20 0.0983
1017.30 0.0983
1017.40 0.0983
1017.50 0.09831
1017.60 0.09831
1017.70 0.09831
1017.80 0.09831
1017.90 0.09831
1018.00 0.09831
1018.10 0.09831
1018.20 0.09831
1018.30 0.09831
1018.40 0.09831
1018.50 0.09831
1018.60 0.09832
1018.70 0.09831
1018.80 0.0983
1018.90 0.09828
1019.00 0.09827
1019.10 0.09826
1019.20 0.09825
1019.30 0.09824
1019.40 0.09823
1019.50 0.09821
1019.60 0.0982
1019.70 0.09819
1019.80 0.09818
1019.90 0.09817
1020.00 0.09816
1020.10 0.09814
1020.20 0.09813
1020.30 0.09812
1020.40 0.09811
1020.50 0.0981
1020.60 0.09809
1020.70 0.09807
1020.80 0.09805
1020.90 0.09803
1021.00 0.09801
1021.10 0.09799
1021.20 0.09797
1021.30 0.09795
1021.40 0.09793
1021.50 0.09791
1021.60 0.09789
1021.70 0.09787
1021.80 0.09785
1021.90 0.09783
1022.00 0.09782
1022.10 0.09779
1022.20 0.09777
1022.30 0.09774
1022.40 0.09772
1022.50 0.0977
1022.60 0.09767
1022.70 0.09765
1022.80 0.09762
1022.90 0.0976
1023.00 0.09758
1023.10 0.09755
1023.20 0.09753
1023.30 0.0975
1023.40 0.09748
1023.50 0.09746
1023.60 0.09743
1023.70 0.09741
1023.80 0.09738
1023.90 0.09736
1024.00 0.09734
1024.10 0.09731
1024.20 0.09729
1024.30 0.09727
1024.40 0.09724
1024.50 0.09722
1024.60 0.09719
1024.70 0.09717
1024.80 0.09714
1024.90 0.09711
1025.00 0.09708
1025.10 0.09706
1025.20 0.09703
1025.30 0.097
1025.40 0.09697
1025.50 0.09695
1025.60 0.09692
1025.70 0.09689
1025.80 0.09686
1025.90 0.09684
1026.00 0.09681
1026.10 0.09678
1026.20 0.09675
1026.30 0.09673
1026.40 0.0967
1026.50 0.09667
1026.60 0.09664
1026.70 0.09662
1026.80 0.09659
1026.90 0.09656
1027.00 0.09653
1027.10 0.0965
1027.20 0.09647
1027.30 0.09644
1027.40 0.09641
1027.50 0.09638
1027.60 0.09635
1027.70 0.09632
1027.80 0.09629
1027.90 0.09626
1028.00 0.09623
1028.10 0.0962
1028.20 0.09617
1028.30 0.09614
1028.40 0.09611
1028.50 0.09608
1028.60 0.09605
1028.70 0.09602
1028.80 0.09599
1028.90 0.09596
1029.00 0.09593
1029.10 0.0959
1029.20 0.09587
1029.30 0.09584
1029.40 0.09581
1029.50 0.09578
1029.60 0.09575
1029.70 0.09572
1029.80 0.09569
1029.90 0.09566
1030.00 0.09563
1030.10 0.0956
1030.20 0.09557
1030.30 0.09554
1030.40 0.09551
1030.50 0.09548
1030.60 0.09545
1030.70 0.09542
1030.80 0.09539
1030.90 0.09536
1031.00 0.09533
1031.10 0.0953
1031.20 0.09527
1031.30 0.09524
1031.40 0.09521
1031.50 0.09518
1031.60 0.09515
1031.70 0.09512
1031.80 0.09509
1031.90 0.09506
1032.00 0.09503
1032.10 0.095
1032.20 0.09497
1032.30 0.09494
1032.40 0.0949
1032.50 0.09487
1032.60 0.09484
1032.70 0.09481
1032.80 0.09478
1032.90 0.09475
1033.00 0.09472
1033.10 0.09468
1033.20 0.09465
1033.30 0.09462
1033.40 0.09459
1033.50 0.09456
1033.60 0.09453
1033.70 0.09449
1033.80 0.09446
1033.90 0.09443
1034.00 0.0944
1034.10 0.09437
1034.20 0.09434
1034.30 0.09431
1034.40 0.09428
1034.50 0.09424
1034.60 0.09421
1034.70 0.09418
1034.80 0.09415
1034.90 0.09412
1035.00 0.09409
1035.10 0.09406
1035.20 0.09402
1035.30 0.09399
1035.40 0.09396
1035.50 0.09393
1035.60 0.0939
1035.70 0.09387
1035.80 0.09384
1035.90 0.09381
1036.00 0.09378
1036.10 0.09374
1036.20 0.09371
1036.30 0.09368
1036.40 0.09365
1036.50 0.09362
1036.60 0.09359
1036.70 0.09356
1036.80 0.09353
1036.90 0.0935
1037.00 0.09346
1037.10 0.09343
1037.20 0.0934
1037.30 0.09337
1037.40 0.09334
1037.50 0.0933
1037.60 0.09327
1037.70 0.09324
1037.80 0.09321
1037.90 0.09318
1038.00 0.09315
1038.10 0.09311
1038.20 0.09308
1038.30 0.09305
1038.40 0.09302
1038.50 0.09299
1038.60 0.09296
1038.70 0.09292
1038.80 0.09289
1038.90 0.09286
1039.00 0.09283
1039.10 0.0928
1039.20 0.09277
1039.30 0.09273
1039.40 0.0927
1039.50 0.09267
1039.60 0.09264
1039.70 0.09261
1039.80 0.09258
1039.90 0.09254
1040.00 0.09251
1040.10 0.09248
1040.20 0.09245
1040.30 0.09242
1040.40 0.09239
1040.50 0.09236
1040.60 0.09232
1040.70 0.09229
1040.80 0.09226
1040.90 0.09223
1041.00 0.0922
1041.10 0.09217
1041.20 0.09214
1041.30 0.0921
1041.40 0.09207
1041.50 0.09204
1041.60 0.09201
1041.70 0.09198
1041.80 0.09195
1041.90 0.09192
1042.00 0.09188
1042.10 0.09185
1042.20 0.09182
1042.30 0.09179
1042.40 0.09176
1042.50 0.09173
1042.60 0.09169
1042.70 0.09166
1042.80 0.09163
1042.90 0.0916
1043.00 0.09157
1043.10 0.09154
1043.20 0.09151
1043.30 0.09147
1043.40 0.09144
1043.50 0.09141
1043.60 0.09138
1043.70 0.09135
1043.80 0.09132
1043.90 0.09128
1044.00 0.09125
1044.10 0.09122
1044.20 0.09119
1044.30 0.09116
1044.40 0.09113
1044.50 0.0911
1044.60 0.09106
1044.70 0.09103
1044.80 0.091
1044.90 0.09097
1045.00 0.09094
1045.10 0.09091
1045.20 0.09088
1045.30 0.09084
1045.40 0.09081
1045.50 0.09078
1045.60 0.09075
1045.70 0.09072
1045.80 0.09069
1045.90 0.09066
1046.00 0.09063
1046.10 0.09059
1046.20 0.09056
1046.30 0.09053
1046.40 0.0905
1046.50 0.09047
1046.60 0.09044
1046.70 0.09041
1046.80 0.09038
1046.90 0.09034
1047.00 0.09031
1047.10 0.09028
1047.20 0.09025
1047.30 0.09022
1047.40 0.09019
1047.50 0.09016
1047.60 0.09012
1047.70 0.09009
1047.80 0.09006
1047.90 0.09003
1048.00 0.09
1048.10 0.08997
1048.20 0.08994
1048.30 0.08991
1048.40 0.08987
1048.50 0.08984
1048.60 0.08981
1048.70 0.08978
1048.80 0.08975
1048.90 0.08972
1049.00 0.08969
1049.10 0.08966
1049.20 0.08962
1049.30 0.08959
1049.40 0.08956
1049.50 0.08953
1049.60 0.0895
1049.70 0.08947
1049.80 0.08944
1049.90 0.08941
1050.00 0.08937
1050.10 0.08934
1050.20 0.08931
1050.30 0.08928
1050.40 0.08925
1050.50 0.08922
1050.60 0.08919
1050.70 0.08916
1050.80 0.08913
1050.90 0.0891
1051.00 0.08906
1051.10 0.08903
1051.20 0.089
1051.30 0.08897
1051.40 0.08894
1051.50 0.08891
1051.60 0.08888
1051.70 0.08885
1051.80 0.08882
1051.90 0.08879
1052.00 0.08875
1052.10 0.08872
1052.20 0.08869
1052.30 0.08866
1052.40 0.08863
1052.50 0.0886
1052.60 0.08857
1052.70 0.08854
1052.80 0.08851
1052.90 0.08847
1053.00 0.08844
1053.10 0.08841
1053.20 0.08838
1053.30 0.08835
1053.40 0.08832
1053.50 0.08829
1053.60 0.08826
1053.70 0.08823
1053.80 0.08819
1053.90 0.08816
1054.00 0.08813
1054.10 0.0881
1054.20 0.08807
1054.30 0.08804
1054.40 0.08801
1054.50 0.08798
1054.60 0.08795
1054.70 0.08792
1054.80 0.08789
1054.90 0.08785
1055.00 0.08782
1055.10 0.08779
1055.20 0.08776
1055.30 0.08773
1055.40 0.0877
1055.50 0.08767
1055.60 0.08764
1055.70 0.08761
1055.80 0.08758
1055.90 0.08755
1056.00 0.08752
1056.10 0.08748
1056.20 0.08745
1056.30 0.08742
1056.40 0.08739
1056.50 0.08736
1056.60 0.08733
1056.70 0.0873
1056.80 0.08727
1056.90 0.08724
1057.00 0.08721
1057.10 0.08718
1057.20 0.08715
1057.30 0.08711
1057.40 0.08708
1057.50 0.08705
1057.60 0.08702
1057.70 0.08699
1057.80 0.08696
1057.90 0.08693
1058.00 0.0869
1058.10 0.08687
1058.20 0.08684
1058.30 0.0868
1058.40 0.08677
1058.50 0.08674
1058.60 0.08671
1058.70 0.08668
1058.80 0.08665
1058.90 0.08662
1059.00 0.08659
1059.10 0.08656
1059.20 0.08653
1059.30 0.0865
1059.40 0.08646
1059.50 0.08643
1059.60 0.0864
1059.70 0.08637
1059.80 0.08634
1059.90 0.08631
1060.00 0.08628
1060.10 0.08625
1060.20 0.08622
1060.30 0.08619
1060.40 0.08616
1060.50 0.08613
1060.60 0.0861
1060.70 0.08606
1060.80 0.08603
1060.90 0.086
1061.00 0.08597
1061.10 0.08594
1061.20 0.08591
1061.30 0.08588
1061.40 0.08585
1061.50 0.08582
1061.60 0.08579
1061.70 0.08576
1061.80 0.08573
1061.90 0.0857
1062.00 0.08567
1062.10 0.08564
1062.20 0.0856
1062.30 0.08557
1062.40 0.08554
1062.50 0.08551
1062.60 0.08548
1062.70 0.08545
1062.80 0.08542
1062.90 0.08538
1063.00 0.08535
1063.10 0.08532
1063.20 0.08529
1063.30 0.08526
1063.40 0.08523
1063.50 0.0852
1063.60 0.08517
1063.70 0.08513
1063.80 0.0851
1063.90 0.08507
1064.00 0.08504
1064.10 0.08501
1064.20 0.08498
1064.30 0.08495
1064.40 0.08492
1064.50 0.08488
1064.60 0.08485
1064.70 0.08482
1064.80 0.08479
1064.90 0.08476
1065.00 0.08473
1065.10 0.0847
1065.20 0.08467
1065.30 0.08464
1065.40 0.0846
1065.50 0.08457
1065.60 0.08454
1065.70 0.08451
1065.80 0.08448
1065.90 0.08445
1066.00 0.08442
1066.10 0.08439
1066.20 0.08436
1066.30 0.08433
1066.40 0.08429
1066.50 0.08426
1066.60 0.08423
1066.70 0.0842
1066.80 0.08417
1066.90 0.08414
1067.00 0.08411
1067.10 0.08408
1067.20 0.08404
1067.30 0.08401
1067.40 0.08398
1067.50 0.08395
1067.60 0.08391
1067.70 0.08388
1067.80 0.08385
1067.90 0.08382
1068.00 0.08378
1068.10 0.08375
1068.20 0.08372
1068.30 0.08369
1068.40 0.08365
1068.50 0.08362
1068.60 0.08359
1068.70 0.08356
1068.80 0.08352
1068.90 0.08349
1069.00 0.08346
1069.10 0.08343
1069.20 0.08339
1069.30 0.08336
1069.40 0.08333
1069.50 0.0833
1069.60 0.08326
1069.70 0.08323
1069.80 0.0832
1069.90 0.08317
1070.00 0.08313
1070.10 0.0831
1070.20 0.08307
1070.30 0.08304
1070.40 0.083
1070.50 0.08297
1070.60 0.08294
1070.70 0.08291
1070.80 0.08287
1070.90 0.08284
1071.00 0.08281
1071.10 0.08278
1071.20 0.08275
1071.30 0.08271
1071.40 0.08268
1071.50 0.08265
1071.60 0.08262
1071.70 0.08258
1071.80 0.08255
1071.90 0.08252
1072.00 0.08249
1072.10 0.08245
1072.20 0.08242
1072.30 0.08239
1072.40 0.08235
1072.50 0.08232
1072.60 0.08228
1072.70 0.08225
1072.80 0.08221
1072.90 0.08218
1073.00 0.08215
1073.10 0.08211
1073.20 0.08208
1073.30 0.08204
1073.40 0.08201
1073.50 0.08197
1073.60 0.08194
1073.70 0.0819
1073.80 0.08186
1073.90 0.08182
1074.00 0.08179
1074.10 0.08175
1074.20 0.08171
1074.30 0.08167
1074.40 0.08164
1074.50 0.0816
1074.60 0.08156
1074.70 0.08152
1074.80 0.08149
1074.90 0.08145
1075.00 0.08141
1075.10 0.08138
1075.20 0.08134
1075.30 0.0813
1075.40 0.08126
1075.50 0.08123
1075.60 0.08119
1075.70 0.08115
1075.80 0.08111
1075.90 0.08108
1076.00 0.08104
1076.10 0.081
1076.20 0.08097
1076.30 0.08093
1076.40 0.08089
1076.50 0.08085
1076.60 0.08082
1076.70 0.08078
1076.80 0.08074
1076.90 0.08071
1077.00 0.08067
1077.10 0.08063
1077.20 0.08059
1077.30 0.08055
1077.40 0.0805
1077.50 0.08046
1077.60 0.08042
1077.70 0.08037
1077.80 0.08033
1077.90 0.08028
1078.00 0.08024
1078.10 0.08019
1078.20 0.08015
1078.30 0.0801
1078.40 0.08006
1078.50 0.08001
1078.60 0.07997
1078.70 0.07992
1078.80 0.07988
1078.90 0.07983
1079.00 0.07979
1079.10 0.07974
1079.20 0.0797
1079.30 0.07966
1079.40 0.07961
1079.50 0.07956
1079.60 0.07951
1079.70 0.07946
1079.80 0.0794
1079.90 0.07935
1080.00 0.07929
1080.10 0.07924
1080.20 0.07919
1080.30 0.07913
1080.40 0.07908
1080.50 0.07902
1080.60 0.07897
1080.70 0.07892
1080.80 0.07886
1080.90 0.07881
1081.00 0.07876
1081.10 0.0787
1081.20 0.07865
1081.30 0.07859
1081.40 0.07854
1081.50 0.07848
1081.60 0.07842
1081.70 0.07836
1081.80 0.0783
1081.90 0.07824
1082.00 0.07818
1082.10 0.07811
1082.20 0.07804
1082.30 0.07796
1082.40 0.07789
1082.50 0.07782
1082.60 0.07775
1082.70 0.07767
1082.80 0.0776
1082.90 0.07753
1083.00 0.07746
1083.10 0.07739
1083.20 0.07731
1083.30 0.07724
1083.40 0.07717
1083.50 0.07709
1083.60 0.077
1083.70 0.07692
1083.80 0.07683
1083.90 0.07674
1084.00 0.07665
1084.10 0.07656
1084.20 0.07647
1084.30 0.07638
1084.40 0.0763
1084.50 0.0762
1084.60 0.07609
1084.70 0.07597
1084.80 0.07586
1084.90 0.07575
1085.00 0.07563
1085.10 0.07552
1085.20 0.07541
1085.30 0.0753
1085.40 0.07518
1085.50 0.07507
1085.60 0.07496
1085.70 0.07485
1085.80 0.07473
1085.90 0.07462
1086.00 0.07451
1086.10 0.0744
1086.20 0.07428
1086.30 0.07417
1086.40 0.07406
1086.50 0.07394
1086.60 0.07379
1086.70 0.07364
1086.80 0.07349
1086.90 0.07334
1087.00 0.07319
1087.10 0.07302
1087.20 0.07284
1087.30 0.07267
1087.40 0.07249
1087.50 0.07232
1087.60 0.07214
1087.70 0.07197
1087.80 0.07179
1087.90 0.07162
1088.00 0.07144
1088.10 0.07127
1088.20 0.0711
1088.30 0.07092
1088.40 0.07075
1088.50 0.07055
1088.60 0.07031
1088.70 0.07007
1088.80 0.06983
1088.90 0.06959
1089.00 0.06935
1089.10 0.06911
1089.20 0.06887
1089.30 0.06863
1089.40 0.06839
1089.50 0.06815
1089.60 0.06791
1089.70 0.06767
1089.80 0.06743
1089.90 0.06719
1090.00 0.06695
1090.10 0.06671
1090.20 0.06647
1090.30 0.06623
1090.40 0.06599
1090.50 0.06572
1090.60 0.0654
1090.70 0.06508
1090.80 0.06476
1090.90 0.06443
1091.00 0.06411
1091.10 0.06379
1091.20 0.06347
1091.30 0.06315
1091.40 0.06282
1091.50 0.0625
1091.60 0.06218
1091.70 0.06186
1091.80 0.06154
1091.90 0.06122
1092.00 0.06088
1092.10 0.06048
1092.20 0.06008
1092.30 0.05968
1092.40 0.05928
1092.50 0.05888
1092.60 0.05848
1092.70 0.05803
1092.80 0.05747
1092.90 0.05692
1093.00 0.05637
1093.10 0.05568
1093.20 0.0547
1093.30 0.05368
1093.40 0.0522
1093.50 0.05189
1093.60 0.05312
1093.70 0.05428
1093.80 0.05522
1093.90 0.05603
1094.00 0.05654
1094.10 0.05706
1094.20 0.05758
1094.30 0.05804
1094.40 0.0584
1094.50 0.05876
1094.60 0.05912
1094.70 0.05948
1094.80 0.05984
1094.90 0.0602
1095.00 0.06054
1095.10 0.06082
1095.20 0.06109
1095.30 0.06137
1095.40 0.06165
1095.50 0.06193
1095.60 0.06221
1095.70 0.06248
1095.80 0.06276
1095.90 0.06304
1096.00 0.06332
1096.10 0.06359
1096.20 0.06387
1096.30 0.06415
1096.40 0.06443
1096.50 0.06469
1096.60 0.06491
1096.70 0.06513
1096.80 0.06535
1096.90 0.06558
1097.00 0.0658
1097.10 0.06598
1097.20 0.06616
1097.30 0.06634
1097.40 0.06651
1097.50 0.06669
1097.60 0.06687
1097.70 0.06705
1097.80 0.06723
1097.90 0.06741
1098.00 0.06759
1098.10 0.06776
1098.20 0.06794
1098.30 0.06812
1098.40 0.0683
1098.50 0.06846
1098.60 0.06857
1098.70 0.06869
1098.80 0.0688
1098.90 0.06892
1099.00 0.06903
1099.10 0.06915
1099.20 0.06926
1099.30 0.06937
1099.40 0.06949
1099.50 0.0696
1099.60 0.06972
1099.70 0.06983
1099.80 0.06995
1099.90 0.07006
1100.00 0.07018
1100.10 0.07029
1100.20 0.0704
1100.30 0.07052
1100.40 0.07063
1100.50 0.07073
1100.60 0.0708
1100.70 0.07086
1100.80 0.07092
1100.90 0.07099
1101.00 0.07105
1101.10 0.07111
1101.20 0.07118
1101.30 0.07124
1101.40 0.07131
1101.50 0.07137
1101.60 0.07143
1101.70 0.0715
1101.80 0.07156
1101.90 0.07162
1102.00 0.07169
1102.10 0.07173
1102.20 0.07177
1102.30 0.07181
1102.40 0.07185
1102.50 0.07189
1102.60 0.07193
1102.70 0.07196
1102.80 0.072
1102.90 0.07203
1103.00 0.07207
1103.10 0.0721
1103.20 0.07213
1103.30 0.07217
1103.40 0.0722
1103.50 0.07223
1103.60 0.07225
1103.70 0.07226
1103.80 0.07228
1103.90 0.07229
1104.00 0.07231
1104.10 0.07232
1104.20 0.07234
1104.30 0.07235
1104.40 0.07237
1104.50 0.07238
1104.60 0.0724
1104.70 0.07241
1104.80 0.07243
1104.90 0.07244
1105.00 0.07246
1105.10 0.07247
1105.20 0.07249
1105.30 0.0725
1105.40 0.07252
1105.50 0.07253
1105.60 0.07253
1105.70 0.07253
1105.80 0.07253
1105.90 0.07254
1106.00 0.07254
1106.10 0.07254
1106.20 0.07254
1106.30 0.07254
1106.40 0.07254
1106.50 0.07255
1106.60 0.07255
1106.70 0.07255
1106.80 0.07255
1106.90 0.07255
1107.00 0.07255
1107.10 0.07255
1107.20 0.07255
1107.30 0.07254
1107.40 0.07254
1107.50 0.07253
1107.60 0.07252
1107.70 0.07252
1107.80 0.07251
1107.90 0.0725
1108.00 0.07249
1108.10 0.07248
1108.20 0.07247
1108.30 0.07246
1108.40 0.07246
1108.50 0.07245
1108.60 0.07244
1108.70 0.07243
1108.80 0.07242
1108.90 0.07241
1109.00 0.07241
1109.10 0.0724
1109.20 0.07239
1109.30 0.07238
1109.40 0.07237
1109.50 0.07236
1109.60 0.07235
1109.70 0.07233
1109.80 0.07232
1109.90 0.07231
1110.00 0.07229
1110.10 0.07228
1110.20 0.07226
1110.30 0.07225
1110.40 0.07224
1110.50 0.07222
1110.60 0.07221
1110.70 0.07219
1110.80 0.07218
1110.90 0.07217
1111.00 0.07215
1111.10 0.07214
1111.20 0.07212
1111.30 0.07211
1111.40 0.0721
1111.50 0.07208
1111.60 0.07207
1111.70 0.07205
1111.80 0.07204
1111.90 0.07203
1112.00 0.07201
1112.10 0.072
1112.20 0.07198
1112.30 0.07196
1112.40 0.07194
1112.50 0.07193
1112.60 0.07191
1112.70 0.07189
1112.80 0.07188
1112.90 0.07186
1113.00 0.07184
1113.10 0.07183
1113.20 0.07181
1113.30 0.07179
1113.40 0.07178
1113.50 0.07176
1113.60 0.07174
1113.70 0.07172
1113.80 0.0717
1113.90 0.07168
1114.00 0.07166
1114.10 0.07164
1114.20 0.07162
1114.30 0.07161
1114.40 0.07159
1114.50 0.07157
1114.60 0.07155
1114.70 0.07153
1114.80 0.07151
1114.90 0.07149
1115.00 0.07147
1115.10 0.07145
1115.20 0.07143
1115.30 0.07142
1115.40 0.0714
1115.50 0.07138
1115.60 0.07136
1115.70 0.07134
1115.80 0.07132
1115.90 0.0713
1116.00 0.07128
1116.10 0.07126
1116.20 0.07125
1116.30 0.07123
1116.40 0.07121
1116.50 0.07119
1116.60 0.07117
1116.70 0.07115
1116.80 0.07113
1116.90 0.07111
1117.00 0.07109
1117.10 0.07107
1117.20 0.07105
1117.30 0.07103
1117.40 0.07101
1117.50 0.07099
1117.60 0.07097
1117.70 0.07095
1117.80 0.07093
1117.90 0.07091
1118.00 0.07089
1118.10 0.07087
1118.20 0.07085
1118.30 0.07082
1118.40 0.0708
1118.50 0.07078
1118.60 0.07076
1118.70 0.07074
1118.80 0.07072
1118.90 0.0707
1119.00 0.07068
1119.10 0.07066
1119.20 0.07064
1119.30 0.07062
1119.40 0.0706
1119.50 0.07058
1119.60 0.07056
1119.70 0.07054
1119.80 0.07051
1119.90 0.07049
1120.00 0.07047
1120.10 0.07045
1120.20 0.07043
1120.30 0.07041
1120.40 0.07039
1120.50 0.07037
1120.60 0.07035
1120.70 0.07033
1120.80 0.07031
1120.90 0.07029
1121.00 0.07027
1121.10 0.07025
1121.20 0.07023
1121.30 0.07021
1121.40 0.07019
1121.50 0.07017
1121.60 0.07014
1121.70 0.07012
1121.80 0.0701
1121.90 0.07008
1122.00 0.07006
1122.10 0.07004
1122.20 0.07002
1122.30 0.07
1122.40 0.06998
1122.50 0.06996
1122.60 0.06993
1122.70 0.06991
1122.80 0.06989
1122.90 0.06987
1123.00 0.06985
1123.10 0.06983
1123.20 0.0698
1123.30 0.06978
1123.40 0.06976
1123.50 0.06974
1123.60 0.06972
1123.70 0.0697
1123.80 0.06968
1123.90 0.06965
1124.00 0.06963
1124.10 0.06961
1124.20 0.06959
1124.30 0.06957
1124.40 0.06955
1124.50 0.06953
1124.60 0.0695
1124.70 0.06948
1124.80 0.06946
1124.90 0.06944
1125.00 0.06942
1125.10 0.0694
1125.20 0.06938
1125.30 0.06935
1125.40 0.06933
1125.50 0.06931
1125.60 0.06929
1125.70 0.06927
1125.80 0.06925
1125.90 0.06923
1126.00 0.06921
1126.10 0.06918
1126.20 0.06916
1126.30 0.06914
1126.40 0.06912
1126.50 0.0691
1126.60 0.06908
1126.70 0.06906
1126.80 0.06904
1126.90 0.06901
1127.00 0.06899
1127.10 0.06897
1127.20 0.06895
1127.30 0.06893
1127.40 0.06891
1127.50 0.06888
1127.60 0.06886
1127.70 0.06884
1127.80 0.06882
1127.90 0.0688
1128.00 0.06878
1128.10 0.06876
1128.20 0.06873
1128.30 0.06871
1128.40 0.06869
1128.50 0.06867
1128.60 0.06865
1128.70 0.06863
1128.80 0.0686
1128.90 0.06858
1129.00 0.06856
1129.10 0.06854
1129.20 0.06852
1129.30 0.0685
1129.40 0.06848
1129.50 0.06845
1129.60 0.06843
1129.70 0.06841
1129.80 0.06839
1129.90 0.06837
1130.00 0.06835
1130.10 0.06833
1130.20 0.0683
1130.30 0.06828
1130.40 0.06826
1130.50 0.06824
1130.60 0.06822
1130.70 0.0682
1130.80 0.06818
1130.90 0.06815
1131.00 0.06813
1131.10 0.06811
1131.20 0.06809
1131.30 0.06807
1131.40 0.06805
1131.50 0.06803
1131.60 0.068
1131.70 0.06798
1131.80 0.06796
1131.90 0.06794
1132.00 0.06792
1132.10 0.0679
1132.20 0.06788
1132.30 0.06785
1132.40 0.06783
1132.50 0.06781
1132.60 0.06779
1132.70 0.06777
1132.80 0.06775
1132.90 0.06773
1133.00 0.0677
1133.10 0.06768
1133.20 0.06766
1133.30 0.06764
1133.40 0.06762
1133.50 0.0676
1133.60 0.06758
1133.70 0.06755
1133.80 0.06753
1133.90 0.06751
1134.00 0.06749
1134.10 0.06747
1134.20 0.06745
1134.30 0.06743
1134.40 0.0674
1134.50 0.06738
1134.60 0.06736
1134.70 0.06734
1134.80 0.06732
1134.90 0.0673
1135.00 0.06728
1135.10 0.06726
1135.20 0.06723
1135.30 0.06721
1135.40 0.06719
1135.50 0.06717
1135.60 0.06715
1135.70 0.06713
1135.80 0.06711
1135.90 0.06708
1136.00 0.06706
1136.10 0.06704
1136.20 0.06702
1136.30 0.067
1136.40 0.06698
1136.50 0.06696
1136.60 0.06694
1136.70 0.06691
1136.80 0.06689
1136.90 0.06687
1137.00 0.06685
1137.10 0.06683
1137.20 0.06681
1137.30 0.06679
1137.40 0.06677
1137.50 0.06674
1137.60 0.06672
1137.70 0.0667
1137.80 0.06668
1137.90 0.06666
1138.00 0.06664
1138.10 0.06662
1138.20 0.0666
1138.30 0.06658
1138.40 0.06655
1138.50 0.06653
1138.60 0.06651
1138.70 0.06649
1138.80 0.06647
1138.90 0.06645
1139.00 0.06643
1139.10 0.06641
1139.20 0.06639
1139.30 0.06636
1139.40 0.06634
1139.50 0.06632
1139.60 0.0663
1139.70 0.06628
1139.80 0.06626
1139.90 0.06624
1140.00 0.06622
1140.10 0.0662
1140.20 0.06617
1140.30 0.06615
1140.40 0.06613
1140.50 0.06611
1140.60 0.06609
1140.70 0.06607
1140.80 0.06605
1140.90 0.06603
1141.00 0.06601
1141.10 0.06599
1141.20 0.06596
1141.30 0.06594
1141.40 0.06592
1141.50 0.0659
1141.60 0.06588
1141.70 0.06586
1141.80 0.06584
1141.90 0.06582
1142.00 0.0658
1142.10 0.06578
1142.20 0.06575
1142.30 0.06573
1142.40 0.06571
1142.50 0.06569
1142.60 0.06567
1142.70 0.06565
1142.80 0.06563
1142.90 0.06561
1143.00 0.06559
1143.10 0.06557
1143.20 0.06555
1143.30 0.06553
1143.40 0.0655
1143.50 0.06548
1143.60 0.06546
1143.70 0.06544
1143.80 0.06542
1143.90 0.0654
1144.00 0.06538
1144.10 0.06536
1144.20 0.06534
1144.30 0.06532
1144.40 0.0653
1144.50 0.06528
1144.60 0.06526
1144.70 0.06524
1144.80 0.06521
1144.90 0.06519
1145.00 0.06517
1145.10 0.06515
1145.20 0.06513
1145.30 0.06511
1145.40 0.06509
1145.50 0.06507
1145.60 0.06505
1145.70 0.06503
1145.80 0.06501
1145.90 0.06499
1146.00 0.06497
1146.10 0.06495
1146.20 0.06492
1146.30 0.0649
1146.40 0.06488
1146.50 0.06486
1146.60 0.06484
1146.70 0.06482
1146.80 0.0648
1146.90 0.06478
1147.00 0.06476
1147.10 0.06474
1147.20 0.06472
1147.30 0.0647
1147.40 0.06468
1147.50 0.06466
1147.60 0.06464
1147.70 0.06462
1147.80 0.0646
1147.90 0.06458
1148.00 0.06455
1148.10 0.06453
1148.20 0.06451
1148.30 0.06449
1148.40 0.06447
1148.50 0.06445
1148.60 0.06443
1148.70 0.06441
1148.80 0.06439
1148.90 0.06437
1149.00 0.06435
1149.10 0.06433
1149.20 0.06431
1149.30 0.06429
1149.40 0.06427
1149.50 0.06425
1149.60 0.06423
1149.70 0.06421
1149.80 0.06419
1149.90 0.06417
1150.00 0.06415
1150.10 0.06413
1150.20 0.0641
1150.30 0.06408
1150.40 0.06406
1150.50 0.06404
1150.60 0.06402
1150.70 0.064
1150.80 0.06398
1150.90 0.06396
1151.00 0.06394
1151.10 0.06392
1151.20 0.0639
1151.30 0.06388
1151.40 0.06386
1151.50 0.06384
1151.60 0.06382
1151.70 0.0638
1151.80 0.06378
1151.90 0.06376
1152.00 0.06374
1152.10 0.06372
1152.20 0.0637
1152.30 0.06368
1152.40 0.06366
1152.50 0.06364
1152.60 0.06362
1152.70 0.0636
1152.80 0.06358
1152.90 0.06356
1153.00 0.06354
1153.10 0.06352
1153.20 0.0635
1153.30 0.06348
1153.40 0.06346
1153.50 0.06344
1153.60 0.06342
1153.70 0.0634
1153.80 0.06338
1153.90 0.06336
1154.00 0.06334
1154.10 0.06332
1154.20 0.0633
1154.30 0.06328
1154.40 0.06326
1154.50 0.06324
1154.60 0.06322
1154.70 0.0632
1154.80 0.06318
1154.90 0.06316
1155.00 0.06314
1155.10 0.06312
1155.20 0.0631
1155.30 0.06308
1155.40 0.06306
1155.50 0.06304
1155.60 0.06302
1155.70 0.063
1155.80 0.06298
1155.90 0.06296
1156.00 0.06294
1156.10 0.06292
1156.20 0.0629
1156.30 0.06288
1156.40 0.06286
1156.50 0.06284
1156.60 0.06282
1156.70 0.0628
1156.80 0.06278
1156.90 0.06276
1157.00 0.06274
1157.10 0.06272
1157.20 0.0627
1157.30 0.06268
1157.40 0.06266
1157.50 0.06264
1157.60 0.06262
1157.70 0.0626
1157.80 0.06258
1157.90 0.06256
1158.00 0.06254
1158.10 0.06252
1158.20 0.0625
1158.30 0.06248
1158.40 0.06246
1158.50 0.06244
1158.60 0.06242
1158.70 0.0624
1158.80 0.06238
1158.90 0.06236
1159.00 0.06234
1159.10 0.06232
1159.20 0.0623
1159.30 0.06228
1159.40 0.06226
1159.50 0.06224
1159.60 0.06222
1159.70 0.0622
1159.80 0.06218
1159.90 0.06216
1160.00 0.06214
1160.10 0.06213
1160.20 0.06211
1160.30 0.06209
1160.40 0.06207
1160.50 0.06205
1160.60 0.06203
1160.70 0.06201
1160.80 0.06199
1160.90 0.06197
1161.00 0.06195
1161.10 0.06193
1161.20 0.06191
1161.30 0.06189
1161.40 0.06187
1161.50 0.06185
1161.60 0.06183
1161.70 0.06181
1161.80 0.06179
1161.90 0.06177
1162.00 0.06175
1162.10 0.06173
1162.20 0.06171
1162.30 0.06169
1162.40 0.06168
1162.50 0.06166
1162.60 0.06164
1162.70 0.06162
1162.80 0.0616
1162.90 0.06158
1163.00 0.06156
1163.10 0.06154
1163.20 0.06152
1163.30 0.0615
1163.40 0.06148
1163.50 0.06146
1163.60 0.06144
1163.70 0.06142
1163.80 0.0614
1163.90 0.06138
1164.00 0.06137
1164.10 0.06135
1164.20 0.06133
1164.30 0.06131
1164.40 0.06129
1164.50 0.06127
1164.60 0.06125
1164.70 0.06123
1164.80 0.06121
1164.90 0.06119
1165.00 0.06117
1165.10 0.06115
1165.20 0.06113
1165.30 0.06111
1165.40 0.06109
1165.50 0.06108
1165.60 0.06106
1165.70 0.06104
1165.80 0.06102
1165.90 0.061
1166.00 0.06098
1166.10 0.06096
1166.20 0.06094
1166.30 0.06092
1166.40 0.0609
1166.50 0.06088
1166.60 0.06086
1166.70 0.06084
1166.80 0.06083
1166.90 0.06081
1167.00 0.06079
1167.10 0.06077
1167.20 0.06075
1167.30 0.06073
1167.40 0.06071
1167.50 0.06069
1167.60 0.06067
1167.70 0.06065
1167.80 0.06063
1167.90 0.06062
1168.00 0.0606
1168.10 0.06058
1168.20 0.06056
1168.30 0.06054
1168.40 0.06052
1168.50 0.0605
1168.60 0.06048
1168.70 0.06046
1168.80 0.06044
1168.90 0.06043
1169.00 0.06041
1169.10 0.06039
1169.20 0.06037
1169.30 0.06035
1169.40 0.06033
1169.50 0.06031
1169.60 0.06029
1169.70 0.06027
1169.80 0.06025
1169.90 0.06024
1170.00 0.06022
1170.10 0.0602
1170.20 0.06018
1170.30 0.06016
1170.40 0.06014
1170.50 0.06012
1170.60 0.0601
1170.70 0.06008
1170.80 0.06007
1170.90 0.06005
1171.00 0.06003
1171.10 0.06001
1171.20 0.05999
1171.30 0.05997
1171.40 0.05995
1171.50 0.05993
1171.60 0.05991
1171.70 0.0599
1171.80 0.05988
1171.90 0.05986
1172.00 0.05984
1172.10 0.05982
1172.20 0.0598
1172.30 0.05978
1172.40 0.05976
1172.50 0.05975
1172.60 0.05973
1172.70 0.05971
1172.80 0.05969
1172.90 0.05967
1173.00 0.05965
1173.10 0.05963
1173.20 0.05962
1173.30 0.0596
1173.40 0.05958
1173.50 0.05956
1173.60 0.05954
1173.70 0.05952
1173.80 0.0595
1173.90 0.05949
1174.00 0.05947
1174.10 0.05945
1174.20 0.05943
1174.30 0.05941
1174.40 0.05939
1174.50 0.05937
1174.60 0.05935
1174.70 0.05934
1174.80 0.05932
1174.90 0.0593
1175.00 0.05928
1175.10 0.05926
1175.20 0.05924
1175.30 0.05923
1175.40 0.05921
1175.50 0.05919
1175.60 0.05917
1175.70 0.05915
1175.80 0.05913
1175.90 0.05911
1176.00 0.0591
1176.10 0.05908
1176.20 0.05906
1176.30 0.05904
1176.40 0.05902
1176.50 0.059
1176.60 0.05898
1176.70 0.05897
1176.80 0.05895
1176.90 0.05893
1177.00 0.05891
1177.10 0.05889
1177.20 0.05887
1177.30 0.05886
1177.40 0.05884
1177.50 0.05882
1177.60 0.0588
1177.70 0.05878
1177.80 0.05876
1177.90 0.05875
1178.00 0.05873
1178.10 0.05871
1178.20 0.05869
1178.30 0.05867
1178.40 0.05865
1178.50 0.05864
1178.60 0.05862
1178.70 0.0586
1178.80 0.05858
1178.90 0.05856
1179.00 0.05854
1179.10 0.05853
1179.20 0.05851
1179.30 0.05849
1179.40 0.05847
1179.50 0.05845
1179.60 0.05843
1179.70 0.05842
1179.80 0.0584
1179.90 0.05838
1180.00 0.05836
1180.10 0.05834
1180.20 0.05832
1180.30 0.05831
1180.40 0.05829
1180.50 0.05827
1180.60 0.05825
1180.70 0.05823
1180.80 0.05822
1180.90 0.0582
1181.00 0.05818
1181.10 0.05816
1181.20 0.05814
1181.30 0.05812
1181.40 0.05811
1181.50 0.05809
1181.60 0.05807
1181.70 0.05805
1181.80 0.05803
1181.90 0.05802
1182.00 0.058
1182.10 0.05798
1182.20 0.05796
1182.30 0.05794
1182.40 0.05793
1182.50 0.05791
1182.60 0.05789
1182.70 0.05787
1182.80 0.05785
1182.90 0.05784
1183.00 0.05782
1183.10 0.0578
1183.20 0.05778
1183.30 0.05776
1183.40 0.05775
1183.50 0.05773
1183.60 0.05771
1183.70 0.05769
1183.80 0.05767
1183.90 0.05766
1184.00 0.05764
1184.10 0.05762
1184.20 0.0576
1184.30 0.05758
1184.40 0.05757
1184.50 0.05755
1184.60 0.05753
1184.70 0.05751
1184.80 0.05749
1184.90 0.05748
1185.00 0.05746
1185.10 0.05744
1185.20 0.05742
1185.30 0.05741
1185.40 0.05739
1185.50 0.05737
1185.60 0.05735
1185.70 0.05733
1185.80 0.05732
1185.90 0.0573
1186.00 0.05728
1186.10 0.05726
1186.20 0.05724
1186.30 0.05723
1186.40 0.05721
1186.50 0.05719
1186.60 0.05717
1186.70 0.05716
1186.80 0.05714
1186.90 0.05712
1187.00 0.0571
1187.10 0.05708
1187.20 0.05707
1187.30 0.05705
1187.40 0.05703
1187.50 0.05701
1187.60 0.057
1187.70 0.05698
1187.80 0.05696
1187.90 0.05694
1188.00 0.05693
1188.10 0.05691
1188.20 0.05689
1188.30 0.05687
1188.40 0.05686
1188.50 0.05684
1188.60 0.05682
1188.70 0.0568
1188.80 0.05678
1188.90 0.05677
1189.00 0.05675
1189.10 0.05673
1189.20 0.05671
1189.30 0.0567
1189.40 0.05668
1189.50 0.05666
1189.60 0.05664
1189.70 0.05663
1189.80 0.05661
1189.90 0.05659
1190.00 0.05657
1190.10 0.05656
1190.20 0.05654
1190.30 0.05652
1190.40 0.0565
1190.50 0.05649
1190.60 0.05647
1190.70 0.05645
1190.80 0.05643
1190.90 0.05642
1191.00 0.0564
1191.10 0.05638
1191.20 0.05636
1191.30 0.05635
1191.40 0.05633
1191.50 0.05631
1191.60 0.05629
1191.70 0.05628
1191.80 0.05626
1191.90 0.05624
1192.00 0.05622
1192.10 0.05621
1192.20 0.05619
1192.30 0.05617
1192.40 0.05615
1192.50 0.05614
1192.60 0.05612
1192.70 0.0561
1192.80 0.05609
1192.90 0.05607
1193.00 0.05605
1193.10 0.05603
1193.20 0.05602
1193.30 0.056
1193.40 0.05598
1193.50 0.05596
1193.60 0.05595
1193.70 0.05593
1193.80 0.05591
1193.90 0.05589
1194.00 0.05588
1194.10 0.05586
1194.20 0.05584
1194.30 0.05583
1194.40 0.05581
1194.50 0.05579
1194.60 0.05577
1194.70 0.05576
1194.80 0.05574
1194.90 0.05572
1195.00 0.05571
1195.10 0.05569
1195.20 0.05567
1195.30 0.05565
1195.40 0.05564
1195.50 0.05562
1195.60 0.0556
1195.70 0.05558
1195.80 0.05557
1195.90 0.05555
1196.00 0.05553
1196.10 0.05552
1196.20 0.0555
1196.30 0.05548
1196.40 0.05546
1196.50 0.05545
1196.60 0.05543
1196.70 0.05541
1196.80 0.0554
1196.90 0.05538
1197.00 0.05536
1197.10 0.05534
1197.20 0.05533
1197.30 0.05531
1197.40 0.05529
1197.50 0.05528
1197.60 0.05526
1197.70 0.05524
1197.80 0.05523
1197.90 0.05521
1198.00 0.05519
1198.10 0.05517
1198.20 0.05516
1198.30 0.05514
1198.40 0.05512
1198.50 0.05511
1198.60 0.05509
1198.70 0.05507
1198.80 0.05506
1198.90 0.05504
1199.00 0.05502
1199.10 0.055
1199.20 0.05499
1199.30 0.05497
1199.40 0.05495
1199.50 0.05494
1199.60 0.05492
1199.70 0.0549
1199.80 0.05489
1199.90 0.05487
1200.00 0
