# Version 2.1 - nm, norm@500 to 1, cut digits, bergeron_55000_85.dat_55000
# Wavelength(nm)  Flambda(ergs/cm^s/s/nm)
300.00 6.323
300.10 6.315
300.20 6.307
300.30 6.3
300.40 6.292
300.50 6.285
300.60 6.277
300.70 6.269
300.80 6.262
300.90 6.254
301.00 6.246
301.10 6.239
301.20 6.231
301.30 6.224
301.40 6.216
301.50 6.209
301.60 6.201
301.70 6.194
301.80 6.186
301.90 6.179
302.00 6.171
302.10 6.164
302.20 6.156
302.30 6.149
302.40 6.142
302.50 6.134
302.60 6.127
302.70 6.119
302.80 6.112
302.90 6.105
303.00 6.097
303.10 6.09
303.20 6.083
303.30 6.075
303.40 6.068
303.50 6.061
303.60 6.053
303.70 6.046
303.80 6.039
303.90 6.032
304.00 6.024
304.10 6.017
304.20 6.01
304.30 6.003
304.40 5.995
304.50 5.988
304.60 5.981
304.70 5.974
304.80 5.967
304.90 5.96
305.00 5.952
305.10 5.945
305.20 5.938
305.30 5.931
305.40 5.924
305.50 5.917
305.60 5.91
305.70 5.903
305.80 5.896
305.90 5.889
306.00 5.882
306.10 5.875
306.20 5.868
306.30 5.861
306.40 5.854
306.50 5.847
306.60 5.84
306.70 5.833
306.80 5.826
306.90 5.819
307.00 5.812
307.10 5.805
307.20 5.798
307.30 5.791
307.40 5.784
307.50 5.777
307.60 5.771
307.70 5.764
307.80 5.757
307.90 5.75
308.00 5.743
308.10 5.736
308.20 5.73
308.30 5.723
308.40 5.716
308.50 5.709
308.60 5.703
308.70 5.696
308.80 5.689
308.90 5.682
309.00 5.676
309.10 5.669
309.20 5.662
309.30 5.655
309.40 5.649
309.50 5.642
309.60 5.635
309.70 5.629
309.80 5.622
309.90 5.616
310.00 5.609
310.10 5.602
310.20 5.596
310.30 5.589
310.40 5.582
310.50 5.576
310.60 5.569
310.70 5.563
310.80 5.556
310.90 5.55
311.00 5.543
311.10 5.537
311.20 5.53
311.30 5.524
311.40 5.517
311.50 5.511
311.60 5.504
311.70 5.498
311.80 5.491
311.90 5.485
312.00 5.478
312.10 5.472
312.20 5.466
312.30 5.459
312.40 5.453
312.50 5.446
312.60 5.44
312.70 5.434
312.80 5.427
312.90 5.421
313.00 5.415
313.10 5.408
313.20 5.402
313.30 5.396
313.40 5.389
313.50 5.383
313.60 5.377
313.70 5.371
313.80 5.364
313.90 5.358
314.00 5.352
314.10 5.346
314.20 5.339
314.30 5.333
314.40 5.327
314.50 5.321
314.60 5.314
314.70 5.308
314.80 5.302
314.90 5.296
315.00 5.29
315.10 5.284
315.20 5.278
315.30 5.271
315.40 5.265
315.50 5.259
315.60 5.253
315.70 5.247
315.80 5.241
315.90 5.235
316.00 5.229
316.10 5.223
316.20 5.217
316.30 5.211
316.40 5.205
316.50 5.199
316.60 5.193
316.70 5.187
316.80 5.181
316.90 5.175
317.00 5.169
317.10 5.163
317.20 5.157
317.30 5.151
317.40 5.145
317.50 5.139
317.60 5.133
317.70 5.127
317.80 5.121
317.90 5.115
318.00 5.109
318.10 5.103
318.20 5.098
318.30 5.092
318.40 5.086
318.50 5.08
318.60 5.074
318.70 5.068
318.80 5.062
318.90 5.057
319.00 5.051
319.10 5.045
319.20 5.039
319.30 5.033
319.40 5.028
319.50 5.022
319.60 5.016
319.70 5.01
319.80 5.005
319.90 4.999
320.00 4.993
320.10 4.987
320.20 4.982
320.30 4.976
320.40 4.97
320.50 4.965
320.60 4.959
320.70 4.953
320.80 4.948
320.90 4.942
321.00 4.936
321.10 4.931
321.20 4.925
321.30 4.92
321.40 4.914
321.50 4.908
321.60 4.903
321.70 4.897
321.80 4.892
321.90 4.886
322.00 4.88
322.10 4.875
322.20 4.869
322.30 4.864
322.40 4.858
322.50 4.853
322.60 4.847
322.70 4.842
322.80 4.836
322.90 4.831
323.00 4.825
323.10 4.82
323.20 4.814
323.30 4.809
323.40 4.803
323.50 4.798
323.60 4.792
323.70 4.787
323.80 4.782
323.90 4.776
324.00 4.771
324.10 4.765
324.20 4.76
324.30 4.755
324.40 4.749
324.50 4.744
324.60 4.739
324.70 4.733
324.80 4.728
324.90 4.722
325.00 4.717
325.10 4.712
325.20 4.707
325.30 4.701
325.40 4.696
325.50 4.691
325.60 4.685
325.70 4.68
325.80 4.675
325.90 4.67
326.00 4.664
326.10 4.659
326.20 4.654
326.30 4.649
326.40 4.643
326.50 4.638
326.60 4.633
326.70 4.628
326.80 4.622
326.90 4.617
327.00 4.612
327.10 4.607
327.20 4.602
327.30 4.597
327.40 4.591
327.50 4.586
327.60 4.581
327.70 4.576
327.80 4.571
327.90 4.566
328.00 4.561
328.10 4.556
328.20 4.551
328.30 4.545
328.40 4.54
328.50 4.535
328.60 4.53
328.70 4.525
328.80 4.52
328.90 4.515
329.00 4.51
329.10 4.505
329.20 4.5
329.30 4.495
329.40 4.49
329.50 4.485
329.60 4.48
329.70 4.475
329.80 4.47
329.90 4.465
330.00 4.46
330.10 4.455
330.20 4.45
330.30 4.445
330.40 4.44
330.50 4.435
330.60 4.43
330.70 4.426
330.80 4.421
330.90 4.416
331.00 4.411
331.10 4.406
331.20 4.401
331.30 4.396
331.40 4.391
331.50 4.386
331.60 4.382
331.70 4.377
331.80 4.372
331.90 4.367
332.00 4.362
332.10 4.357
332.20 4.352
332.30 4.348
332.40 4.343
332.50 4.338
332.60 4.333
332.70 4.329
332.80 4.324
332.90 4.319
333.00 4.314
333.10 4.309
333.20 4.305
333.30 4.3
333.40 4.295
333.50 4.29
333.60 4.286
333.70 4.281
333.80 4.276
333.90 4.272
334.00 4.267
334.10 4.262
334.20 4.257
334.30 4.253
334.40 4.248
334.50 4.243
334.60 4.239
334.70 4.234
334.80 4.23
334.90 4.225
335.00 4.22
335.10 4.216
335.20 4.211
335.30 4.206
335.40 4.202
335.50 4.197
335.60 4.193
335.70 4.188
335.80 4.183
335.90 4.179
336.00 4.174
336.10 4.17
336.20 4.165
336.30 4.161
336.40 4.156
336.50 4.151
336.60 4.147
336.70 4.142
336.80 4.138
336.90 4.133
337.00 4.129
337.10 4.124
337.20 4.12
337.30 4.115
337.40 4.111
337.50 4.106
337.60 4.102
337.70 4.097
337.80 4.093
337.90 4.089
338.00 4.084
338.10 4.08
338.20 4.075
338.30 4.071
338.40 4.066
338.50 4.062
338.60 4.058
338.70 4.053
338.80 4.049
338.90 4.044
339.00 4.04
339.10 4.036
339.20 4.031
339.30 4.027
339.40 4.022
339.50 4.018
339.60 4.014
339.70 4.009
339.80 4.005
339.90 4.001
340.00 3.996
340.10 3.992
340.20 3.988
340.30 3.983
340.40 3.979
340.50 3.975
340.60 3.971
340.70 3.966
340.80 3.962
340.90 3.958
341.00 3.953
341.10 3.949
341.20 3.945
341.30 3.941
341.40 3.936
341.50 3.932
341.60 3.928
341.70 3.924
341.80 3.919
341.90 3.915
342.00 3.911
342.10 3.907
342.20 3.903
342.30 3.898
342.40 3.894
342.50 3.89
342.60 3.886
342.70 3.882
342.80 3.878
342.90 3.873
343.00 3.869
343.10 3.865
343.20 3.861
343.30 3.857
343.40 3.853
343.50 3.848
343.60 3.844
343.70 3.84
343.80 3.836
343.90 3.832
344.00 3.828
344.10 3.824
344.20 3.82
344.30 3.816
344.40 3.812
344.50 3.807
344.60 3.803
344.70 3.799
344.80 3.795
344.90 3.791
345.00 3.787
345.10 3.783
345.20 3.779
345.30 3.775
345.40 3.771
345.50 3.767
345.60 3.763
345.70 3.759
345.80 3.755
345.90 3.751
346.00 3.747
346.10 3.743
346.20 3.739
346.30 3.735
346.40 3.731
346.50 3.727
346.60 3.723
346.70 3.719
346.80 3.715
346.90 3.711
347.00 3.707
347.10 3.703
347.20 3.7
347.30 3.696
347.40 3.692
347.50 3.688
347.60 3.684
347.70 3.68
347.80 3.676
347.90 3.672
348.00 3.668
348.10 3.664
348.20 3.66
348.30 3.657
348.40 3.653
348.50 3.649
348.60 3.645
348.70 3.641
348.80 3.637
348.90 3.634
349.00 3.63
349.10 3.626
349.20 3.622
349.30 3.618
349.40 3.614
349.50 3.611
349.60 3.607
349.70 3.603
349.80 3.599
349.90 3.595
350.00 3.592
350.10 3.588
350.20 3.584
350.30 3.58
350.40 3.576
350.50 3.573
350.60 3.569
350.70 3.565
350.80 3.561
350.90 3.558
351.00 3.554
351.10 3.55
351.20 3.547
351.30 3.543
351.40 3.539
351.50 3.535
351.60 3.532
351.70 3.528
351.80 3.524
351.90 3.521
352.00 3.517
352.10 3.513
352.20 3.51
352.30 3.506
352.40 3.502
352.50 3.499
352.60 3.495
352.70 3.491
352.80 3.488
352.90 3.484
353.00 3.48
353.10 3.477
353.20 3.473
353.30 3.469
353.40 3.466
353.50 3.462
353.60 3.459
353.70 3.455
353.80 3.451
353.90 3.448
354.00 3.444
354.10 3.441
354.20 3.437
354.30 3.433
354.40 3.43
354.50 3.426
354.60 3.423
354.70 3.419
354.80 3.416
354.90 3.412
355.00 3.408
355.10 3.405
355.20 3.401
355.30 3.398
355.40 3.394
355.50 3.391
355.60 3.387
355.70 3.384
355.80 3.38
355.90 3.377
356.00 3.373
356.10 3.37
356.20 3.366
356.30 3.363
356.40 3.359
356.50 3.356
356.60 3.352
356.70 3.349
356.80 3.345
356.90 3.342
357.00 3.339
357.10 3.335
357.20 3.332
357.30 3.328
357.40 3.325
357.50 3.321
357.60 3.318
357.70 3.314
357.80 3.311
357.90 3.308
358.00 3.304
358.10 3.301
358.20 3.297
358.30 3.294
358.40 3.291
358.50 3.287
358.60 3.284
358.70 3.28
358.80 3.277
358.90 3.274
359.00 3.27
359.10 3.267
359.20 3.264
359.30 3.26
359.40 3.257
359.50 3.254
359.60 3.25
359.70 3.247
359.80 3.244
359.90 3.24
360.00 3.237
360.10 3.234
360.20 3.23
360.30 3.227
360.40 3.224
360.50 3.22
360.60 3.217
360.70 3.214
360.80 3.211
360.90 3.207
361.00 3.204
361.10 3.201
361.20 3.197
361.30 3.194
361.40 3.191
361.50 3.188
361.60 3.184
361.70 3.181
361.80 3.178
361.90 3.175
362.00 3.171
362.10 3.168
362.20 3.165
362.30 3.162
362.40 3.158
362.50 3.155
362.60 3.152
362.70 3.149
362.80 3.146
362.90 3.142
363.00 3.139
363.10 3.136
363.20 3.133
363.30 3.13
363.40 3.126
363.50 3.123
363.60 3.12
363.70 3.117
363.80 3.114
363.90 3.111
364.00 3.107
364.10 3.104
364.20 3.101
364.30 3.098
364.40 3.095
364.50 3.092
364.60 3.089
364.70 3.085
364.80 3.082
364.90 3.079
365.00 3.076
365.10 3.073
365.20 3.07
365.30 3.067
365.40 3.064
365.50 3.061
365.60 3.057
365.70 3.054
365.80 3.051
365.90 3.048
366.00 3.045
366.10 3.042
366.20 3.039
366.30 3.036
366.40 3.033
366.50 3.029
366.60 3.026
366.70 3.023
366.80 3.02
366.90 3.017
367.00 3.014
367.10 3.011
367.20 3.008
367.30 3.005
367.40 3.002
367.50 2.998
367.60 2.995
367.70 2.992
367.80 2.989
367.90 2.986
368.00 2.983
368.10 2.98
368.20 2.977
368.30 2.974
368.40 2.971
368.50 2.967
368.60 2.964
368.70 2.961
368.80 2.958
368.90 2.955
369.00 2.952
369.10 2.949
369.20 2.946
369.30 2.943
369.40 2.94
369.50 2.937
369.60 2.934
369.70 2.93
369.80 2.927
369.90 2.924
370.00 2.921
370.10 2.918
370.20 2.915
370.30 2.912
370.40 2.909
370.50 2.906
370.60 2.903
370.70 2.9
370.80 2.897
370.90 2.894
371.00 2.891
371.10 2.888
371.20 2.885
371.30 2.882
371.40 2.879
371.50 2.876
371.60 2.873
371.70 2.87
371.80 2.868
371.90 2.865
372.00 2.862
372.10 2.859
372.20 2.856
372.30 2.853
372.40 2.85
372.50 2.847
372.60 2.844
372.70 2.842
372.80 2.839
372.90 2.836
373.00 2.833
373.10 2.83
373.20 2.827
373.30 2.825
373.40 2.822
373.50 2.819
373.60 2.816
373.70 2.813
373.80 2.81
373.90 2.808
374.00 2.805
374.10 2.802
374.20 2.799
374.30 2.796
374.40 2.793
374.50 2.791
374.60 2.788
374.70 2.785
374.80 2.782
374.90 2.779
375.00 2.776
375.10 2.774
375.20 2.771
375.30 2.768
375.40 2.765
375.50 2.762
375.60 2.759
375.70 2.757
375.80 2.754
375.90 2.751
376.00 2.748
376.10 2.746
376.20 2.743
376.30 2.74
376.40 2.737
376.50 2.735
376.60 2.732
376.70 2.729
376.80 2.726
376.90 2.724
377.00 2.721
377.10 2.718
377.20 2.715
377.30 2.713
377.40 2.71
377.50 2.707
377.60 2.705
377.70 2.702
377.80 2.7
377.90 2.697
378.00 2.694
378.10 2.692
378.20 2.689
378.30 2.686
378.40 2.684
378.50 2.681
378.60 2.679
378.70 2.676
378.80 2.673
378.90 2.671
379.00 2.668
379.10 2.666
379.20 2.663
379.30 2.66
379.40 2.658
379.50 2.655
379.60 2.653
379.70 2.65
379.80 2.648
379.90 2.645
380.00 2.643
380.10 2.64
380.20 2.638
380.30 2.635
380.40 2.633
380.50 2.63
380.60 2.628
380.70 2.625
380.80 2.623
380.90 2.621
381.00 2.618
381.10 2.616
381.20 2.613
381.30 2.611
381.40 2.608
381.50 2.606
381.60 2.603
381.70 2.601
381.80 2.599
381.90 2.596
382.00 2.594
382.10 2.591
382.20 2.589
382.30 2.586
382.40 2.584
382.50 2.581
382.60 2.579
382.70 2.576
382.80 2.574
382.90 2.572
383.00 2.569
383.10 2.567
383.20 2.564
383.30 2.562
383.40 2.56
383.50 2.557
383.60 2.555
383.70 2.553
383.80 2.551
383.90 2.548
384.00 2.546
384.10 2.544
384.20 2.542
384.30 2.54
384.40 2.538
384.50 2.536
384.60 2.534
384.70 2.531
384.80 2.529
384.90 2.527
385.00 2.525
385.10 2.523
385.20 2.521
385.30 2.518
385.40 2.516
385.50 2.514
385.60 2.512
385.70 2.509
385.80 2.507
385.90 2.505
386.00 2.503
386.10 2.5
386.20 2.498
386.30 2.495
386.40 2.493
386.50 2.491
386.60 2.488
386.70 2.486
386.80 2.483
386.90 2.481
387.00 2.478
387.10 2.476
387.20 2.473
387.30 2.47
387.40 2.468
387.50 2.465
387.60 2.463
387.70 2.46
387.80 2.457
387.90 2.455
388.00 2.452
388.10 2.45
388.20 2.447
388.30 2.444
388.40 2.442
388.50 2.44
388.60 2.437
388.70 2.435
388.80 2.433
388.90 2.431
389.00 2.429
389.10 2.427
389.20 2.425
389.30 2.424
389.40 2.422
389.50 2.42
389.60 2.419
389.70 2.418
389.80 2.416
389.90 2.415
390.00 2.413
390.10 2.412
390.20 2.41
390.30 2.409
390.40 2.408
390.50 2.406
390.60 2.405
390.70 2.403
390.80 2.401
390.90 2.4
391.00 2.398
391.10 2.397
391.20 2.395
391.30 2.393
391.40 2.391
391.50 2.39
391.60 2.388
391.70 2.386
391.80 2.384
391.90 2.382
392.00 2.38
392.10 2.378
392.20 2.375
392.30 2.373
392.40 2.371
392.50 2.369
392.60 2.366
392.70 2.364
392.80 2.361
392.90 2.359
393.00 2.356
393.10 2.354
393.20 2.351
393.30 2.348
393.40 2.346
393.50 2.343
393.60 2.34
393.70 2.337
393.80 2.334
393.90 2.331
394.00 2.328
394.10 2.325
394.20 2.321
394.30 2.318
394.40 2.315
394.50 2.311
394.60 2.308
394.70 2.304
394.80 2.301
394.90 2.297
395.00 2.293
395.10 2.29
395.20 2.286
395.30 2.282
395.40 2.278
395.50 2.274
395.60 2.271
395.70 2.267
395.80 2.263
395.90 2.259
396.00 2.255
396.10 2.251
396.20 2.247
396.30 2.243
396.40 2.239
396.50 2.235
396.60 2.231
396.70 2.227
396.80 2.224
396.90 2.22
397.00 2.217
397.10 2.217
397.20 2.216
397.30 2.216
397.40 2.216
397.50 2.217
397.60 2.217
397.70 2.217
397.80 2.218
397.90 2.218
398.00 2.219
398.10 2.219
398.20 2.22
398.30 2.22
398.40 2.22
398.50 2.221
398.60 2.221
398.70 2.221
398.80 2.222
398.90 2.222
399.00 2.222
399.10 2.222
399.20 2.222
399.30 2.222
399.40 2.222
399.50 2.222
399.60 2.222
399.70 2.221
399.80 2.221
399.90 2.221
400.00 2.22
400.10 2.22
400.20 2.219
400.30 2.219
400.40 2.218
400.50 2.218
400.60 2.217
400.70 2.216
400.80 2.215
400.90 2.214
401.00 2.213
401.10 2.212
401.20 2.211
401.30 2.21
401.40 2.209
401.50 2.208
401.60 2.207
401.70 2.205
401.80 2.204
401.90 2.203
402.00 2.201
402.10 2.2
402.20 2.198
402.30 2.196
402.40 2.195
402.50 2.193
402.60 2.191
402.70 2.189
402.80 2.188
402.90 2.186
403.00 2.184
403.10 2.182
403.20 2.18
403.30 2.177
403.40 2.175
403.50 2.173
403.60 2.171
403.70 2.168
403.80 2.166
403.90 2.164
404.00 2.161
404.10 2.158
404.20 2.156
404.30 2.153
404.40 2.15
404.50 2.148
404.60 2.145
404.70 2.142
404.80 2.139
404.90 2.136
405.00 2.133
405.10 2.129
405.20 2.126
405.30 2.123
405.40 2.119
405.50 2.116
405.60 2.112
405.70 2.109
405.80 2.105
405.90 2.101
406.00 2.097
406.10 2.094
406.20 2.09
406.30 2.085
406.40 2.081
406.50 2.077
406.60 2.073
406.70 2.068
406.80 2.064
406.90 2.059
407.00 2.054
407.10 2.05
407.20 2.045
407.30 2.04
407.40 2.035
407.50 2.029
407.60 2.024
407.70 2.019
407.80 2.013
407.90 2.008
408.00 2.002
408.10 1.996
408.20 1.99
408.30 1.984
408.40 1.978
408.50 1.972
408.60 1.966
408.70 1.959
408.80 1.953
408.90 1.947
409.00 1.94
409.10 1.934
409.20 1.927
409.30 1.921
409.40 1.915
409.50 1.909
409.60 1.903
409.70 1.898
409.80 1.894
409.90 1.89
410.00 1.889
410.10 1.888
410.20 1.889
410.30 1.885
410.40 1.882
410.50 1.881
410.60 1.882
410.70 1.884
410.80 1.886
410.90 1.889
411.00 1.892
411.10 1.895
411.20 1.898
411.30 1.901
411.40 1.904
411.50 1.907
411.60 1.91
411.70 1.913
411.80 1.916
411.90 1.919
412.00 1.922
412.10 1.924
412.20 1.927
412.30 1.929
412.40 1.932
412.50 1.934
412.60 1.936
412.70 1.938
412.80 1.94
412.90 1.942
413.00 1.944
413.10 1.945
413.20 1.947
413.30 1.948
413.40 1.949
413.50 1.951
413.60 1.952
413.70 1.953
413.80 1.954
413.90 1.955
414.00 1.956
414.10 1.956
414.20 1.957
414.30 1.958
414.40 1.958
414.50 1.958
414.60 1.959
414.70 1.959
414.80 1.959
414.90 1.96
415.00 1.96
415.10 1.96
415.20 1.96
415.30 1.96
415.40 1.959
415.50 1.959
415.60 1.959
415.70 1.959
415.80 1.958
415.90 1.958
416.00 1.958
416.10 1.957
416.20 1.957
416.30 1.956
416.40 1.956
416.50 1.955
416.60 1.954
416.70 1.954
416.80 1.953
416.90 1.952
417.00 1.951
417.10 1.95
417.20 1.95
417.30 1.949
417.40 1.948
417.50 1.947
417.60 1.946
417.70 1.945
417.80 1.944
417.90 1.943
418.00 1.942
418.10 1.941
418.20 1.939
418.30 1.938
418.40 1.937
418.50 1.936
418.60 1.935
418.70 1.934
418.80 1.932
418.90 1.931
419.00 1.93
419.10 1.928
419.20 1.927
419.30 1.926
419.40 1.924
419.50 1.923
419.60 1.922
419.70 1.92
419.80 1.919
419.90 1.917
420.00 1.916
420.10 1.915
420.20 1.913
420.30 1.912
420.40 1.91
420.50 1.909
420.60 1.907
420.70 1.906
420.80 1.904
420.90 1.902
421.00 1.901
421.10 1.899
421.20 1.898
421.30 1.896
421.40 1.895
421.50 1.893
421.60 1.891
421.70 1.89
421.80 1.888
421.90 1.886
422.00 1.885
422.10 1.883
422.20 1.881
422.30 1.88
422.40 1.878
422.50 1.876
422.60 1.874
422.70 1.873
422.80 1.871
422.90 1.869
423.00 1.867
423.10 1.865
423.20 1.864
423.30 1.862
423.40 1.86
423.50 1.858
423.60 1.856
423.70 1.854
423.80 1.852
423.90 1.851
424.00 1.849
424.10 1.847
424.20 1.845
424.30 1.843
424.40 1.841
424.50 1.839
424.60 1.837
424.70 1.835
424.80 1.833
424.90 1.831
425.00 1.829
425.10 1.827
425.20 1.824
425.30 1.822
425.40 1.82
425.50 1.818
425.60 1.816
425.70 1.814
425.80 1.811
425.90 1.809
426.00 1.807
426.10 1.805
426.20 1.802
426.30 1.8
426.40 1.798
426.50 1.795
426.60 1.793
426.70 1.79
426.80 1.788
426.90 1.785
427.00 1.783
427.10 1.78
427.20 1.778
427.30 1.775
427.40 1.772
427.50 1.769
427.60 1.767
427.70 1.764
427.80 1.761
427.90 1.758
428.00 1.755
428.10 1.752
428.20 1.749
428.30 1.746
428.40 1.743
428.50 1.74
428.60 1.736
428.70 1.733
428.80 1.73
428.90 1.726
429.00 1.723
429.10 1.719
429.20 1.716
429.30 1.712
429.40 1.708
429.50 1.704
429.60 1.701
429.70 1.697
429.80 1.692
429.90 1.688
430.00 1.684
430.10 1.68
430.20 1.675
430.30 1.671
430.40 1.666
430.50 1.661
430.60 1.656
430.70 1.652
430.80 1.646
430.90 1.641
431.00 1.636
431.10 1.631
431.20 1.625
431.30 1.62
431.40 1.614
431.50 1.608
431.60 1.602
431.70 1.596
431.80 1.59
431.90 1.583
432.00 1.577
432.10 1.57
432.20 1.563
432.30 1.556
432.40 1.549
432.50 1.542
432.60 1.535
432.70 1.528
432.80 1.52
432.90 1.513
433.00 1.506
433.10 1.498
433.20 1.491
433.30 1.483
433.40 1.476
433.50 1.469
433.60 1.462
433.70 1.454
433.80 1.446
433.90 1.438
434.00 1.43
434.10 1.429
434.20 1.435
434.30 1.441
434.40 1.447
434.50 1.452
434.60 1.456
434.70 1.461
434.80 1.466
434.90 1.471
435.00 1.476
435.10 1.481
435.20 1.486
435.30 1.491
435.40 1.495
435.50 1.5
435.60 1.505
435.70 1.509
435.80 1.513
435.90 1.518
436.00 1.522
436.10 1.525
436.20 1.529
436.30 1.533
436.40 1.536
436.50 1.54
436.60 1.543
436.70 1.546
436.80 1.549
436.90 1.552
437.00 1.554
437.10 1.557
437.20 1.559
437.30 1.562
437.40 1.564
437.50 1.566
437.60 1.568
437.70 1.569
437.80 1.571
437.90 1.573
438.00 1.574
438.10 1.576
438.20 1.577
438.30 1.578
438.40 1.579
438.50 1.58
438.60 1.581
438.70 1.582
438.80 1.583
438.90 1.584
439.00 1.584
439.10 1.585
439.20 1.586
439.30 1.586
439.40 1.586
439.50 1.587
439.60 1.587
439.70 1.587
439.80 1.587
439.90 1.587
440.00 1.587
440.10 1.587
440.20 1.587
440.30 1.587
440.40 1.587
440.50 1.587
440.60 1.587
440.70 1.586
440.80 1.586
440.90 1.586
441.00 1.585
441.10 1.585
441.20 1.585
441.30 1.584
441.40 1.584
441.50 1.583
441.60 1.583
441.70 1.582
441.80 1.581
441.90 1.581
442.00 1.58
442.10 1.58
442.20 1.579
442.30 1.578
442.40 1.577
442.50 1.577
442.60 1.576
442.70 1.575
442.80 1.574
442.90 1.573
443.00 1.573
443.10 1.572
443.20 1.571
443.30 1.57
443.40 1.569
443.50 1.568
443.60 1.567
443.70 1.566
443.80 1.565
443.90 1.564
444.00 1.564
444.10 1.563
444.20 1.562
444.30 1.561
444.40 1.56
444.50 1.559
444.60 1.558
444.70 1.557
444.80 1.555
444.90 1.554
445.00 1.553
445.10 1.552
445.20 1.551
445.30 1.55
445.40 1.549
445.50 1.548
445.60 1.547
445.70 1.546
445.80 1.545
445.90 1.544
446.00 1.543
446.10 1.541
446.20 1.54
446.30 1.539
446.40 1.538
446.50 1.537
446.60 1.536
446.70 1.535
446.80 1.534
446.90 1.532
447.00 1.531
447.10 1.53
447.20 1.529
447.30 1.528
447.40 1.527
447.50 1.526
447.60 1.524
447.70 1.523
447.80 1.522
447.90 1.521
448.00 1.52
448.10 1.519
448.20 1.517
448.30 1.516
448.40 1.515
448.50 1.514
448.60 1.513
448.70 1.511
448.80 1.51
448.90 1.509
449.00 1.508
449.10 1.507
449.20 1.506
449.30 1.504
449.40 1.503
449.50 1.502
449.60 1.501
449.70 1.5
449.80 1.498
449.90 1.497
450.00 1.496
450.10 1.495
450.20 1.494
450.30 1.492
450.40 1.491
450.50 1.49
450.60 1.489
450.70 1.488
450.80 1.486
450.90 1.485
451.00 1.484
451.10 1.483
451.20 1.482
451.30 1.48
451.40 1.479
451.50 1.478
451.60 1.477
451.70 1.476
451.80 1.474
451.90 1.473
452.00 1.472
452.10 1.471
452.20 1.47
452.30 1.469
452.40 1.467
452.50 1.466
452.60 1.465
452.70 1.464
452.80 1.463
452.90 1.461
453.00 1.46
453.10 1.459
453.20 1.458
453.30 1.457
453.40 1.455
453.50 1.454
453.60 1.453
453.70 1.452
453.80 1.451
453.90 1.449
454.00 1.448
454.10 1.447
454.20 1.446
454.30 1.445
454.40 1.443
454.50 1.442
454.60 1.441
454.70 1.44
454.80 1.439
454.90 1.438
455.00 1.436
455.10 1.435
455.20 1.434
455.30 1.433
455.40 1.432
455.50 1.43
455.60 1.429
455.70 1.428
455.80 1.427
455.90 1.426
456.00 1.425
456.10 1.423
456.20 1.422
456.30 1.421
456.40 1.42
456.50 1.419
456.60 1.418
456.70 1.416
456.80 1.415
456.90 1.414
457.00 1.413
457.10 1.412
457.20 1.411
457.30 1.409
457.40 1.408
457.50 1.407
457.60 1.406
457.70 1.405
457.80 1.404
457.90 1.402
458.00 1.401
458.10 1.4
458.20 1.399
458.30 1.398
458.40 1.397
458.50 1.395
458.60 1.394
458.70 1.393
458.80 1.392
458.90 1.391
459.00 1.39
459.10 1.388
459.20 1.387
459.30 1.386
459.40 1.385
459.50 1.384
459.60 1.383
459.70 1.382
459.80 1.38
459.90 1.379
460.00 1.378
460.10 1.377
460.20 1.376
460.30 1.375
460.40 1.374
460.50 1.372
460.60 1.371
460.70 1.37
460.80 1.369
460.90 1.368
461.00 1.367
461.10 1.366
461.20 1.364
461.30 1.363
461.40 1.362
461.50 1.361
461.60 1.36
461.70 1.359
461.80 1.358
461.90 1.356
462.00 1.355
462.10 1.354
462.20 1.353
462.30 1.352
462.40 1.351
462.50 1.35
462.60 1.349
462.70 1.347
462.80 1.346
462.90 1.345
463.00 1.344
463.10 1.343
463.20 1.342
463.30 1.341
463.40 1.34
463.50 1.338
463.60 1.337
463.70 1.336
463.80 1.335
463.90 1.334
464.00 1.333
464.10 1.332
464.20 1.331
464.30 1.33
464.40 1.328
464.50 1.327
464.60 1.326
464.70 1.325
464.80 1.324
464.90 1.323
465.00 1.322
465.10 1.321
465.20 1.319
465.30 1.318
465.40 1.317
465.50 1.316
465.60 1.315
465.70 1.314
465.80 1.313
465.90 1.312
466.00 1.311
466.10 1.31
466.20 1.308
466.30 1.307
466.40 1.306
466.50 1.305
466.60 1.304
466.70 1.303
466.80 1.302
466.90 1.301
467.00 1.3
467.10 1.298
467.20 1.297
467.30 1.296
467.40 1.295
467.50 1.294
467.60 1.293
467.70 1.292
467.80 1.291
467.90 1.29
468.00 1.289
468.10 1.287
468.20 1.286
468.30 1.285
468.40 1.284
468.50 1.283
468.60 1.282
468.70 1.281
468.80 1.28
468.90 1.279
469.00 1.278
469.10 1.276
469.20 1.275
469.30 1.274
469.40 1.273
469.50 1.272
469.60 1.271
469.70 1.27
469.80 1.269
469.90 1.268
470.00 1.267
470.10 1.265
470.20 1.264
470.30 1.263
470.40 1.262
470.50 1.261
470.60 1.26
470.70 1.259
470.80 1.258
470.90 1.257
471.00 1.255
471.10 1.254
471.20 1.253
471.30 1.252
471.40 1.251
471.50 1.25
471.60 1.249
471.70 1.248
471.80 1.247
471.90 1.245
472.00 1.244
472.10 1.243
472.20 1.242
472.30 1.241
472.40 1.24
472.50 1.239
472.60 1.238
472.70 1.236
472.80 1.235
472.90 1.234
473.00 1.233
473.10 1.232
473.20 1.231
473.30 1.23
473.40 1.228
473.50 1.227
473.60 1.226
473.70 1.225
473.80 1.224
473.90 1.223
474.00 1.222
474.10 1.22
474.20 1.219
474.30 1.218
474.40 1.217
474.50 1.216
474.60 1.214
474.70 1.213
474.80 1.212
474.90 1.211
475.00 1.21
475.10 1.209
475.20 1.207
475.30 1.206
475.40 1.205
475.50 1.204
475.60 1.202
475.70 1.201
475.80 1.2
475.90 1.199
476.00 1.197
476.10 1.196
476.20 1.195
476.30 1.194
476.40 1.192
476.50 1.191
476.60 1.19
476.70 1.188
476.80 1.187
476.90 1.186
477.00 1.184
477.10 1.183
477.20 1.182
477.30 1.18
477.40 1.179
477.50 1.178
477.60 1.176
477.70 1.175
477.80 1.173
477.90 1.172
478.00 1.17
478.10 1.169
478.20 1.168
478.30 1.166
478.40 1.164
478.50 1.163
478.60 1.161
478.70 1.16
478.80 1.158
478.90 1.157
479.00 1.155
479.10 1.154
479.20 1.152
479.30 1.15
479.40 1.148
479.50 1.147
479.60 1.145
479.70 1.143
479.80 1.141
479.90 1.139
480.00 1.138
480.10 1.136
480.20 1.134
480.30 1.132
480.40 1.13
480.50 1.128
480.60 1.126
480.70 1.123
480.80 1.121
480.90 1.119
481.00 1.117
481.10 1.115
481.20 1.113
481.30 1.11
481.40 1.108
481.50 1.105
481.60 1.103
481.70 1.1
481.80 1.097
481.90 1.095
482.00 1.092
482.10 1.09
482.20 1.087
482.30 1.084
482.40 1.081
482.50 1.077
482.60 1.074
482.70 1.071
482.80 1.068
482.90 1.065
483.00 1.062
483.10 1.058
483.20 1.055
483.30 1.051
483.40 1.047
483.50 1.043
483.60 1.039
483.70 1.035
483.80 1.031
483.90 1.027
484.00 1.023
484.10 1.019
484.20 1.014
484.30 1.01
484.40 1.005
484.50 1
484.60 0.9955
484.70 0.9905
484.80 0.9854
484.90 0.9802
485.00 0.9751
485.10 0.97
485.20 0.9647
485.30 0.9593
485.40 0.954
485.50 0.9487
485.60 0.9437
485.70 0.9387
485.80 0.9349
485.90 0.9315
486.00 0.9316
486.10 0.9437
486.20 0.9373
486.30 0.9282
486.40 0.9291
486.50 0.931
486.60 0.934
486.70 0.9376
486.80 0.9414
486.90 0.9452
487.00 0.9491
487.10 0.9529
487.20 0.9566
487.30 0.9603
487.40 0.9639
487.50 0.9676
487.60 0.9712
487.70 0.9745
487.80 0.9776
487.90 0.9807
488.00 0.9839
488.10 0.987
488.20 0.9896
488.30 0.9919
488.40 0.9943
488.50 0.9966
488.60 0.9989
488.70 1.001
488.80 1.004
488.90 1.006
489.00 1.008
489.10 1.011
489.20 1.012
489.30 1.014
489.40 1.015
489.50 1.017
489.60 1.018
489.70 1.019
489.80 1.021
489.90 1.022
490.00 1.024
490.10 1.025
490.20 1.026
490.30 1.027
490.40 1.028
490.50 1.028
490.60 1.029
490.70 1.03
490.80 1.031
490.90 1.032
491.00 1.032
491.10 1.033
491.20 1.033
491.30 1.034
491.40 1.034
491.50 1.034
491.60 1.035
491.70 1.035
491.80 1.035
491.90 1.036
492.00 1.036
492.10 1.036
492.20 1.036
492.30 1.036
492.40 1.036
492.50 1.036
492.60 1.036
492.70 1.036
492.80 1.036
492.90 1.036
493.00 1.036
493.10 1.036
493.20 1.036
493.30 1.035
493.40 1.035
493.50 1.035
493.60 1.035
493.70 1.034
493.80 1.034
493.90 1.034
494.00 1.034
494.10 1.033
494.20 1.033
494.30 1.033
494.40 1.032
494.50 1.032
494.60 1.031
494.70 1.031
494.80 1.031
494.90 1.03
495.00 1.03
495.10 1.029
495.20 1.029
495.30 1.028
495.40 1.028
495.50 1.027
495.60 1.027
495.70 1.026
495.80 1.026
495.90 1.025
496.00 1.025
496.10 1.024
496.20 1.024
496.30 1.023
496.40 1.023
496.50 1.022
496.60 1.022
496.70 1.021
496.80 1.02
496.90 1.02
497.00 1.019
497.10 1.019
497.20 1.018
497.30 1.017
497.40 1.017
497.50 1.016
497.60 1.016
497.70 1.015
497.80 1.014
497.90 1.014
498.00 1.013
498.10 1.013
498.20 1.012
498.30 1.011
498.40 1.011
498.50 1.01
498.60 1.009
498.70 1.009
498.80 1.008
498.90 1.007
499.00 1.007
499.10 1.006
499.20 1.005
499.30 1.005
499.40 1.004
499.50 1.003
499.60 1.003
499.70 1.002
499.80 1.001
499.90 1.001
500.00 1
500.10 0.9993
500.20 0.9987
500.30 0.998
500.40 0.9973
500.50 0.9966
500.60 0.9959
500.70 0.9952
500.80 0.9945
500.90 0.9939
501.00 0.9932
501.10 0.9925
501.20 0.9918
501.30 0.9911
501.40 0.9904
501.50 0.9897
501.60 0.989
501.70 0.9883
501.80 0.9876
501.90 0.987
502.00 0.9863
502.10 0.9856
502.20 0.9849
502.30 0.9842
502.40 0.9835
502.50 0.9828
502.60 0.9821
502.70 0.9814
502.80 0.9807
502.90 0.98
503.00 0.9793
503.10 0.9786
503.20 0.9779
503.30 0.9772
503.40 0.9765
503.50 0.9758
503.60 0.9751
503.70 0.9744
503.80 0.9737
503.90 0.973
504.00 0.9723
504.10 0.9716
504.20 0.9709
504.30 0.9702
504.40 0.9695
504.50 0.9688
504.60 0.9681
504.70 0.9674
504.80 0.9667
504.90 0.966
505.00 0.9653
505.10 0.9646
505.20 0.9639
505.30 0.9632
505.40 0.9625
505.50 0.9618
505.60 0.9611
505.70 0.9604
505.80 0.9597
505.90 0.959
506.00 0.9583
506.10 0.9576
506.20 0.9569
506.30 0.9562
506.40 0.9555
506.50 0.9548
506.60 0.9541
506.70 0.9534
506.80 0.9527
506.90 0.952
507.00 0.9513
507.10 0.9506
507.20 0.9499
507.30 0.9492
507.40 0.9485
507.50 0.9478
507.60 0.9471
507.70 0.9464
507.80 0.9457
507.90 0.9451
508.00 0.9444
508.10 0.9437
508.20 0.943
508.30 0.9423
508.40 0.9416
508.50 0.9409
508.60 0.9402
508.70 0.9395
508.80 0.9388
508.90 0.9381
509.00 0.9374
509.10 0.9368
509.20 0.9361
509.30 0.9354
509.40 0.9347
509.50 0.934
509.60 0.9333
509.70 0.9326
509.80 0.9319
509.90 0.9313
510.00 0.9306
510.10 0.9299
510.20 0.9292
510.30 0.9285
510.40 0.9278
510.50 0.9272
510.60 0.9265
510.70 0.9258
510.80 0.9251
510.90 0.9244
511.00 0.9238
511.10 0.9231
511.20 0.9224
511.30 0.9217
511.40 0.921
511.50 0.9204
511.60 0.9197
511.70 0.919
511.80 0.9183
511.90 0.9176
512.00 0.917
512.10 0.9163
512.20 0.9156
512.30 0.9149
512.40 0.9143
512.50 0.9136
512.60 0.9129
512.70 0.9123
512.80 0.9116
512.90 0.9109
513.00 0.9102
513.10 0.9096
513.20 0.9089
513.30 0.9082
513.40 0.9076
513.50 0.9069
513.60 0.9062
513.70 0.9056
513.80 0.9049
513.90 0.9042
514.00 0.9036
514.10 0.9029
514.20 0.9022
514.30 0.9016
514.40 0.9009
514.50 0.9002
514.60 0.8996
514.70 0.8989
514.80 0.8983
514.90 0.8976
515.00 0.8969
515.10 0.8963
515.20 0.8956
515.30 0.895
515.40 0.8943
515.50 0.8936
515.60 0.893
515.70 0.8923
515.80 0.8917
515.90 0.891
516.00 0.8904
516.10 0.8897
516.20 0.889
516.30 0.8884
516.40 0.8877
516.50 0.8871
516.60 0.8864
516.70 0.8858
516.80 0.8851
516.90 0.8845
517.00 0.8838
517.10 0.8832
517.20 0.8825
517.30 0.8819
517.40 0.8812
517.50 0.8806
517.60 0.88
517.70 0.8793
517.80 0.8787
517.90 0.878
518.00 0.8774
518.10 0.8767
518.20 0.8761
518.30 0.8754
518.40 0.8748
518.50 0.8742
518.60 0.8735
518.70 0.8729
518.80 0.8722
518.90 0.8716
519.00 0.871
519.10 0.8703
519.20 0.8697
519.30 0.869
519.40 0.8684
519.50 0.8678
519.60 0.8671
519.70 0.8665
519.80 0.8659
519.90 0.8652
520.00 0.8646
520.10 0.864
520.20 0.8633
520.30 0.8627
520.40 0.8621
520.50 0.8614
520.60 0.8608
520.70 0.8602
520.80 0.8596
520.90 0.8589
521.00 0.8583
521.10 0.8577
521.20 0.857
521.30 0.8564
521.40 0.8558
521.50 0.8552
521.60 0.8545
521.70 0.8539
521.80 0.8533
521.90 0.8527
522.00 0.852
522.10 0.8514
522.20 0.8508
522.30 0.8502
522.40 0.8496
522.50 0.8489
522.60 0.8483
522.70 0.8477
522.80 0.8471
522.90 0.8465
523.00 0.8459
523.10 0.8452
523.20 0.8446
523.30 0.844
523.40 0.8434
523.50 0.8428
523.60 0.8422
523.70 0.8416
523.80 0.8409
523.90 0.8403
524.00 0.8397
524.10 0.8391
524.20 0.8385
524.30 0.8379
524.40 0.8373
524.50 0.8367
524.60 0.8361
524.70 0.8354
524.80 0.8348
524.90 0.8342
525.00 0.8336
525.10 0.833
525.20 0.8324
525.30 0.8318
525.40 0.8312
525.50 0.8306
525.60 0.83
525.70 0.8294
525.80 0.8288
525.90 0.8282
526.00 0.8276
526.10 0.827
526.20 0.8264
526.30 0.8258
526.40 0.8252
526.50 0.8246
526.60 0.824
526.70 0.8234
526.80 0.8228
526.90 0.8222
527.00 0.8216
527.10 0.821
527.20 0.8204
527.30 0.8198
527.40 0.8192
527.50 0.8186
527.60 0.8181
527.70 0.8175
527.80 0.8169
527.90 0.8163
528.00 0.8157
528.10 0.8151
528.20 0.8145
528.30 0.8139
528.40 0.8133
528.50 0.8127
528.60 0.8122
528.70 0.8116
528.80 0.811
528.90 0.8104
529.00 0.8098
529.10 0.8092
529.20 0.8086
529.30 0.8081
529.40 0.8075
529.50 0.8069
529.60 0.8063
529.70 0.8057
529.80 0.8051
529.90 0.8046
530.00 0.804
530.10 0.8034
530.20 0.8028
530.30 0.8022
530.40 0.8017
530.50 0.8011
530.60 0.8005
530.70 0.7999
530.80 0.7994
530.90 0.7988
531.00 0.7982
531.10 0.7976
531.20 0.7971
531.30 0.7965
531.40 0.7959
531.50 0.7953
531.60 0.7948
531.70 0.7942
531.80 0.7936
531.90 0.7931
532.00 0.7925
532.10 0.7919
532.20 0.7914
532.30 0.7908
532.40 0.7902
532.50 0.7897
532.60 0.7891
532.70 0.7885
532.80 0.788
532.90 0.7874
533.00 0.7868
533.10 0.7863
533.20 0.7857
533.30 0.7851
533.40 0.7846
533.50 0.784
533.60 0.7834
533.70 0.7829
533.80 0.7823
533.90 0.7818
534.00 0.7812
534.10 0.7806
534.20 0.7801
534.30 0.7795
534.40 0.779
534.50 0.7784
534.60 0.7779
534.70 0.7773
534.80 0.7767
534.90 0.7762
535.00 0.7756
535.10 0.7751
535.20 0.7745
535.30 0.774
535.40 0.7734
535.50 0.7729
535.60 0.7723
535.70 0.7718
535.80 0.7712
535.90 0.7707
536.00 0.7701
536.10 0.7696
536.20 0.769
536.30 0.7685
536.40 0.7679
536.50 0.7674
536.60 0.7668
536.70 0.7663
536.80 0.7657
536.90 0.7652
537.00 0.7646
537.10 0.7641
537.20 0.7635
537.30 0.763
537.40 0.7625
537.50 0.7619
537.60 0.7614
537.70 0.7608
537.80 0.7603
537.90 0.7597
538.00 0.7592
538.10 0.7587
538.20 0.7581
538.30 0.7576
538.40 0.757
538.50 0.7565
538.60 0.756
538.70 0.7554
538.80 0.7549
538.90 0.7544
539.00 0.7538
539.10 0.7533
539.20 0.7528
539.30 0.7522
539.40 0.7517
539.50 0.7512
539.60 0.7506
539.70 0.7501
539.80 0.7496
539.90 0.749
540.00 0.7485
540.10 0.748
540.20 0.7474
540.30 0.7469
540.40 0.7464
540.50 0.7458
540.60 0.7453
540.70 0.7448
540.80 0.7443
540.90 0.7437
541.00 0.7432
541.10 0.7427
541.20 0.7422
541.30 0.7416
541.40 0.7411
541.50 0.7406
541.60 0.7401
541.70 0.7395
541.80 0.739
541.90 0.7385
542.00 0.738
542.10 0.7375
542.20 0.7369
542.30 0.7364
542.40 0.7359
542.50 0.7354
542.60 0.7349
542.70 0.7343
542.80 0.7338
542.90 0.7333
543.00 0.7328
543.10 0.7323
543.20 0.7317
543.30 0.7312
543.40 0.7307
543.50 0.7302
543.60 0.7297
543.70 0.7292
543.80 0.7287
543.90 0.7281
544.00 0.7276
544.10 0.7271
544.20 0.7266
544.30 0.7261
544.40 0.7256
544.50 0.7251
544.60 0.7246
544.70 0.7241
544.80 0.7235
544.90 0.723
545.00 0.7225
545.10 0.722
545.20 0.7215
545.30 0.721
545.40 0.7205
545.50 0.72
545.60 0.7195
545.70 0.719
545.80 0.7185
545.90 0.718
546.00 0.7175
546.10 0.717
546.20 0.7165
546.30 0.716
546.40 0.7155
546.50 0.715
546.60 0.7145
546.70 0.714
546.80 0.7135
546.90 0.713
547.00 0.7125
547.10 0.712
547.20 0.7115
547.30 0.711
547.40 0.7105
547.50 0.71
547.60 0.7095
547.70 0.709
547.80 0.7085
547.90 0.708
548.00 0.7075
548.10 0.707
548.20 0.7065
548.30 0.706
548.40 0.7055
548.50 0.705
548.60 0.7045
548.70 0.704
548.80 0.7035
548.90 0.7031
549.00 0.7026
549.10 0.7021
549.20 0.7016
549.30 0.7011
549.40 0.7006
549.50 0.7001
549.60 0.6996
549.70 0.6991
549.80 0.6987
549.90 0.6982
550.00 0.6977
550.10 0.6972
550.20 0.6967
550.30 0.6962
550.40 0.6957
550.50 0.6953
550.60 0.6948
550.70 0.6943
550.80 0.6938
550.90 0.6933
551.00 0.6928
551.10 0.6924
551.20 0.6919
551.30 0.6914
551.40 0.6909
551.50 0.6904
551.60 0.69
551.70 0.6895
551.80 0.689
551.90 0.6885
552.00 0.688
552.10 0.6876
552.20 0.6871
552.30 0.6866
552.40 0.6861
552.50 0.6857
552.60 0.6852
552.70 0.6847
552.80 0.6842
552.90 0.6838
553.00 0.6833
553.10 0.6828
553.20 0.6823
553.30 0.6819
553.40 0.6814
553.50 0.6809
553.60 0.6804
553.70 0.68
553.80 0.6795
553.90 0.679
554.00 0.6786
554.10 0.6781
554.20 0.6776
554.30 0.6772
554.40 0.6767
554.50 0.6762
554.60 0.6758
554.70 0.6753
554.80 0.6748
554.90 0.6744
555.00 0.6739
555.10 0.6734
555.20 0.673
555.30 0.6725
555.40 0.672
555.50 0.6716
555.60 0.6711
555.70 0.6706
555.80 0.6702
555.90 0.6697
556.00 0.6692
556.10 0.6688
556.20 0.6683
556.30 0.6679
556.40 0.6674
556.50 0.6669
556.60 0.6665
556.70 0.666
556.80 0.6656
556.90 0.6651
557.00 0.6647
557.10 0.6642
557.20 0.6637
557.30 0.6633
557.40 0.6628
557.50 0.6624
557.60 0.6619
557.70 0.6615
557.80 0.661
557.90 0.6605
558.00 0.6601
558.10 0.6596
558.20 0.6592
558.30 0.6587
558.40 0.6583
558.50 0.6578
558.60 0.6574
558.70 0.6569
558.80 0.6565
558.90 0.656
559.00 0.6556
559.10 0.6551
559.20 0.6547
559.30 0.6542
559.40 0.6538
559.50 0.6533
559.60 0.6529
559.70 0.6524
559.80 0.652
559.90 0.6515
560.00 0.6511
560.10 0.6506
560.20 0.6502
560.30 0.6498
560.40 0.6493
560.50 0.6489
560.60 0.6484
560.70 0.648
560.80 0.6475
560.90 0.6471
561.00 0.6467
561.10 0.6462
561.20 0.6458
561.30 0.6453
561.40 0.6449
561.50 0.6444
561.60 0.644
561.70 0.6436
561.80 0.6431
561.90 0.6427
562.00 0.6422
562.10 0.6418
562.20 0.6414
562.30 0.6409
562.40 0.6405
562.50 0.6401
562.60 0.6396
562.70 0.6392
562.80 0.6388
562.90 0.6383
563.00 0.6379
563.10 0.6374
563.20 0.637
563.30 0.6366
563.40 0.6361
563.50 0.6357
563.60 0.6353
563.70 0.6348
563.80 0.6344
563.90 0.634
564.00 0.6336
564.10 0.6331
564.20 0.6327
564.30 0.6323
564.40 0.6318
564.50 0.6314
564.60 0.631
564.70 0.6305
564.80 0.6301
564.90 0.6297
565.00 0.6293
565.10 0.6288
565.20 0.6284
565.30 0.628
565.40 0.6276
565.50 0.6271
565.60 0.6267
565.70 0.6263
565.80 0.6259
565.90 0.6254
566.00 0.625
566.10 0.6246
566.20 0.6242
566.30 0.6237
566.40 0.6233
566.50 0.6229
566.60 0.6225
566.70 0.622
566.80 0.6216
566.90 0.6212
567.00 0.6208
567.10 0.6204
567.20 0.6199
567.30 0.6195
567.40 0.6191
567.50 0.6187
567.60 0.6183
567.70 0.6178
567.80 0.6174
567.90 0.617
568.00 0.6166
568.10 0.6162
568.20 0.6158
568.30 0.6153
568.40 0.6149
568.50 0.6145
568.60 0.6141
568.70 0.6137
568.80 0.6133
568.90 0.6129
569.00 0.6124
569.10 0.612
569.20 0.6116
569.30 0.6112
569.40 0.6108
569.50 0.6104
569.60 0.61
569.70 0.6096
569.80 0.6091
569.90 0.6087
570.00 0.6083
570.10 0.6079
570.20 0.6075
570.30 0.6071
570.40 0.6067
570.50 0.6063
570.60 0.6059
570.70 0.6055
570.80 0.6051
570.90 0.6047
571.00 0.6042
571.10 0.6038
571.20 0.6034
571.30 0.603
571.40 0.6026
571.50 0.6022
571.60 0.6018
571.70 0.6014
571.80 0.601
571.90 0.6006
572.00 0.6002
572.10 0.5998
572.20 0.5994
572.30 0.599
572.40 0.5986
572.50 0.5982
572.60 0.5978
572.70 0.5974
572.80 0.597
572.90 0.5966
573.00 0.5962
573.10 0.5958
573.20 0.5954
573.30 0.595
573.40 0.5946
573.50 0.5942
573.60 0.5938
573.70 0.5934
573.80 0.593
573.90 0.5926
574.00 0.5922
574.10 0.5918
574.20 0.5914
574.30 0.591
574.40 0.5906
574.50 0.5902
574.60 0.5898
574.70 0.5894
574.80 0.589
574.90 0.5887
575.00 0.5883
575.10 0.5879
575.20 0.5875
575.30 0.5871
575.40 0.5867
575.50 0.5863
575.60 0.5859
575.70 0.5855
575.80 0.5851
575.90 0.5847
576.00 0.5843
576.10 0.584
576.20 0.5836
576.30 0.5832
576.40 0.5828
576.50 0.5824
576.60 0.582
576.70 0.5816
576.80 0.5812
576.90 0.5809
577.00 0.5805
577.10 0.5801
577.20 0.5797
577.30 0.5793
577.40 0.5789
577.50 0.5785
577.60 0.5782
577.70 0.5778
577.80 0.5774
577.90 0.577
578.00 0.5766
578.10 0.5762
578.20 0.5759
578.30 0.5755
578.40 0.5751
578.50 0.5747
578.60 0.5743
578.70 0.5739
578.80 0.5736
578.90 0.5732
579.00 0.5728
579.10 0.5724
579.20 0.572
579.30 0.5717
579.40 0.5713
579.50 0.5709
579.60 0.5705
579.70 0.5701
579.80 0.5698
579.90 0.5694
580.00 0.569
580.10 0.5686
580.20 0.5683
580.30 0.5679
580.40 0.5675
580.50 0.5671
580.60 0.5668
580.70 0.5664
580.80 0.566
580.90 0.5656
581.00 0.5653
581.10 0.5649
581.20 0.5645
581.30 0.5641
581.40 0.5638
581.50 0.5634
581.60 0.563
581.70 0.5627
581.80 0.5623
581.90 0.5619
582.00 0.5615
582.10 0.5612
582.20 0.5608
582.30 0.5604
582.40 0.5601
582.50 0.5597
582.60 0.5593
582.70 0.5589
582.80 0.5586
582.90 0.5582
583.00 0.5578
583.10 0.5575
583.20 0.5571
583.30 0.5567
583.40 0.5564
583.50 0.556
583.60 0.5556
583.70 0.5553
583.80 0.5549
583.90 0.5545
584.00 0.5542
584.10 0.5538
584.20 0.5535
584.30 0.5531
584.40 0.5527
584.50 0.5524
584.60 0.552
584.70 0.5516
584.80 0.5513
584.90 0.5509
585.00 0.5505
585.10 0.5502
585.20 0.5498
585.30 0.5495
585.40 0.5491
585.50 0.5487
585.60 0.5484
585.70 0.548
585.80 0.5477
585.90 0.5473
586.00 0.5469
586.10 0.5466
586.20 0.5462
586.30 0.5459
586.40 0.5455
586.50 0.5452
586.60 0.5448
586.70 0.5444
586.80 0.5441
586.90 0.5437
587.00 0.5434
587.10 0.543
587.20 0.5427
587.30 0.5423
587.40 0.5419
587.50 0.5416
587.60 0.5412
587.70 0.5409
587.80 0.5405
587.90 0.5402
588.00 0.5398
588.10 0.5395
588.20 0.5391
588.30 0.5388
588.40 0.5384
588.50 0.5381
588.60 0.5377
588.70 0.5374
588.80 0.537
588.90 0.5367
589.00 0.5363
589.10 0.536
589.20 0.5356
589.30 0.5353
589.40 0.5349
589.50 0.5346
589.60 0.5342
589.70 0.5339
589.80 0.5335
589.90 0.5332
590.00 0.5328
590.10 0.5325
590.20 0.5321
590.30 0.5318
590.40 0.5314
590.50 0.5311
590.60 0.5307
590.70 0.5304
590.80 0.5301
590.90 0.5297
591.00 0.5294
591.10 0.529
591.20 0.5287
591.30 0.5283
591.40 0.528
591.50 0.5276
591.60 0.5273
591.70 0.527
591.80 0.5266
591.90 0.5263
592.00 0.5259
592.10 0.5256
592.20 0.5252
592.30 0.5249
592.40 0.5246
592.50 0.5242
592.60 0.5239
592.70 0.5235
592.80 0.5232
592.90 0.5229
593.00 0.5225
593.10 0.5222
593.20 0.5218
593.30 0.5215
593.40 0.5212
593.50 0.5208
593.60 0.5205
593.70 0.5202
593.80 0.5198
593.90 0.5195
594.00 0.5191
594.10 0.5188
594.20 0.5185
594.30 0.5181
594.40 0.5178
594.50 0.5175
594.60 0.5171
594.70 0.5168
594.80 0.5165
594.90 0.5161
595.00 0.5158
595.10 0.5155
595.20 0.5151
595.30 0.5148
595.40 0.5145
595.50 0.5141
595.60 0.5138
595.70 0.5135
595.80 0.5131
595.90 0.5128
596.00 0.5125
596.10 0.5121
596.20 0.5118
596.30 0.5115
596.40 0.5112
596.50 0.5108
596.60 0.5105
596.70 0.5102
596.80 0.5098
596.90 0.5095
597.00 0.5092
597.10 0.5089
597.20 0.5085
597.30 0.5082
597.40 0.5079
597.50 0.5075
597.60 0.5072
597.70 0.5069
597.80 0.5066
597.90 0.5062
598.00 0.5059
598.10 0.5056
598.20 0.5053
598.30 0.5049
598.40 0.5046
598.50 0.5043
598.60 0.504
598.70 0.5036
598.80 0.5033
598.90 0.503
599.00 0.5027
599.10 0.5023
599.20 0.502
599.30 0.5017
599.40 0.5014
599.50 0.5011
599.60 0.5007
599.70 0.5004
599.80 0.5001
599.90 0.4998
600.00 0.4994
600.10 0.4991
600.20 0.4988
600.30 0.4985
600.40 0.4982
600.50 0.4978
600.60 0.4975
600.70 0.4972
600.80 0.4969
600.90 0.4966
601.00 0.4963
601.10 0.4959
601.20 0.4956
601.30 0.4953
601.40 0.495
601.50 0.4947
601.60 0.4944
601.70 0.494
601.80 0.4937
601.90 0.4934
602.00 0.4931
602.10 0.4928
602.20 0.4925
602.30 0.4921
602.40 0.4918
602.50 0.4915
602.60 0.4912
602.70 0.4909
602.80 0.4906
602.90 0.4903
603.00 0.4899
603.10 0.4896
603.20 0.4893
603.30 0.489
603.40 0.4887
603.50 0.4884
603.60 0.4881
603.70 0.4878
603.80 0.4875
603.90 0.4871
604.00 0.4868
604.10 0.4865
604.20 0.4862
604.30 0.4859
604.40 0.4856
604.50 0.4853
604.60 0.485
604.70 0.4847
604.80 0.4844
604.90 0.484
605.00 0.4837
605.10 0.4834
605.20 0.4831
605.30 0.4828
605.40 0.4825
605.50 0.4822
605.60 0.4819
605.70 0.4816
605.80 0.4813
605.90 0.481
606.00 0.4807
606.10 0.4804
606.20 0.4801
606.30 0.4798
606.40 0.4794
606.50 0.4791
606.60 0.4788
606.70 0.4785
606.80 0.4782
606.90 0.4779
607.00 0.4776
607.10 0.4773
607.20 0.477
607.30 0.4767
607.40 0.4764
607.50 0.4761
607.60 0.4758
607.70 0.4755
607.80 0.4752
607.90 0.4749
608.00 0.4746
608.10 0.4743
608.20 0.474
608.30 0.4737
608.40 0.4734
608.50 0.4731
608.60 0.4728
608.70 0.4725
608.80 0.4722
608.90 0.4719
609.00 0.4716
609.10 0.4713
609.20 0.471
609.30 0.4707
609.40 0.4704
609.50 0.4701
609.60 0.4698
609.70 0.4695
609.80 0.4692
609.90 0.4689
610.00 0.4686
610.10 0.4683
610.20 0.468
610.30 0.4677
610.40 0.4674
610.50 0.4672
610.60 0.4669
610.70 0.4666
610.80 0.4663
610.90 0.466
611.00 0.4657
611.10 0.4654
611.20 0.4651
611.30 0.4648
611.40 0.4645
611.50 0.4642
611.60 0.4639
611.70 0.4636
611.80 0.4633
611.90 0.463
612.00 0.4627
612.10 0.4625
612.20 0.4622
612.30 0.4619
612.40 0.4616
612.50 0.4613
612.60 0.461
612.70 0.4607
612.80 0.4604
612.90 0.4601
613.00 0.4598
613.10 0.4596
613.20 0.4593
613.30 0.459
613.40 0.4587
613.50 0.4584
613.60 0.4581
613.70 0.4578
613.80 0.4575
613.90 0.4572
614.00 0.457
614.10 0.4567
614.20 0.4564
614.30 0.4561
614.40 0.4558
614.50 0.4555
614.60 0.4552
614.70 0.455
614.80 0.4547
614.90 0.4544
615.00 0.4541
615.10 0.4538
615.20 0.4535
615.30 0.4532
615.40 0.453
615.50 0.4527
615.60 0.4524
615.70 0.4521
615.80 0.4518
615.90 0.4515
616.00 0.4513
616.10 0.451
616.20 0.4507
616.30 0.4504
616.40 0.4501
616.50 0.4498
616.60 0.4496
616.70 0.4493
616.80 0.449
616.90 0.4487
617.00 0.4484
617.10 0.4482
617.20 0.4479
617.30 0.4476
617.40 0.4473
617.50 0.447
617.60 0.4468
617.70 0.4465
617.80 0.4462
617.90 0.4459
618.00 0.4456
618.10 0.4454
618.20 0.4451
618.30 0.4448
618.40 0.4445
618.50 0.4442
618.60 0.444
618.70 0.4437
618.80 0.4434
618.90 0.4431
619.00 0.4429
619.10 0.4426
619.20 0.4423
619.30 0.442
619.40 0.4418
619.50 0.4415
619.60 0.4412
619.70 0.4409
619.80 0.4406
619.90 0.4404
620.00 0.4401
620.10 0.4398
620.20 0.4395
620.30 0.4393
620.40 0.439
620.50 0.4387
620.60 0.4385
620.70 0.4382
620.80 0.4379
620.90 0.4376
621.00 0.4374
621.10 0.4371
621.20 0.4368
621.30 0.4365
621.40 0.4363
621.50 0.436
621.60 0.4357
621.70 0.4355
621.80 0.4352
621.90 0.4349
622.00 0.4346
622.10 0.4344
622.20 0.4341
622.30 0.4338
622.40 0.4336
622.50 0.4333
622.60 0.433
622.70 0.4328
622.80 0.4325
622.90 0.4322
623.00 0.4319
623.10 0.4317
623.20 0.4314
623.30 0.4311
623.40 0.4309
623.50 0.4306
623.60 0.4303
623.70 0.4301
623.80 0.4298
623.90 0.4295
624.00 0.4293
624.10 0.429
624.20 0.4287
624.30 0.4285
624.40 0.4282
624.50 0.4279
624.60 0.4277
624.70 0.4274
624.80 0.4271
624.90 0.4269
625.00 0.4266
625.10 0.4263
625.20 0.4261
625.30 0.4258
625.40 0.4255
625.50 0.4253
625.60 0.425
625.70 0.4248
625.80 0.4245
625.90 0.4242
626.00 0.424
626.10 0.4237
626.20 0.4234
626.30 0.4232
626.40 0.4229
626.50 0.4226
626.60 0.4224
626.70 0.4221
626.80 0.4219
626.90 0.4216
627.00 0.4213
627.10 0.4211
627.20 0.4208
627.30 0.4206
627.40 0.4203
627.50 0.42
627.60 0.4198
627.70 0.4195
627.80 0.4193
627.90 0.419
628.00 0.4187
628.10 0.4185
628.20 0.4182
628.30 0.418
628.40 0.4177
628.50 0.4174
628.60 0.4172
628.70 0.4169
628.80 0.4167
628.90 0.4164
629.00 0.4161
629.10 0.4159
629.20 0.4156
629.30 0.4154
629.40 0.4151
629.50 0.4149
629.60 0.4146
629.70 0.4143
629.80 0.4141
629.90 0.4138
630.00 0.4136
630.10 0.4133
630.20 0.4131
630.30 0.4128
630.40 0.4125
630.50 0.4123
630.60 0.412
630.70 0.4118
630.80 0.4115
630.90 0.4113
631.00 0.411
631.10 0.4107
631.20 0.4105
631.30 0.4102
631.40 0.41
631.50 0.4097
631.60 0.4095
631.70 0.4092
631.80 0.409
631.90 0.4087
632.00 0.4085
632.10 0.4082
632.20 0.4079
632.30 0.4077
632.40 0.4074
632.50 0.4072
632.60 0.4069
632.70 0.4067
632.80 0.4064
632.90 0.4062
633.00 0.4059
633.10 0.4057
633.20 0.4054
633.30 0.4052
633.40 0.4049
633.50 0.4047
633.60 0.4044
633.70 0.4042
633.80 0.4039
633.90 0.4037
634.00 0.4034
634.10 0.4031
634.20 0.4029
634.30 0.4026
634.40 0.4024
634.50 0.4021
634.60 0.4019
634.70 0.4016
634.80 0.4014
634.90 0.4011
635.00 0.4009
635.10 0.4006
635.20 0.4004
635.30 0.4001
635.40 0.3999
635.50 0.3996
635.60 0.3994
635.70 0.3991
635.80 0.3989
635.90 0.3986
636.00 0.3984
636.10 0.3981
636.20 0.3979
636.30 0.3976
636.40 0.3974
636.50 0.3971
636.60 0.3969
636.70 0.3966
636.80 0.3964
636.90 0.3961
637.00 0.3959
637.10 0.3956
637.20 0.3954
637.30 0.3951
637.40 0.3949
637.50 0.3946
637.60 0.3944
637.70 0.3941
637.80 0.3939
637.90 0.3936
638.00 0.3934
638.10 0.3931
638.20 0.3929
638.30 0.3926
638.40 0.3924
638.50 0.3921
638.60 0.3919
638.70 0.3916
638.80 0.3914
638.90 0.3911
639.00 0.3909
639.10 0.3906
639.20 0.3904
639.30 0.3901
639.40 0.3899
639.50 0.3896
639.60 0.3894
639.70 0.3891
639.80 0.3889
639.90 0.3886
640.00 0.3884
640.10 0.3881
640.20 0.3879
640.30 0.3876
640.40 0.3874
640.50 0.3871
640.60 0.3869
640.70 0.3866
640.80 0.3864
640.90 0.3861
641.00 0.3859
641.10 0.3856
641.20 0.3854
641.30 0.3851
641.40 0.3849
641.50 0.3846
641.60 0.3844
641.70 0.3841
641.80 0.3839
641.90 0.3836
642.00 0.3833
642.10 0.3831
642.20 0.3828
642.30 0.3826
642.40 0.3823
642.50 0.3821
642.60 0.3818
642.70 0.3815
642.80 0.3813
642.90 0.381
643.00 0.3808
643.10 0.3805
643.20 0.3803
643.30 0.38
643.40 0.3797
643.50 0.3795
643.60 0.3792
643.70 0.3789
643.80 0.3787
643.90 0.3784
644.00 0.3782
644.10 0.3779
644.20 0.3776
644.30 0.3774
644.40 0.3771
644.50 0.3768
644.60 0.3766
644.70 0.3763
644.80 0.376
644.90 0.3757
645.00 0.3755
645.10 0.3752
645.20 0.3749
645.30 0.3747
645.40 0.3744
645.50 0.3741
645.60 0.3738
645.70 0.3735
645.80 0.3732
645.90 0.373
646.00 0.3727
646.10 0.3724
646.20 0.3721
646.30 0.3718
646.40 0.3715
646.50 0.3712
646.60 0.3709
646.70 0.3706
646.80 0.3703
646.90 0.37
647.00 0.3698
647.10 0.3695
647.20 0.3692
647.30 0.3689
647.40 0.3685
647.50 0.3682
647.60 0.3679
647.70 0.3676
647.80 0.3672
647.90 0.3669
648.00 0.3666
648.10 0.3663
648.20 0.366
648.30 0.3656
648.40 0.3653
648.50 0.3649
648.60 0.3646
648.70 0.3642
648.80 0.3639
648.90 0.3635
649.00 0.3632
649.10 0.3628
649.20 0.3624
649.30 0.3621
649.40 0.3617
649.50 0.3613
649.60 0.3609
649.70 0.3605
649.80 0.3601
649.90 0.3597
650.00 0.3592
650.10 0.3588
650.20 0.3584
650.30 0.358
650.40 0.3575
650.50 0.3571
650.60 0.3566
650.70 0.3561
650.80 0.3556
650.90 0.3552
651.00 0.3547
651.10 0.3542
651.20 0.3537
651.30 0.3532
651.40 0.3527
651.50 0.3521
651.60 0.3515
651.70 0.3509
651.80 0.3503
651.90 0.3497
652.00 0.3492
652.10 0.3486
652.20 0.348
652.30 0.3474
652.40 0.3466
652.50 0.3459
652.60 0.3452
652.70 0.3444
652.80 0.3437
652.90 0.343
653.00 0.3422
653.10 0.3415
653.20 0.3408
653.30 0.34
653.40 0.3391
653.50 0.3381
653.60 0.3372
653.70 0.3363
653.80 0.3353
653.90 0.3344
654.00 0.3335
654.10 0.3325
654.20 0.3316
654.30 0.3306
654.40 0.3295
654.50 0.3284
654.60 0.3273
654.70 0.3262
654.80 0.325
654.90 0.3238
655.00 0.3226
655.10 0.3214
655.20 0.3202
655.30 0.319
655.40 0.3177
655.50 0.3165
655.60 0.3153
655.70 0.314
655.80 0.3129
655.90 0.3118
656.00 0.3112
656.10 0.3109
656.20 0.3178
656.30 0.3318
656.40 0.3128
656.50 0.3101
656.60 0.3104
656.70 0.3107
656.80 0.3115
656.90 0.3123
657.00 0.3132
657.10 0.3141
657.20 0.3149
657.30 0.3158
657.40 0.3167
657.50 0.3175
657.60 0.3183
657.70 0.3192
657.80 0.32
657.90 0.3207
658.00 0.3214
658.10 0.3222
658.20 0.3229
658.30 0.3236
658.40 0.3241
658.50 0.3246
658.60 0.3252
658.70 0.3257
658.80 0.3263
658.90 0.3268
659.00 0.3273
659.10 0.3279
659.20 0.3284
659.30 0.3289
659.40 0.3292
659.50 0.3295
659.60 0.3299
659.70 0.3302
659.80 0.3305
659.90 0.3308
660.00 0.3312
660.10 0.3315
660.20 0.3318
660.30 0.3321
660.40 0.3323
660.50 0.3324
660.60 0.3326
660.70 0.3327
660.80 0.3329
660.90 0.3331
661.00 0.3332
661.10 0.3334
661.20 0.3336
661.30 0.3337
661.40 0.3338
661.50 0.3338
661.60 0.3339
661.70 0.3339
661.80 0.334
661.90 0.334
662.00 0.3341
662.10 0.3341
662.20 0.3342
662.30 0.3342
662.40 0.3342
662.50 0.3342
662.60 0.3342
662.70 0.3341
662.80 0.3341
662.90 0.3341
663.00 0.3341
663.10 0.3341
663.20 0.334
663.30 0.334
663.40 0.3339
663.50 0.3339
663.60 0.3338
663.70 0.3337
663.80 0.3337
663.90 0.3336
664.00 0.3335
664.10 0.3335
664.20 0.3334
664.30 0.3333
664.40 0.3332
664.50 0.3331
664.60 0.333
664.70 0.3329
664.80 0.3328
664.90 0.3327
665.00 0.3326
665.10 0.3325
665.20 0.3324
665.30 0.3323
665.40 0.3321
665.50 0.332
665.60 0.3319
665.70 0.3318
665.80 0.3316
665.90 0.3315
666.00 0.3314
666.10 0.3313
666.20 0.3311
666.30 0.331
666.40 0.3309
666.50 0.3307
666.60 0.3306
666.70 0.3304
666.80 0.3303
666.90 0.3301
667.00 0.33
667.10 0.3299
667.20 0.3297
667.30 0.3296
667.40 0.3294
667.50 0.3293
667.60 0.3291
667.70 0.329
667.80 0.3288
667.90 0.3287
668.00 0.3285
668.10 0.3284
668.20 0.3282
668.30 0.3281
668.40 0.3279
668.50 0.3277
668.60 0.3276
668.70 0.3274
668.80 0.3273
668.90 0.3271
669.00 0.3269
669.10 0.3268
669.20 0.3266
669.30 0.3265
669.40 0.3263
669.50 0.3261
669.60 0.326
669.70 0.3258
669.80 0.3256
669.90 0.3255
670.00 0.3253
670.10 0.3251
670.20 0.325
670.30 0.3248
670.40 0.3246
670.50 0.3245
670.60 0.3243
670.70 0.3241
670.80 0.324
670.90 0.3238
671.00 0.3236
671.10 0.3235
671.20 0.3233
671.30 0.3231
671.40 0.3229
671.50 0.3228
671.60 0.3226
671.70 0.3224
671.80 0.3223
671.90 0.3221
672.00 0.3219
672.10 0.3218
672.20 0.3216
672.30 0.3214
672.40 0.3212
672.50 0.3211
672.60 0.3209
672.70 0.3207
672.80 0.3206
672.90 0.3204
673.00 0.3202
673.10 0.32
673.20 0.3199
673.30 0.3197
673.40 0.3195
673.50 0.3193
673.60 0.3192
673.70 0.319
673.80 0.3188
673.90 0.3187
674.00 0.3185
674.10 0.3183
674.20 0.3181
674.30 0.318
674.40 0.3178
674.50 0.3176
674.60 0.3174
674.70 0.3173
674.80 0.3171
674.90 0.3169
675.00 0.3167
675.10 0.3166
675.20 0.3164
675.30 0.3162
675.40 0.3161
675.50 0.3159
675.60 0.3157
675.70 0.3155
675.80 0.3154
675.90 0.3152
676.00 0.315
676.10 0.3148
676.20 0.3147
676.30 0.3145
676.40 0.3143
676.50 0.3141
676.60 0.314
676.70 0.3138
676.80 0.3136
676.90 0.3135
677.00 0.3133
677.10 0.3131
677.20 0.3129
677.30 0.3128
677.40 0.3126
677.50 0.3124
677.60 0.3122
677.70 0.3121
677.80 0.3119
677.90 0.3117
678.00 0.3116
678.10 0.3114
678.20 0.3112
678.30 0.311
678.40 0.3109
678.50 0.3107
678.60 0.3105
678.70 0.3103
678.80 0.3102
678.90 0.31
679.00 0.3098
679.10 0.3097
679.20 0.3095
679.30 0.3093
679.40 0.3091
679.50 0.309
679.60 0.3088
679.70 0.3086
679.80 0.3085
679.90 0.3083
680.00 0.3081
680.10 0.3079
680.20 0.3078
680.30 0.3076
680.40 0.3074
680.50 0.3073
680.60 0.3071
680.70 0.3069
680.80 0.3067
680.90 0.3066
681.00 0.3064
681.10 0.3062
681.20 0.3061
681.30 0.3059
681.40 0.3057
681.50 0.3055
681.60 0.3054
681.70 0.3052
681.80 0.305
681.90 0.3049
682.00 0.3047
682.10 0.3045
682.20 0.3044
682.30 0.3042
682.40 0.304
682.50 0.3038
682.60 0.3037
682.70 0.3035
682.80 0.3033
682.90 0.3032
683.00 0.303
683.10 0.3028
683.20 0.3027
683.30 0.3025
683.40 0.3023
683.50 0.3022
683.60 0.302
683.70 0.3018
683.80 0.3016
683.90 0.3015
684.00 0.3013
684.10 0.3011
684.20 0.301
684.30 0.3008
684.40 0.3006
684.50 0.3005
684.60 0.3003
684.70 0.3001
684.80 0.3
684.90 0.2998
685.00 0.2996
685.10 0.2995
685.20 0.2993
685.30 0.2991
685.40 0.299
685.50 0.2988
685.60 0.2986
685.70 0.2985
685.80 0.2983
685.90 0.2981
686.00 0.298
686.10 0.2978
686.20 0.2976
686.30 0.2975
686.40 0.2973
686.50 0.2971
686.60 0.297
686.70 0.2968
686.80 0.2966
686.90 0.2965
687.00 0.2963
687.10 0.2961
687.20 0.296
687.30 0.2958
687.40 0.2957
687.50 0.2955
687.60 0.2953
687.70 0.2952
687.80 0.295
687.90 0.2948
688.00 0.2947
688.10 0.2945
688.20 0.2943
688.30 0.2942
688.40 0.294
688.50 0.2938
688.60 0.2937
688.70 0.2935
688.80 0.2934
688.90 0.2932
689.00 0.293
689.10 0.2929
689.20 0.2927
689.30 0.2925
689.40 0.2924
689.50 0.2922
689.60 0.2921
689.70 0.2919
689.80 0.2917
689.90 0.2916
690.00 0.2914
690.10 0.2912
690.20 0.2911
690.30 0.2909
690.40 0.2908
690.50 0.2906
690.60 0.2904
690.70 0.2903
690.80 0.2901
690.90 0.29
691.00 0.2898
691.10 0.2896
691.20 0.2895
691.30 0.2893
691.40 0.2891
691.50 0.289
691.60 0.2888
691.70 0.2887
691.80 0.2885
691.90 0.2883
692.00 0.2882
692.10 0.288
692.20 0.2879
692.30 0.2877
692.40 0.2875
692.50 0.2874
692.60 0.2872
692.70 0.2871
692.80 0.2869
692.90 0.2867
693.00 0.2866
693.10 0.2864
693.20 0.2863
693.30 0.2861
693.40 0.286
693.50 0.2858
693.60 0.2856
693.70 0.2855
693.80 0.2853
693.90 0.2852
694.00 0.285
694.10 0.2848
694.20 0.2847
694.30 0.2845
694.40 0.2844
694.50 0.2842
694.60 0.2841
694.70 0.2839
694.80 0.2837
694.90 0.2836
695.00 0.2834
695.10 0.2833
695.20 0.2831
695.30 0.283
695.40 0.2828
695.50 0.2826
695.60 0.2825
695.70 0.2823
695.80 0.2822
695.90 0.282
696.00 0.2819
696.10 0.2817
696.20 0.2816
696.30 0.2814
696.40 0.2812
696.50 0.2811
696.60 0.2809
696.70 0.2808
696.80 0.2806
696.90 0.2805
697.00 0.2803
697.10 0.2802
697.20 0.28
697.30 0.2798
697.40 0.2797
697.50 0.2795
697.60 0.2794
697.70 0.2792
697.80 0.2791
697.90 0.2789
698.00 0.2788
698.10 0.2786
698.20 0.2785
698.30 0.2783
698.40 0.2782
698.50 0.278
698.60 0.2778
698.70 0.2777
698.80 0.2775
698.90 0.2774
699.00 0.2772
699.10 0.2771
699.20 0.2769
699.30 0.2768
699.40 0.2766
699.50 0.2765
699.60 0.2763
699.70 0.2762
699.80 0.276
699.90 0.2759
700.00 0.2757
700.10 0.2756
700.20 0.2754
700.30 0.2752
700.40 0.2751
700.50 0.2749
700.60 0.2748
700.70 0.2746
700.80 0.2745
700.90 0.2743
701.00 0.2742
701.10 0.274
701.20 0.2739
701.30 0.2737
701.40 0.2736
701.50 0.2734
701.60 0.2733
701.70 0.2731
701.80 0.273
701.90 0.2728
702.00 0.2727
702.10 0.2725
702.20 0.2724
702.30 0.2722
702.40 0.2721
702.50 0.2719
702.60 0.2718
702.70 0.2716
702.80 0.2715
702.90 0.2714
703.00 0.2712
703.10 0.2711
703.20 0.2709
703.30 0.2708
703.40 0.2706
703.50 0.2705
703.60 0.2703
703.70 0.2702
703.80 0.27
703.90 0.2699
704.00 0.2697
704.10 0.2696
704.20 0.2694
704.30 0.2693
704.40 0.2691
704.50 0.269
704.60 0.2688
704.70 0.2687
704.80 0.2685
704.90 0.2684
705.00 0.2682
705.10 0.2681
705.20 0.2679
705.30 0.2678
705.40 0.2677
705.50 0.2675
705.60 0.2674
705.70 0.2672
705.80 0.2671
705.90 0.2669
706.00 0.2668
706.10 0.2666
706.20 0.2665
706.30 0.2663
706.40 0.2662
706.50 0.2661
706.60 0.2659
706.70 0.2658
706.80 0.2656
706.90 0.2655
707.00 0.2653
707.10 0.2652
707.20 0.265
707.30 0.2649
707.40 0.2648
707.50 0.2646
707.60 0.2645
707.70 0.2643
707.80 0.2642
707.90 0.264
708.00 0.2639
708.10 0.2637
708.20 0.2636
708.30 0.2635
708.40 0.2633
708.50 0.2632
708.60 0.263
708.70 0.2629
708.80 0.2627
708.90 0.2626
709.00 0.2625
709.10 0.2623
709.20 0.2622
709.30 0.262
709.40 0.2619
709.50 0.2617
709.60 0.2616
709.70 0.2614
709.80 0.2613
709.90 0.2612
710.00 0.261
710.10 0.2609
710.20 0.2607
710.30 0.2606
710.40 0.2605
710.50 0.2603
710.60 0.2602
710.70 0.26
710.80 0.2599
710.90 0.2598
711.00 0.2596
711.10 0.2595
711.20 0.2593
711.30 0.2592
711.40 0.259
711.50 0.2589
711.60 0.2588
711.70 0.2586
711.80 0.2585
711.90 0.2583
712.00 0.2582
712.10 0.2581
712.20 0.2579
712.30 0.2578
712.40 0.2576
712.50 0.2575
712.60 0.2574
712.70 0.2572
712.80 0.2571
712.90 0.257
713.00 0.2568
713.10 0.2567
713.20 0.2565
713.30 0.2564
713.40 0.2563
713.50 0.2561
713.60 0.256
713.70 0.2558
713.80 0.2557
713.90 0.2556
714.00 0.2554
714.10 0.2553
714.20 0.2551
714.30 0.255
714.40 0.2549
714.50 0.2547
714.60 0.2546
714.70 0.2545
714.80 0.2543
714.90 0.2542
715.00 0.254
715.10 0.2539
715.20 0.2538
715.30 0.2536
715.40 0.2535
715.50 0.2534
715.60 0.2532
715.70 0.2531
715.80 0.253
715.90 0.2528
716.00 0.2527
716.10 0.2525
716.20 0.2524
716.30 0.2523
716.40 0.2521
716.50 0.252
716.60 0.2519
716.70 0.2517
716.80 0.2516
716.90 0.2515
717.00 0.2513
717.10 0.2512
717.20 0.2511
717.30 0.2509
717.40 0.2508
717.50 0.2506
717.60 0.2505
717.70 0.2504
717.80 0.2502
717.90 0.2501
718.00 0.25
718.10 0.2498
718.20 0.2497
718.30 0.2496
718.40 0.2494
718.50 0.2493
718.60 0.2492
718.70 0.249
718.80 0.2489
718.90 0.2488
719.00 0.2486
719.10 0.2485
719.20 0.2484
719.30 0.2482
719.40 0.2481
719.50 0.248
719.60 0.2478
719.70 0.2477
719.80 0.2476
719.90 0.2474
720.00 0.2473
720.10 0.2472
720.20 0.247
720.30 0.2469
720.40 0.2468
720.50 0.2466
720.60 0.2465
720.70 0.2464
720.80 0.2462
720.90 0.2461
721.00 0.246
721.10 0.2458
721.20 0.2457
721.30 0.2456
721.40 0.2455
721.50 0.2453
721.60 0.2452
721.70 0.2451
721.80 0.2449
721.90 0.2448
722.00 0.2447
722.10 0.2445
722.20 0.2444
722.30 0.2443
722.40 0.2441
722.50 0.244
722.60 0.2439
722.70 0.2438
722.80 0.2436
722.90 0.2435
723.00 0.2434
723.10 0.2432
723.20 0.2431
723.30 0.243
723.40 0.2428
723.50 0.2427
723.60 0.2426
723.70 0.2424
723.80 0.2423
723.90 0.2422
724.00 0.2421
724.10 0.2419
724.20 0.2418
724.30 0.2417
724.40 0.2415
724.50 0.2414
724.60 0.2413
724.70 0.2412
724.80 0.241
724.90 0.2409
725.00 0.2408
725.10 0.2406
725.20 0.2405
725.30 0.2404
725.40 0.2403
725.50 0.2401
725.60 0.24
725.70 0.2399
725.80 0.2397
725.90 0.2396
726.00 0.2395
726.10 0.2394
726.20 0.2392
726.30 0.2391
726.40 0.239
726.50 0.2389
726.60 0.2387
726.70 0.2386
726.80 0.2385
726.90 0.2384
727.00 0.2382
727.10 0.2381
727.20 0.238
727.30 0.2378
727.40 0.2377
727.50 0.2376
727.60 0.2375
727.70 0.2373
727.80 0.2372
727.90 0.2371
728.00 0.237
728.10 0.2368
728.20 0.2367
728.30 0.2366
728.40 0.2365
728.50 0.2363
728.60 0.2362
728.70 0.2361
728.80 0.236
728.90 0.2358
729.00 0.2357
729.10 0.2356
729.20 0.2355
729.30 0.2353
729.40 0.2352
729.50 0.2351
729.60 0.235
729.70 0.2348
729.80 0.2347
729.90 0.2346
730.00 0.2345
730.10 0.2343
730.20 0.2342
730.30 0.2341
730.40 0.234
730.50 0.2338
730.60 0.2337
730.70 0.2336
730.80 0.2335
730.90 0.2333
731.00 0.2332
731.10 0.2331
731.20 0.233
731.30 0.2329
731.40 0.2327
731.50 0.2326
731.60 0.2325
731.70 0.2324
731.80 0.2322
731.90 0.2321
732.00 0.232
732.10 0.2319
732.20 0.2318
732.30 0.2316
732.40 0.2315
732.50 0.2314
732.60 0.2313
732.70 0.2312
732.80 0.231
732.90 0.2309
733.00 0.2308
733.10 0.2307
733.20 0.2305
733.30 0.2304
733.40 0.2303
733.50 0.2302
733.60 0.2301
733.70 0.2299
733.80 0.2298
733.90 0.2297
734.00 0.2296
734.10 0.2295
734.20 0.2293
734.30 0.2292
734.40 0.2291
734.50 0.229
734.60 0.2289
734.70 0.2287
734.80 0.2286
734.90 0.2285
735.00 0.2284
735.10 0.2283
735.20 0.2281
735.30 0.228
735.40 0.2279
735.50 0.2278
735.60 0.2277
735.70 0.2275
735.80 0.2274
735.90 0.2273
736.00 0.2272
736.10 0.2271
736.20 0.2269
736.30 0.2268
736.40 0.2267
736.50 0.2266
736.60 0.2265
736.70 0.2263
736.80 0.2262
736.90 0.2261
737.00 0.226
737.10 0.2259
737.20 0.2257
737.30 0.2256
737.40 0.2255
737.50 0.2254
737.60 0.2253
737.70 0.2252
737.80 0.225
737.90 0.2249
738.00 0.2248
738.10 0.2247
738.20 0.2246
738.30 0.2244
738.40 0.2243
738.50 0.2242
738.60 0.2241
738.70 0.224
738.80 0.2238
738.90 0.2237
739.00 0.2236
739.10 0.2235
739.20 0.2234
739.30 0.2233
739.40 0.2231
739.50 0.223
739.60 0.2229
739.70 0.2228
739.80 0.2227
739.90 0.2226
740.00 0.2224
740.10 0.2223
740.20 0.2222
740.30 0.2221
740.40 0.222
740.50 0.2219
740.60 0.2217
740.70 0.2216
740.80 0.2215
740.90 0.2214
741.00 0.2213
741.10 0.2212
741.20 0.2211
741.30 0.2209
741.40 0.2208
741.50 0.2207
741.60 0.2206
741.70 0.2205
741.80 0.2204
741.90 0.2203
742.00 0.2201
742.10 0.22
742.20 0.2199
742.30 0.2198
742.40 0.2197
742.50 0.2196
742.60 0.2195
742.70 0.2193
742.80 0.2192
742.90 0.2191
743.00 0.219
743.10 0.2189
743.20 0.2188
743.30 0.2187
743.40 0.2186
743.50 0.2184
743.60 0.2183
743.70 0.2182
743.80 0.2181
743.90 0.218
744.00 0.2179
744.10 0.2178
744.20 0.2176
744.30 0.2175
744.40 0.2174
744.50 0.2173
744.60 0.2172
744.70 0.2171
744.80 0.217
744.90 0.2169
745.00 0.2167
745.10 0.2166
745.20 0.2165
745.30 0.2164
745.40 0.2163
745.50 0.2162
745.60 0.2161
745.70 0.216
745.80 0.2158
745.90 0.2157
746.00 0.2156
746.10 0.2155
746.20 0.2154
746.30 0.2153
746.40 0.2152
746.50 0.2151
746.60 0.2149
746.70 0.2148
746.80 0.2147
746.90 0.2146
747.00 0.2145
747.10 0.2144
747.20 0.2143
747.30 0.2142
747.40 0.2141
747.50 0.2139
747.60 0.2138
747.70 0.2137
747.80 0.2136
747.90 0.2135
748.00 0.2134
748.10 0.2133
748.20 0.2132
748.30 0.2131
748.40 0.2129
748.50 0.2128
748.60 0.2127
748.70 0.2126
748.80 0.2125
748.90 0.2124
749.00 0.2123
749.10 0.2122
749.20 0.2121
749.30 0.212
749.40 0.2118
749.50 0.2117
749.60 0.2116
749.70 0.2115
749.80 0.2114
749.90 0.2113
750.00 0.2112
750.10 0.2111
750.20 0.211
750.30 0.2109
750.40 0.2107
750.50 0.2106
750.60 0.2105
750.70 0.2104
750.80 0.2103
750.90 0.2102
751.00 0.2101
751.10 0.21
751.20 0.2099
751.30 0.2098
751.40 0.2097
751.50 0.2096
751.60 0.2095
751.70 0.2094
751.80 0.2092
751.90 0.2091
752.00 0.209
752.10 0.2089
752.20 0.2088
752.30 0.2087
752.40 0.2086
752.50 0.2085
752.60 0.2084
752.70 0.2083
752.80 0.2082
752.90 0.2081
753.00 0.208
753.10 0.2079
753.20 0.2077
753.30 0.2076
753.40 0.2075
753.50 0.2074
753.60 0.2073
753.70 0.2072
753.80 0.2071
753.90 0.207
754.00 0.2069
754.10 0.2068
754.20 0.2067
754.30 0.2066
754.40 0.2065
754.50 0.2064
754.60 0.2063
754.70 0.2062
754.80 0.2061
754.90 0.2059
755.00 0.2058
755.10 0.2057
755.20 0.2056
755.30 0.2055
755.40 0.2054
755.50 0.2053
755.60 0.2052
755.70 0.2051
755.80 0.205
755.90 0.2049
756.00 0.2048
756.10 0.2047
756.20 0.2046
756.30 0.2045
756.40 0.2044
756.50 0.2043
756.60 0.2042
756.70 0.2041
756.80 0.204
756.90 0.2038
757.00 0.2037
757.10 0.2036
757.20 0.2035
757.30 0.2034
757.40 0.2033
757.50 0.2032
757.60 0.2031
757.70 0.203
757.80 0.2029
757.90 0.2028
758.00 0.2027
758.10 0.2026
758.20 0.2025
758.30 0.2024
758.40 0.2023
758.50 0.2022
758.60 0.2021
758.70 0.202
758.80 0.2019
758.90 0.2018
759.00 0.2017
759.10 0.2016
759.20 0.2015
759.30 0.2013
759.40 0.2012
759.50 0.2011
759.60 0.201
759.70 0.2009
759.80 0.2008
759.90 0.2007
760.00 0.2006
760.10 0.2005
760.20 0.2004
760.30 0.2003
760.40 0.2002
760.50 0.2001
760.60 0.2
760.70 0.1999
760.80 0.1998
760.90 0.1997
761.00 0.1996
761.10 0.1995
761.20 0.1994
761.30 0.1993
761.40 0.1992
761.50 0.1991
761.60 0.199
761.70 0.1989
761.80 0.1988
761.90 0.1987
762.00 0.1986
762.10 0.1985
762.20 0.1984
762.30 0.1983
762.40 0.1982
762.50 0.1981
762.60 0.198
762.70 0.1979
762.80 0.1978
762.90 0.1977
763.00 0.1976
763.10 0.1975
763.20 0.1974
763.30 0.1973
763.40 0.1972
763.50 0.1971
763.60 0.197
763.70 0.1969
763.80 0.1968
763.90 0.1967
764.00 0.1966
764.10 0.1965
764.20 0.1964
764.30 0.1963
764.40 0.1962
764.50 0.1961
764.60 0.196
764.70 0.1959
764.80 0.1958
764.90 0.1957
765.00 0.1956
765.10 0.1955
765.20 0.1954
765.30 0.1953
765.40 0.1952
765.50 0.1951
765.60 0.195
765.70 0.1949
765.80 0.1948
765.90 0.1947
766.00 0.1946
766.10 0.1945
766.20 0.1944
766.30 0.1943
766.40 0.1942
766.50 0.1941
766.60 0.194
766.70 0.1939
766.80 0.1938
766.90 0.1937
767.00 0.1936
767.10 0.1935
767.20 0.1935
767.30 0.1934
767.40 0.1933
767.50 0.1932
767.60 0.1931
767.70 0.193
767.80 0.1929
767.90 0.1928
768.00 0.1927
768.10 0.1926
768.20 0.1925
768.30 0.1924
768.40 0.1923
768.50 0.1922
768.60 0.1921
768.70 0.192
768.80 0.1919
768.90 0.1918
769.00 0.1917
769.10 0.1916
769.20 0.1915
769.30 0.1914
769.40 0.1913
769.50 0.1912
769.60 0.1911
769.70 0.191
769.80 0.1909
769.90 0.1908
770.00 0.1907
770.10 0.1906
770.20 0.1905
770.30 0.1904
770.40 0.1903
770.50 0.1902
770.60 0.1902
770.70 0.1901
770.80 0.19
770.90 0.1899
771.00 0.1898
771.10 0.1897
771.20 0.1896
771.30 0.1895
771.40 0.1894
771.50 0.1893
771.60 0.1892
771.70 0.1891
771.80 0.189
771.90 0.1889
772.00 0.1888
772.10 0.1887
772.20 0.1886
772.30 0.1885
772.40 0.1885
772.50 0.1884
772.60 0.1883
772.70 0.1882
772.80 0.1881
772.90 0.188
773.00 0.1879
773.10 0.1878
773.20 0.1877
773.30 0.1876
773.40 0.1875
773.50 0.1874
773.60 0.1873
773.70 0.1872
773.80 0.1871
773.90 0.187
774.00 0.187
774.10 0.1869
774.20 0.1868
774.30 0.1867
774.40 0.1866
774.50 0.1865
774.60 0.1864
774.70 0.1863
774.80 0.1862
774.90 0.1861
775.00 0.186
775.10 0.1859
775.20 0.1858
775.30 0.1857
775.40 0.1856
775.50 0.1856
775.60 0.1855
775.70 0.1854
775.80 0.1853
775.90 0.1852
776.00 0.1851
776.10 0.185
776.20 0.1849
776.30 0.1848
776.40 0.1847
776.50 0.1846
776.60 0.1845
776.70 0.1844
776.80 0.1844
776.90 0.1843
777.00 0.1842
777.10 0.1841
777.20 0.184
777.30 0.1839
777.40 0.1838
777.50 0.1837
777.60 0.1836
777.70 0.1835
777.80 0.1834
777.90 0.1833
778.00 0.1833
778.10 0.1832
778.20 0.1831
778.30 0.183
778.40 0.1829
778.50 0.1828
778.60 0.1827
778.70 0.1826
778.80 0.1825
778.90 0.1824
779.00 0.1823
779.10 0.1822
779.20 0.1822
779.30 0.1821
779.40 0.182
779.50 0.1819
779.60 0.1818
779.70 0.1817
779.80 0.1816
779.90 0.1815
780.00 0.1814
780.10 0.1813
780.20 0.1812
780.30 0.1812
780.40 0.1811
780.50 0.181
780.60 0.1809
780.70 0.1808
780.80 0.1807
780.90 0.1806
781.00 0.1805
781.10 0.1804
781.20 0.1804
781.30 0.1803
781.40 0.1802
781.50 0.1801
781.60 0.18
781.70 0.1799
781.80 0.1798
781.90 0.1797
782.00 0.1796
782.10 0.1796
782.20 0.1795
782.30 0.1794
782.40 0.1793
782.50 0.1792
782.60 0.1791
782.70 0.179
782.80 0.1789
782.90 0.1789
783.00 0.1788
783.10 0.1787
783.20 0.1786
783.30 0.1785
783.40 0.1784
783.50 0.1783
783.60 0.1782
783.70 0.1781
783.80 0.1781
783.90 0.178
784.00 0.1779
784.10 0.1778
784.20 0.1777
784.30 0.1776
784.40 0.1775
784.50 0.1774
784.60 0.1774
784.70 0.1773
784.80 0.1772
784.90 0.1771
785.00 0.177
785.10 0.1769
785.20 0.1768
785.30 0.1767
785.40 0.1767
785.50 0.1766
785.60 0.1765
785.70 0.1764
785.80 0.1763
785.90 0.1762
786.00 0.1761
786.10 0.176
786.20 0.176
786.30 0.1759
786.40 0.1758
786.50 0.1757
786.60 0.1756
786.70 0.1755
786.80 0.1754
786.90 0.1754
787.00 0.1753
787.10 0.1752
787.20 0.1751
787.30 0.175
787.40 0.1749
787.50 0.1748
787.60 0.1747
787.70 0.1747
787.80 0.1746
787.90 0.1745
788.00 0.1744
788.10 0.1743
788.20 0.1742
788.30 0.1741
788.40 0.1741
788.50 0.174
788.60 0.1739
788.70 0.1738
788.80 0.1737
788.90 0.1736
789.00 0.1735
789.10 0.1735
789.20 0.1734
789.30 0.1733
789.40 0.1732
789.50 0.1731
789.60 0.173
789.70 0.1729
789.80 0.1729
789.90 0.1728
790.00 0.1727
790.10 0.1726
790.20 0.1725
790.30 0.1724
790.40 0.1724
790.50 0.1723
790.60 0.1722
790.70 0.1721
790.80 0.172
790.90 0.1719
791.00 0.1718
791.10 0.1718
791.20 0.1717
791.30 0.1716
791.40 0.1715
791.50 0.1714
791.60 0.1713
791.70 0.1713
791.80 0.1712
791.90 0.1711
792.00 0.171
792.10 0.1709
792.20 0.1708
792.30 0.1708
792.40 0.1707
792.50 0.1706
792.60 0.1705
792.70 0.1704
792.80 0.1703
792.90 0.1703
793.00 0.1702
793.10 0.1701
793.20 0.17
793.30 0.1699
793.40 0.1699
793.50 0.1698
793.60 0.1697
793.70 0.1696
793.80 0.1695
793.90 0.1694
794.00 0.1694
794.10 0.1693
794.20 0.1692
794.30 0.1691
794.40 0.169
794.50 0.1689
794.60 0.1689
794.70 0.1688
794.80 0.1687
794.90 0.1686
795.00 0.1685
795.10 0.1684
795.20 0.1684
795.30 0.1683
795.40 0.1682
795.50 0.1681
795.60 0.168
795.70 0.168
795.80 0.1679
795.90 0.1678
796.00 0.1677
796.10 0.1676
796.20 0.1675
796.30 0.1675
796.40 0.1674
796.50 0.1673
796.60 0.1672
796.70 0.1671
796.80 0.1671
796.90 0.167
797.00 0.1669
797.10 0.1668
797.20 0.1667
797.30 0.1667
797.40 0.1666
797.50 0.1665
797.60 0.1664
797.70 0.1663
797.80 0.1662
797.90 0.1662
798.00 0.1661
798.10 0.166
798.20 0.1659
798.30 0.1658
798.40 0.1658
798.50 0.1657
798.60 0.1656
798.70 0.1655
798.80 0.1654
798.90 0.1654
799.00 0.1653
799.10 0.1652
799.20 0.1651
799.30 0.165
799.40 0.165
799.50 0.1649
799.60 0.1648
799.70 0.1647
799.80 0.1646
799.90 0.1645
800.00 0.1645
800.10 0.1644
800.20 0.1643
800.30 0.1642
800.40 0.1642
800.50 0.1641
800.60 0.164
800.70 0.1639
800.80 0.1638
800.90 0.1638
801.00 0.1637
801.10 0.1636
801.20 0.1635
801.30 0.1634
801.40 0.1634
801.50 0.1633
801.60 0.1632
801.70 0.1631
801.80 0.1631
801.90 0.163
802.00 0.1629
802.10 0.1628
802.20 0.1627
802.30 0.1627
802.40 0.1626
802.50 0.1625
802.60 0.1624
802.70 0.1623
802.80 0.1623
802.90 0.1622
803.00 0.1621
803.10 0.162
803.20 0.162
803.30 0.1619
803.40 0.1618
803.50 0.1617
803.60 0.1616
803.70 0.1616
803.80 0.1615
803.90 0.1614
804.00 0.1613
804.10 0.1613
804.20 0.1612
804.30 0.1611
804.40 0.161
804.50 0.1609
804.60 0.1609
804.70 0.1608
804.80 0.1607
804.90 0.1606
805.00 0.1606
805.10 0.1605
805.20 0.1604
805.30 0.1603
805.40 0.1603
805.50 0.1602
805.60 0.1601
805.70 0.16
805.80 0.1599
805.90 0.1599
806.00 0.1598
806.10 0.1597
806.20 0.1596
806.30 0.1596
806.40 0.1595
806.50 0.1594
806.60 0.1593
806.70 0.1592
806.80 0.1592
806.90 0.1591
807.00 0.159
807.10 0.1589
807.20 0.1589
807.30 0.1588
807.40 0.1587
807.50 0.1586
807.60 0.1586
807.70 0.1585
807.80 0.1584
807.90 0.1583
808.00 0.1583
808.10 0.1582
808.20 0.1581
808.30 0.158
808.40 0.1579
808.50 0.1579
808.60 0.1578
808.70 0.1577
808.80 0.1576
808.90 0.1576
809.00 0.1575
809.10 0.1574
809.20 0.1573
809.30 0.1573
809.40 0.1572
809.50 0.1571
809.60 0.157
809.70 0.157
809.80 0.1569
809.90 0.1568
810.00 0.1567
810.10 0.1567
810.20 0.1566
810.30 0.1565
810.40 0.1564
810.50 0.1564
810.60 0.1563
810.70 0.1562
810.80 0.1561
810.90 0.1561
811.00 0.156
811.10 0.1559
811.20 0.1558
811.30 0.1558
811.40 0.1557
811.50 0.1556
811.60 0.1555
811.70 0.1555
811.80 0.1554
811.90 0.1553
812.00 0.1553
812.10 0.1552
812.20 0.1551
812.30 0.155
812.40 0.155
812.50 0.1549
812.60 0.1548
812.70 0.1547
812.80 0.1547
812.90 0.1546
813.00 0.1545
813.10 0.1544
813.20 0.1544
813.30 0.1543
813.40 0.1542
813.50 0.1541
813.60 0.1541
813.70 0.154
813.80 0.1539
813.90 0.1539
814.00 0.1538
814.10 0.1537
814.20 0.1536
814.30 0.1536
814.40 0.1535
814.50 0.1534
814.60 0.1533
814.70 0.1533
814.80 0.1532
814.90 0.1531
815.00 0.1531
815.10 0.153
815.20 0.1529
815.30 0.1528
815.40 0.1528
815.50 0.1527
815.60 0.1526
815.70 0.1525
815.80 0.1525
815.90 0.1524
816.00 0.1523
816.10 0.1523
816.20 0.1522
816.30 0.1521
816.40 0.152
816.50 0.152
816.60 0.1519
816.70 0.1518
816.80 0.1517
816.90 0.1517
817.00 0.1516
817.10 0.1515
817.20 0.1515
817.30 0.1514
817.40 0.1513
817.50 0.1512
817.60 0.1512
817.70 0.1511
817.80 0.151
817.90 0.151
818.00 0.1509
818.10 0.1508
818.20 0.1507
818.30 0.1507
818.40 0.1506
818.50 0.1505
818.60 0.1505
818.70 0.1504
818.80 0.1503
818.90 0.1502
819.00 0.1502
819.10 0.1501
819.20 0.15
819.30 0.15
819.40 0.1499
819.50 0.1498
819.60 0.1497
819.70 0.1497
819.80 0.1496
819.90 0.1495
820.00 0.1495
820.10 0.1494
820.20 0.1493
820.30 0.1492
820.40 0.1492
820.50 0.1491
820.60 0.149
820.70 0.149
820.80 0.1489
820.90 0.1488
821.00 0.1487
821.10 0.1487
821.20 0.1486
821.30 0.1485
821.40 0.1485
821.50 0.1484
821.60 0.1483
821.70 0.1483
821.80 0.1482
821.90 0.1481
822.00 0.148
822.10 0.148
822.20 0.1479
822.30 0.1478
822.40 0.1478
822.50 0.1477
822.60 0.1476
822.70 0.1476
822.80 0.1475
822.90 0.1474
823.00 0.1474
823.10 0.1473
823.20 0.1472
823.30 0.1471
823.40 0.1471
823.50 0.147
823.60 0.1469
823.70 0.1469
823.80 0.1468
823.90 0.1467
824.00 0.1467
824.10 0.1466
824.20 0.1465
824.30 0.1465
824.40 0.1464
824.50 0.1463
824.60 0.1462
824.70 0.1462
824.80 0.1461
824.90 0.146
825.00 0.146
825.10 0.1459
825.20 0.1458
825.30 0.1458
825.40 0.1457
825.50 0.1456
825.60 0.1456
825.70 0.1455
825.80 0.1454
825.90 0.1454
826.00 0.1453
826.10 0.1452
826.20 0.1451
826.30 0.1451
826.40 0.145
826.50 0.1449
826.60 0.1449
826.70 0.1448
826.80 0.1447
826.90 0.1447
827.00 0.1446
827.10 0.1445
827.20 0.1445
827.30 0.1444
827.40 0.1443
827.50 0.1443
827.60 0.1442
827.70 0.1441
827.80 0.1441
827.90 0.144
828.00 0.1439
828.10 0.1439
828.20 0.1438
828.30 0.1437
828.40 0.1437
828.50 0.1436
828.60 0.1435
828.70 0.1435
828.80 0.1434
828.90 0.1433
829.00 0.1433
829.10 0.1432
829.20 0.1431
829.30 0.1431
829.40 0.143
829.50 0.1429
829.60 0.1429
829.70 0.1428
829.80 0.1427
829.90 0.1427
830.00 0.1426
830.10 0.1425
830.20 0.1425
830.30 0.1424
830.40 0.1423
830.50 0.1423
830.60 0.1422
830.70 0.1421
830.80 0.1421
830.90 0.142
831.00 0.1419
831.10 0.1419
831.20 0.1418
831.30 0.1417
831.40 0.1417
831.50 0.1416
831.60 0.1415
831.70 0.1415
831.80 0.1414
831.90 0.1413
832.00 0.1413
832.10 0.1412
832.20 0.1411
832.30 0.1411
832.40 0.141
832.50 0.1409
832.60 0.1409
832.70 0.1408
832.80 0.1407
832.90 0.1407
833.00 0.1406
833.10 0.1405
833.20 0.1405
833.30 0.1404
833.40 0.1403
833.50 0.1403
833.60 0.1402
833.70 0.1401
833.80 0.1401
833.90 0.14
834.00 0.1399
834.10 0.1399
834.20 0.1398
834.30 0.1398
834.40 0.1397
834.50 0.1396
834.60 0.1396
834.70 0.1395
834.80 0.1394
834.90 0.1394
835.00 0.1393
835.10 0.1392
835.20 0.1392
835.30 0.1391
835.40 0.139
835.50 0.139
835.60 0.1389
835.70 0.1388
835.80 0.1388
835.90 0.1387
836.00 0.1386
836.10 0.1386
836.20 0.1385
836.30 0.1385
836.40 0.1384
836.50 0.1383
836.60 0.1383
836.70 0.1382
836.80 0.1381
836.90 0.1381
837.00 0.138
837.10 0.1379
837.20 0.1379
837.30 0.1378
837.40 0.1377
837.50 0.1377
837.60 0.1376
837.70 0.1376
837.80 0.1375
837.90 0.1374
838.00 0.1374
838.10 0.1373
838.20 0.1372
838.30 0.1372
838.40 0.1371
838.50 0.137
838.60 0.137
838.70 0.1369
838.80 0.1369
838.90 0.1368
839.00 0.1367
839.10 0.1367
839.20 0.1366
839.30 0.1365
839.40 0.1365
839.50 0.1364
839.60 0.1363
839.70 0.1363
839.80 0.1362
839.90 0.1362
840.00 0.1361
840.10 0.136
840.20 0.136
840.30 0.1359
840.40 0.1358
840.50 0.1358
840.60 0.1357
840.70 0.1357
840.80 0.1356
840.90 0.1355
841.00 0.1355
841.10 0.1354
841.20 0.1353
841.30 0.1353
841.40 0.1352
841.50 0.1352
841.60 0.1351
841.70 0.135
841.80 0.135
841.90 0.1349
842.00 0.1348
842.10 0.1348
842.20 0.1347
842.30 0.1347
842.40 0.1346
842.50 0.1345
842.60 0.1345
842.70 0.1344
842.80 0.1343
842.90 0.1343
843.00 0.1342
843.10 0.1342
843.20 0.1341
843.30 0.134
843.40 0.134
843.50 0.1339
843.60 0.1338
843.70 0.1338
843.80 0.1337
843.90 0.1337
844.00 0.1336
844.10 0.1335
844.20 0.1335
844.30 0.1334
844.40 0.1334
844.50 0.1333
844.60 0.1332
844.70 0.1332
844.80 0.1331
844.90 0.133
845.00 0.133
845.10 0.1329
845.20 0.1329
845.30 0.1328
845.40 0.1327
845.50 0.1327
845.60 0.1326
845.70 0.1326
845.80 0.1325
845.90 0.1324
846.00 0.1324
846.10 0.1323
846.20 0.1322
846.30 0.1322
846.40 0.1321
846.50 0.1321
846.60 0.132
846.70 0.1319
846.80 0.1319
846.90 0.1318
847.00 0.1318
847.10 0.1317
847.20 0.1316
847.30 0.1316
847.40 0.1315
847.50 0.1315
847.60 0.1314
847.70 0.1313
847.80 0.1313
847.90 0.1312
848.00 0.1312
848.10 0.1311
848.20 0.131
848.30 0.131
848.40 0.1309
848.50 0.1309
848.60 0.1308
848.70 0.1307
848.80 0.1307
848.90 0.1306
849.00 0.1306
849.10 0.1305
849.20 0.1304
849.30 0.1304
849.40 0.1303
849.50 0.1303
849.60 0.1302
849.70 0.1301
849.80 0.1301
849.90 0.13
850.00 0.13
850.10 0.1299
850.20 0.1298
850.30 0.1298
850.40 0.1297
850.50 0.1297
850.60 0.1296
850.70 0.1295
850.80 0.1295
850.90 0.1294
851.00 0.1294
851.10 0.1293
851.20 0.1292
851.30 0.1292
851.40 0.1291
851.50 0.1291
851.60 0.129
851.70 0.1289
851.80 0.1289
851.90 0.1288
852.00 0.1288
852.10 0.1287
852.20 0.1287
852.30 0.1286
852.40 0.1285
852.50 0.1285
852.60 0.1284
852.70 0.1284
852.80 0.1283
852.90 0.1282
853.00 0.1282
853.10 0.1281
853.20 0.1281
853.30 0.128
853.40 0.1279
853.50 0.1279
853.60 0.1278
853.70 0.1278
853.80 0.1277
853.90 0.1277
854.00 0.1276
854.10 0.1275
854.20 0.1275
854.30 0.1274
854.40 0.1274
854.50 0.1273
854.60 0.1273
854.70 0.1272
854.80 0.1271
854.90 0.1271
855.00 0.127
855.10 0.127
855.20 0.1269
855.30 0.1268
855.40 0.1268
855.50 0.1267
855.60 0.1267
855.70 0.1266
855.80 0.1266
855.90 0.1265
856.00 0.1264
856.10 0.1264
856.20 0.1263
856.30 0.1263
856.40 0.1262
856.50 0.1262
856.60 0.1261
856.70 0.126
856.80 0.126
856.90 0.1259
857.00 0.1259
857.10 0.1258
857.20 0.1258
857.30 0.1257
857.40 0.1256
857.50 0.1256
857.60 0.1255
857.70 0.1255
857.80 0.1254
857.90 0.1254
858.00 0.1253
858.10 0.1252
858.20 0.1252
858.30 0.1251
858.40 0.1251
858.50 0.125
858.60 0.125
858.70 0.1249
858.80 0.1248
858.90 0.1248
859.00 0.1247
859.10 0.1247
859.20 0.1246
859.30 0.1246
859.40 0.1245
859.50 0.1245
859.60 0.1244
859.70 0.1243
859.80 0.1243
859.90 0.1242
860.00 0.1242
860.10 0.1241
860.20 0.1241
860.30 0.124
860.40 0.124
860.50 0.1239
860.60 0.1238
860.70 0.1238
860.80 0.1237
860.90 0.1237
861.00 0.1236
861.10 0.1236
861.20 0.1235
861.30 0.1234
861.40 0.1234
861.50 0.1233
861.60 0.1233
861.70 0.1232
861.80 0.1232
861.90 0.1231
862.00 0.1231
862.10 0.123
862.20 0.1229
862.30 0.1229
862.40 0.1228
862.50 0.1228
862.60 0.1227
862.70 0.1227
862.80 0.1226
862.90 0.1226
863.00 0.1225
863.10 0.1225
863.20 0.1224
863.30 0.1223
863.40 0.1223
863.50 0.1222
863.60 0.1222
863.70 0.1221
863.80 0.1221
863.90 0.122
864.00 0.122
864.10 0.1219
864.20 0.1218
864.30 0.1218
864.40 0.1217
864.50 0.1217
864.60 0.1216
864.70 0.1216
864.80 0.1215
864.90 0.1215
865.00 0.1214
865.10 0.1213
865.20 0.1213
865.30 0.1212
865.40 0.1212
865.50 0.1211
865.60 0.1211
865.70 0.121
865.80 0.121
865.90 0.1209
866.00 0.1209
866.10 0.1208
866.20 0.1207
866.30 0.1207
866.40 0.1206
866.50 0.1206
866.60 0.1205
866.70 0.1205
866.80 0.1204
866.90 0.1204
867.00 0.1203
867.10 0.1203
867.20 0.1202
867.30 0.1202
867.40 0.1201
867.50 0.12
867.60 0.12
867.70 0.1199
867.80 0.1199
867.90 0.1198
868.00 0.1198
868.10 0.1197
868.20 0.1197
868.30 0.1196
868.40 0.1196
868.50 0.1195
868.60 0.1195
868.70 0.1194
868.80 0.1193
868.90 0.1193
869.00 0.1192
869.10 0.1192
869.20 0.1191
869.30 0.1191
869.40 0.119
869.50 0.119
869.60 0.1189
869.70 0.1189
869.80 0.1188
869.90 0.1188
870.00 0.1187
870.10 0.1187
870.20 0.1186
870.30 0.1185
870.40 0.1185
870.50 0.1184
870.60 0.1184
870.70 0.1183
870.80 0.1183
870.90 0.1182
871.00 0.1182
871.10 0.1181
871.20 0.1181
871.30 0.118
871.40 0.118
871.50 0.1179
871.60 0.1179
871.70 0.1178
871.80 0.1178
871.90 0.1177
872.00 0.1176
872.10 0.1176
872.20 0.1175
872.30 0.1175
872.40 0.1174
872.50 0.1174
872.60 0.1173
872.70 0.1173
872.80 0.1172
872.90 0.1172
873.00 0.1171
873.10 0.1171
873.20 0.117
873.30 0.117
873.40 0.1169
873.50 0.1169
873.60 0.1168
873.70 0.1168
873.80 0.1167
873.90 0.1167
874.00 0.1166
874.10 0.1166
874.20 0.1165
874.30 0.1165
874.40 0.1164
874.50 0.1163
874.60 0.1163
874.70 0.1162
874.80 0.1162
874.90 0.1161
875.00 0.1161
875.10 0.116
875.20 0.116
875.30 0.1159
875.40 0.1159
875.50 0.1158
875.60 0.1158
875.70 0.1157
875.80 0.1157
875.90 0.1156
876.00 0.1156
876.10 0.1155
876.20 0.1155
876.30 0.1154
876.40 0.1154
876.50 0.1153
876.60 0.1153
876.70 0.1152
876.80 0.1152
876.90 0.1151
877.00 0.1151
877.10 0.115
877.20 0.115
877.30 0.1149
877.40 0.1149
877.50 0.1148
877.60 0.1148
877.70 0.1147
877.80 0.1147
877.90 0.1146
878.00 0.1146
878.10 0.1145
878.20 0.1144
878.30 0.1144
878.40 0.1143
878.50 0.1143
878.60 0.1142
878.70 0.1142
878.80 0.1141
878.90 0.1141
879.00 0.114
879.10 0.114
879.20 0.1139
879.30 0.1139
879.40 0.1138
879.50 0.1138
879.60 0.1137
879.70 0.1137
879.80 0.1136
879.90 0.1136
880.00 0.1135
880.10 0.1135
880.20 0.1134
880.30 0.1134
880.40 0.1133
880.50 0.1133
880.60 0.1132
880.70 0.1132
880.80 0.1131
880.90 0.1131
881.00 0.113
881.10 0.113
881.20 0.1129
881.30 0.1129
881.40 0.1128
881.50 0.1128
881.60 0.1127
881.70 0.1127
881.80 0.1126
881.90 0.1126
882.00 0.1125
882.10 0.1125
882.20 0.1124
882.30 0.1124
882.40 0.1123
882.50 0.1123
882.60 0.1122
882.70 0.1122
882.80 0.1121
882.90 0.1121
883.00 0.1121
883.10 0.112
883.20 0.112
883.30 0.1119
883.40 0.1119
883.50 0.1118
883.60 0.1118
883.70 0.1117
883.80 0.1117
883.90 0.1116
884.00 0.1116
884.10 0.1115
884.20 0.1115
884.30 0.1114
884.40 0.1114
884.50 0.1113
884.60 0.1113
884.70 0.1112
884.80 0.1112
884.90 0.1111
885.00 0.1111
885.10 0.111
885.20 0.111
885.30 0.1109
885.40 0.1109
885.50 0.1108
885.60 0.1108
885.70 0.1107
885.80 0.1107
885.90 0.1106
886.00 0.1106
886.10 0.1105
886.20 0.1105
886.30 0.1104
886.40 0.1104
886.50 0.1103
886.60 0.1103
886.70 0.1102
886.80 0.1102
886.90 0.1101
887.00 0.1101
887.10 0.1101
887.20 0.11
887.30 0.11
887.40 0.1099
887.50 0.1099
887.60 0.1098
887.70 0.1098
887.80 0.1097
887.90 0.1097
888.00 0.1096
888.10 0.1096
888.20 0.1095
888.30 0.1095
888.40 0.1094
888.50 0.1094
888.60 0.1093
888.70 0.1093
888.80 0.1092
888.90 0.1092
889.00 0.1091
889.10 0.1091
889.20 0.109
889.30 0.109
889.40 0.109
889.50 0.1089
889.60 0.1089
889.70 0.1088
889.80 0.1088
889.90 0.1087
890.00 0.1087
890.10 0.1086
890.20 0.1086
890.30 0.1085
890.40 0.1085
890.50 0.1084
890.60 0.1084
890.70 0.1083
890.80 0.1083
890.90 0.1082
891.00 0.1082
891.10 0.1081
891.20 0.1081
891.30 0.1081
891.40 0.108
891.50 0.108
891.60 0.1079
891.70 0.1079
891.80 0.1078
891.90 0.1078
892.00 0.1077
892.10 0.1077
892.20 0.1076
892.30 0.1076
892.40 0.1075
892.50 0.1075
892.60 0.1074
892.70 0.1074
892.80 0.1073
892.90 0.1073
893.00 0.1073
893.10 0.1072
893.20 0.1072
893.30 0.1071
893.40 0.1071
893.50 0.107
893.60 0.107
893.70 0.1069
893.80 0.1069
893.90 0.1068
894.00 0.1068
894.10 0.1067
894.20 0.1067
894.30 0.1067
894.40 0.1066
894.50 0.1066
894.60 0.1065
894.70 0.1065
894.80 0.1064
894.90 0.1064
895.00 0.1063
895.10 0.1063
895.20 0.1062
895.30 0.1062
895.40 0.1061
895.50 0.1061
895.60 0.1061
895.70 0.106
895.80 0.106
895.90 0.1059
896.00 0.1059
896.10 0.1058
896.20 0.1058
896.30 0.1057
896.40 0.1057
896.50 0.1056
896.60 0.1056
896.70 0.1055
896.80 0.1055
896.90 0.1055
897.00 0.1054
897.10 0.1054
897.20 0.1053
897.30 0.1053
897.40 0.1052
897.50 0.1052
897.60 0.1051
897.70 0.1051
897.80 0.1051
897.90 0.105
898.00 0.105
898.10 0.1049
898.20 0.1049
898.30 0.1048
898.40 0.1048
898.50 0.1047
898.60 0.1047
898.70 0.1046
898.80 0.1046
898.90 0.1046
899.00 0.1045
899.10 0.1045
899.20 0.1044
899.30 0.1044
899.40 0.1043
899.50 0.1043
899.60 0.1042
899.70 0.1042
899.80 0.1042
899.90 0.1041
900.00 0.1041
900.10 0.104
900.20 0.104
900.30 0.1039
900.40 0.1039
900.50 0.1038
900.60 0.1038
900.70 0.1038
900.80 0.1037
900.90 0.1037
901.00 0.1036
901.10 0.1036
901.20 0.1035
901.30 0.1035
901.40 0.1034
901.50 0.1034
901.60 0.1034
901.70 0.1033
901.80 0.1033
901.90 0.1032
902.00 0.1032
902.10 0.1031
902.20 0.1031
902.30 0.103
902.40 0.103
902.50 0.103
902.60 0.1029
902.70 0.1029
902.80 0.1028
902.90 0.1028
903.00 0.1027
903.10 0.1027
903.20 0.1026
903.30 0.1026
903.40 0.1026
903.50 0.1025
903.60 0.1025
903.70 0.1024
903.80 0.1024
903.90 0.1023
904.00 0.1023
904.10 0.1022
904.20 0.1022
904.30 0.1022
904.40 0.1021
904.50 0.1021
904.60 0.102
904.70 0.102
904.80 0.1019
904.90 0.1019
905.00 0.1019
905.10 0.1018
905.20 0.1018
905.30 0.1017
905.40 0.1017
905.50 0.1016
905.60 0.1016
905.70 0.1016
905.80 0.1015
905.90 0.1015
906.00 0.1014
906.10 0.1014
906.20 0.1013
906.30 0.1013
906.40 0.1012
906.50 0.1012
906.60 0.1012
906.70 0.1011
906.80 0.1011
906.90 0.101
907.00 0.101
907.10 0.1009
907.20 0.1009
907.30 0.1009
907.40 0.1008
907.50 0.1008
907.60 0.1007
907.70 0.1007
907.80 0.1006
907.90 0.1006
908.00 0.1006
908.10 0.1005
908.20 0.1005
908.30 0.1004
908.40 0.1004
908.50 0.1003
908.60 0.1003
908.70 0.1003
908.80 0.1002
908.90 0.1002
909.00 0.1001
909.10 0.1001
909.20 0.1
909.30 0.1
909.40 0.09996
909.50 0.09992
909.60 0.09988
909.70 0.09983
909.80 0.09979
909.90 0.09975
910.00 0.09971
910.10 0.09966
910.20 0.09962
910.30 0.09958
910.40 0.09954
910.50 0.09949
910.60 0.09945
910.70 0.09941
910.80 0.09937
910.90 0.09932
911.00 0.09928
911.10 0.09924
911.20 0.0992
911.30 0.09916
911.40 0.09911
911.50 0.09907
911.60 0.09903
911.70 0.09899
911.80 0.09894
911.90 0.0989
912.00 0.09886
912.10 0.09882
912.20 0.09878
912.30 0.09873
912.40 0.09869
912.50 0.09865
912.60 0.09861
912.70 0.09857
912.80 0.09852
912.90 0.09848
913.00 0.09844
913.10 0.0984
913.20 0.09836
913.30 0.09832
913.40 0.09827
913.50 0.09823
913.60 0.09819
913.70 0.09815
913.80 0.09811
913.90 0.09807
914.00 0.09802
914.10 0.09798
914.20 0.09794
914.30 0.0979
914.40 0.09786
914.50 0.09782
914.60 0.09777
914.70 0.09773
914.80 0.09769
914.90 0.09765
915.00 0.09761
915.10 0.09757
915.20 0.09753
915.30 0.09748
915.40 0.09744
915.50 0.0974
915.60 0.09736
915.70 0.09732
915.80 0.09728
915.90 0.09724
916.00 0.0972
916.10 0.09715
916.20 0.09711
916.30 0.09707
916.40 0.09703
916.50 0.09699
916.60 0.09695
916.70 0.09691
916.80 0.09687
916.90 0.09682
917.00 0.09678
917.10 0.09674
917.20 0.0967
917.30 0.09666
917.40 0.09662
917.50 0.09658
917.60 0.09654
917.70 0.0965
917.80 0.09646
917.90 0.09642
918.00 0.09638
918.10 0.09634
918.20 0.0963
918.30 0.09626
918.40 0.09622
918.50 0.09618
918.60 0.09614
918.70 0.0961
918.80 0.09605
918.90 0.09601
919.00 0.09597
919.10 0.09593
919.20 0.09589
919.30 0.09585
919.40 0.09581
919.50 0.09577
919.60 0.09573
919.70 0.09569
919.80 0.09565
919.90 0.09561
920.00 0.09557
920.10 0.09553
920.20 0.09549
920.30 0.09545
920.40 0.09541
920.50 0.09537
920.60 0.09533
920.70 0.09529
920.80 0.09525
920.90 0.09521
921.00 0.09517
921.10 0.09513
921.20 0.09509
921.30 0.09505
921.40 0.09501
921.50 0.09497
921.60 0.09493
921.70 0.09489
921.80 0.09485
921.90 0.09481
922.00 0.09477
922.10 0.09473
922.20 0.09469
922.30 0.09465
922.40 0.09461
922.50 0.09458
922.60 0.09454
922.70 0.0945
922.80 0.09446
922.90 0.09442
923.00 0.09438
923.10 0.09434
923.20 0.0943
923.30 0.09426
923.40 0.09422
923.50 0.09418
923.60 0.09414
923.70 0.0941
923.80 0.09407
923.90 0.09403
924.00 0.09399
924.10 0.09395
924.20 0.09391
924.30 0.09387
924.40 0.09383
924.50 0.09379
924.60 0.09375
924.70 0.09371
924.80 0.09367
924.90 0.09363
925.00 0.0936
925.10 0.09356
925.20 0.09352
925.30 0.09348
925.40 0.09344
925.50 0.0934
925.60 0.09336
925.70 0.09332
925.80 0.09328
925.90 0.09325
926.00 0.09321
926.10 0.09317
926.20 0.09313
926.30 0.09309
926.40 0.09305
926.50 0.09301
926.60 0.09297
926.70 0.09294
926.80 0.0929
926.90 0.09286
927.00 0.09282
927.10 0.09278
927.20 0.09274
927.30 0.0927
927.40 0.09267
927.50 0.09263
927.60 0.09259
927.70 0.09255
927.80 0.09251
927.90 0.09248
928.00 0.09244
928.10 0.0924
928.20 0.09236
928.30 0.09232
928.40 0.09229
928.50 0.09225
928.60 0.09221
928.70 0.09217
928.80 0.09213
928.90 0.0921
929.00 0.09206
929.10 0.09202
929.20 0.09198
929.30 0.09194
929.40 0.09191
929.50 0.09187
929.60 0.09183
929.70 0.09179
929.80 0.09175
929.90 0.09172
930.00 0.09168
930.10 0.09164
930.20 0.0916
930.30 0.09157
930.40 0.09153
930.50 0.09149
930.60 0.09145
930.70 0.09142
930.80 0.09138
930.90 0.09134
931.00 0.0913
931.10 0.09126
931.20 0.09123
931.30 0.09119
931.40 0.09115
931.50 0.09111
931.60 0.09108
931.70 0.09104
931.80 0.091
931.90 0.09096
932.00 0.09093
932.10 0.09089
932.20 0.09085
932.30 0.09081
932.40 0.09078
932.50 0.09074
932.60 0.0907
932.70 0.09066
932.80 0.09063
932.90 0.09059
933.00 0.09055
933.10 0.09051
933.20 0.09048
933.30 0.09044
933.40 0.0904
933.50 0.09036
933.60 0.09033
933.70 0.09029
933.80 0.09025
933.90 0.09022
934.00 0.09018
934.10 0.09014
934.20 0.0901
934.30 0.09007
934.40 0.09003
934.50 0.08999
934.60 0.08995
934.70 0.08992
934.80 0.08988
934.90 0.08984
935.00 0.08981
935.10 0.08977
935.20 0.08973
935.30 0.08969
935.40 0.08966
935.50 0.08962
935.60 0.08958
935.70 0.08954
935.80 0.08951
935.90 0.08947
936.00 0.08943
936.10 0.0894
936.20 0.08936
936.30 0.08932
936.40 0.08929
936.50 0.08925
936.60 0.08921
936.70 0.08917
936.80 0.08914
936.90 0.0891
937.00 0.08906
937.10 0.08903
937.20 0.08899
937.30 0.08895
937.40 0.08891
937.50 0.08888
937.60 0.08884
937.70 0.0888
937.80 0.08877
937.90 0.08873
938.00 0.08869
938.10 0.08866
938.20 0.08862
938.30 0.08858
938.40 0.08854
938.50 0.08851
938.60 0.08847
938.70 0.08843
938.80 0.0884
938.90 0.08836
939.00 0.08832
939.10 0.08829
939.20 0.08825
939.30 0.08821
939.40 0.08818
939.50 0.08814
939.60 0.0881
939.70 0.08806
939.80 0.08803
939.90 0.08799
940.00 0.08795
940.10 0.08792
940.20 0.08788
940.30 0.08784
940.40 0.08781
940.50 0.08777
940.60 0.08773
940.70 0.0877
940.80 0.08766
940.90 0.08762
941.00 0.08759
941.10 0.08755
941.20 0.08751
941.30 0.08748
941.40 0.08744
941.50 0.0874
941.60 0.08737
941.70 0.08733
941.80 0.08729
941.90 0.08725
942.00 0.08722
942.10 0.08718
942.20 0.08714
942.30 0.08711
942.40 0.08707
942.50 0.08703
942.60 0.087
942.70 0.08696
942.80 0.08692
942.90 0.08689
943.00 0.08685
943.10 0.08681
943.20 0.08678
943.30 0.08674
943.40 0.0867
943.50 0.08667
943.60 0.08663
943.70 0.08659
943.80 0.08656
943.90 0.08652
944.00 0.08648
944.10 0.08645
944.20 0.08641
944.30 0.08638
944.40 0.08634
944.50 0.0863
944.60 0.08627
944.70 0.08623
944.80 0.08619
944.90 0.08616
945.00 0.08612
945.10 0.08608
945.20 0.08605
945.30 0.08601
945.40 0.08597
945.50 0.08594
945.60 0.0859
945.70 0.08586
945.80 0.08583
945.90 0.08579
946.00 0.08576
946.10 0.08572
946.20 0.08568
946.30 0.08565
946.40 0.08561
946.50 0.08557
946.60 0.08554
946.70 0.0855
946.80 0.08546
946.90 0.08543
947.00 0.08539
947.10 0.08536
947.20 0.08532
947.30 0.08528
947.40 0.08525
947.50 0.08521
947.60 0.08518
947.70 0.08514
947.80 0.0851
947.90 0.08507
948.00 0.08503
948.10 0.08499
948.20 0.08496
948.30 0.08492
948.40 0.08489
948.50 0.08485
948.60 0.08481
948.70 0.08478
948.80 0.08474
948.90 0.08471
949.00 0.08467
949.10 0.08463
949.20 0.0846
949.30 0.08456
949.40 0.08453
949.50 0.08449
949.60 0.08446
949.70 0.08442
949.80 0.08439
949.90 0.08435
950.00 0.08431
950.10 0.08428
950.20 0.08424
950.30 0.08421
950.40 0.08417
950.50 0.08414
950.60 0.0841
950.70 0.08407
950.80 0.08403
950.90 0.08399
951.00 0.08396
951.10 0.08392
951.20 0.08389
951.30 0.08385
951.40 0.08382
951.50 0.08378
951.60 0.08375
951.70 0.08371
951.80 0.08368
951.90 0.08364
952.00 0.08361
952.10 0.08357
952.20 0.08354
952.30 0.08351
952.40 0.08347
952.50 0.08344
952.60 0.0834
952.70 0.08337
952.80 0.08333
952.90 0.0833
953.00 0.08327
953.10 0.08323
953.20 0.0832
953.30 0.08316
953.40 0.08313
953.50 0.0831
953.60 0.08306
953.70 0.08303
953.80 0.083
953.90 0.08296
954.00 0.08293
954.10 0.0829
954.20 0.08287
954.30 0.08283
954.40 0.0828
954.50 0.08277
954.60 0.08274
954.70 0.0827
954.80 0.08267
954.90 0.08263
955.00 0.0826
955.10 0.08257
955.20 0.08253
955.30 0.0825
955.40 0.08247
955.50 0.08243
955.60 0.0824
955.70 0.08237
955.80 0.08233
955.90 0.0823
956.00 0.08227
956.10 0.08224
956.20 0.0822
956.30 0.08217
956.40 0.08214
956.50 0.08211
956.60 0.08207
956.70 0.08204
956.80 0.08201
956.90 0.08198
957.00 0.08194
957.10 0.08191
957.20 0.08188
957.30 0.08185
957.40 0.08182
957.50 0.08179
957.60 0.08176
957.70 0.08172
957.80 0.08169
957.90 0.08166
958.00 0.08163
958.10 0.0816
958.20 0.08157
958.30 0.08154
958.40 0.0815
958.50 0.08147
958.60 0.08144
958.70 0.08141
958.80 0.08138
958.90 0.08135
959.00 0.08132
959.10 0.08129
959.20 0.08126
959.30 0.08122
959.40 0.08119
959.50 0.08116
959.60 0.08113
959.70 0.0811
959.80 0.08107
959.90 0.08104
960.00 0.08101
960.10 0.08098
960.20 0.08095
960.30 0.08092
960.40 0.08088
960.50 0.08085
960.60 0.08082
960.70 0.08079
960.80 0.08076
960.90 0.08073
961.00 0.0807
961.10 0.08067
961.20 0.08064
961.30 0.08061
961.40 0.08058
961.50 0.08055
961.60 0.08052
961.70 0.08049
961.80 0.08046
961.90 0.08042
962.00 0.08039
962.10 0.08036
962.20 0.08033
962.30 0.0803
962.40 0.08027
962.50 0.08024
962.60 0.08021
962.70 0.08018
962.80 0.08015
962.90 0.08012
963.00 0.08009
963.10 0.08006
963.20 0.08003
963.30 0.08
963.40 0.07997
963.50 0.07994
963.60 0.07991
963.70 0.07988
963.80 0.07985
963.90 0.07982
964.00 0.07978
964.10 0.07975
964.20 0.07972
964.30 0.07969
964.40 0.07966
964.50 0.07963
964.60 0.0796
964.70 0.07957
964.80 0.07954
964.90 0.07951
965.00 0.07948
965.10 0.07945
965.20 0.07942
965.30 0.07939
965.40 0.07936
965.50 0.07933
965.60 0.0793
965.70 0.07927
965.80 0.07924
965.90 0.07921
966.00 0.07918
966.10 0.07915
966.20 0.07912
966.30 0.07909
966.40 0.07906
966.50 0.07903
966.60 0.079
966.70 0.07896
966.80 0.07893
966.90 0.0789
967.00 0.07887
967.10 0.07884
967.20 0.07881
967.30 0.07878
967.40 0.07875
967.50 0.07872
967.60 0.07869
967.70 0.07866
967.80 0.07863
967.90 0.0786
968.00 0.07857
968.10 0.07854
968.20 0.07851
968.30 0.07848
968.40 0.07845
968.50 0.07842
968.60 0.07839
968.70 0.07836
968.80 0.07833
968.90 0.0783
969.00 0.07827
969.10 0.07824
969.20 0.07821
969.30 0.07818
969.40 0.07815
969.50 0.07812
969.60 0.07809
969.70 0.07805
969.80 0.07802
969.90 0.07799
970.00 0.07796
970.10 0.07793
970.20 0.0779
970.30 0.07787
970.40 0.07784
970.50 0.07781
970.60 0.07778
970.70 0.07775
970.80 0.07772
970.90 0.07769
971.00 0.07766
971.10 0.07763
971.20 0.0776
971.30 0.07757
971.40 0.07754
971.50 0.07751
971.60 0.07748
971.70 0.07745
971.80 0.07742
971.90 0.07739
972.00 0.07736
972.10 0.07733
972.20 0.0773
972.30 0.07727
972.40 0.07724
972.50 0.07721
972.60 0.07718
972.70 0.07715
972.80 0.07711
972.90 0.07708
973.00 0.07705
973.10 0.07702
973.20 0.07699
973.30 0.07696
973.40 0.07693
973.50 0.0769
973.60 0.07687
973.70 0.07684
973.80 0.07681
973.90 0.07678
974.00 0.07675
974.10 0.07672
974.20 0.07669
974.30 0.07666
974.40 0.07663
974.50 0.0766
974.60 0.07657
974.70 0.07654
974.80 0.07651
974.90 0.07648
975.00 0.07645
975.10 0.07642
975.20 0.07639
975.30 0.07636
975.40 0.07633
975.50 0.0763
975.60 0.07627
975.70 0.07624
975.80 0.07621
975.90 0.07618
976.00 0.07614
976.10 0.07611
976.20 0.07608
976.30 0.07605
976.40 0.07602
976.50 0.07599
976.60 0.07596
976.70 0.07593
976.80 0.0759
976.90 0.07587
977.00 0.07584
977.10 0.07581
977.20 0.07578
977.30 0.07575
977.40 0.07572
977.50 0.07569
977.60 0.07566
977.70 0.07563
977.80 0.0756
977.90 0.07557
978.00 0.07554
978.10 0.07551
978.20 0.07548
978.30 0.07545
978.40 0.07541
978.50 0.07538
978.60 0.07535
978.70 0.07532
978.80 0.07529
978.90 0.07526
979.00 0.07523
979.10 0.0752
979.20 0.07517
979.30 0.07514
979.40 0.07511
979.50 0.07508
979.60 0.07505
979.70 0.07502
979.80 0.07499
979.90 0.07496
980.00 0.07493
980.10 0.0749
980.20 0.07487
980.30 0.07484
980.40 0.07481
980.50 0.07478
980.60 0.07475
980.70 0.07472
980.80 0.07469
980.90 0.07466
981.00 0.07463
981.10 0.0746
981.20 0.07457
981.30 0.07454
981.40 0.07451
981.50 0.07448
981.60 0.07445
981.70 0.07442
981.80 0.07439
981.90 0.07436
982.00 0.07433
982.10 0.07429
982.20 0.07426
982.30 0.07423
982.40 0.0742
982.50 0.07417
982.60 0.07414
982.70 0.07411
982.80 0.07408
982.90 0.07405
983.00 0.07402
983.10 0.07399
983.20 0.07396
983.30 0.07393
983.40 0.0739
983.50 0.07387
983.60 0.07384
983.70 0.07381
983.80 0.07378
983.90 0.07375
984.00 0.07371
984.10 0.07368
984.20 0.07365
984.30 0.07362
984.40 0.07359
984.50 0.07356
984.60 0.07353
984.70 0.0735
984.80 0.07347
984.90 0.07344
985.00 0.07341
985.10 0.07338
985.20 0.07335
985.30 0.07332
985.40 0.07329
985.50 0.07326
985.60 0.07323
985.70 0.0732
985.80 0.07316
985.90 0.07313
986.00 0.0731
986.10 0.07307
986.20 0.07304
986.30 0.07301
986.40 0.07298
986.50 0.07295
986.60 0.07292
986.70 0.07289
986.80 0.07286
986.90 0.07283
987.00 0.0728
987.10 0.07277
987.20 0.07274
987.30 0.07271
987.40 0.07267
987.50 0.07264
987.60 0.07261
987.70 0.07258
987.80 0.07255
987.90 0.07252
988.00 0.07249
988.10 0.07246
988.20 0.07243
988.30 0.0724
988.40 0.07237
988.50 0.07234
988.60 0.07231
988.70 0.07227
988.80 0.07224
988.90 0.07221
989.00 0.07218
989.10 0.07215
989.20 0.07212
989.30 0.07209
989.40 0.07206
989.50 0.07203
989.60 0.072
989.70 0.07197
989.80 0.07193
989.90 0.0719
990.00 0.07187
990.10 0.07184
990.20 0.07181
990.30 0.07178
990.40 0.07175
990.50 0.07172
990.60 0.07169
990.70 0.07166
990.80 0.07162
990.90 0.07159
991.00 0.07156
991.10 0.07153
991.20 0.0715
991.30 0.07147
991.40 0.07144
991.50 0.07141
991.60 0.07138
991.70 0.07134
991.80 0.07131
991.90 0.07128
992.00 0.07125
992.10 0.07122
992.20 0.07119
992.30 0.07116
992.40 0.07113
992.50 0.0711
992.60 0.07106
992.70 0.07103
992.80 0.071
992.90 0.07097
993.00 0.07094
993.10 0.07091
993.20 0.07088
993.30 0.07084
993.40 0.07081
993.50 0.07078
993.60 0.07075
993.70 0.07072
993.80 0.07069
993.90 0.07066
994.00 0.07062
994.10 0.07059
994.20 0.07056
994.30 0.07053
994.40 0.0705
994.50 0.07047
994.60 0.07044
994.70 0.0704
994.80 0.07037
994.90 0.07034
995.00 0.07031
995.10 0.07028
995.20 0.07025
995.30 0.07022
995.40 0.07018
995.50 0.07015
995.60 0.07012
995.70 0.07009
995.80 0.07006
995.90 0.07003
996.00 0.06999
996.10 0.06996
996.20 0.06993
996.30 0.0699
996.40 0.06987
996.50 0.06984
996.60 0.0698
996.70 0.06977
996.80 0.06974
996.90 0.06971
997.00 0.06968
997.10 0.06965
997.20 0.06961
997.30 0.06958
997.40 0.06955
997.50 0.06952
997.60 0.06949
997.70 0.06946
997.80 0.06942
997.90 0.06939
998.00 0.06936
998.10 0.06933
998.20 0.0693
998.30 0.06926
998.40 0.06923
998.50 0.0692
998.60 0.06917
998.70 0.06914
998.80 0.06911
998.90 0.06908
999.00 0.06904
999.10 0.06901
999.20 0.06898
999.30 0.06895
999.40 0.06892
999.50 0.06889
999.60 0.06885
999.70 0.06882
999.80 0.06879
999.90 0.06876
1000.00 0.06873
1000.10 0.06869
1000.20 0.06866
1000.30 0.06863
1000.40 0.0686
1000.50 0.06857
1000.60 0.06853
1000.70 0.0685
1000.80 0.06847
1000.90 0.06844
1001.00 0.0684
1001.10 0.06837
1001.20 0.06834
1001.30 0.06831
1001.40 0.06828
1001.50 0.06824
1001.60 0.06821
1001.70 0.06818
1001.80 0.06815
1001.90 0.06812
1002.00 0.06809
1002.10 0.06807
1002.20 0.06804
1002.30 0.06801
1002.40 0.06798
1002.50 0.06795
1002.60 0.06793
1002.70 0.0679
1002.80 0.06787
1002.90 0.06784
1003.00 0.06782
1003.10 0.06779
1003.20 0.06776
1003.30 0.06774
1003.40 0.06771
1003.50 0.06769
1003.60 0.06766
1003.70 0.06764
1003.80 0.06761
1003.90 0.06759
1004.00 0.06757
1004.10 0.06755
1004.20 0.06753
1004.30 0.06751
1004.40 0.06749
1004.50 0.06747
1004.60 0.06745
1004.70 0.06742
1004.80 0.0674
1004.90 0.06738
1005.00 0.06735
1005.10 0.06732
1005.20 0.06729
1005.30 0.06726
1005.40 0.06723
1005.50 0.0672
1005.60 0.06717
1005.70 0.06714
1005.80 0.06711
1005.90 0.06708
1006.00 0.06705
1006.10 0.06702
1006.20 0.06699
1006.30 0.06697
1006.40 0.06694
1006.50 0.06692
1006.60 0.06689
1006.70 0.06686
1006.80 0.06684
1006.90 0.06681
1007.00 0.06679
1007.10 0.06676
1007.20 0.06674
1007.30 0.06672
1007.40 0.06669
1007.50 0.06667
1007.60 0.06665
1007.70 0.06662
1007.80 0.0666
1007.90 0.06658
1008.00 0.06656
1008.10 0.06654
1008.20 0.06652
1008.30 0.06649
1008.40 0.06647
1008.50 0.06645
1008.60 0.06643
1008.70 0.06641
1008.80 0.06639
1008.90 0.06637
1009.00 0.06634
1009.10 0.06632
1009.20 0.0663
1009.30 0.06628
1009.40 0.06626
1009.50 0.06624
1009.60 0.06622
1009.70 0.06619
1009.80 0.06617
1009.90 0.06615
1010.00 0.06613
1010.10 0.06611
1010.20 0.06609
1010.30 0.06607
1010.40 0.06605
1010.50 0.06603
1010.60 0.06601
1010.70 0.06599
1010.80 0.06597
1010.90 0.06595
1011.00 0.06593
1011.10 0.06591
1011.20 0.06589
1011.30 0.06587
1011.40 0.06585
1011.50 0.06583
1011.60 0.06581
1011.70 0.06579
1011.80 0.06576
1011.90 0.06574
1012.00 0.06572
1012.10 0.0657
1012.20 0.06568
1012.30 0.06566
1012.40 0.06564
1012.50 0.06562
1012.60 0.0656
1012.70 0.06558
1012.80 0.06556
1012.90 0.06554
1013.00 0.06552
1013.10 0.0655
1013.20 0.06548
1013.30 0.06546
1013.40 0.06544
1013.50 0.06542
1013.60 0.0654
1013.70 0.06538
1013.80 0.06535
1013.90 0.06533
1014.00 0.06531
1014.10 0.06529
1014.20 0.06527
1014.30 0.06525
1014.40 0.06523
1014.50 0.06521
1014.60 0.06519
1014.70 0.06517
1014.80 0.06515
1014.90 0.06513
1015.00 0.06511
1015.10 0.06508
1015.20 0.06506
1015.30 0.06504
1015.40 0.06502
1015.50 0.065
1015.60 0.06498
1015.70 0.06496
1015.80 0.06494
1015.90 0.06492
1016.00 0.0649
1016.10 0.06487
1016.20 0.06485
1016.30 0.06483
1016.40 0.06481
1016.50 0.06479
1016.60 0.06477
1016.70 0.06475
1016.80 0.06473
1016.90 0.06471
1017.00 0.06469
1017.10 0.06466
1017.20 0.06464
1017.30 0.06462
1017.40 0.0646
1017.50 0.06458
1017.60 0.06456
1017.70 0.06454
1017.80 0.06451
1017.90 0.06449
1018.00 0.06447
1018.10 0.06445
1018.20 0.06443
1018.30 0.06441
1018.40 0.06439
1018.50 0.06436
1018.60 0.06434
1018.70 0.06432
1018.80 0.0643
1018.90 0.06428
1019.00 0.06426
1019.10 0.06424
1019.20 0.06421
1019.30 0.06419
1019.40 0.06417
1019.50 0.06415
1019.60 0.06413
1019.70 0.06411
1019.80 0.06408
1019.90 0.06406
1020.00 0.06404
1020.10 0.06402
1020.20 0.064
1020.30 0.06398
1020.40 0.06395
1020.50 0.06393
1020.60 0.06391
1020.70 0.06389
1020.80 0.06387
1020.90 0.06384
1021.00 0.06382
1021.10 0.0638
1021.20 0.06378
1021.30 0.06376
1021.40 0.06374
1021.50 0.06371
1021.60 0.06369
1021.70 0.06367
1021.80 0.06365
1021.90 0.06363
1022.00 0.0636
1022.10 0.06358
1022.20 0.06356
1022.30 0.06354
1022.40 0.06352
1022.50 0.06349
1022.60 0.06347
1022.70 0.06345
1022.80 0.06343
1022.90 0.06341
1023.00 0.06338
1023.10 0.06336
1023.20 0.06334
1023.30 0.06332
1023.40 0.0633
1023.50 0.06327
1023.60 0.06325
1023.70 0.06323
1023.80 0.06321
1023.90 0.06319
1024.00 0.06316
1024.10 0.06314
1024.20 0.06312
1024.30 0.0631
1024.40 0.06308
1024.50 0.06305
1024.60 0.06303
1024.70 0.06301
1024.80 0.06299
1024.90 0.06296
1025.00 0.06294
1025.10 0.06292
1025.20 0.0629
1025.30 0.06288
1025.40 0.06285
1025.50 0.06283
1025.60 0.06281
1025.70 0.06279
1025.80 0.06276
1025.90 0.06274
1026.00 0.06272
1026.10 0.0627
1026.20 0.06268
1026.30 0.06265
1026.40 0.06263
1026.50 0.06261
1026.60 0.06259
1026.70 0.06256
1026.80 0.06254
1026.90 0.06252
1027.00 0.0625
1027.10 0.06248
1027.20 0.06245
1027.30 0.06243
1027.40 0.06241
1027.50 0.06239
1027.60 0.06236
1027.70 0.06234
1027.80 0.06232
1027.90 0.0623
1028.00 0.06227
1028.10 0.06225
1028.20 0.06223
1028.30 0.06221
1028.40 0.06218
1028.50 0.06216
1028.60 0.06214
1028.70 0.06212
1028.80 0.06209
1028.90 0.06207
1029.00 0.06205
1029.10 0.06203
1029.20 0.06201
1029.30 0.06198
1029.40 0.06196
1029.50 0.06194
1029.60 0.06192
1029.70 0.06189
1029.80 0.06187
1029.90 0.06185
1030.00 0.06183
1030.10 0.0618
1030.20 0.06178
1030.30 0.06176
1030.40 0.06174
1030.50 0.06172
1030.60 0.06169
1030.70 0.06167
1030.80 0.06165
1030.90 0.06163
1031.00 0.0616
1031.10 0.06158
1031.20 0.06156
1031.30 0.06154
1031.40 0.06152
1031.50 0.06149
1031.60 0.06147
1031.70 0.06145
1031.80 0.06143
1031.90 0.0614
1032.00 0.06138
1032.10 0.06136
1032.20 0.06134
1032.30 0.06132
1032.40 0.06129
1032.50 0.06127
1032.60 0.06125
1032.70 0.06123
1032.80 0.0612
1032.90 0.06118
1033.00 0.06116
1033.10 0.06114
1033.20 0.06111
1033.30 0.06109
1033.40 0.06107
1033.50 0.06105
1033.60 0.06102
1033.70 0.061
1033.80 0.06098
1033.90 0.06096
1034.00 0.06094
1034.10 0.06091
1034.20 0.06089
1034.30 0.06087
1034.40 0.06085
1034.50 0.06082
1034.60 0.0608
1034.70 0.06078
1034.80 0.06076
1034.90 0.06074
1035.00 0.06071
1035.10 0.06069
1035.20 0.06067
1035.30 0.06065
1035.40 0.06062
1035.50 0.0606
1035.60 0.06058
1035.70 0.06056
1035.80 0.06054
1035.90 0.06051
1036.00 0.06049
1036.10 0.06047
1036.20 0.06045
1036.30 0.06042
1036.40 0.0604
1036.50 0.06038
1036.60 0.06036
1036.70 0.06034
1036.80 0.06031
1036.90 0.06029
1037.00 0.06027
1037.10 0.06025
1037.20 0.06023
1037.30 0.0602
1037.40 0.06018
1037.50 0.06016
1037.60 0.06014
1037.70 0.06011
1037.80 0.06009
1037.90 0.06007
1038.00 0.06005
1038.10 0.06003
1038.20 0.06
1038.30 0.05998
1038.40 0.05996
1038.50 0.05994
1038.60 0.05992
1038.70 0.05989
1038.80 0.05987
1038.90 0.05985
1039.00 0.05983
1039.10 0.0598
1039.20 0.05978
1039.30 0.05976
1039.40 0.05974
1039.50 0.05972
1039.60 0.05969
1039.70 0.05967
1039.80 0.05965
1039.90 0.05963
1040.00 0.05961
1040.10 0.05958
1040.20 0.05956
1040.30 0.05954
1040.40 0.05952
1040.50 0.0595
1040.60 0.05947
1040.70 0.05945
1040.80 0.05943
1040.90 0.05941
1041.00 0.05939
1041.10 0.05936
1041.20 0.05934
1041.30 0.05932
1041.40 0.0593
1041.50 0.05928
1041.60 0.05925
1041.70 0.05923
1041.80 0.05921
1041.90 0.05919
1042.00 0.05917
1042.10 0.05915
1042.20 0.05912
1042.30 0.0591
1042.40 0.05908
1042.50 0.05906
1042.60 0.05904
1042.70 0.05901
1042.80 0.05899
1042.90 0.05897
1043.00 0.05895
1043.10 0.05893
1043.20 0.0589
1043.30 0.05888
1043.40 0.05886
1043.50 0.05884
1043.60 0.05882
1043.70 0.05879
1043.80 0.05877
1043.90 0.05875
1044.00 0.05873
1044.10 0.05871
1044.20 0.05869
1044.30 0.05866
1044.40 0.05864
1044.50 0.05862
1044.60 0.0586
1044.70 0.05858
1044.80 0.05855
1044.90 0.05853
1045.00 0.05851
1045.10 0.05849
1045.20 0.05847
1045.30 0.05845
1045.40 0.05842
1045.50 0.0584
1045.60 0.05838
1045.70 0.05836
1045.80 0.05834
1045.90 0.05832
1046.00 0.05829
1046.10 0.05827
1046.20 0.05825
1046.30 0.05823
1046.40 0.05821
1046.50 0.05819
1046.60 0.05816
1046.70 0.05814
1046.80 0.05812
1046.90 0.0581
1047.00 0.05808
1047.10 0.05806
1047.20 0.05803
1047.30 0.05801
1047.40 0.05799
1047.50 0.05797
1047.60 0.05795
1047.70 0.05793
1047.80 0.0579
1047.90 0.05788
1048.00 0.05786
1048.10 0.05784
1048.20 0.05782
1048.30 0.0578
1048.40 0.05778
1048.50 0.05775
1048.60 0.05773
1048.70 0.05771
1048.80 0.05769
1048.90 0.05767
1049.00 0.05765
1049.10 0.05762
1049.20 0.0576
1049.30 0.05758
1049.40 0.05756
1049.50 0.05754
1049.60 0.05752
1049.70 0.0575
1049.80 0.05747
1049.90 0.05745
1050.00 0.05743
1050.10 0.05741
1050.20 0.05739
1050.30 0.05737
1050.40 0.05735
1050.50 0.05732
1050.60 0.0573
1050.70 0.05728
1050.80 0.05726
1050.90 0.05724
1051.00 0.05722
1051.10 0.0572
1051.20 0.05717
1051.30 0.05715
1051.40 0.05713
1051.50 0.05711
1051.60 0.05709
1051.70 0.05707
1051.80 0.05705
1051.90 0.05702
1052.00 0.057
1052.10 0.05698
1052.20 0.05696
1052.30 0.05694
1052.40 0.05692
1052.50 0.0569
1052.60 0.05687
1052.70 0.05685
1052.80 0.05683
1052.90 0.05681
1053.00 0.05679
1053.10 0.05677
1053.20 0.05675
1053.30 0.05673
1053.40 0.0567
1053.50 0.05668
1053.60 0.05666
1053.70 0.05664
1053.80 0.05662
1053.90 0.0566
1054.00 0.05658
1054.10 0.05656
1054.20 0.05653
1054.30 0.05651
1054.40 0.05649
1054.50 0.05647
1054.60 0.05645
1054.70 0.05643
1054.80 0.05641
1054.90 0.05639
1055.00 0.05636
1055.10 0.05634
1055.20 0.05632
1055.30 0.0563
1055.40 0.05628
1055.50 0.05626
1055.60 0.05624
1055.70 0.05622
1055.80 0.05619
1055.90 0.05617
1056.00 0.05615
1056.10 0.05613
1056.20 0.05611
1056.30 0.05609
1056.40 0.05607
1056.50 0.05605
1056.60 0.05603
1056.70 0.056
1056.80 0.05598
1056.90 0.05596
1057.00 0.05594
1057.10 0.05592
1057.20 0.0559
1057.30 0.05588
1057.40 0.05586
1057.50 0.05584
1057.60 0.05581
1057.70 0.05579
1057.80 0.05577
1057.90 0.05575
1058.00 0.05573
1058.10 0.05571
1058.20 0.05569
1058.30 0.05567
1058.40 0.05565
1058.50 0.05562
1058.60 0.0556
1058.70 0.05558
1058.80 0.05556
1058.90 0.05554
1059.00 0.05552
1059.10 0.0555
1059.20 0.05548
1059.30 0.05546
1059.40 0.05543
1059.50 0.05541
1059.60 0.05539
1059.70 0.05537
1059.80 0.05535
1059.90 0.05533
1060.00 0.05531
1060.10 0.05529
1060.20 0.05527
1060.30 0.05525
1060.40 0.05522
1060.50 0.0552
1060.60 0.05518
1060.70 0.05516
1060.80 0.05514
1060.90 0.05512
1061.00 0.0551
1061.10 0.05508
1061.20 0.05506
1061.30 0.05504
1061.40 0.05502
1061.50 0.05499
1061.60 0.05497
1061.70 0.05495
1061.80 0.05493
1061.90 0.05491
1062.00 0.05489
1062.10 0.05487
1062.20 0.05485
1062.30 0.05483
1062.40 0.05481
1062.50 0.05478
1062.60 0.05476
1062.70 0.05474
1062.80 0.05472
1062.90 0.0547
1063.00 0.05468
1063.10 0.05466
1063.20 0.05464
1063.30 0.05462
1063.40 0.0546
1063.50 0.05457
1063.60 0.05455
1063.70 0.05453
1063.80 0.05451
1063.90 0.05449
1064.00 0.05447
1064.10 0.05445
1064.20 0.05443
1064.30 0.05441
1064.40 0.05439
1064.50 0.05436
1064.60 0.05434
1064.70 0.05432
1064.80 0.0543
1064.90 0.05428
1065.00 0.05426
1065.10 0.05424
1065.20 0.05422
1065.30 0.0542
1065.40 0.05418
1065.50 0.05416
1065.60 0.05413
1065.70 0.05411
1065.80 0.05409
1065.90 0.05407
1066.00 0.05405
1066.10 0.05403
1066.20 0.05401
1066.30 0.05399
1066.40 0.05397
1066.50 0.05395
1066.60 0.05393
1066.70 0.0539
1066.80 0.05388
1066.90 0.05386
1067.00 0.05384
1067.10 0.05382
1067.20 0.0538
1067.30 0.05378
1067.40 0.05376
1067.50 0.05374
1067.60 0.05371
1067.70 0.05369
1067.80 0.05367
1067.90 0.05365
1068.00 0.05363
1068.10 0.05361
1068.20 0.05359
1068.30 0.05357
1068.40 0.05355
1068.50 0.05352
1068.60 0.0535
1068.70 0.05348
1068.80 0.05346
1068.90 0.05344
1069.00 0.05342
1069.10 0.0534
1069.20 0.05338
1069.30 0.05335
1069.40 0.05333
1069.50 0.05331
1069.60 0.05329
1069.70 0.05327
1069.80 0.05325
1069.90 0.05323
1070.00 0.05321
1070.10 0.05319
1070.20 0.05316
1070.30 0.05314
1070.40 0.05312
1070.50 0.0531
1070.60 0.05308
1070.70 0.05306
1070.80 0.05304
1070.90 0.05302
1071.00 0.053
1071.10 0.05298
1071.20 0.05295
1071.30 0.05293
1071.40 0.05291
1071.50 0.05289
1071.60 0.05287
1071.70 0.05285
1071.80 0.05283
1071.90 0.05281
1072.00 0.05279
1072.10 0.05277
1072.20 0.05274
1072.30 0.05272
1072.40 0.0527
1072.50 0.05268
1072.60 0.05266
1072.70 0.05264
1072.80 0.05262
1072.90 0.05259
1073.00 0.05257
1073.10 0.05255
1073.20 0.05253
1073.30 0.05251
1073.40 0.05249
1073.50 0.05247
1073.60 0.05244
1073.70 0.05242
1073.80 0.0524
1073.90 0.05238
1074.00 0.05236
1074.10 0.05233
1074.20 0.05231
1074.30 0.05229
1074.40 0.05227
1074.50 0.05225
1074.60 0.05223
1074.70 0.0522
1074.80 0.05218
1074.90 0.05216
1075.00 0.05214
1075.10 0.05212
1075.20 0.05209
1075.30 0.05207
1075.40 0.05205
1075.50 0.05203
1075.60 0.05201
1075.70 0.05199
1075.80 0.05196
1075.90 0.05194
1076.00 0.05192
1076.10 0.0519
1076.20 0.05188
1076.30 0.05186
1076.40 0.05183
1076.50 0.05181
1076.60 0.05179
1076.70 0.05177
1076.80 0.05175
1076.90 0.05173
1077.00 0.0517
1077.10 0.05168
1077.20 0.05166
1077.30 0.05164
1077.40 0.05161
1077.50 0.05159
1077.60 0.05157
1077.70 0.05155
1077.80 0.05152
1077.90 0.0515
1078.00 0.05148
1078.10 0.05146
1078.20 0.05143
1078.30 0.05141
1078.40 0.05139
1078.50 0.05137
1078.60 0.05134
1078.70 0.05132
1078.80 0.0513
1078.90 0.05128
1079.00 0.05126
1079.10 0.05123
1079.20 0.05121
1079.30 0.05119
1079.40 0.05117
1079.50 0.05114
1079.60 0.05112
1079.70 0.0511
1079.80 0.05107
1079.90 0.05105
1080.00 0.05103
1080.10 0.051
1080.20 0.05098
1080.30 0.05096
1080.40 0.05093
1080.50 0.05091
1080.60 0.05089
1080.70 0.05087
1080.80 0.05084
1080.90 0.05082
1081.00 0.0508
1081.10 0.05077
1081.20 0.05075
1081.30 0.05073
1081.40 0.0507
1081.50 0.05068
1081.60 0.05066
1081.70 0.05063
1081.80 0.05061
1081.90 0.05059
1082.00 0.05056
1082.10 0.05054
1082.20 0.05052
1082.30 0.05049
1082.40 0.05047
1082.50 0.05044
1082.60 0.05042
1082.70 0.0504
1082.80 0.05037
1082.90 0.05035
1083.00 0.05033
1083.10 0.0503
1083.20 0.05028
1083.30 0.05025
1083.40 0.05023
1083.50 0.05021
1083.60 0.05018
1083.70 0.05016
1083.80 0.05013
1083.90 0.05011
1084.00 0.05009
1084.10 0.05006
1084.20 0.05004
1084.30 0.05001
1084.40 0.04999
1084.50 0.04996
1084.60 0.04994
1084.70 0.04991
1084.80 0.04989
1084.90 0.04986
1085.00 0.04984
1085.10 0.04982
1085.20 0.04979
1085.30 0.04977
1085.40 0.04974
1085.50 0.04972
1085.60 0.04969
1085.70 0.04967
1085.80 0.04964
1085.90 0.04962
1086.00 0.04959
1086.10 0.04957
1086.20 0.04954
1086.30 0.04952
1086.40 0.04949
1086.50 0.04947
1086.60 0.04944
1086.70 0.04942
1086.80 0.04939
1086.90 0.04937
1087.00 0.04934
1087.10 0.04932
1087.20 0.04929
1087.30 0.04927
1087.40 0.04924
1087.50 0.04922
1087.60 0.04919
1087.70 0.04917
1087.80 0.04914
1087.90 0.04912
1088.00 0.04909
1088.10 0.04907
1088.20 0.04904
1088.30 0.04902
1088.40 0.04899
1088.50 0.04897
1088.60 0.04894
1088.70 0.04892
1088.80 0.04889
1088.90 0.04887
1089.00 0.04884
1089.10 0.04882
1089.20 0.04879
1089.30 0.04877
1089.40 0.04874
1089.50 0.04872
1089.60 0.04869
1089.70 0.04867
1089.80 0.04864
1089.90 0.04862
1090.00 0.04859
1090.10 0.04857
1090.20 0.04854
1090.30 0.04852
1090.40 0.04849
1090.50 0.04847
1090.60 0.04844
1090.70 0.04842
1090.80 0.04839
1090.90 0.04837
1091.00 0.04834
1091.10 0.04832
1091.20 0.04829
1091.30 0.04827
1091.40 0.04824
1091.50 0.04822
1091.60 0.0482
1091.70 0.04817
1091.80 0.04815
1091.90 0.04812
1092.00 0.0481
1092.10 0.04807
1092.20 0.04805
1092.30 0.04802
1092.40 0.048
1092.50 0.04797
1092.60 0.04795
1092.70 0.04792
1092.80 0.0479
1092.90 0.04787
1093.00 0.04785
1093.10 0.04782
1093.20 0.0478
1093.30 0.04777
1093.40 0.04775
1093.50 0.04773
1093.60 0.04773
1093.70 0.04772
1093.80 0.04771
1093.90 0.0477
1094.00 0.04767
1094.10 0.04765
1094.20 0.04763
1094.30 0.04761
1094.40 0.0476
1094.50 0.04759
1094.60 0.04758
1094.70 0.04758
1094.80 0.04757
1094.90 0.04756
1095.00 0.04755
1095.10 0.04754
1095.20 0.04753
1095.30 0.04752
1095.40 0.04751
1095.50 0.0475
1095.60 0.0475
1095.70 0.04749
1095.80 0.04748
1095.90 0.04747
1096.00 0.04746
1096.10 0.04745
1096.20 0.04744
1096.30 0.04743
1096.40 0.04742
1096.50 0.04742
1096.60 0.04741
1096.70 0.0474
1096.80 0.04739
1096.90 0.04738
1097.00 0.04737
1097.10 0.04736
1097.20 0.04735
1097.30 0.04734
1097.40 0.04733
1097.50 0.04732
1097.60 0.04732
1097.70 0.04731
1097.80 0.0473
1097.90 0.04729
1098.00 0.04728
1098.10 0.04727
1098.20 0.04726
1098.30 0.04725
1098.40 0.04724
1098.50 0.04723
1098.60 0.04723
1098.70 0.04722
1098.80 0.04721
1098.90 0.0472
1099.00 0.04719
1099.10 0.04718
1099.20 0.04717
1099.30 0.04716
1099.40 0.04715
1099.50 0.04714
1099.60 0.04713
1099.70 0.04713
1099.80 0.04712
1099.90 0.04711
1100.00 0.0471
1100.10 0.04709
1100.20 0.04708
1100.30 0.04707
1100.40 0.04706
1100.50 0.04705
1100.60 0.04704
1100.70 0.04703
1100.80 0.04702
1100.90 0.04701
1101.00 0.04701
1101.10 0.047
1101.20 0.04699
1101.30 0.04698
1101.40 0.04697
1101.50 0.04696
1101.60 0.04695
1101.70 0.04694
1101.80 0.04693
1101.90 0.04692
1102.00 0.04691
1102.10 0.0469
1102.20 0.04689
1102.30 0.04688
1102.40 0.04687
1102.50 0.04686
1102.60 0.04685
1102.70 0.04684
1102.80 0.04683
1102.90 0.04682
1103.00 0.04681
1103.10 0.0468
1103.20 0.04679
1103.30 0.04678
1103.40 0.04677
1103.50 0.04676
1103.60 0.04675
1103.70 0.04674
1103.80 0.04672
1103.90 0.04671
1104.00 0.0467
1104.10 0.04669
1104.20 0.04668
1104.30 0.04667
1104.40 0.04666
1104.50 0.04665
1104.60 0.04664
1104.70 0.04663
1104.80 0.04661
1104.90 0.0466
1105.00 0.04659
1105.10 0.04658
1105.20 0.04657
1105.30 0.04656
1105.40 0.04655
1105.50 0.04654
1105.60 0.04653
1105.70 0.04651
1105.80 0.0465
1105.90 0.04649
1106.00 0.04648
1106.10 0.04647
1106.20 0.04646
1106.30 0.04644
1106.40 0.04643
1106.50 0.04642
1106.60 0.04641
1106.70 0.0464
1106.80 0.04639
1106.90 0.04637
1107.00 0.04636
1107.10 0.04635
1107.20 0.04634
1107.30 0.04633
1107.40 0.04631
1107.50 0.0463
1107.60 0.04629
1107.70 0.04628
1107.80 0.04626
1107.90 0.04625
1108.00 0.04624
1108.10 0.04623
1108.20 0.04621
1108.30 0.0462
1108.40 0.04619
1108.50 0.04618
1108.60 0.04616
1108.70 0.04615
1108.80 0.04614
1108.90 0.04613
1109.00 0.04611
1109.10 0.0461
1109.20 0.04609
1109.30 0.04608
1109.40 0.04606
1109.50 0.04605
1109.60 0.04604
1109.70 0.04603
1109.80 0.04601
1109.90 0.046
1110.00 0.04599
1110.10 0.04597
1110.20 0.04596
1110.30 0.04595
1110.40 0.04593
1110.50 0.04592
1110.60 0.04591
1110.70 0.04589
1110.80 0.04588
1110.90 0.04587
1111.00 0.04585
1111.10 0.04584
1111.20 0.04583
1111.30 0.04581
1111.40 0.0458
1111.50 0.04579
1111.60 0.04577
1111.70 0.04576
1111.80 0.04575
1111.90 0.04574
1112.00 0.04572
1112.10 0.04571
1112.20 0.04569
1112.30 0.04568
1112.40 0.04567
1112.50 0.04565
1112.60 0.04564
1112.70 0.04563
1112.80 0.04561
1112.90 0.0456
1113.00 0.04559
1113.10 0.04557
1113.20 0.04556
1113.30 0.04554
1113.40 0.04553
1113.50 0.04552
1113.60 0.0455
1113.70 0.04549
1113.80 0.04548
1113.90 0.04546
1114.00 0.04545
1114.10 0.04543
1114.20 0.04542
1114.30 0.0454
1114.40 0.04539
1114.50 0.04538
1114.60 0.04536
1114.70 0.04535
1114.80 0.04533
1114.90 0.04532
1115.00 0.04531
1115.10 0.04529
1115.20 0.04528
1115.30 0.04526
1115.40 0.04525
1115.50 0.04524
1115.60 0.04522
1115.70 0.04521
1115.80 0.04519
1115.90 0.04518
1116.00 0.04517
1116.10 0.04515
1116.20 0.04514
1116.30 0.04512
1116.40 0.04511
1116.50 0.0451
1116.60 0.04508
1116.70 0.04507
1116.80 0.04505
1116.90 0.04504
1117.00 0.04503
1117.10 0.04501
1117.20 0.045
1117.30 0.04498
1117.40 0.04497
1117.50 0.04495
1117.60 0.04494
1117.70 0.04493
1117.80 0.04491
1117.90 0.0449
1118.00 0.04488
1118.10 0.04487
1118.20 0.04485
1118.30 0.04484
1118.40 0.04482
1118.50 0.04481
1118.60 0.04479
1118.70 0.04478
1118.80 0.04477
1118.90 0.04475
1119.00 0.04474
1119.10 0.04472
1119.20 0.04471
1119.30 0.04469
1119.40 0.04468
1119.50 0.04466
1119.60 0.04465
1119.70 0.04464
1119.80 0.04462
1119.90 0.04461
1120.00 0.04459
1120.10 0.04458
1120.20 0.04456
1120.30 0.04455
1120.40 0.04454
1120.50 0.04452
1120.60 0.04451
1120.70 0.04449
1120.80 0.04448
1120.90 0.04446
1121.00 0.04445
1121.10 0.04443
1121.20 0.04442
1121.30 0.04441
1121.40 0.04439
1121.50 0.04438
1121.60 0.04436
1121.70 0.04435
1121.80 0.04433
1121.90 0.04432
1122.00 0.04431
1122.10 0.04429
1122.20 0.04428
1122.30 0.04426
1122.40 0.04425
1122.50 0.04423
1122.60 0.04422
1122.70 0.0442
1122.80 0.04419
1122.90 0.04417
1123.00 0.04416
1123.10 0.04414
1123.20 0.04413
1123.30 0.04412
1123.40 0.0441
1123.50 0.04409
1123.60 0.04407
1123.70 0.04406
1123.80 0.04404
1123.90 0.04403
1124.00 0.04401
1124.10 0.044
1124.20 0.04398
1124.30 0.04397
1124.40 0.04396
1124.50 0.04394
1124.60 0.04393
1124.70 0.04391
1124.80 0.0439
1124.90 0.04388
1125.00 0.04387
1125.10 0.04385
1125.20 0.04384
1125.30 0.04382
1125.40 0.04381
1125.50 0.0438
1125.60 0.04378
1125.70 0.04377
1125.80 0.04375
1125.90 0.04374
1126.00 0.04372
1126.10 0.04371
1126.20 0.04369
1126.30 0.04368
1126.40 0.04366
1126.50 0.04365
1126.60 0.04364
1126.70 0.04362
1126.80 0.04361
1126.90 0.04359
1127.00 0.04358
1127.10 0.04356
1127.20 0.04355
1127.30 0.04353
1127.40 0.04352
1127.50 0.0435
1127.60 0.04349
1127.70 0.04348
1127.80 0.04346
1127.90 0.04345
1128.00 0.04343
1128.10 0.04342
1128.20 0.0434
1128.30 0.04339
1128.40 0.04337
1128.50 0.04336
1128.60 0.04334
1128.70 0.04333
1128.80 0.04332
1128.90 0.0433
1129.00 0.04329
1129.10 0.04327
1129.20 0.04326
1129.30 0.04324
1129.40 0.04323
1129.50 0.04321
1129.60 0.0432
1129.70 0.04318
1129.80 0.04317
1129.90 0.04316
1130.00 0.04314
1130.10 0.04313
1130.20 0.04311
1130.30 0.0431
1130.40 0.04308
1130.50 0.04307
1130.60 0.04305
1130.70 0.04304
1130.80 0.04303
1130.90 0.04301
1131.00 0.043
1131.10 0.04298
1131.20 0.04297
1131.30 0.04295
1131.40 0.04294
1131.50 0.04292
1131.60 0.04291
1131.70 0.0429
1131.80 0.04288
1131.90 0.04287
1132.00 0.04285
1132.10 0.04284
1132.20 0.04282
1132.30 0.04281
1132.40 0.04279
1132.50 0.04278
1132.60 0.04277
1132.70 0.04275
1132.80 0.04274
1132.90 0.04272
1133.00 0.04271
1133.10 0.04269
1133.20 0.04268
1133.30 0.04266
1133.40 0.04265
1133.50 0.04264
1133.60 0.04262
1133.70 0.04261
1133.80 0.04259
1133.90 0.04258
1134.00 0.04256
1134.10 0.04255
1134.20 0.04253
1134.30 0.04252
1134.40 0.04251
1134.50 0.04249
1134.60 0.04248
1134.70 0.04246
1134.80 0.04245
1134.90 0.04243
1135.00 0.04242
1135.10 0.04241
1135.20 0.04239
1135.30 0.04238
1135.40 0.04236
1135.50 0.04235
1135.60 0.04233
1135.70 0.04232
1135.80 0.04231
1135.90 0.04229
1136.00 0.04228
1136.10 0.04226
1136.20 0.04225
1136.30 0.04223
1136.40 0.04222
1136.50 0.04221
1136.60 0.04219
1136.70 0.04218
1136.80 0.04216
1136.90 0.04215
1137.00 0.04213
1137.10 0.04212
1137.20 0.04211
1137.30 0.04209
1137.40 0.04208
1137.50 0.04206
1137.60 0.04205
1137.70 0.04203
1137.80 0.04202
1137.90 0.04201
1138.00 0.04199
1138.10 0.04198
1138.20 0.04196
1138.30 0.04195
1138.40 0.04193
1138.50 0.04192
1138.60 0.04191
1138.70 0.04189
1138.80 0.04188
1138.90 0.04186
1139.00 0.04185
1139.10 0.04184
1139.20 0.04182
1139.30 0.04181
1139.40 0.04179
1139.50 0.04178
1139.60 0.04176
1139.70 0.04175
1139.80 0.04174
1139.90 0.04172
1140.00 0.04171
1140.10 0.04169
1140.20 0.04168
1140.30 0.04167
1140.40 0.04165
1140.50 0.04164
1140.60 0.04162
1140.70 0.04161
1140.80 0.0416
1140.90 0.04158
1141.00 0.04157
1141.10 0.04155
1141.20 0.04154
1141.30 0.04152
1141.40 0.04151
1141.50 0.0415
1141.60 0.04148
1141.70 0.04147
1141.80 0.04145
1141.90 0.04144
1142.00 0.04143
1142.10 0.04141
1142.20 0.0414
1142.30 0.04138
1142.40 0.04137
1142.50 0.04136
1142.60 0.04134
1142.70 0.04133
1142.80 0.04131
1142.90 0.0413
1143.00 0.04129
1143.10 0.04127
1143.20 0.04126
1143.30 0.04124
1143.40 0.04123
1143.50 0.04122
1143.60 0.0412
1143.70 0.04119
1143.80 0.04117
1143.90 0.04116
1144.00 0.04115
1144.10 0.04113
1144.20 0.04112
1144.30 0.0411
1144.40 0.04109
1144.50 0.04108
1144.60 0.04106
1144.70 0.04105
1144.80 0.04104
1144.90 0.04102
1145.00 0.04101
1145.10 0.04099
1145.20 0.04098
1145.30 0.04097
1145.40 0.04095
1145.50 0.04094
1145.60 0.04092
1145.70 0.04091
1145.80 0.0409
1145.90 0.04088
1146.00 0.04087
1146.10 0.04085
1146.20 0.04084
1146.30 0.04083
1146.40 0.04081
1146.50 0.0408
1146.60 0.04079
1146.70 0.04077
1146.80 0.04076
1146.90 0.04074
1147.00 0.04073
1147.10 0.04072
1147.20 0.0407
1147.30 0.04069
1147.40 0.04068
1147.50 0.04066
1147.60 0.04065
1147.70 0.04063
1147.80 0.04062
1147.90 0.04061
1148.00 0.04059
1148.10 0.04058
1148.20 0.04057
1148.30 0.04055
1148.40 0.04054
1148.50 0.04052
1148.60 0.04051
1148.70 0.0405
1148.80 0.04048
1148.90 0.04047
1149.00 0.04046
1149.10 0.04044
1149.20 0.04043
1149.30 0.04041
1149.40 0.0404
1149.50 0.04039
1149.60 0.04037
1149.70 0.04036
1149.80 0.04035
1149.90 0.04033
1150.00 0.04032
1150.10 0.04031
1150.20 0.04029
1150.30 0.04028
1150.40 0.04026
1150.50 0.04025
1150.60 0.04024
1150.70 0.04022
1150.80 0.04021
1150.90 0.0402
1151.00 0.04018
1151.10 0.04017
1151.20 0.04016
1151.30 0.04014
1151.40 0.04013
1151.50 0.04012
1151.60 0.0401
1151.70 0.04009
1151.80 0.04007
1151.90 0.04006
1152.00 0.04005
1152.10 0.04003
1152.20 0.04002
1152.30 0.04001
1152.40 0.03999
1152.50 0.03998
1152.60 0.03997
1152.70 0.03995
1152.80 0.03994
1152.90 0.03993
1153.00 0.03991
1153.10 0.0399
1153.20 0.03989
1153.30 0.03987
1153.40 0.03986
1153.50 0.03985
1153.60 0.03983
1153.70 0.03982
1153.80 0.03981
1153.90 0.03979
1154.00 0.03978
1154.10 0.03976
1154.20 0.03975
1154.30 0.03974
1154.40 0.03972
1154.50 0.03971
1154.60 0.0397
1154.70 0.03968
1154.80 0.03967
1154.90 0.03966
1155.00 0.03964
1155.10 0.03963
1155.20 0.03962
1155.30 0.0396
1155.40 0.03959
1155.50 0.03958
1155.60 0.03956
1155.70 0.03955
1155.80 0.03954
1155.90 0.03952
1156.00 0.03951
1156.10 0.0395
1156.20 0.03948
1156.30 0.03947
1156.40 0.03946
1156.50 0.03944
1156.60 0.03943
1156.70 0.03942
1156.80 0.0394
1156.90 0.03939
1157.00 0.03938
1157.10 0.03936
1157.20 0.03935
1157.30 0.03934
1157.40 0.03932
1157.50 0.03931
1157.60 0.0393
1157.70 0.03928
1157.80 0.03927
1157.90 0.03926
1158.00 0.03925
1158.10 0.03923
1158.20 0.03922
1158.30 0.03921
1158.40 0.03919
1158.50 0.03918
1158.60 0.03917
1158.70 0.03915
1158.80 0.03914
1158.90 0.03913
1159.00 0.03911
1159.10 0.0391
1159.20 0.03909
1159.30 0.03907
1159.40 0.03906
1159.50 0.03905
1159.60 0.03903
1159.70 0.03902
1159.80 0.03901
1159.90 0.039
1160.00 0.03898
1160.10 0.03897
1160.20 0.03896
1160.30 0.03894
1160.40 0.03893
1160.50 0.03892
1160.60 0.0389
1160.70 0.03889
1160.80 0.03888
1160.90 0.03886
1161.00 0.03885
1161.10 0.03884
1161.20 0.03882
1161.30 0.03881
1161.40 0.0388
1161.50 0.03879
1161.60 0.03877
1161.70 0.03876
1161.80 0.03875
1161.90 0.03873
1162.00 0.03872
1162.10 0.03871
1162.20 0.03869
1162.30 0.03868
1162.40 0.03867
1162.50 0.03866
1162.60 0.03864
1162.70 0.03863
1162.80 0.03862
1162.90 0.0386
1163.00 0.03859
1163.10 0.03858
1163.20 0.03857
1163.30 0.03855
1163.40 0.03854
1163.50 0.03853
1163.60 0.03851
1163.70 0.0385
1163.80 0.03849
1163.90 0.03847
1164.00 0.03846
1164.10 0.03845
1164.20 0.03844
1164.30 0.03842
1164.40 0.03841
1164.50 0.0384
1164.60 0.03838
1164.70 0.03837
1164.80 0.03836
1164.90 0.03835
1165.00 0.03833
1165.10 0.03832
1165.20 0.03831
1165.30 0.03829
1165.40 0.03828
1165.50 0.03827
1165.60 0.03826
1165.70 0.03824
1165.80 0.03823
1165.90 0.03822
1166.00 0.0382
1166.10 0.03819
1166.20 0.03818
1166.30 0.03817
1166.40 0.03815
1166.50 0.03814
1166.60 0.03813
1166.70 0.03811
1166.80 0.0381
1166.90 0.03809
1167.00 0.03808
1167.10 0.03806
1167.20 0.03805
1167.30 0.03804
1167.40 0.03803
1167.50 0.03801
1167.60 0.038
1167.70 0.03799
1167.80 0.03797
1167.90 0.03796
1168.00 0.03795
1168.10 0.03794
1168.20 0.03792
1168.30 0.03791
1168.40 0.0379
1168.50 0.03789
1168.60 0.03787
1168.70 0.03786
1168.80 0.03785
1168.90 0.03784
1169.00 0.03782
1169.10 0.03781
1169.20 0.0378
1169.30 0.03778
1169.40 0.03777
1169.50 0.03776
1169.60 0.03775
1169.70 0.03773
1169.80 0.03772
1169.90 0.03771
1170.00 0.0377
1170.10 0.03768
1170.20 0.03767
1170.30 0.03766
1170.40 0.03765
1170.50 0.03763
1170.60 0.03762
1170.70 0.03761
1170.80 0.0376
1170.90 0.03758
1171.00 0.03757
1171.10 0.03756
1171.20 0.03755
1171.30 0.03753
1171.40 0.03752
1171.50 0.03751
1171.60 0.0375
1171.70 0.03748
1171.80 0.03747
1171.90 0.03746
1172.00 0.03745
1172.10 0.03743
1172.20 0.03742
1172.30 0.03741
1172.40 0.0374
1172.50 0.03738
1172.60 0.03737
1172.70 0.03736
1172.80 0.03735
1172.90 0.03733
1173.00 0.03732
1173.10 0.03731
1173.20 0.0373
1173.30 0.03728
1173.40 0.03727
1173.50 0.03726
1173.60 0.03725
1173.70 0.03723
1173.80 0.03722
1173.90 0.03721
1174.00 0.0372
1174.10 0.03718
1174.20 0.03717
1174.30 0.03716
1174.40 0.03715
1174.50 0.03714
1174.60 0.03712
1174.70 0.03711
1174.80 0.0371
1174.90 0.03709
1175.00 0.03707
1175.10 0.03706
1175.20 0.03705
1175.30 0.03704
1175.40 0.03702
1175.50 0.03701
1175.60 0.037
1175.70 0.03699
1175.80 0.03697
1175.90 0.03696
1176.00 0.03695
1176.10 0.03694
1176.20 0.03693
1176.30 0.03691
1176.40 0.0369
1176.50 0.03689
1176.60 0.03688
1176.70 0.03686
1176.80 0.03685
1176.90 0.03684
1177.00 0.03683
1177.10 0.03681
1177.20 0.0368
1177.30 0.03679
1177.40 0.03678
1177.50 0.03677
1177.60 0.03675
1177.70 0.03674
1177.80 0.03673
1177.90 0.03672
1178.00 0.03671
1178.10 0.03669
1178.20 0.03668
1178.30 0.03667
1178.40 0.03666
1178.50 0.03664
1178.60 0.03663
1178.70 0.03662
1178.80 0.03661
1178.90 0.0366
1179.00 0.03658
1179.10 0.03657
1179.20 0.03656
1179.30 0.03655
1179.40 0.03653
1179.50 0.03652
1179.60 0.03651
1179.70 0.0365
1179.80 0.03649
1179.90 0.03647
1180.00 0.03646
1180.10 0.03645
1180.20 0.03644
1180.30 0.03643
1180.40 0.03641
1180.50 0.0364
1180.60 0.03639
1180.70 0.03638
1180.80 0.03637
1180.90 0.03635
1181.00 0.03634
1181.10 0.03633
1181.20 0.03632
1181.30 0.03631
1181.40 0.03629
1181.50 0.03628
1181.60 0.03627
1181.70 0.03626
1181.80 0.03624
1181.90 0.03623
1182.00 0.03622
1182.10 0.03621
1182.20 0.0362
1182.30 0.03618
1182.40 0.03617
1182.50 0.03616
1182.60 0.03615
1182.70 0.03614
1182.80 0.03613
1182.90 0.03611
1183.00 0.0361
1183.10 0.03609
1183.20 0.03608
1183.30 0.03607
1183.40 0.03605
1183.50 0.03604
1183.60 0.03603
1183.70 0.03602
1183.80 0.03601
1183.90 0.03599
1184.00 0.03598
1184.10 0.03597
1184.20 0.03596
1184.30 0.03595
1184.40 0.03593
1184.50 0.03592
1184.60 0.03591
1184.70 0.0359
1184.80 0.03589
1184.90 0.03588
1185.00 0.03586
1185.10 0.03585
1185.20 0.03584
1185.30 0.03583
1185.40 0.03582
1185.50 0.0358
1185.60 0.03579
1185.70 0.03578
1185.80 0.03577
1185.90 0.03576
1186.00 0.03575
1186.10 0.03573
1186.20 0.03572
1186.30 0.03571
1186.40 0.0357
1186.50 0.03569
1186.60 0.03567
1186.70 0.03566
1186.80 0.03565
1186.90 0.03564
1187.00 0.03563
1187.10 0.03562
1187.20 0.0356
1187.30 0.03559
1187.40 0.03558
1187.50 0.03557
1187.60 0.03556
1187.70 0.03554
1187.80 0.03553
1187.90 0.03552
1188.00 0.03551
1188.10 0.0355
1188.20 0.03549
1188.30 0.03547
1188.40 0.03546
1188.50 0.03545
1188.60 0.03544
1188.70 0.03543
1188.80 0.03542
1188.90 0.0354
1189.00 0.03539
1189.10 0.03538
1189.20 0.03537
1189.30 0.03536
1189.40 0.03535
1189.50 0.03533
1189.60 0.03532
1189.70 0.03531
1189.80 0.0353
1189.90 0.03529
1190.00 0.03528
1190.10 0.03526
1190.20 0.03525
1190.30 0.03524
1190.40 0.03523
1190.50 0.03522
1190.60 0.03521
1190.70 0.0352
1190.80 0.03518
1190.90 0.03517
1191.00 0.03516
1191.10 0.03515
1191.20 0.03514
1191.30 0.03513
1191.40 0.03511
1191.50 0.0351
1191.60 0.03509
1191.70 0.03508
1191.80 0.03507
1191.90 0.03506
1192.00 0.03504
1192.10 0.03503
1192.20 0.03502
1192.30 0.03501
1192.40 0.035
1192.50 0.03499
1192.60 0.03498
1192.70 0.03496
1192.80 0.03495
1192.90 0.03494
1193.00 0.03493
1193.10 0.03492
1193.20 0.03491
1193.30 0.0349
1193.40 0.03488
1193.50 0.03487
1193.60 0.03486
1193.70 0.03485
1193.80 0.03484
1193.90 0.03483
1194.00 0.03482
1194.10 0.0348
1194.20 0.03479
1194.30 0.03478
1194.40 0.03477
1194.50 0.03476
1194.60 0.03475
1194.70 0.03474
1194.80 0.03472
1194.90 0.03471
1195.00 0.0347
1195.10 0.03469
1195.20 0.03468
1195.30 0.03467
1195.40 0.03466
1195.50 0.03464
1195.60 0.03463
1195.70 0.03462
1195.80 0.03461
1195.90 0.0346
1196.00 0.03459
1196.10 0.03458
1196.20 0.03456
1196.30 0.03455
1196.40 0.03454
1196.50 0.03453
1196.60 0.03452
1196.70 0.03451
1196.80 0.0345
1196.90 0.03449
1197.00 0.03447
1197.10 0.03446
1197.20 0.03445
1197.30 0.03444
1197.40 0.03443
1197.50 0.03442
1197.60 0.03441
1197.70 0.0344
1197.80 0.03438
1197.90 0.03437
1198.00 0.03436
1198.10 0.03435
1198.20 0.03434
1198.30 0.03433
1198.40 0.03432
1198.50 0.03431
1198.60 0.03429
1198.70 0.03428
1198.80 0.03427
1198.90 0.03426
1199.00 0.03425
1199.10 0.03424
1199.20 0.03423
1199.30 0.03422
1199.40 0.0342
1199.50 0.03419
1199.60 0.03418
1199.70 0.03417
1199.80 0.03416
1199.90 0.03415
1200.00 0
