# Version 2.1 - nm, norm@500 to 1, cut digits, bergeron_4000_80.dat_4000
# Wavelength(nm)  Flambda(ergs/cm^s/s/nm)
300.00 0.1796
300.10 0.18
300.20 0.1803
300.30 0.1806
300.40 0.181
300.50 0.1813
300.60 0.1816
300.70 0.182
300.80 0.1823
300.90 0.1826
301.00 0.183
301.10 0.1833
301.20 0.1836
301.30 0.184
301.40 0.1843
301.50 0.1846
301.60 0.185
301.70 0.1853
301.80 0.1856
301.90 0.186
302.00 0.1863
302.10 0.1866
302.20 0.187
302.30 0.1873
302.40 0.1877
302.50 0.188
302.60 0.1884
302.70 0.1887
302.80 0.189
302.90 0.1894
303.00 0.1897
303.10 0.1901
303.20 0.1904
303.30 0.1907
303.40 0.1911
303.50 0.1914
303.60 0.1918
303.70 0.1921
303.80 0.1924
303.90 0.1928
304.00 0.1931
304.10 0.1934
304.20 0.1938
304.30 0.1941
304.40 0.1945
304.50 0.1948
304.60 0.1952
304.70 0.1955
304.80 0.1959
304.90 0.1962
305.00 0.1966
305.10 0.1969
305.20 0.1973
305.30 0.1976
305.40 0.198
305.50 0.1983
305.60 0.1986
305.70 0.199
305.80 0.1993
305.90 0.1997
306.00 0.2
306.10 0.2004
306.20 0.2007
306.30 0.2011
306.40 0.2014
306.50 0.2018
306.60 0.2021
306.70 0.2025
306.80 0.2028
306.90 0.2032
307.00 0.2035
307.10 0.2039
307.20 0.2042
307.30 0.2046
307.40 0.2049
307.50 0.2053
307.60 0.2056
307.70 0.206
307.80 0.2063
307.90 0.2067
308.00 0.207
308.10 0.2074
308.20 0.2078
308.30 0.2081
308.40 0.2085
308.50 0.2088
308.60 0.2092
308.70 0.2096
308.80 0.2099
308.90 0.2103
309.00 0.2106
309.10 0.211
309.20 0.2113
309.30 0.2117
309.40 0.2121
309.50 0.2124
309.60 0.2128
309.70 0.2131
309.80 0.2135
309.90 0.2138
310.00 0.2142
310.10 0.2145
310.20 0.2149
310.30 0.2153
310.40 0.2156
310.50 0.216
310.60 0.2164
310.70 0.2167
310.80 0.2171
310.90 0.2175
311.00 0.2178
311.10 0.2182
311.20 0.2186
311.30 0.2189
311.40 0.2193
311.50 0.2196
311.60 0.22
311.70 0.2204
311.80 0.2207
311.90 0.2211
312.00 0.2214
312.10 0.2218
312.20 0.2222
312.30 0.2225
312.40 0.2229
312.50 0.2233
312.60 0.2236
312.70 0.224
312.80 0.2244
312.90 0.2247
313.00 0.2251
313.10 0.2255
313.20 0.2258
313.30 0.2262
313.40 0.2266
313.50 0.2269
313.60 0.2273
313.70 0.2277
313.80 0.228
313.90 0.2284
314.00 0.2288
314.10 0.2291
314.20 0.2295
314.30 0.2299
314.40 0.2303
314.50 0.2306
314.60 0.231
314.70 0.2314
314.80 0.2318
314.90 0.2321
315.00 0.2325
315.10 0.2329
315.20 0.2333
315.30 0.2336
315.40 0.234
315.50 0.2344
315.60 0.2347
315.70 0.2351
315.80 0.2355
315.90 0.2359
316.00 0.2362
316.10 0.2366
316.20 0.237
316.30 0.2374
316.40 0.2377
316.50 0.2381
316.60 0.2385
316.70 0.2389
316.80 0.2393
316.90 0.2396
317.00 0.24
317.10 0.2404
317.20 0.2408
317.30 0.2412
317.40 0.2415
317.50 0.2419
317.60 0.2423
317.70 0.2427
317.80 0.243
317.90 0.2434
318.00 0.2438
318.10 0.2442
318.20 0.2445
318.30 0.2449
318.40 0.2453
318.50 0.2457
318.60 0.2461
318.70 0.2465
318.80 0.2469
318.90 0.2472
319.00 0.2476
319.10 0.248
319.20 0.2484
319.30 0.2488
319.40 0.2492
319.50 0.2495
319.60 0.2499
319.70 0.2503
319.80 0.2507
319.90 0.251
320.00 0.2514
320.10 0.2518
320.20 0.2522
320.30 0.2526
320.40 0.253
320.50 0.2534
320.60 0.2538
320.70 0.2542
320.80 0.2545
320.90 0.2549
321.00 0.2553
321.10 0.2557
321.20 0.2561
321.30 0.2565
321.40 0.2569
321.50 0.2573
321.60 0.2576
321.70 0.258
321.80 0.2584
321.90 0.2588
322.00 0.2592
322.10 0.2596
322.20 0.26
322.30 0.2604
322.40 0.2608
322.50 0.2612
322.60 0.2615
322.70 0.2619
322.80 0.2623
322.90 0.2627
323.00 0.2631
323.10 0.2635
323.20 0.2639
323.30 0.2643
323.40 0.2647
323.50 0.2651
323.60 0.2655
323.70 0.2658
323.80 0.2662
323.90 0.2666
324.00 0.267
324.10 0.2674
324.20 0.2678
324.30 0.2682
324.40 0.2686
324.50 0.269
324.60 0.2694
324.70 0.2698
324.80 0.2702
324.90 0.2706
325.00 0.271
325.10 0.2714
325.20 0.2718
325.30 0.2722
325.40 0.2726
325.50 0.273
325.60 0.2734
325.70 0.2738
325.80 0.2742
325.90 0.2746
326.00 0.275
326.10 0.2754
326.20 0.2758
326.30 0.2762
326.40 0.2766
326.50 0.277
326.60 0.2774
326.70 0.2778
326.80 0.2782
326.90 0.2786
327.00 0.279
327.10 0.2794
327.20 0.2798
327.30 0.2802
327.40 0.2806
327.50 0.281
327.60 0.2814
327.70 0.2818
327.80 0.2822
327.90 0.2826
328.00 0.283
328.10 0.2834
328.20 0.2838
328.30 0.2842
328.40 0.2846
328.50 0.285
328.60 0.2854
328.70 0.2858
328.80 0.2862
328.90 0.2866
329.00 0.287
329.10 0.2874
329.20 0.2878
329.30 0.2882
329.40 0.2887
329.50 0.2891
329.60 0.2895
329.70 0.2899
329.80 0.2903
329.90 0.2907
330.00 0.2911
330.10 0.2915
330.20 0.2919
330.30 0.2923
330.40 0.2927
330.50 0.2931
330.60 0.2935
330.70 0.2939
330.80 0.2944
330.90 0.2948
331.00 0.2952
331.10 0.2956
331.20 0.296
331.30 0.2964
331.40 0.2968
331.50 0.2972
331.60 0.2976
331.70 0.298
331.80 0.2984
331.90 0.2988
332.00 0.2992
332.10 0.2997
332.20 0.3001
332.30 0.3005
332.40 0.3009
332.50 0.3013
332.60 0.3017
332.70 0.3022
332.80 0.3026
332.90 0.303
333.00 0.3034
333.10 0.3038
333.20 0.3042
333.30 0.3046
333.40 0.305
333.50 0.3055
333.60 0.3059
333.70 0.3063
333.80 0.3067
333.90 0.3071
334.00 0.3075
334.10 0.3079
334.20 0.3083
334.30 0.3088
334.40 0.3092
334.50 0.3096
334.60 0.31
334.70 0.3104
334.80 0.3109
334.90 0.3113
335.00 0.3117
335.10 0.3121
335.20 0.3125
335.30 0.3129
335.40 0.3134
335.50 0.3138
335.60 0.3142
335.70 0.3146
335.80 0.315
335.90 0.3154
336.00 0.3158
336.10 0.3163
336.20 0.3167
336.30 0.3171
336.40 0.3175
336.50 0.318
336.60 0.3184
336.70 0.3188
336.80 0.3192
336.90 0.3196
337.00 0.3201
337.10 0.3205
337.20 0.3209
337.30 0.3213
337.40 0.3217
337.50 0.3222
337.60 0.3226
337.70 0.323
337.80 0.3234
337.90 0.3238
338.00 0.3242
338.10 0.3247
338.20 0.3251
338.30 0.3255
338.40 0.326
338.50 0.3264
338.60 0.3268
338.70 0.3272
338.80 0.3277
338.90 0.3281
339.00 0.3285
339.10 0.3289
339.20 0.3294
339.30 0.3298
339.40 0.3302
339.50 0.3306
339.60 0.331
339.70 0.3315
339.80 0.3319
339.90 0.3323
340.00 0.3327
340.10 0.3332
340.20 0.3336
340.30 0.334
340.40 0.3344
340.50 0.3349
340.60 0.3353
340.70 0.3357
340.80 0.3362
340.90 0.3366
341.00 0.337
341.10 0.3374
341.20 0.3379
341.30 0.3383
341.40 0.3387
341.50 0.3391
341.60 0.3396
341.70 0.34
341.80 0.3404
341.90 0.3408
342.00 0.3413
342.10 0.3417
342.20 0.3421
342.30 0.3426
342.40 0.343
342.50 0.3434
342.60 0.3439
342.70 0.3443
342.80 0.3447
342.90 0.3452
343.00 0.3456
343.10 0.346
343.20 0.3465
343.30 0.3469
343.40 0.3473
343.50 0.3477
343.60 0.3482
343.70 0.3486
343.80 0.349
343.90 0.3494
344.00 0.3499
344.10 0.3503
344.20 0.3507
344.30 0.3512
344.40 0.3516
344.50 0.3521
344.60 0.3525
344.70 0.3529
344.80 0.3534
344.90 0.3538
345.00 0.3542
345.10 0.3547
345.20 0.3551
345.30 0.3555
345.40 0.3559
345.50 0.3564
345.60 0.3568
345.70 0.3572
345.80 0.3577
345.90 0.3581
346.00 0.3585
346.10 0.359
346.20 0.3594
346.30 0.3598
346.40 0.3603
346.50 0.3607
346.60 0.3612
346.70 0.3616
346.80 0.362
346.90 0.3625
347.00 0.3629
347.10 0.3634
347.20 0.3638
347.30 0.3642
347.40 0.3647
347.50 0.3651
347.60 0.3655
347.70 0.366
347.80 0.3664
347.90 0.3668
348.00 0.3673
348.10 0.3677
348.20 0.3681
348.30 0.3686
348.40 0.369
348.50 0.3695
348.60 0.3699
348.70 0.3704
348.80 0.3708
348.90 0.3712
349.00 0.3717
349.10 0.3721
349.20 0.3725
349.30 0.373
349.40 0.3734
349.50 0.3738
349.60 0.3743
349.70 0.3747
349.80 0.3752
349.90 0.3756
350.00 0.376
350.10 0.3765
350.20 0.3769
350.30 0.3774
350.40 0.3778
350.50 0.3782
350.60 0.3787
350.70 0.3791
350.80 0.3796
350.90 0.38
351.00 0.3805
351.10 0.3809
351.20 0.3813
351.30 0.3818
351.40 0.3822
351.50 0.3827
351.60 0.3831
351.70 0.3835
351.80 0.384
351.90 0.3844
352.00 0.3849
352.10 0.3853
352.20 0.3858
352.30 0.3862
352.40 0.3866
352.50 0.3871
352.60 0.3875
352.70 0.388
352.80 0.3884
352.90 0.3889
353.00 0.3893
353.10 0.3898
353.20 0.3902
353.30 0.3906
353.40 0.3911
353.50 0.3915
353.60 0.392
353.70 0.3924
353.80 0.3928
353.90 0.3933
354.00 0.3937
354.10 0.3942
354.20 0.3946
354.30 0.3951
354.40 0.3955
354.50 0.396
354.60 0.3964
354.70 0.3969
354.80 0.3973
354.90 0.3978
355.00 0.3982
355.10 0.3987
355.20 0.3991
355.30 0.3995
355.40 0.4
355.50 0.4004
355.60 0.4009
355.70 0.4013
355.80 0.4018
355.90 0.4022
356.00 0.4026
356.10 0.4031
356.20 0.4035
356.30 0.404
356.40 0.4045
356.50 0.4049
356.60 0.4054
356.70 0.4058
356.80 0.4063
356.90 0.4067
357.00 0.4072
357.10 0.4076
357.20 0.408
357.30 0.4085
357.40 0.4089
357.50 0.4094
357.60 0.4098
357.70 0.4103
357.80 0.4107
357.90 0.4112
358.00 0.4116
358.10 0.4121
358.20 0.4125
358.30 0.413
358.40 0.4134
358.50 0.4139
358.60 0.4143
358.70 0.4148
358.80 0.4152
358.90 0.4157
359.00 0.4161
359.10 0.4166
359.20 0.417
359.30 0.4175
359.40 0.4179
359.50 0.4184
359.60 0.4188
359.70 0.4193
359.80 0.4197
359.90 0.4202
360.00 0.4206
360.10 0.4211
360.20 0.4215
360.30 0.422
360.40 0.4224
360.50 0.4229
360.60 0.4233
360.70 0.4238
360.80 0.4243
360.90 0.4247
361.00 0.4252
361.10 0.4256
361.20 0.4261
361.30 0.4265
361.40 0.427
361.50 0.4274
361.60 0.4279
361.70 0.4283
361.80 0.4288
361.90 0.4292
362.00 0.4296
362.10 0.4301
362.20 0.4306
362.30 0.431
362.40 0.4315
362.50 0.4319
362.60 0.4324
362.70 0.4328
362.80 0.4333
362.90 0.4337
363.00 0.4342
363.10 0.4346
363.20 0.4351
363.30 0.4355
363.40 0.436
363.50 0.4365
363.60 0.4369
363.70 0.4374
363.80 0.4378
363.90 0.4383
364.00 0.4387
364.10 0.4392
364.20 0.4396
364.30 0.4401
364.40 0.4405
364.50 0.441
364.60 0.4414
364.70 0.4419
364.80 0.4424
364.90 0.4428
365.00 0.4433
365.10 0.4437
365.20 0.4442
365.30 0.4446
365.40 0.4451
365.50 0.4456
365.60 0.446
365.70 0.4465
365.80 0.4469
365.90 0.4474
366.00 0.4478
366.10 0.4483
366.20 0.4487
366.30 0.4492
366.40 0.4497
366.50 0.4501
366.60 0.4506
366.70 0.451
366.80 0.4515
366.90 0.4519
367.00 0.4524
367.10 0.4529
367.20 0.4533
367.30 0.4538
367.40 0.4542
367.50 0.4547
367.60 0.4551
367.70 0.4556
367.80 0.456
367.90 0.4565
368.00 0.4569
368.10 0.4574
368.20 0.4579
368.30 0.4583
368.40 0.4588
368.50 0.4592
368.60 0.4597
368.70 0.4602
368.80 0.4606
368.90 0.4611
369.00 0.4615
369.10 0.462
369.20 0.4624
369.30 0.4629
369.40 0.4634
369.50 0.4638
369.60 0.4643
369.70 0.4647
369.80 0.4652
369.90 0.4656
370.00 0.4661
370.10 0.4665
370.20 0.467
370.30 0.4675
370.40 0.4679
370.50 0.4684
370.60 0.4689
370.70 0.4693
370.80 0.4698
370.90 0.4702
371.00 0.4707
371.10 0.4712
371.20 0.4716
371.30 0.4721
371.40 0.4725
371.50 0.473
371.60 0.4734
371.70 0.4739
371.80 0.4743
371.90 0.4748
372.00 0.4753
372.10 0.4757
372.20 0.4762
372.30 0.4767
372.40 0.4771
372.50 0.4776
372.60 0.478
372.70 0.4785
372.80 0.479
372.90 0.4794
373.00 0.4799
373.10 0.4803
373.20 0.4808
373.30 0.4813
373.40 0.4817
373.50 0.4822
373.60 0.4826
373.70 0.4831
373.80 0.4835
373.90 0.484
374.00 0.4845
374.10 0.4849
374.20 0.4854
374.30 0.4859
374.40 0.4863
374.50 0.4868
374.60 0.4872
374.70 0.4877
374.80 0.4882
374.90 0.4886
375.00 0.4891
375.10 0.4895
375.20 0.49
375.30 0.4905
375.40 0.4909
375.50 0.4914
375.60 0.4918
375.70 0.4923
375.80 0.4928
375.90 0.4932
376.00 0.4937
376.10 0.4941
376.20 0.4946
376.30 0.495
376.40 0.4955
376.50 0.496
376.60 0.4964
376.70 0.4969
376.80 0.4973
376.90 0.4978
377.00 0.4983
377.10 0.4987
377.20 0.4992
377.30 0.4996
377.40 0.5001
377.50 0.5006
377.60 0.501
377.70 0.5015
377.80 0.5019
377.90 0.5024
378.00 0.5029
378.10 0.5033
378.20 0.5038
378.30 0.5043
378.40 0.5047
378.50 0.5052
378.60 0.5056
378.70 0.5061
378.80 0.5066
378.90 0.507
379.00 0.5075
379.10 0.5079
379.20 0.5084
379.30 0.5089
379.40 0.5093
379.50 0.5098
379.60 0.5103
379.70 0.5107
379.80 0.5112
379.90 0.5116
380.00 0.5121
380.10 0.5126
380.20 0.513
380.30 0.5135
380.40 0.5139
380.50 0.5144
380.60 0.5149
380.70 0.5153
380.80 0.5158
380.90 0.5162
381.00 0.5167
381.10 0.5172
381.20 0.5176
381.30 0.5181
381.40 0.5186
381.50 0.519
381.60 0.5195
381.70 0.5199
381.80 0.5204
381.90 0.5209
382.00 0.5213
382.10 0.5218
382.20 0.5223
382.30 0.5227
382.40 0.5232
382.50 0.5236
382.60 0.5241
382.70 0.5246
382.80 0.525
382.90 0.5255
383.00 0.5259
383.10 0.5264
383.20 0.5269
383.30 0.5273
383.40 0.5278
383.50 0.5282
383.60 0.5287
383.70 0.5292
383.80 0.5296
383.90 0.5301
384.00 0.5306
384.10 0.531
384.20 0.5315
384.30 0.5319
384.40 0.5324
384.50 0.5329
384.60 0.5333
384.70 0.5338
384.80 0.5342
384.90 0.5347
385.00 0.5352
385.10 0.5356
385.20 0.5361
385.30 0.5366
385.40 0.537
385.50 0.5375
385.60 0.5379
385.70 0.5384
385.80 0.5389
385.90 0.5393
386.00 0.5398
386.10 0.5402
386.20 0.5407
386.30 0.5412
386.40 0.5416
386.50 0.5421
386.60 0.5426
386.70 0.543
386.80 0.5435
386.90 0.5439
387.00 0.5444
387.10 0.5449
387.20 0.5453
387.30 0.5458
387.40 0.5463
387.50 0.5467
387.60 0.5472
387.70 0.5476
387.80 0.5481
387.90 0.5486
388.00 0.549
388.10 0.5495
388.20 0.5499
388.30 0.5504
388.40 0.5509
388.50 0.5513
388.60 0.5518
388.70 0.5523
388.80 0.5527
388.90 0.5532
389.00 0.5536
389.10 0.5541
389.20 0.5546
389.30 0.555
389.40 0.5555
389.50 0.5559
389.60 0.5564
389.70 0.5569
389.80 0.5573
389.90 0.5578
390.00 0.5582
390.10 0.5587
390.20 0.5592
390.30 0.5596
390.40 0.5601
390.50 0.5606
390.60 0.561
390.70 0.5615
390.80 0.5619
390.90 0.5624
391.00 0.5629
391.10 0.5633
391.20 0.5638
391.30 0.5642
391.40 0.5647
391.50 0.5652
391.60 0.5656
391.70 0.5661
391.80 0.5665
391.90 0.567
392.00 0.5675
392.10 0.5679
392.20 0.5684
392.30 0.5688
392.40 0.5693
392.50 0.5698
392.60 0.5702
392.70 0.5707
392.80 0.5711
392.90 0.5716
393.00 0.5721
393.10 0.5725
393.20 0.573
393.30 0.5735
393.40 0.5739
393.50 0.5744
393.60 0.5748
393.70 0.5753
393.80 0.5758
393.90 0.5762
394.00 0.5767
394.10 0.5771
394.20 0.5776
394.30 0.5781
394.40 0.5785
394.50 0.579
394.60 0.5794
394.70 0.5799
394.80 0.5804
394.90 0.5808
395.00 0.5813
395.10 0.5817
395.20 0.5822
395.30 0.5827
395.40 0.5831
395.50 0.5836
395.60 0.584
395.70 0.5845
395.80 0.585
395.90 0.5854
396.00 0.5859
396.10 0.5863
396.20 0.5868
396.30 0.5873
396.40 0.5877
396.50 0.5882
396.60 0.5886
396.70 0.5891
396.80 0.5896
396.90 0.59
397.00 0.5905
397.10 0.5909
397.20 0.5914
397.30 0.5919
397.40 0.5923
397.50 0.5928
397.60 0.5932
397.70 0.5937
397.80 0.5941
397.90 0.5946
398.00 0.5951
398.10 0.5955
398.20 0.596
398.30 0.5964
398.40 0.5969
398.50 0.5974
398.60 0.5978
398.70 0.5983
398.80 0.5987
398.90 0.5992
399.00 0.5996
399.10 0.6001
399.20 0.6006
399.30 0.601
399.40 0.6015
399.50 0.6019
399.60 0.6024
399.70 0.6029
399.80 0.6033
399.90 0.6038
400.00 0.6042
400.10 0.6047
400.20 0.6051
400.30 0.6056
400.40 0.6061
400.50 0.6065
400.60 0.607
400.70 0.6074
400.80 0.6079
400.90 0.6083
401.00 0.6088
401.10 0.6093
401.20 0.6097
401.30 0.6102
401.40 0.6106
401.50 0.6111
401.60 0.6115
401.70 0.612
401.80 0.6125
401.90 0.6129
402.00 0.6134
402.10 0.6138
402.20 0.6143
402.30 0.6147
402.40 0.6152
402.50 0.6157
402.60 0.6161
402.70 0.6166
402.80 0.617
402.90 0.6175
403.00 0.6179
403.10 0.6184
403.20 0.6189
403.30 0.6193
403.40 0.6198
403.50 0.6202
403.60 0.6207
403.70 0.6211
403.80 0.6216
403.90 0.622
404.00 0.6225
404.10 0.623
404.20 0.6234
404.30 0.6239
404.40 0.6243
404.50 0.6248
404.60 0.6252
404.70 0.6257
404.80 0.6261
404.90 0.6266
405.00 0.6271
405.10 0.6275
405.20 0.628
405.30 0.6284
405.40 0.6289
405.50 0.6293
405.60 0.6298
405.70 0.6302
405.80 0.6307
405.90 0.6311
406.00 0.6316
406.10 0.6321
406.20 0.6325
406.30 0.633
406.40 0.6334
406.50 0.6339
406.60 0.6343
406.70 0.6348
406.80 0.6352
406.90 0.6357
407.00 0.6361
407.10 0.6366
407.20 0.6371
407.30 0.6375
407.40 0.638
407.50 0.6384
407.60 0.6389
407.70 0.6393
407.80 0.6398
407.90 0.6402
408.00 0.6407
408.10 0.6411
408.20 0.6416
408.30 0.642
408.40 0.6425
408.50 0.6429
408.60 0.6434
408.70 0.6438
408.80 0.6443
408.90 0.6447
409.00 0.6452
409.10 0.6456
409.20 0.6461
409.30 0.6466
409.40 0.647
409.50 0.6475
409.60 0.6479
409.70 0.6484
409.80 0.6488
409.90 0.6493
410.00 0.6497
410.10 0.6502
410.20 0.6506
410.30 0.6511
410.40 0.6515
410.50 0.652
410.60 0.6524
410.70 0.6529
410.80 0.6533
410.90 0.6538
411.00 0.6542
411.10 0.6547
411.20 0.6551
411.30 0.6556
411.40 0.656
411.50 0.6565
411.60 0.6569
411.70 0.6574
411.80 0.6578
411.90 0.6583
412.00 0.6587
412.10 0.6592
412.20 0.6596
412.30 0.6601
412.40 0.6605
412.50 0.661
412.60 0.6614
412.70 0.6619
412.80 0.6623
412.90 0.6628
413.00 0.6632
413.10 0.6637
413.20 0.6641
413.30 0.6646
413.40 0.665
413.50 0.6655
413.60 0.6659
413.70 0.6664
413.80 0.6668
413.90 0.6673
414.00 0.6677
414.10 0.6682
414.20 0.6686
414.30 0.6691
414.40 0.6695
414.50 0.67
414.60 0.6704
414.70 0.6709
414.80 0.6713
414.90 0.6717
415.00 0.6722
415.10 0.6726
415.20 0.6731
415.30 0.6735
415.40 0.674
415.50 0.6744
415.60 0.6749
415.70 0.6753
415.80 0.6758
415.90 0.6762
416.00 0.6767
416.10 0.6771
416.20 0.6775
416.30 0.678
416.40 0.6784
416.50 0.6789
416.60 0.6793
416.70 0.6798
416.80 0.6802
416.90 0.6807
417.00 0.6811
417.10 0.6816
417.20 0.682
417.30 0.6825
417.40 0.6829
417.50 0.6833
417.60 0.6838
417.70 0.6842
417.80 0.6847
417.90 0.6851
418.00 0.6856
418.10 0.686
418.20 0.6865
418.30 0.6869
418.40 0.6873
418.50 0.6878
418.60 0.6882
418.70 0.6887
418.80 0.6891
418.90 0.6896
419.00 0.69
419.10 0.6905
419.20 0.6909
419.30 0.6913
419.40 0.6918
419.50 0.6922
419.60 0.6927
419.70 0.6931
419.80 0.6936
419.90 0.694
420.00 0.6944
420.10 0.6949
420.20 0.6953
420.30 0.6958
420.40 0.6962
420.50 0.6967
420.60 0.6971
420.70 0.6975
420.80 0.698
420.90 0.6984
421.00 0.6989
421.10 0.6993
421.20 0.6997
421.30 0.7002
421.40 0.7006
421.50 0.7011
421.60 0.7015
421.70 0.7019
421.80 0.7024
421.90 0.7028
422.00 0.7033
422.10 0.7037
422.20 0.7041
422.30 0.7046
422.40 0.705
422.50 0.7055
422.60 0.7059
422.70 0.7063
422.80 0.7068
422.90 0.7072
423.00 0.7077
423.10 0.7081
423.20 0.7085
423.30 0.709
423.40 0.7094
423.50 0.7099
423.60 0.7103
423.70 0.7107
423.80 0.7112
423.90 0.7116
424.00 0.712
424.10 0.7125
424.20 0.7129
424.30 0.7134
424.40 0.7138
424.50 0.7142
424.60 0.7147
424.70 0.7151
424.80 0.7155
424.90 0.716
425.00 0.7164
425.10 0.7169
425.20 0.7173
425.30 0.7177
425.40 0.7182
425.50 0.7186
425.60 0.719
425.70 0.7195
425.80 0.7199
425.90 0.7204
426.00 0.7208
426.10 0.7212
426.20 0.7217
426.30 0.7221
426.40 0.7225
426.50 0.723
426.60 0.7234
426.70 0.7238
426.80 0.7243
426.90 0.7247
427.00 0.7251
427.10 0.7256
427.20 0.726
427.30 0.7264
427.40 0.7269
427.50 0.7273
427.60 0.7278
427.70 0.7282
427.80 0.7286
427.90 0.7291
428.00 0.7295
428.10 0.7299
428.20 0.7304
428.30 0.7308
428.40 0.7312
428.50 0.7316
428.60 0.7321
428.70 0.7325
428.80 0.7329
428.90 0.7334
429.00 0.7338
429.10 0.7343
429.20 0.7347
429.30 0.7351
429.40 0.7355
429.50 0.736
429.60 0.7364
429.70 0.7368
429.80 0.7373
429.90 0.7377
430.00 0.7381
430.10 0.7386
430.20 0.739
430.30 0.7394
430.40 0.7399
430.50 0.7403
430.60 0.7407
430.70 0.7411
430.80 0.7416
430.90 0.742
431.00 0.7424
431.10 0.7429
431.20 0.7433
431.30 0.7437
431.40 0.7441
431.50 0.7446
431.60 0.745
431.70 0.7454
431.80 0.7459
431.90 0.7463
432.00 0.7467
432.10 0.7471
432.20 0.7476
432.30 0.748
432.40 0.7484
432.50 0.7489
432.60 0.7493
432.70 0.7497
432.80 0.7502
432.90 0.7506
433.00 0.751
433.10 0.7514
433.20 0.7518
433.30 0.7523
433.40 0.7527
433.50 0.7531
433.60 0.7536
433.70 0.754
433.80 0.7544
433.90 0.7548
434.00 0.7553
434.10 0.7557
434.20 0.7561
434.30 0.7565
434.40 0.757
434.50 0.7574
434.60 0.7578
434.70 0.7582
434.80 0.7587
434.90 0.7591
435.00 0.7595
435.10 0.7599
435.20 0.7604
435.30 0.7608
435.40 0.7612
435.50 0.7616
435.60 0.7621
435.70 0.7625
435.80 0.7629
435.90 0.7633
436.00 0.7638
436.10 0.7642
436.20 0.7646
436.30 0.765
436.40 0.7654
436.50 0.7659
436.60 0.7663
436.70 0.7667
436.80 0.7671
436.90 0.7676
437.00 0.768
437.10 0.7684
437.20 0.7688
437.30 0.7692
437.40 0.7697
437.50 0.7701
437.60 0.7705
437.70 0.7709
437.80 0.7713
437.90 0.7718
438.00 0.7722
438.10 0.7726
438.20 0.773
438.30 0.7734
438.40 0.7739
438.50 0.7743
438.60 0.7747
438.70 0.7751
438.80 0.7755
438.90 0.776
439.00 0.7764
439.10 0.7768
439.20 0.7772
439.30 0.7776
439.40 0.7781
439.50 0.7785
439.60 0.7789
439.70 0.7793
439.80 0.7797
439.90 0.7802
440.00 0.7806
440.10 0.781
440.20 0.7814
440.30 0.7818
440.40 0.7822
440.50 0.7827
440.60 0.7831
440.70 0.7835
440.80 0.7839
440.90 0.7843
441.00 0.7847
441.10 0.7852
441.20 0.7856
441.30 0.786
441.40 0.7864
441.50 0.7868
441.60 0.7872
441.70 0.7876
441.80 0.7881
441.90 0.7885
442.00 0.7889
442.10 0.7893
442.20 0.7897
442.30 0.7901
442.40 0.7905
442.50 0.791
442.60 0.7914
442.70 0.7918
442.80 0.7922
442.90 0.7926
443.00 0.793
443.10 0.7934
443.20 0.7939
443.30 0.7943
443.40 0.7947
443.50 0.7951
443.60 0.7955
443.70 0.7959
443.80 0.7963
443.90 0.7967
444.00 0.7971
444.10 0.7976
444.20 0.798
444.30 0.7984
444.40 0.7988
444.50 0.7992
444.60 0.7996
444.70 0.8
444.80 0.8004
444.90 0.8008
445.00 0.8013
445.10 0.8017
445.20 0.8021
445.30 0.8025
445.40 0.8029
445.50 0.8033
445.60 0.8037
445.70 0.8041
445.80 0.8045
445.90 0.8049
446.00 0.8053
446.10 0.8058
446.20 0.8062
446.30 0.8066
446.40 0.807
446.50 0.8074
446.60 0.8078
446.70 0.8082
446.80 0.8086
446.90 0.809
447.00 0.8094
447.10 0.8098
447.20 0.8102
447.30 0.8107
447.40 0.8111
447.50 0.8115
447.60 0.8119
447.70 0.8123
447.80 0.8127
447.90 0.8131
448.00 0.8135
448.10 0.8139
448.20 0.8143
448.30 0.8147
448.40 0.8151
448.50 0.8155
448.60 0.8159
448.70 0.8163
448.80 0.8167
448.90 0.8171
449.00 0.8175
449.10 0.8179
449.20 0.8183
449.30 0.8187
449.40 0.8191
449.50 0.8195
449.60 0.82
449.70 0.8204
449.80 0.8208
449.90 0.8212
450.00 0.8216
450.10 0.822
450.20 0.8224
450.30 0.8228
450.40 0.8232
450.50 0.8236
450.60 0.824
450.70 0.8244
450.80 0.8248
450.90 0.8252
451.00 0.8256
451.10 0.826
451.20 0.8264
451.30 0.8268
451.40 0.8272
451.50 0.8276
451.60 0.828
451.70 0.8284
451.80 0.8288
451.90 0.8292
452.00 0.8296
452.10 0.83
452.20 0.8304
452.30 0.8308
452.40 0.8312
452.50 0.8316
452.60 0.832
452.70 0.8324
452.80 0.8328
452.90 0.8332
453.00 0.8336
453.10 0.834
453.20 0.8344
453.30 0.8347
453.40 0.8351
453.50 0.8355
453.60 0.8359
453.70 0.8363
453.80 0.8367
453.90 0.8371
454.00 0.8375
454.10 0.8379
454.20 0.8383
454.30 0.8387
454.40 0.8391
454.50 0.8395
454.60 0.8399
454.70 0.8403
454.80 0.8407
454.90 0.8411
455.00 0.8415
455.10 0.8419
455.20 0.8423
455.30 0.8427
455.40 0.843
455.50 0.8434
455.60 0.8438
455.70 0.8442
455.80 0.8446
455.90 0.845
456.00 0.8454
456.10 0.8458
456.20 0.8462
456.30 0.8466
456.40 0.847
456.50 0.8474
456.60 0.8477
456.70 0.8481
456.80 0.8485
456.90 0.8489
457.00 0.8493
457.10 0.8497
457.20 0.8501
457.30 0.8505
457.40 0.8509
457.50 0.8513
457.60 0.8517
457.70 0.852
457.80 0.8524
457.90 0.8528
458.00 0.8532
458.10 0.8536
458.20 0.854
458.30 0.8544
458.40 0.8548
458.50 0.8551
458.60 0.8555
458.70 0.8559
458.80 0.8563
458.90 0.8567
459.00 0.8571
459.10 0.8575
459.20 0.8579
459.30 0.8583
459.40 0.8586
459.50 0.859
459.60 0.8594
459.70 0.8598
459.80 0.8602
459.90 0.8606
460.00 0.861
460.10 0.8613
460.20 0.8617
460.30 0.8621
460.40 0.8625
460.50 0.8629
460.60 0.8633
460.70 0.8636
460.80 0.864
460.90 0.8644
461.00 0.8648
461.10 0.8652
461.20 0.8656
461.30 0.8659
461.40 0.8663
461.50 0.8667
461.60 0.8671
461.70 0.8675
461.80 0.8679
461.90 0.8682
462.00 0.8686
462.10 0.869
462.20 0.8694
462.30 0.8698
462.40 0.8701
462.50 0.8705
462.60 0.8709
462.70 0.8713
462.80 0.8717
462.90 0.8721
463.00 0.8724
463.10 0.8728
463.20 0.8732
463.30 0.8736
463.40 0.874
463.50 0.8743
463.60 0.8747
463.70 0.8751
463.80 0.8755
463.90 0.8758
464.00 0.8762
464.10 0.8766
464.20 0.877
464.30 0.8774
464.40 0.8777
464.50 0.8781
464.60 0.8785
464.70 0.8789
464.80 0.8792
464.90 0.8796
465.00 0.88
465.10 0.8804
465.20 0.8807
465.30 0.8811
465.40 0.8815
465.50 0.8819
465.60 0.8822
465.70 0.8826
465.80 0.883
465.90 0.8834
466.00 0.8837
466.10 0.8841
466.20 0.8845
466.30 0.8849
466.40 0.8852
466.50 0.8856
466.60 0.886
466.70 0.8864
466.80 0.8867
466.90 0.8871
467.00 0.8875
467.10 0.8879
467.20 0.8882
467.30 0.8886
467.40 0.889
467.50 0.8893
467.60 0.8897
467.70 0.8901
467.80 0.8905
467.90 0.8908
468.00 0.8912
468.10 0.8916
468.20 0.8919
468.30 0.8923
468.40 0.8927
468.50 0.8931
468.60 0.8934
468.70 0.8938
468.80 0.8942
468.90 0.8945
469.00 0.8949
469.10 0.8953
469.20 0.8956
469.30 0.896
469.40 0.8964
469.50 0.8967
469.60 0.8971
469.70 0.8975
469.80 0.8978
469.90 0.8982
470.00 0.8986
470.10 0.899
470.20 0.8993
470.30 0.8997
470.40 0.9001
470.50 0.9004
470.60 0.9008
470.70 0.9011
470.80 0.9015
470.90 0.9019
471.00 0.9022
471.10 0.9026
471.20 0.903
471.30 0.9033
471.40 0.9037
471.50 0.9041
471.60 0.9044
471.70 0.9048
471.80 0.9052
471.90 0.9055
472.00 0.9059
472.10 0.9062
472.20 0.9066
472.30 0.907
472.40 0.9073
472.50 0.9077
472.60 0.9081
472.70 0.9084
472.80 0.9088
472.90 0.9092
473.00 0.9095
473.10 0.9099
473.20 0.9102
473.30 0.9106
473.40 0.911
473.50 0.9113
473.60 0.9117
473.70 0.912
473.80 0.9124
473.90 0.9128
474.00 0.9131
474.10 0.9135
474.20 0.9138
474.30 0.9142
474.40 0.9146
474.50 0.9149
474.60 0.9153
474.70 0.9156
474.80 0.916
474.90 0.9164
475.00 0.9167
475.10 0.9171
475.20 0.9174
475.30 0.9178
475.40 0.9181
475.50 0.9185
475.60 0.9189
475.70 0.9192
475.80 0.9196
475.90 0.9199
476.00 0.9203
476.10 0.9206
476.20 0.921
476.30 0.9213
476.40 0.9217
476.50 0.9221
476.60 0.9224
476.70 0.9228
476.80 0.9231
476.90 0.9235
477.00 0.9238
477.10 0.9242
477.20 0.9245
477.30 0.9249
477.40 0.9252
477.50 0.9256
477.60 0.9259
477.70 0.9263
477.80 0.9267
477.90 0.927
478.00 0.9274
478.10 0.9277
478.20 0.9281
478.30 0.9284
478.40 0.9288
478.50 0.9291
478.60 0.9295
478.70 0.9298
478.80 0.9302
478.90 0.9305
479.00 0.9309
479.10 0.9312
479.20 0.9316
479.30 0.9319
479.40 0.9323
479.50 0.9326
479.60 0.933
479.70 0.9333
479.80 0.9337
479.90 0.934
480.00 0.9344
480.10 0.9347
480.20 0.9351
480.30 0.9354
480.40 0.9357
480.50 0.9361
480.60 0.9364
480.70 0.9368
480.80 0.9371
480.90 0.9375
481.00 0.9378
481.10 0.9382
481.20 0.9385
481.30 0.9389
481.40 0.9392
481.50 0.9396
481.60 0.9399
481.70 0.9402
481.80 0.9406
481.90 0.9409
482.00 0.9413
482.10 0.9416
482.20 0.942
482.30 0.9423
482.40 0.9427
482.50 0.943
482.60 0.9433
482.70 0.9437
482.80 0.944
482.90 0.9444
483.00 0.9447
483.10 0.9451
483.20 0.9454
483.30 0.9457
483.40 0.9461
483.50 0.9464
483.60 0.9468
483.70 0.9471
483.80 0.9474
483.90 0.9478
484.00 0.9481
484.10 0.9485
484.20 0.9488
484.30 0.9491
484.40 0.9495
484.50 0.9498
484.60 0.9502
484.70 0.9505
484.80 0.9508
484.90 0.9512
485.00 0.9515
485.10 0.9518
485.20 0.9522
485.30 0.9525
485.40 0.9529
485.50 0.9532
485.60 0.9535
485.70 0.9538
485.80 0.9542
485.90 0.9545
486.00 0.9548
486.10 0.9552
486.20 0.9555
486.30 0.9558
486.40 0.9562
486.50 0.9565
486.60 0.9569
486.70 0.9572
486.80 0.9576
486.90 0.9579
487.00 0.9582
487.10 0.9586
487.20 0.9589
487.30 0.9592
487.40 0.9596
487.50 0.9599
487.60 0.9602
487.70 0.9606
487.80 0.9609
487.90 0.9612
488.00 0.9616
488.10 0.9619
488.20 0.9622
488.30 0.9626
488.40 0.9629
488.50 0.9632
488.60 0.9636
488.70 0.9639
488.80 0.9642
488.90 0.9646
489.00 0.9649
489.10 0.9652
489.20 0.9655
489.30 0.9659
489.40 0.9662
489.50 0.9665
489.60 0.9669
489.70 0.9672
489.80 0.9675
489.90 0.9679
490.00 0.9682
490.10 0.9685
490.20 0.9688
490.30 0.9692
490.40 0.9695
490.50 0.9698
490.60 0.9702
490.70 0.9705
490.80 0.9708
490.90 0.9711
491.00 0.9715
491.10 0.9718
491.20 0.9721
491.30 0.9724
491.40 0.9728
491.50 0.9731
491.60 0.9734
491.70 0.9737
491.80 0.9741
491.90 0.9744
492.00 0.9747
492.10 0.975
492.20 0.9754
492.30 0.9757
492.40 0.976
492.50 0.9763
492.60 0.9767
492.70 0.977
492.80 0.9773
492.90 0.9776
493.00 0.9779
493.10 0.9783
493.20 0.9786
493.30 0.9789
493.40 0.9792
493.50 0.9796
493.60 0.9799
493.70 0.9802
493.80 0.9805
493.90 0.9808
494.00 0.9812
494.10 0.9815
494.20 0.9818
494.30 0.9821
494.40 0.9824
494.50 0.9828
494.60 0.9831
494.70 0.9834
494.80 0.9837
494.90 0.984
495.00 0.9844
495.10 0.9847
495.20 0.985
495.30 0.9853
495.40 0.9856
495.50 0.9859
495.60 0.9863
495.70 0.9866
495.80 0.9869
495.90 0.9872
496.00 0.9875
496.10 0.9878
496.20 0.9882
496.30 0.9885
496.40 0.9888
496.50 0.9891
496.60 0.9894
496.70 0.9897
496.80 0.99
496.90 0.9904
497.00 0.9907
497.10 0.991
497.20 0.9913
497.30 0.9916
497.40 0.9919
497.50 0.9922
497.60 0.9925
497.70 0.9929
497.80 0.9932
497.90 0.9935
498.00 0.9938
498.10 0.9941
498.20 0.9944
498.30 0.9947
498.40 0.995
498.50 0.9954
498.60 0.9957
498.70 0.996
498.80 0.9963
498.90 0.9966
499.00 0.9969
499.10 0.9972
499.20 0.9975
499.30 0.9978
499.40 0.9982
499.50 0.9985
499.60 0.9988
499.70 0.9991
499.80 0.9994
499.90 0.9997
500.00 1
500.10 1
500.20 1.001
500.30 1.001
500.40 1.001
500.50 1.002
500.60 1.002
500.70 1.002
500.80 1.002
500.90 1.003
501.00 1.003
501.10 1.003
501.20 1.004
501.30 1.004
501.40 1.004
501.50 1.005
501.60 1.005
501.70 1.005
501.80 1.006
501.90 1.006
502.00 1.006
502.10 1.006
502.20 1.007
502.30 1.007
502.40 1.007
502.50 1.008
502.60 1.008
502.70 1.008
502.80 1.009
502.90 1.009
503.00 1.009
503.10 1.009
503.20 1.01
503.30 1.01
503.40 1.01
503.50 1.011
503.60 1.011
503.70 1.011
503.80 1.012
503.90 1.012
504.00 1.012
504.10 1.012
504.20 1.013
504.30 1.013
504.40 1.013
504.50 1.014
504.60 1.014
504.70 1.014
504.80 1.015
504.90 1.015
505.00 1.015
505.10 1.015
505.20 1.016
505.30 1.016
505.40 1.016
505.50 1.017
505.60 1.017
505.70 1.017
505.80 1.018
505.90 1.018
506.00 1.018
506.10 1.018
506.20 1.019
506.30 1.019
506.40 1.019
506.50 1.02
506.60 1.02
506.70 1.02
506.80 1.02
506.90 1.021
507.00 1.021
507.10 1.021
507.20 1.022
507.30 1.022
507.40 1.022
507.50 1.023
507.60 1.023
507.70 1.023
507.80 1.023
507.90 1.024
508.00 1.024
508.10 1.024
508.20 1.025
508.30 1.025
508.40 1.025
508.50 1.025
508.60 1.026
508.70 1.026
508.80 1.026
508.90 1.027
509.00 1.027
509.10 1.027
509.20 1.027
509.30 1.028
509.40 1.028
509.50 1.028
509.60 1.029
509.70 1.029
509.80 1.029
509.90 1.029
510.00 1.03
510.10 1.03
510.20 1.03
510.30 1.031
510.40 1.031
510.50 1.031
510.60 1.031
510.70 1.032
510.80 1.032
510.90 1.032
511.00 1.033
511.10 1.033
511.20 1.033
511.30 1.033
511.40 1.034
511.50 1.034
511.60 1.034
511.70 1.035
511.80 1.035
511.90 1.035
512.00 1.035
512.10 1.036
512.20 1.036
512.30 1.036
512.40 1.037
512.50 1.037
512.60 1.037
512.70 1.037
512.80 1.038
512.90 1.038
513.00 1.038
513.10 1.039
513.20 1.039
513.30 1.039
513.40 1.039
513.50 1.04
513.60 1.04
513.70 1.04
513.80 1.041
513.90 1.041
514.00 1.041
514.10 1.041
514.20 1.042
514.30 1.042
514.40 1.042
514.50 1.042
514.60 1.043
514.70 1.043
514.80 1.043
514.90 1.044
515.00 1.044
515.10 1.044
515.20 1.044
515.30 1.045
515.40 1.045
515.50 1.045
515.60 1.046
515.70 1.046
515.80 1.046
515.90 1.046
516.00 1.047
516.10 1.047
516.20 1.047
516.30 1.047
516.40 1.048
516.50 1.048
516.60 1.048
516.70 1.049
516.80 1.049
516.90 1.049
517.00 1.049
517.10 1.05
517.20 1.05
517.30 1.05
517.40 1.05
517.50 1.051
517.60 1.051
517.70 1.051
517.80 1.052
517.90 1.052
518.00 1.052
518.10 1.052
518.20 1.053
518.30 1.053
518.40 1.053
518.50 1.053
518.60 1.054
518.70 1.054
518.80 1.054
518.90 1.054
519.00 1.055
519.10 1.055
519.20 1.055
519.30 1.056
519.40 1.056
519.50 1.056
519.60 1.056
519.70 1.057
519.80 1.057
519.90 1.057
520.00 1.057
520.10 1.058
520.20 1.058
520.30 1.058
520.40 1.059
520.50 1.059
520.60 1.059
520.70 1.059
520.80 1.06
520.90 1.06
521.00 1.06
521.10 1.06
521.20 1.061
521.30 1.061
521.40 1.061
521.50 1.061
521.60 1.062
521.70 1.062
521.80 1.062
521.90 1.062
522.00 1.063
522.10 1.063
522.20 1.063
522.30 1.063
522.40 1.064
522.50 1.064
522.60 1.064
522.70 1.065
522.80 1.065
522.90 1.065
523.00 1.065
523.10 1.066
523.20 1.066
523.30 1.066
523.40 1.066
523.50 1.067
523.60 1.067
523.70 1.067
523.80 1.067
523.90 1.068
524.00 1.068
524.10 1.068
524.20 1.068
524.30 1.069
524.40 1.069
524.50 1.069
524.60 1.069
524.70 1.07
524.80 1.07
524.90 1.07
525.00 1.071
525.10 1.071
525.20 1.071
525.30 1.071
525.40 1.072
525.50 1.072
525.60 1.072
525.70 1.072
525.80 1.073
525.90 1.073
526.00 1.073
526.10 1.073
526.20 1.074
526.30 1.074
526.40 1.074
526.50 1.074
526.60 1.075
526.70 1.075
526.80 1.075
526.90 1.075
527.00 1.076
527.10 1.076
527.20 1.076
527.30 1.076
527.40 1.077
527.50 1.077
527.60 1.077
527.70 1.077
527.80 1.078
527.90 1.078
528.00 1.078
528.10 1.078
528.20 1.079
528.30 1.079
528.40 1.079
528.50 1.079
528.60 1.08
528.70 1.08
528.80 1.08
528.90 1.08
529.00 1.081
529.10 1.081
529.20 1.081
529.30 1.081
529.40 1.082
529.50 1.082
529.60 1.082
529.70 1.082
529.80 1.083
529.90 1.083
530.00 1.083
530.10 1.083
530.20 1.084
530.30 1.084
530.40 1.084
530.50 1.084
530.60 1.084
530.70 1.085
530.80 1.085
530.90 1.085
531.00 1.085
531.10 1.086
531.20 1.086
531.30 1.086
531.40 1.086
531.50 1.087
531.60 1.087
531.70 1.087
531.80 1.087
531.90 1.088
532.00 1.088
532.10 1.088
532.20 1.088
532.30 1.089
532.40 1.089
532.50 1.089
532.60 1.089
532.70 1.09
532.80 1.09
532.90 1.09
533.00 1.09
533.10 1.091
533.20 1.091
533.30 1.091
533.40 1.091
533.50 1.091
533.60 1.092
533.70 1.092
533.80 1.092
533.90 1.092
534.00 1.093
534.10 1.093
534.20 1.093
534.30 1.093
534.40 1.094
534.50 1.094
534.60 1.094
534.70 1.094
534.80 1.095
534.90 1.095
535.00 1.095
535.10 1.095
535.20 1.095
535.30 1.096
535.40 1.096
535.50 1.096
535.60 1.096
535.70 1.097
535.80 1.097
535.90 1.097
536.00 1.097
536.10 1.098
536.20 1.098
536.30 1.098
536.40 1.098
536.50 1.099
536.60 1.099
536.70 1.099
536.80 1.099
536.90 1.099
537.00 1.1
537.10 1.1
537.20 1.1
537.30 1.1
537.40 1.101
537.50 1.101
537.60 1.101
537.70 1.101
537.80 1.102
537.90 1.102
538.00 1.102
538.10 1.102
538.20 1.102
538.30 1.103
538.40 1.103
538.50 1.103
538.60 1.103
538.70 1.104
538.80 1.104
538.90 1.104
539.00 1.104
539.10 1.105
539.20 1.105
539.30 1.105
539.40 1.105
539.50 1.105
539.60 1.106
539.70 1.106
539.80 1.106
539.90 1.106
540.00 1.107
540.10 1.107
540.20 1.107
540.30 1.107
540.40 1.107
540.50 1.108
540.60 1.108
540.70 1.108
540.80 1.108
540.90 1.109
541.00 1.109
541.10 1.109
541.20 1.109
541.30 1.109
541.40 1.11
541.50 1.11
541.60 1.11
541.70 1.11
541.80 1.111
541.90 1.111
542.00 1.111
542.10 1.111
542.20 1.111
542.30 1.112
542.40 1.112
542.50 1.112
542.60 1.112
542.70 1.113
542.80 1.113
542.90 1.113
543.00 1.113
543.10 1.113
543.20 1.114
543.30 1.114
543.40 1.114
543.50 1.114
543.60 1.115
543.70 1.115
543.80 1.115
543.90 1.115
544.00 1.115
544.10 1.116
544.20 1.116
544.30 1.116
544.40 1.116
544.50 1.116
544.60 1.117
544.70 1.117
544.80 1.117
544.90 1.117
545.00 1.118
545.10 1.118
545.20 1.118
545.30 1.118
545.40 1.118
545.50 1.119
545.60 1.119
545.70 1.119
545.80 1.119
545.90 1.119
546.00 1.12
546.10 1.12
546.20 1.12
546.30 1.12
546.40 1.12
546.50 1.121
546.60 1.121
546.70 1.121
546.80 1.121
546.90 1.122
547.00 1.122
547.10 1.122
547.20 1.122
547.30 1.122
547.40 1.123
547.50 1.123
547.60 1.123
547.70 1.123
547.80 1.123
547.90 1.124
548.00 1.124
548.10 1.124
548.20 1.124
548.30 1.124
548.40 1.125
548.50 1.125
548.60 1.125
548.70 1.125
548.80 1.126
548.90 1.126
549.00 1.126
549.10 1.126
549.20 1.126
549.30 1.127
549.40 1.127
549.50 1.127
549.60 1.127
549.70 1.127
549.80 1.128
549.90 1.128
550.00 1.128
550.10 1.128
550.20 1.128
550.30 1.129
550.40 1.129
550.50 1.129
550.60 1.129
550.70 1.129
550.80 1.13
550.90 1.13
551.00 1.13
551.10 1.13
551.20 1.13
551.30 1.131
551.40 1.131
551.50 1.131
551.60 1.131
551.70 1.131
551.80 1.132
551.90 1.132
552.00 1.132
552.10 1.132
552.20 1.132
552.30 1.133
552.40 1.133
552.50 1.133
552.60 1.133
552.70 1.133
552.80 1.134
552.90 1.134
553.00 1.134
553.10 1.134
553.20 1.134
553.30 1.135
553.40 1.135
553.50 1.135
553.60 1.135
553.70 1.135
553.80 1.136
553.90 1.136
554.00 1.136
554.10 1.136
554.20 1.136
554.30 1.137
554.40 1.137
554.50 1.137
554.60 1.137
554.70 1.137
554.80 1.138
554.90 1.138
555.00 1.138
555.10 1.138
555.20 1.138
555.30 1.139
555.40 1.139
555.50 1.139
555.60 1.139
555.70 1.139
555.80 1.14
555.90 1.14
556.00 1.14
556.10 1.14
556.20 1.14
556.30 1.14
556.40 1.141
556.50 1.141
556.60 1.141
556.70 1.141
556.80 1.141
556.90 1.142
557.00 1.142
557.10 1.142
557.20 1.142
557.30 1.142
557.40 1.143
557.50 1.143
557.60 1.143
557.70 1.143
557.80 1.143
557.90 1.144
558.00 1.144
558.10 1.144
558.20 1.144
558.30 1.144
558.40 1.144
558.50 1.145
558.60 1.145
558.70 1.145
558.80 1.145
558.90 1.145
559.00 1.146
559.10 1.146
559.20 1.146
559.30 1.146
559.40 1.146
559.50 1.146
559.60 1.147
559.70 1.147
559.80 1.147
559.90 1.147
560.00 1.147
560.10 1.148
560.20 1.148
560.30 1.148
560.40 1.148
560.50 1.148
560.60 1.149
560.70 1.149
560.80 1.149
560.90 1.149
561.00 1.149
561.10 1.149
561.20 1.15
561.30 1.15
561.40 1.15
561.50 1.15
561.60 1.15
561.70 1.151
561.80 1.151
561.90 1.151
562.00 1.151
562.10 1.151
562.20 1.151
562.30 1.152
562.40 1.152
562.50 1.152
562.60 1.152
562.70 1.152
562.80 1.153
562.90 1.153
563.00 1.153
563.10 1.153
563.20 1.153
563.30 1.153
563.40 1.154
563.50 1.154
563.60 1.154
563.70 1.154
563.80 1.154
563.90 1.154
564.00 1.155
564.10 1.155
564.20 1.155
564.30 1.155
564.40 1.155
564.50 1.156
564.60 1.156
564.70 1.156
564.80 1.156
564.90 1.156
565.00 1.156
565.10 1.157
565.20 1.157
565.30 1.157
565.40 1.157
565.50 1.157
565.60 1.157
565.70 1.158
565.80 1.158
565.90 1.158
566.00 1.158
566.10 1.158
566.20 1.158
566.30 1.159
566.40 1.159
566.50 1.159
566.60 1.159
566.70 1.159
566.80 1.159
566.90 1.16
567.00 1.16
567.10 1.16
567.20 1.16
567.30 1.16
567.40 1.161
567.50 1.161
567.60 1.161
567.70 1.161
567.80 1.161
567.90 1.161
568.00 1.162
568.10 1.162
568.20 1.162
568.30 1.162
568.40 1.162
568.50 1.162
568.60 1.163
568.70 1.163
568.80 1.163
568.90 1.163
569.00 1.163
569.10 1.163
569.20 1.164
569.30 1.164
569.40 1.164
569.50 1.164
569.60 1.164
569.70 1.164
569.80 1.165
569.90 1.165
570.00 1.165
570.10 1.165
570.20 1.165
570.30 1.165
570.40 1.165
570.50 1.166
570.60 1.166
570.70 1.166
570.80 1.166
570.90 1.166
571.00 1.167
571.10 1.167
571.20 1.167
571.30 1.167
571.40 1.167
571.50 1.167
571.60 1.167
571.70 1.168
571.80 1.168
571.90 1.168
572.00 1.168
572.10 1.168
572.20 1.168
572.30 1.169
572.40 1.169
572.50 1.169
572.60 1.169
572.70 1.169
572.80 1.169
572.90 1.17
573.00 1.17
573.10 1.17
573.20 1.17
573.30 1.17
573.40 1.17
573.50 1.17
573.60 1.171
573.70 1.171
573.80 1.171
573.90 1.171
574.00 1.171
574.10 1.171
574.20 1.172
574.30 1.172
574.40 1.172
574.50 1.172
574.60 1.172
574.70 1.172
574.80 1.173
574.90 1.173
575.00 1.173
575.10 1.173
575.20 1.173
575.30 1.173
575.40 1.173
575.50 1.174
575.60 1.174
575.70 1.174
575.80 1.174
575.90 1.174
576.00 1.174
576.10 1.174
576.20 1.175
576.30 1.175
576.40 1.175
576.50 1.175
576.60 1.175
576.70 1.175
576.80 1.176
576.90 1.176
577.00 1.176
577.10 1.176
577.20 1.176
577.30 1.176
577.40 1.177
577.50 1.177
577.60 1.177
577.70 1.177
577.80 1.177
577.90 1.177
578.00 1.177
578.10 1.178
578.20 1.178
578.30 1.178
578.40 1.178
578.50 1.178
578.60 1.178
578.70 1.178
578.80 1.179
578.90 1.179
579.00 1.179
579.10 1.179
579.20 1.179
579.30 1.179
579.40 1.179
579.50 1.18
579.60 1.18
579.70 1.18
579.80 1.18
579.90 1.18
580.00 1.18
580.10 1.181
580.20 1.181
580.30 1.181
580.40 1.181
580.50 1.181
580.60 1.181
580.70 1.181
580.80 1.182
580.90 1.182
581.00 1.182
581.10 1.182
581.20 1.182
581.30 1.182
581.40 1.182
581.50 1.183
581.60 1.183
581.70 1.183
581.80 1.183
581.90 1.183
582.00 1.183
582.10 1.183
582.20 1.184
582.30 1.184
582.40 1.184
582.50 1.184
582.60 1.184
582.70 1.184
582.80 1.184
582.90 1.184
583.00 1.185
583.10 1.185
583.20 1.185
583.30 1.185
583.40 1.185
583.50 1.185
583.60 1.185
583.70 1.186
583.80 1.186
583.90 1.186
584.00 1.186
584.10 1.186
584.20 1.186
584.30 1.186
584.40 1.187
584.50 1.187
584.60 1.187
584.70 1.187
584.80 1.187
584.90 1.187
585.00 1.187
585.10 1.187
585.20 1.188
585.30 1.188
585.40 1.188
585.50 1.188
585.60 1.188
585.70 1.188
585.80 1.188
585.90 1.189
586.00 1.189
586.10 1.189
586.20 1.189
586.30 1.189
586.40 1.189
586.50 1.189
586.60 1.19
586.70 1.19
586.80 1.19
586.90 1.19
587.00 1.19
587.10 1.19
587.20 1.19
587.30 1.19
587.40 1.191
587.50 1.191
587.60 1.191
587.70 1.191
587.80 1.191
587.90 1.191
588.00 1.191
588.10 1.192
588.20 1.192
588.30 1.192
588.40 1.192
588.50 1.192
588.60 1.192
588.70 1.192
588.80 1.192
588.90 1.193
589.00 1.193
589.10 1.193
589.20 1.193
589.30 1.193
589.40 1.193
589.50 1.193
589.60 1.193
589.70 1.194
589.80 1.194
589.90 1.194
590.00 1.194
590.10 1.194
590.20 1.194
590.30 1.194
590.40 1.194
590.50 1.195
590.60 1.195
590.70 1.195
590.80 1.195
590.90 1.195
591.00 1.195
591.10 1.195
591.20 1.195
591.30 1.196
591.40 1.196
591.50 1.196
591.60 1.196
591.70 1.196
591.80 1.196
591.90 1.196
592.00 1.196
592.10 1.197
592.20 1.197
592.30 1.197
592.40 1.197
592.50 1.197
592.60 1.197
592.70 1.197
592.80 1.197
592.90 1.198
593.00 1.198
593.10 1.198
593.20 1.198
593.30 1.198
593.40 1.198
593.50 1.198
593.60 1.198
593.70 1.198
593.80 1.199
593.90 1.199
594.00 1.199
594.10 1.199
594.20 1.199
594.30 1.199
594.40 1.199
594.50 1.199
594.60 1.2
594.70 1.2
594.80 1.2
594.90 1.2
595.00 1.2
595.10 1.2
595.20 1.2
595.30 1.2
595.40 1.201
595.50 1.201
595.60 1.201
595.70 1.201
595.80 1.201
595.90 1.201
596.00 1.201
596.10 1.201
596.20 1.201
596.30 1.202
596.40 1.202
596.50 1.202
596.60 1.202
596.70 1.202
596.80 1.202
596.90 1.202
597.00 1.202
597.10 1.203
597.20 1.203
597.30 1.203
597.40 1.203
597.50 1.203
597.60 1.203
597.70 1.203
597.80 1.203
597.90 1.203
598.00 1.204
598.10 1.204
598.20 1.204
598.30 1.204
598.40 1.204
598.50 1.204
598.60 1.204
598.70 1.204
598.80 1.204
598.90 1.205
599.00 1.205
599.10 1.205
599.20 1.205
599.30 1.205
599.40 1.205
599.50 1.205
599.60 1.205
599.70 1.205
599.80 1.206
599.90 1.206
600.00 1.206
600.10 1.206
600.20 1.206
600.30 1.206
600.40 1.206
600.50 1.206
600.60 1.206
600.70 1.206
600.80 1.207
600.90 1.207
601.00 1.207
601.10 1.207
601.20 1.207
601.30 1.207
601.40 1.207
601.50 1.207
601.60 1.207
601.70 1.208
601.80 1.208
601.90 1.208
602.00 1.208
602.10 1.208
602.20 1.208
602.30 1.208
602.40 1.208
602.50 1.208
602.60 1.209
602.70 1.209
602.80 1.209
602.90 1.209
603.00 1.209
603.10 1.209
603.20 1.209
603.30 1.209
603.40 1.209
603.50 1.209
603.60 1.21
603.70 1.21
603.80 1.21
603.90 1.21
604.00 1.21
604.10 1.21
604.20 1.21
604.30 1.21
604.40 1.21
604.50 1.21
604.60 1.211
604.70 1.211
604.80 1.211
604.90 1.211
605.00 1.211
605.10 1.211
605.20 1.211
605.30 1.211
605.40 1.211
605.50 1.211
605.60 1.212
605.70 1.212
605.80 1.212
605.90 1.212
606.00 1.212
606.10 1.212
606.20 1.212
606.30 1.212
606.40 1.212
606.50 1.212
606.60 1.213
606.70 1.213
606.80 1.213
606.90 1.213
607.00 1.213
607.10 1.213
607.20 1.213
607.30 1.213
607.40 1.213
607.50 1.213
607.60 1.213
607.70 1.214
607.80 1.214
607.90 1.214
608.00 1.214
608.10 1.214
608.20 1.214
608.30 1.214
608.40 1.214
608.50 1.214
608.60 1.214
608.70 1.215
608.80 1.215
608.90 1.215
609.00 1.215
609.10 1.215
609.20 1.215
609.30 1.215
609.40 1.215
609.50 1.215
609.60 1.215
609.70 1.216
609.80 1.216
609.90 1.216
610.00 1.216
610.10 1.216
610.20 1.216
610.30 1.216
610.40 1.216
610.50 1.216
610.60 1.216
610.70 1.216
610.80 1.217
610.90 1.217
611.00 1.217
611.10 1.217
611.20 1.217
611.30 1.217
611.40 1.217
611.50 1.217
611.60 1.217
611.70 1.217
611.80 1.217
611.90 1.218
612.00 1.218
612.10 1.218
612.20 1.218
612.30 1.218
612.40 1.218
612.50 1.218
612.60 1.218
612.70 1.218
612.80 1.218
612.90 1.218
613.00 1.218
613.10 1.219
613.20 1.219
613.30 1.219
613.40 1.219
613.50 1.219
613.60 1.219
613.70 1.219
613.80 1.219
613.90 1.219
614.00 1.219
614.10 1.219
614.20 1.219
614.30 1.22
614.40 1.22
614.50 1.22
614.60 1.22
614.70 1.22
614.80 1.22
614.90 1.22
615.00 1.22
615.10 1.22
615.20 1.22
615.30 1.22
615.40 1.22
615.50 1.221
615.60 1.221
615.70 1.221
615.80 1.221
615.90 1.221
616.00 1.221
616.10 1.221
616.20 1.221
616.30 1.221
616.40 1.221
616.50 1.221
616.60 1.221
616.70 1.222
616.80 1.222
616.90 1.222
617.00 1.222
617.10 1.222
617.20 1.222
617.30 1.222
617.40 1.222
617.50 1.222
617.60 1.222
617.70 1.222
617.80 1.222
617.90 1.222
618.00 1.223
618.10 1.223
618.20 1.223
618.30 1.223
618.40 1.223
618.50 1.223
618.60 1.223
618.70 1.223
618.80 1.223
618.90 1.223
619.00 1.223
619.10 1.223
619.20 1.224
619.30 1.224
619.40 1.224
619.50 1.224
619.60 1.224
619.70 1.224
619.80 1.224
619.90 1.224
620.00 1.224
620.10 1.224
620.20 1.224
620.30 1.224
620.40 1.224
620.50 1.224
620.60 1.225
620.70 1.225
620.80 1.225
620.90 1.225
621.00 1.225
621.10 1.225
621.20 1.225
621.30 1.225
621.40 1.225
621.50 1.225
621.60 1.225
621.70 1.225
621.80 1.225
621.90 1.226
622.00 1.226
622.10 1.226
622.20 1.226
622.30 1.226
622.40 1.226
622.50 1.226
622.60 1.226
622.70 1.226
622.80 1.226
622.90 1.226
623.00 1.226
623.10 1.226
623.20 1.226
623.30 1.226
623.40 1.227
623.50 1.227
623.60 1.227
623.70 1.227
623.80 1.227
623.90 1.227
624.00 1.227
624.10 1.227
624.20 1.227
624.30 1.227
624.40 1.227
624.50 1.227
624.60 1.227
624.70 1.227
624.80 1.227
624.90 1.228
625.00 1.228
625.10 1.228
625.20 1.228
625.30 1.228
625.40 1.228
625.50 1.228
625.60 1.228
625.70 1.228
625.80 1.228
625.90 1.228
626.00 1.228
626.10 1.228
626.20 1.228
626.30 1.228
626.40 1.229
626.50 1.229
626.60 1.229
626.70 1.229
626.80 1.229
626.90 1.229
627.00 1.229
627.10 1.229
627.20 1.229
627.30 1.229
627.40 1.229
627.50 1.229
627.60 1.229
627.70 1.229
627.80 1.229
627.90 1.229
628.00 1.23
628.10 1.23
628.20 1.23
628.30 1.23
628.40 1.23
628.50 1.23
628.60 1.23
628.70 1.23
628.80 1.23
628.90 1.23
629.00 1.23
629.10 1.23
629.20 1.23
629.30 1.23
629.40 1.23
629.50 1.23
629.60 1.231
629.70 1.231
629.80 1.231
629.90 1.231
630.00 1.231
630.10 1.231
630.20 1.231
630.30 1.231
630.40 1.231
630.50 1.231
630.60 1.231
630.70 1.231
630.80 1.231
630.90 1.231
631.00 1.231
631.10 1.231
631.20 1.232
631.30 1.232
631.40 1.232
631.50 1.232
631.60 1.232
631.70 1.232
631.80 1.232
631.90 1.232
632.00 1.232
632.10 1.232
632.20 1.232
632.30 1.232
632.40 1.232
632.50 1.232
632.60 1.232
632.70 1.232
632.80 1.232
632.90 1.232
633.00 1.232
633.10 1.233
633.20 1.233
633.30 1.233
633.40 1.233
633.50 1.233
633.60 1.233
633.70 1.233
633.80 1.233
633.90 1.233
634.00 1.233
634.10 1.233
634.20 1.233
634.30 1.233
634.40 1.233
634.50 1.233
634.60 1.233
634.70 1.233
634.80 1.233
634.90 1.234
635.00 1.234
635.10 1.234
635.20 1.234
635.30 1.234
635.40 1.234
635.50 1.234
635.60 1.234
635.70 1.234
635.80 1.234
635.90 1.234
636.00 1.234
636.10 1.234
636.20 1.234
636.30 1.234
636.40 1.234
636.50 1.234
636.60 1.234
636.70 1.234
636.80 1.234
636.90 1.235
637.00 1.235
637.10 1.235
637.20 1.235
637.30 1.235
637.40 1.235
637.50 1.235
637.60 1.235
637.70 1.235
637.80 1.235
637.90 1.235
638.00 1.235
638.10 1.235
638.20 1.235
638.30 1.235
638.40 1.235
638.50 1.235
638.60 1.235
638.70 1.235
638.80 1.235
638.90 1.235
639.00 1.235
639.10 1.236
639.20 1.236
639.30 1.236
639.40 1.236
639.50 1.236
639.60 1.236
639.70 1.236
639.80 1.236
639.90 1.236
640.00 1.236
640.10 1.236
640.20 1.236
640.30 1.236
640.40 1.236
640.50 1.236
640.60 1.236
640.70 1.236
640.80 1.236
640.90 1.236
641.00 1.236
641.10 1.236
641.20 1.236
641.30 1.237
641.40 1.237
641.50 1.237
641.60 1.237
641.70 1.237
641.80 1.237
641.90 1.237
642.00 1.237
642.10 1.237
642.20 1.237
642.30 1.237
642.40 1.237
642.50 1.237
642.60 1.237
642.70 1.237
642.80 1.237
642.90 1.237
643.00 1.237
643.10 1.237
643.20 1.237
643.30 1.237
643.40 1.237
643.50 1.237
643.60 1.237
643.70 1.237
643.80 1.237
643.90 1.238
644.00 1.238
644.10 1.238
644.20 1.238
644.30 1.238
644.40 1.238
644.50 1.238
644.60 1.238
644.70 1.238
644.80 1.238
644.90 1.238
645.00 1.238
645.10 1.238
645.20 1.238
645.30 1.238
645.40 1.238
645.50 1.238
645.60 1.238
645.70 1.238
645.80 1.238
645.90 1.238
646.00 1.238
646.10 1.238
646.20 1.238
646.30 1.238
646.40 1.238
646.50 1.238
646.60 1.238
646.70 1.239
646.80 1.239
646.90 1.239
647.00 1.239
647.10 1.239
647.20 1.239
647.30 1.239
647.40 1.239
647.50 1.239
647.60 1.239
647.70 1.239
647.80 1.239
647.90 1.239
648.00 1.239
648.10 1.239
648.20 1.239
648.30 1.239
648.40 1.239
648.50 1.239
648.60 1.239
648.70 1.239
648.80 1.239
648.90 1.239
649.00 1.239
649.10 1.239
649.20 1.239
649.30 1.239
649.40 1.239
649.50 1.239
649.60 1.239
649.70 1.239
649.80 1.24
649.90 1.24
650.00 1.24
650.10 1.24
650.20 1.24
650.30 1.24
650.40 1.24
650.50 1.24
650.60 1.24
650.70 1.24
650.80 1.24
650.90 1.24
651.00 1.24
651.10 1.24
651.20 1.24
651.30 1.24
651.40 1.24
651.50 1.24
651.60 1.24
651.70 1.24
651.80 1.24
651.90 1.24
652.00 1.24
652.10 1.24
652.20 1.24
652.30 1.24
652.40 1.24
652.50 1.24
652.60 1.24
652.70 1.24
652.80 1.24
652.90 1.24
653.00 1.24
653.10 1.24
653.20 1.24
653.30 1.24
653.40 1.24
653.50 1.24
653.60 1.24
653.70 1.241
653.80 1.241
653.90 1.241
654.00 1.241
654.10 1.241
654.20 1.241
654.30 1.241
654.40 1.241
654.50 1.241
654.60 1.241
654.70 1.241
654.80 1.241
654.90 1.241
655.00 1.241
655.10 1.241
655.20 1.241
655.30 1.241
655.40 1.241
655.50 1.241
655.60 1.241
655.70 1.241
655.80 1.241
655.90 1.241
656.00 1.241
656.10 1.241
656.20 1.241
656.30 1.241
656.40 1.241
656.50 1.241
656.60 1.241
656.70 1.241
656.80 1.241
656.90 1.241
657.00 1.241
657.10 1.241
657.20 1.241
657.30 1.241
657.40 1.241
657.50 1.241
657.60 1.241
657.70 1.241
657.80 1.241
657.90 1.241
658.00 1.241
658.10 1.241
658.20 1.241
658.30 1.241
658.40 1.242
658.50 1.242
658.60 1.242
658.70 1.242
658.80 1.242
658.90 1.242
659.00 1.242
659.10 1.242
659.20 1.242
659.30 1.242
659.40 1.242
659.50 1.242
659.60 1.242
659.70 1.242
659.80 1.242
659.90 1.242
660.00 1.242
660.10 1.242
660.20 1.242
660.30 1.242
660.40 1.242
660.50 1.242
660.60 1.242
660.70 1.242
660.80 1.242
660.90 1.242
661.00 1.242
661.10 1.242
661.20 1.242
661.30 1.242
661.40 1.242
661.50 1.242
661.60 1.242
661.70 1.242
661.80 1.242
661.90 1.242
662.00 1.242
662.10 1.242
662.20 1.242
662.30 1.242
662.40 1.242
662.50 1.242
662.60 1.242
662.70 1.242
662.80 1.242
662.90 1.242
663.00 1.242
663.10 1.242
663.20 1.242
663.30 1.242
663.40 1.242
663.50 1.242
663.60 1.242
663.70 1.242
663.80 1.242
663.90 1.242
664.00 1.242
664.10 1.242
664.20 1.242
664.30 1.242
664.40 1.242
664.50 1.242
664.60 1.242
664.70 1.242
664.80 1.242
664.90 1.242
665.00 1.242
665.10 1.242
665.20 1.242
665.30 1.242
665.40 1.242
665.50 1.242
665.60 1.242
665.70 1.242
665.80 1.242
665.90 1.242
666.00 1.242
666.10 1.242
666.20 1.242
666.30 1.242
666.40 1.242
666.50 1.242
666.60 1.242
666.70 1.242
666.80 1.243
666.90 1.243
667.00 1.243
667.10 1.243
667.20 1.243
667.30 1.243
667.40 1.243
667.50 1.243
667.60 1.243
667.70 1.243
667.80 1.243
667.90 1.243
668.00 1.243
668.10 1.243
668.20 1.243
668.30 1.243
668.40 1.243
668.50 1.243
668.60 1.243
668.70 1.243
668.80 1.243
668.90 1.243
669.00 1.243
669.10 1.243
669.20 1.243
669.30 1.243
669.40 1.243
669.50 1.243
669.60 1.243
669.70 1.243
669.80 1.243
669.90 1.243
670.00 1.243
670.10 1.243
670.20 1.243
670.30 1.243
670.40 1.243
670.50 1.243
670.60 1.243
670.70 1.243
670.80 1.243
670.90 1.243
671.00 1.243
671.10 1.243
671.20 1.243
671.30 1.243
671.40 1.243
671.50 1.243
671.60 1.243
671.70 1.243
671.80 1.243
671.90 1.243
672.00 1.243
672.10 1.243
672.20 1.243
672.30 1.243
672.40 1.243
672.50 1.243
672.60 1.243
672.70 1.243
672.80 1.243
672.90 1.243
673.00 1.243
673.10 1.243
673.20 1.243
673.30 1.243
673.40 1.243
673.50 1.243
673.60 1.243
673.70 1.243
673.80 1.243
673.90 1.243
674.00 1.243
674.10 1.243
674.20 1.243
674.30 1.243
674.40 1.243
674.50 1.243
674.60 1.243
674.70 1.243
674.80 1.243
674.90 1.243
675.00 1.243
675.10 1.243
675.20 1.243
675.30 1.243
675.40 1.242
675.50 1.242
675.60 1.242
675.70 1.242
675.80 1.242
675.90 1.242
676.00 1.242
676.10 1.242
676.20 1.242
676.30 1.242
676.40 1.242
676.50 1.242
676.60 1.242
676.70 1.242
676.80 1.242
676.90 1.242
677.00 1.242
677.10 1.242
677.20 1.242
677.30 1.242
677.40 1.242
677.50 1.242
677.60 1.242
677.70 1.242
677.80 1.242
677.90 1.242
678.00 1.242
678.10 1.242
678.20 1.242
678.30 1.242
678.40 1.242
678.50 1.242
678.60 1.242
678.70 1.242
678.80 1.242
678.90 1.242
679.00 1.242
679.10 1.242
679.20 1.242
679.30 1.242
679.40 1.242
679.50 1.242
679.60 1.242
679.70 1.242
679.80 1.242
679.90 1.242
680.00 1.242
680.10 1.242
680.20 1.242
680.30 1.242
680.40 1.242
680.50 1.242
680.60 1.242
680.70 1.242
680.80 1.242
680.90 1.242
681.00 1.242
681.10 1.242
681.20 1.242
681.30 1.242
681.40 1.242
681.50 1.242
681.60 1.242
681.70 1.242
681.80 1.242
681.90 1.242
682.00 1.242
682.10 1.242
682.20 1.242
682.30 1.242
682.40 1.242
682.50 1.242
682.60 1.242
682.70 1.242
682.80 1.242
682.90 1.242
683.00 1.242
683.10 1.242
683.20 1.242
683.30 1.242
683.40 1.242
683.50 1.242
683.60 1.242
683.70 1.242
683.80 1.242
683.90 1.242
684.00 1.242
684.10 1.242
684.20 1.241
684.30 1.241
684.40 1.241
684.50 1.241
684.60 1.241
684.70 1.241
684.80 1.241
684.90 1.241
685.00 1.241
685.10 1.241
685.20 1.241
685.30 1.241
685.40 1.241
685.50 1.241
685.60 1.241
685.70 1.241
685.80 1.241
685.90 1.241
686.00 1.241
686.10 1.241
686.20 1.241
686.30 1.241
686.40 1.241
686.50 1.241
686.60 1.241
686.70 1.241
686.80 1.241
686.90 1.241
687.00 1.241
687.10 1.241
687.20 1.241
687.30 1.241
687.40 1.241
687.50 1.241
687.60 1.241
687.70 1.241
687.80 1.241
687.90 1.241
688.00 1.241
688.10 1.241
688.20 1.241
688.30 1.241
688.40 1.241
688.50 1.241
688.60 1.241
688.70 1.241
688.80 1.241
688.90 1.241
689.00 1.241
689.10 1.241
689.20 1.24
689.30 1.24
689.40 1.24
689.50 1.24
689.60 1.24
689.70 1.24
689.80 1.24
689.90 1.24
690.00 1.24
690.10 1.24
690.20 1.24
690.30 1.24
690.40 1.24
690.50 1.24
690.60 1.24
690.70 1.24
690.80 1.24
690.90 1.24
691.00 1.24
691.10 1.24
691.20 1.24
691.30 1.24
691.40 1.24
691.50 1.24
691.60 1.24
691.70 1.24
691.80 1.24
691.90 1.24
692.00 1.24
692.10 1.24
692.20 1.24
692.30 1.24
692.40 1.24
692.50 1.24
692.60 1.24
692.70 1.24
692.80 1.24
692.90 1.24
693.00 1.239
693.10 1.239
693.20 1.239
693.30 1.239
693.40 1.239
693.50 1.239
693.60 1.239
693.70 1.239
693.80 1.239
693.90 1.239
694.00 1.239
694.10 1.239
694.20 1.239
694.30 1.239
694.40 1.239
694.50 1.239
694.60 1.239
694.70 1.239
694.80 1.239
694.90 1.239
695.00 1.239
695.10 1.239
695.20 1.239
695.30 1.239
695.40 1.239
695.50 1.239
695.60 1.239
695.70 1.239
695.80 1.239
695.90 1.239
696.00 1.239
696.10 1.239
696.20 1.239
696.30 1.238
696.40 1.238
696.50 1.238
696.60 1.238
696.70 1.238
696.80 1.238
696.90 1.238
697.00 1.238
697.10 1.238
697.20 1.238
697.30 1.238
697.40 1.238
697.50 1.238
697.60 1.238
697.70 1.238
697.80 1.238
697.90 1.238
698.00 1.238
698.10 1.238
698.20 1.238
698.30 1.238
698.40 1.238
698.50 1.238
698.60 1.238
698.70 1.238
698.80 1.238
698.90 1.238
699.00 1.238
699.10 1.238
699.20 1.238
699.30 1.237
699.40 1.237
699.50 1.237
699.60 1.237
699.70 1.237
699.80 1.237
699.90 1.237
700.00 1.237
700.10 1.237
700.20 1.237
700.30 1.237
700.40 1.237
700.50 1.237
700.60 1.237
700.70 1.237
700.80 1.237
700.90 1.237
701.00 1.237
701.10 1.237
701.20 1.237
701.30 1.237
701.40 1.237
701.50 1.237
701.60 1.237
701.70 1.237
701.80 1.237
701.90 1.236
702.00 1.236
702.10 1.236
702.20 1.236
702.30 1.236
702.40 1.236
702.50 1.236
702.60 1.236
702.70 1.236
702.80 1.236
702.90 1.236
703.00 1.236
703.10 1.236
703.20 1.236
703.30 1.236
703.40 1.236
703.50 1.236
703.60 1.236
703.70 1.236
703.80 1.236
703.90 1.236
704.00 1.236
704.10 1.236
704.20 1.236
704.30 1.236
704.40 1.235
704.50 1.235
704.60 1.235
704.70 1.235
704.80 1.235
704.90 1.235
705.00 1.235
705.10 1.235
705.20 1.235
705.30 1.235
705.40 1.235
705.50 1.235
705.60 1.235
705.70 1.235
705.80 1.235
705.90 1.235
706.00 1.235
706.10 1.235
706.20 1.235
706.30 1.235
706.40 1.235
706.50 1.235
706.60 1.234
706.70 1.234
706.80 1.234
706.90 1.234
707.00 1.234
707.10 1.234
707.20 1.234
707.30 1.234
707.40 1.234
707.50 1.234
707.60 1.234
707.70 1.234
707.80 1.234
707.90 1.234
708.00 1.234
708.10 1.234
708.20 1.234
708.30 1.234
708.40 1.234
708.50 1.234
708.60 1.234
708.70 1.234
708.80 1.233
708.90 1.233
709.00 1.233
709.10 1.233
709.20 1.233
709.30 1.233
709.40 1.233
709.50 1.233
709.60 1.233
709.70 1.233
709.80 1.233
709.90 1.233
710.00 1.233
710.10 1.233
710.20 1.233
710.30 1.233
710.40 1.233
710.50 1.233
710.60 1.233
710.70 1.233
710.80 1.233
710.90 1.232
711.00 1.232
711.10 1.232
711.20 1.232
711.30 1.232
711.40 1.232
711.50 1.232
711.60 1.232
711.70 1.232
711.80 1.232
711.90 1.232
712.00 1.232
712.10 1.232
712.20 1.232
712.30 1.232
712.40 1.232
712.50 1.232
712.60 1.232
712.70 1.232
712.80 1.232
712.90 1.231
713.00 1.231
713.10 1.231
713.20 1.231
713.30 1.231
713.40 1.231
713.50 1.231
713.60 1.231
713.70 1.231
713.80 1.231
713.90 1.231
714.00 1.231
714.10 1.231
714.20 1.231
714.30 1.231
714.40 1.231
714.50 1.231
714.60 1.231
714.70 1.231
714.80 1.231
714.90 1.23
715.00 1.23
715.10 1.23
715.20 1.23
715.30 1.23
715.40 1.23
715.50 1.23
715.60 1.23
715.70 1.23
715.80 1.23
715.90 1.23
716.00 1.23
716.10 1.23
716.20 1.23
716.30 1.23
716.40 1.23
716.50 1.23
716.60 1.229
716.70 1.229
716.80 1.229
716.90 1.229
717.00 1.229
717.10 1.229
717.20 1.229
717.30 1.229
717.40 1.229
717.50 1.229
717.60 1.229
717.70 1.229
717.80 1.229
717.90 1.229
718.00 1.229
718.10 1.229
718.20 1.229
718.30 1.229
718.40 1.228
718.50 1.228
718.60 1.228
718.70 1.228
718.80 1.228
718.90 1.228
719.00 1.228
719.10 1.228
719.20 1.228
719.30 1.228
719.40 1.228
719.50 1.228
719.60 1.228
719.70 1.228
719.80 1.228
719.90 1.228
720.00 1.228
720.10 1.227
720.20 1.227
720.30 1.227
720.40 1.227
720.50 1.227
720.60 1.227
720.70 1.227
720.80 1.227
720.90 1.227
721.00 1.227
721.10 1.227
721.20 1.227
721.30 1.227
721.40 1.227
721.50 1.227
721.60 1.227
721.70 1.227
721.80 1.226
721.90 1.226
722.00 1.226
722.10 1.226
722.20 1.226
722.30 1.226
722.40 1.226
722.50 1.226
722.60 1.226
722.70 1.226
722.80 1.226
722.90 1.226
723.00 1.226
723.10 1.226
723.20 1.226
723.30 1.226
723.40 1.225
723.50 1.225
723.60 1.225
723.70 1.225
723.80 1.225
723.90 1.225
724.00 1.225
724.10 1.225
724.20 1.225
724.30 1.225
724.40 1.225
724.50 1.225
724.60 1.225
724.70 1.225
724.80 1.225
724.90 1.225
725.00 1.224
725.10 1.224
725.20 1.224
725.30 1.224
725.40 1.224
725.50 1.224
725.60 1.224
725.70 1.224
725.80 1.224
725.90 1.224
726.00 1.224
726.10 1.224
726.20 1.224
726.30 1.224
726.40 1.224
726.50 1.223
726.60 1.223
726.70 1.223
726.80 1.223
726.90 1.223
727.00 1.223
727.10 1.223
727.20 1.223
727.30 1.223
727.40 1.223
727.50 1.223
727.60 1.223
727.70 1.223
727.80 1.223
727.90 1.223
728.00 1.222
728.10 1.222
728.20 1.222
728.30 1.222
728.40 1.222
728.50 1.222
728.60 1.222
728.70 1.222
728.80 1.222
728.90 1.222
729.00 1.222
729.10 1.222
729.20 1.222
729.30 1.222
729.40 1.222
729.50 1.222
729.60 1.221
729.70 1.221
729.80 1.221
729.90 1.221
730.00 1.221
730.10 1.221
730.20 1.221
730.30 1.221
730.40 1.221
730.50 1.221
730.60 1.221
730.70 1.221
730.80 1.221
730.90 1.221
731.00 1.22
731.10 1.22
731.20 1.22
731.30 1.22
731.40 1.22
731.50 1.22
731.60 1.22
731.70 1.22
731.80 1.22
731.90 1.22
732.00 1.22
732.10 1.22
732.20 1.22
732.30 1.22
732.40 1.219
732.50 1.219
732.60 1.219
732.70 1.219
732.80 1.219
732.90 1.219
733.00 1.219
733.10 1.219
733.20 1.219
733.30 1.219
733.40 1.219
733.50 1.219
733.60 1.219
733.70 1.219
733.80 1.218
733.90 1.218
734.00 1.218
734.10 1.218
734.20 1.218
734.30 1.218
734.40 1.218
734.50 1.218
734.60 1.218
734.70 1.218
734.80 1.218
734.90 1.218
735.00 1.218
735.10 1.218
735.20 1.217
735.30 1.217
735.40 1.217
735.50 1.217
735.60 1.217
735.70 1.217
735.80 1.217
735.90 1.217
736.00 1.217
736.10 1.217
736.20 1.217
736.30 1.217
736.40 1.217
736.50 1.217
736.60 1.216
736.70 1.216
736.80 1.216
736.90 1.216
737.00 1.216
737.10 1.216
737.20 1.216
737.30 1.216
737.40 1.216
737.50 1.216
737.60 1.216
737.70 1.216
737.80 1.216
737.90 1.216
738.00 1.215
738.10 1.215
738.20 1.215
738.30 1.215
738.40 1.215
738.50 1.215
738.60 1.215
738.70 1.215
738.80 1.215
738.90 1.215
739.00 1.215
739.10 1.215
739.20 1.215
739.30 1.215
739.40 1.214
739.50 1.214
739.60 1.214
739.70 1.214
739.80 1.214
739.90 1.214
740.00 1.214
740.10 1.214
740.20 1.214
740.30 1.214
740.40 1.214
740.50 1.214
740.60 1.214
740.70 1.213
740.80 1.213
740.90 1.213
741.00 1.213
741.10 1.213
741.20 1.213
741.30 1.213
741.40 1.213
741.50 1.213
741.60 1.213
741.70 1.213
741.80 1.213
741.90 1.213
742.00 1.212
742.10 1.212
742.20 1.212
742.30 1.212
742.40 1.212
742.50 1.212
742.60 1.212
742.70 1.212
742.80 1.212
742.90 1.212
743.00 1.212
743.10 1.212
743.20 1.212
743.30 1.211
743.40 1.211
743.50 1.211
743.60 1.211
743.70 1.211
743.80 1.211
743.90 1.211
744.00 1.211
744.10 1.211
744.20 1.211
744.30 1.211
744.40 1.211
744.50 1.211
744.60 1.21
744.70 1.21
744.80 1.21
744.90 1.21
745.00 1.21
745.10 1.21
745.20 1.21
745.30 1.21
745.40 1.21
745.50 1.21
745.60 1.21
745.70 1.21
745.80 1.21
745.90 1.209
746.00 1.209
746.10 1.209
746.20 1.209
746.30 1.209
746.40 1.209
746.50 1.209
746.60 1.209
746.70 1.209
746.80 1.209
746.90 1.209
747.00 1.209
747.10 1.209
747.20 1.208
747.30 1.208
747.40 1.208
747.50 1.208
747.60 1.208
747.70 1.208
747.80 1.208
747.90 1.208
748.00 1.208
748.10 1.208
748.20 1.208
748.30 1.208
748.40 1.208
748.50 1.207
748.60 1.207
748.70 1.207
748.80 1.207
748.90 1.207
749.00 1.207
749.10 1.207
749.20 1.207
749.30 1.207
749.40 1.207
749.50 1.207
749.60 1.207
749.70 1.207
749.80 1.206
749.90 1.206
750.00 1.206
750.10 1.206
750.20 1.206
750.30 1.206
750.40 1.206
750.50 1.206
750.60 1.206
750.70 1.206
750.80 1.206
750.90 1.206
751.00 1.205
751.10 1.205
751.20 1.205
751.30 1.205
751.40 1.205
751.50 1.205
751.60 1.205
751.70 1.205
751.80 1.205
751.90 1.205
752.00 1.205
752.10 1.205
752.20 1.204
752.30 1.204
752.40 1.204
752.50 1.204
752.60 1.204
752.70 1.204
752.80 1.204
752.90 1.204
753.00 1.204
753.10 1.204
753.20 1.204
753.30 1.204
753.40 1.203
753.50 1.203
753.60 1.203
753.70 1.203
753.80 1.203
753.90 1.203
754.00 1.203
754.10 1.203
754.20 1.203
754.30 1.203
754.40 1.203
754.50 1.203
754.60 1.202
754.70 1.202
754.80 1.202
754.90 1.202
755.00 1.202
755.10 1.202
755.20 1.202
755.30 1.202
755.40 1.202
755.50 1.202
755.60 1.202
755.70 1.201
755.80 1.201
755.90 1.201
756.00 1.201
756.10 1.201
756.20 1.201
756.30 1.201
756.40 1.201
756.50 1.201
756.60 1.201
756.70 1.201
756.80 1.201
756.90 1.2
757.00 1.2
757.10 1.2
757.20 1.2
757.30 1.2
757.40 1.2
757.50 1.2
757.60 1.2
757.70 1.2
757.80 1.2
757.90 1.2
758.00 1.2
758.10 1.199
758.20 1.199
758.30 1.199
758.40 1.199
758.50 1.199
758.60 1.199
758.70 1.199
758.80 1.199
758.90 1.199
759.00 1.199
759.10 1.199
759.20 1.199
759.30 1.198
759.40 1.198
759.50 1.198
759.60 1.198
759.70 1.198
759.80 1.198
759.90 1.198
760.00 1.198
760.10 1.198
760.20 1.198
760.30 1.198
760.40 1.198
760.50 1.197
760.60 1.197
760.70 1.197
760.80 1.197
760.90 1.197
761.00 1.197
761.10 1.197
761.20 1.197
761.30 1.197
761.40 1.197
761.50 1.197
761.60 1.196
761.70 1.196
761.80 1.196
761.90 1.196
762.00 1.196
762.10 1.196
762.20 1.196
762.30 1.196
762.40 1.196
762.50 1.196
762.60 1.196
762.70 1.195
762.80 1.195
762.90 1.195
763.00 1.195
763.10 1.195
763.20 1.195
763.30 1.195
763.40 1.195
763.50 1.195
763.60 1.195
763.70 1.195
763.80 1.194
763.90 1.194
764.00 1.194
764.10 1.194
764.20 1.194
764.30 1.194
764.40 1.194
764.50 1.194
764.60 1.194
764.70 1.194
764.80 1.194
764.90 1.194
765.00 1.193
765.10 1.193
765.20 1.193
765.30 1.193
765.40 1.193
765.50 1.193
765.60 1.193
765.70 1.193
765.80 1.193
765.90 1.193
766.00 1.193
766.10 1.192
766.20 1.192
766.30 1.192
766.40 1.192
766.50 1.192
766.60 1.192
766.70 1.192
766.80 1.192
766.90 1.192
767.00 1.192
767.10 1.192
767.20 1.191
767.30 1.191
767.40 1.191
767.50 1.191
767.60 1.191
767.70 1.191
767.80 1.191
767.90 1.191
768.00 1.191
768.10 1.191
768.20 1.191
768.30 1.19
768.40 1.19
768.50 1.19
768.60 1.19
768.70 1.19
768.80 1.19
768.90 1.19
769.00 1.19
769.10 1.19
769.20 1.19
769.30 1.19
769.40 1.19
769.50 1.189
769.60 1.189
769.70 1.189
769.80 1.189
769.90 1.189
770.00 1.189
770.10 1.189
770.20 1.189
770.30 1.189
770.40 1.189
770.50 1.189
770.60 1.188
770.70 1.188
770.80 1.188
770.90 1.188
771.00 1.188
771.10 1.188
771.20 1.188
771.30 1.188
771.40 1.188
771.50 1.188
771.60 1.187
771.70 1.187
771.80 1.187
771.90 1.187
772.00 1.187
772.10 1.187
772.20 1.187
772.30 1.187
772.40 1.187
772.50 1.187
772.60 1.187
772.70 1.186
772.80 1.186
772.90 1.186
773.00 1.186
773.10 1.186
773.20 1.186
773.30 1.186
773.40 1.186
773.50 1.186
773.60 1.186
773.70 1.186
773.80 1.185
773.90 1.185
774.00 1.185
774.10 1.185
774.20 1.185
774.30 1.185
774.40 1.185
774.50 1.185
774.60 1.185
774.70 1.185
774.80 1.184
774.90 1.184
775.00 1.184
775.10 1.184
775.20 1.184
775.30 1.184
775.40 1.184
775.50 1.184
775.60 1.184
775.70 1.184
775.80 1.184
775.90 1.183
776.00 1.183
776.10 1.183
776.20 1.183
776.30 1.183
776.40 1.183
776.50 1.183
776.60 1.183
776.70 1.183
776.80 1.183
776.90 1.183
777.00 1.182
777.10 1.182
777.20 1.182
777.30 1.182
777.40 1.182
777.50 1.182
777.60 1.182
777.70 1.182
777.80 1.182
777.90 1.182
778.00 1.181
778.10 1.181
778.20 1.181
778.30 1.181
778.40 1.181
778.50 1.181
778.60 1.181
778.70 1.181
778.80 1.181
778.90 1.181
779.00 1.181
779.10 1.18
779.20 1.18
779.30 1.18
779.40 1.18
779.50 1.18
779.60 1.18
779.70 1.18
779.80 1.18
779.90 1.18
780.00 1.18
780.10 1.18
780.20 1.179
780.30 1.179
780.40 1.179
780.50 1.179
780.60 1.179
780.70 1.179
780.80 1.179
780.90 1.179
781.00 1.179
781.10 1.179
781.20 1.178
781.30 1.178
781.40 1.178
781.50 1.178
781.60 1.178
781.70 1.178
781.80 1.178
781.90 1.178
782.00 1.178
782.10 1.178
782.20 1.177
782.30 1.177
782.40 1.177
782.50 1.177
782.60 1.177
782.70 1.177
782.80 1.177
782.90 1.177
783.00 1.177
783.10 1.177
783.20 1.176
783.30 1.176
783.40 1.176
783.50 1.176
783.60 1.176
783.70 1.176
783.80 1.176
783.90 1.176
784.00 1.176
784.10 1.176
784.20 1.175
784.30 1.175
784.40 1.175
784.50 1.175
784.60 1.175
784.70 1.175
784.80 1.175
784.90 1.175
785.00 1.175
785.10 1.175
785.20 1.175
785.30 1.174
785.40 1.174
785.50 1.174
785.60 1.174
785.70 1.174
785.80 1.174
785.90 1.174
786.00 1.174
786.10 1.174
786.20 1.174
786.30 1.173
786.40 1.173
786.50 1.173
786.60 1.173
786.70 1.173
786.80 1.173
786.90 1.173
787.00 1.173
787.10 1.173
787.20 1.173
787.30 1.172
787.40 1.172
787.50 1.172
787.60 1.172
787.70 1.172
787.80 1.172
787.90 1.172
788.00 1.172
788.10 1.172
788.20 1.172
788.30 1.171
788.40 1.171
788.50 1.171
788.60 1.171
788.70 1.171
788.80 1.171
788.90 1.171
789.00 1.171
789.10 1.171
789.20 1.171
789.30 1.171
789.40 1.17
789.50 1.17
789.60 1.17
789.70 1.17
789.80 1.17
789.90 1.17
790.00 1.17
790.10 1.17
790.20 1.17
790.30 1.17
790.40 1.169
790.50 1.169
790.60 1.169
790.70 1.169
790.80 1.169
790.90 1.169
791.00 1.169
791.10 1.169
791.20 1.169
791.30 1.168
791.40 1.168
791.50 1.168
791.60 1.168
791.70 1.168
791.80 1.168
791.90 1.168
792.00 1.168
792.10 1.168
792.20 1.168
792.30 1.167
792.40 1.167
792.50 1.167
792.60 1.167
792.70 1.167
792.80 1.167
792.90 1.167
793.00 1.167
793.10 1.167
793.20 1.167
793.30 1.166
793.40 1.166
793.50 1.166
793.60 1.166
793.70 1.166
793.80 1.166
793.90 1.166
794.00 1.166
794.10 1.166
794.20 1.165
794.30 1.165
794.40 1.165
794.50 1.165
794.60 1.165
794.70 1.165
794.80 1.165
794.90 1.165
795.00 1.165
795.10 1.165
795.20 1.164
795.30 1.164
795.40 1.164
795.50 1.164
795.60 1.164
795.70 1.164
795.80 1.164
795.90 1.164
796.00 1.164
796.10 1.164
796.20 1.163
796.30 1.163
796.40 1.163
796.50 1.163
796.60 1.163
796.70 1.163
796.80 1.163
796.90 1.163
797.00 1.163
797.10 1.162
797.20 1.162
797.30 1.162
797.40 1.162
797.50 1.162
797.60 1.162
797.70 1.162
797.80 1.162
797.90 1.162
798.00 1.162
798.10 1.161
798.20 1.161
798.30 1.161
798.40 1.161
798.50 1.161
798.60 1.161
798.70 1.161
798.80 1.161
798.90 1.161
799.00 1.161
799.10 1.16
799.20 1.16
799.30 1.16
799.40 1.16
799.50 1.16
799.60 1.16
799.70 1.16
799.80 1.16
799.90 1.16
800.00 1.16
800.10 1.159
800.20 1.159
800.30 1.159
800.40 1.159
800.50 1.159
800.60 1.159
800.70 1.159
800.80 1.159
800.90 1.159
801.00 1.158
801.10 1.158
801.20 1.158
801.30 1.158
801.40 1.158
801.50 1.158
801.60 1.158
801.70 1.158
801.80 1.158
801.90 1.157
802.00 1.157
802.10 1.157
802.20 1.157
802.30 1.157
802.40 1.157
802.50 1.157
802.60 1.157
802.70 1.157
802.80 1.156
802.90 1.156
803.00 1.156
803.10 1.156
803.20 1.156
803.30 1.156
803.40 1.156
803.50 1.156
803.60 1.156
803.70 1.155
803.80 1.155
803.90 1.155
804.00 1.155
804.10 1.155
804.20 1.155
804.30 1.155
804.40 1.155
804.50 1.155
804.60 1.154
804.70 1.154
804.80 1.154
804.90 1.154
805.00 1.154
805.10 1.154
805.20 1.154
805.30 1.154
805.40 1.154
805.50 1.153
805.60 1.153
805.70 1.153
805.80 1.153
805.90 1.153
806.00 1.153
806.10 1.153
806.20 1.153
806.30 1.153
806.40 1.153
806.50 1.152
806.60 1.152
806.70 1.152
806.80 1.152
806.90 1.152
807.00 1.152
807.10 1.152
807.20 1.152
807.30 1.152
807.40 1.151
807.50 1.151
807.60 1.151
807.70 1.151
807.80 1.151
807.90 1.151
808.00 1.151
808.10 1.151
808.20 1.151
808.30 1.15
808.40 1.15
808.50 1.15
808.60 1.15
808.70 1.15
808.80 1.15
808.90 1.15
809.00 1.15
809.10 1.15
809.20 1.149
809.30 1.149
809.40 1.149
809.50 1.149
809.60 1.149
809.70 1.149
809.80 1.149
809.90 1.149
810.00 1.149
810.10 1.148
810.20 1.148
810.30 1.148
810.40 1.148
810.50 1.148
810.60 1.148
810.70 1.148
810.80 1.148
810.90 1.148
811.00 1.147
811.10 1.147
811.20 1.147
811.30 1.147
811.40 1.147
811.50 1.147
811.60 1.147
811.70 1.147
811.80 1.147
811.90 1.146
812.00 1.146
812.10 1.146
812.20 1.146
812.30 1.146
812.40 1.146
812.50 1.146
812.60 1.146
812.70 1.145
812.80 1.145
812.90 1.145
813.00 1.145
813.10 1.145
813.20 1.145
813.30 1.145
813.40 1.145
813.50 1.145
813.60 1.144
813.70 1.144
813.80 1.144
813.90 1.144
814.00 1.144
814.10 1.144
814.20 1.144
814.30 1.144
814.40 1.144
814.50 1.143
814.60 1.143
814.70 1.143
814.80 1.143
814.90 1.143
815.00 1.143
815.10 1.143
815.20 1.143
815.30 1.143
815.40 1.142
815.50 1.142
815.60 1.142
815.70 1.142
815.80 1.142
815.90 1.142
816.00 1.142
816.10 1.142
816.20 1.141
816.30 1.141
816.40 1.141
816.50 1.141
816.60 1.141
816.70 1.141
816.80 1.141
816.90 1.141
817.00 1.141
817.10 1.14
817.20 1.14
817.30 1.14
817.40 1.14
817.50 1.14
817.60 1.14
817.70 1.14
817.80 1.14
817.90 1.14
818.00 1.139
818.10 1.139
818.20 1.139
818.30 1.139
818.40 1.139
818.50 1.139
818.60 1.139
818.70 1.139
818.80 1.139
818.90 1.138
819.00 1.138
819.10 1.138
819.20 1.138
819.30 1.138
819.40 1.138
819.50 1.138
819.60 1.138
819.70 1.137
819.80 1.137
819.90 1.137
820.00 1.137
820.10 1.137
820.20 1.137
820.30 1.137
820.40 1.137
820.50 1.137
820.60 1.136
820.70 1.136
820.80 1.136
820.90 1.136
821.00 1.136
821.10 1.136
821.20 1.136
821.30 1.136
821.40 1.135
821.50 1.135
821.60 1.135
821.70 1.135
821.80 1.135
821.90 1.135
822.00 1.135
822.10 1.135
822.20 1.135
822.30 1.134
822.40 1.134
822.50 1.134
822.60 1.134
822.70 1.134
822.80 1.134
822.90 1.134
823.00 1.134
823.10 1.133
823.20 1.133
823.30 1.133
823.40 1.133
823.50 1.133
823.60 1.133
823.70 1.133
823.80 1.133
823.90 1.132
824.00 1.132
824.10 1.132
824.20 1.132
824.30 1.132
824.40 1.132
824.50 1.132
824.60 1.132
824.70 1.132
824.80 1.131
824.90 1.131
825.00 1.131
825.10 1.131
825.20 1.131
825.30 1.131
825.40 1.131
825.50 1.131
825.60 1.13
825.70 1.13
825.80 1.13
825.90 1.13
826.00 1.13
826.10 1.13
826.20 1.13
826.30 1.13
826.40 1.129
826.50 1.129
826.60 1.129
826.70 1.129
826.80 1.129
826.90 1.129
827.00 1.129
827.10 1.129
827.20 1.129
827.30 1.128
827.40 1.128
827.50 1.128
827.60 1.128
827.70 1.128
827.80 1.128
827.90 1.128
828.00 1.128
828.10 1.127
828.20 1.127
828.30 1.127
828.40 1.127
828.50 1.127
828.60 1.127
828.70 1.127
828.80 1.127
828.90 1.126
829.00 1.126
829.10 1.126
829.20 1.126
829.30 1.126
829.40 1.126
829.50 1.126
829.60 1.126
829.70 1.125
829.80 1.125
829.90 1.125
830.00 1.125
830.10 1.125
830.20 1.125
830.30 1.125
830.40 1.125
830.50 1.124
830.60 1.124
830.70 1.124
830.80 1.124
830.90 1.124
831.00 1.124
831.10 1.124
831.20 1.124
831.30 1.123
831.40 1.123
831.50 1.123
831.60 1.123
831.70 1.123
831.80 1.123
831.90 1.123
832.00 1.123
832.10 1.122
832.20 1.122
832.30 1.122
832.40 1.122
832.50 1.122
832.60 1.122
832.70 1.122
832.80 1.122
832.90 1.121
833.00 1.121
833.10 1.121
833.20 1.121
833.30 1.121
833.40 1.121
833.50 1.121
833.60 1.121
833.70 1.12
833.80 1.12
833.90 1.12
834.00 1.12
834.10 1.12
834.20 1.12
834.30 1.12
834.40 1.12
834.50 1.119
834.60 1.119
834.70 1.119
834.80 1.119
834.90 1.119
835.00 1.119
835.10 1.119
835.20 1.119
835.30 1.118
835.40 1.118
835.50 1.118
835.60 1.118
835.70 1.118
835.80 1.118
835.90 1.118
836.00 1.118
836.10 1.117
836.20 1.117
836.30 1.117
836.40 1.117
836.50 1.117
836.60 1.117
836.70 1.117
836.80 1.117
836.90 1.116
837.00 1.116
837.10 1.116
837.20 1.116
837.30 1.116
837.40 1.116
837.50 1.116
837.60 1.116
837.70 1.115
837.80 1.115
837.90 1.115
838.00 1.115
838.10 1.115
838.20 1.115
838.30 1.115
838.40 1.115
838.50 1.114
838.60 1.114
838.70 1.114
838.80 1.114
838.90 1.114
839.00 1.114
839.10 1.114
839.20 1.114
839.30 1.113
839.40 1.113
839.50 1.113
839.60 1.113
839.70 1.113
839.80 1.113
839.90 1.113
840.00 1.113
840.10 1.112
840.20 1.112
840.30 1.112
840.40 1.112
840.50 1.112
840.60 1.112
840.70 1.112
840.80 1.112
840.90 1.111
841.00 1.111
841.10 1.111
841.20 1.111
841.30 1.111
841.40 1.111
841.50 1.111
841.60 1.111
841.70 1.11
841.80 1.11
841.90 1.11
842.00 1.11
842.10 1.11
842.20 1.11
842.30 1.11
842.40 1.109
842.50 1.109
842.60 1.109
842.70 1.109
842.80 1.109
842.90 1.109
843.00 1.109
843.10 1.109
843.20 1.108
843.30 1.108
843.40 1.108
843.50 1.108
843.60 1.108
843.70 1.108
843.80 1.108
843.90 1.108
844.00 1.107
844.10 1.107
844.20 1.107
844.30 1.107
844.40 1.107
844.50 1.107
844.60 1.107
844.70 1.106
844.80 1.106
844.90 1.106
845.00 1.106
845.10 1.106
845.20 1.106
845.30 1.106
845.40 1.106
845.50 1.105
845.60 1.105
845.70 1.105
845.80 1.105
845.90 1.105
846.00 1.105
846.10 1.105
846.20 1.105
846.30 1.104
846.40 1.104
846.50 1.104
846.60 1.104
846.70 1.104
846.80 1.104
846.90 1.104
847.00 1.104
847.10 1.103
847.20 1.103
847.30 1.103
847.40 1.103
847.50 1.103
847.60 1.103
847.70 1.103
847.80 1.102
847.90 1.102
848.00 1.102
848.10 1.102
848.20 1.102
848.30 1.102
848.40 1.102
848.50 1.102
848.60 1.101
848.70 1.101
848.80 1.101
848.90 1.101
849.00 1.101
849.10 1.101
849.20 1.101
849.30 1.1
849.40 1.1
849.50 1.1
849.60 1.1
849.70 1.1
849.80 1.1
849.90 1.1
850.00 1.1
850.10 1.099
850.20 1.099
850.30 1.099
850.40 1.099
850.50 1.099
850.60 1.099
850.70 1.099
850.80 1.099
850.90 1.098
851.00 1.098
851.10 1.098
851.20 1.098
851.30 1.098
851.40 1.098
851.50 1.098
851.60 1.097
851.70 1.097
851.80 1.097
851.90 1.097
852.00 1.097
852.10 1.097
852.20 1.097
852.30 1.097
852.40 1.096
852.50 1.096
852.60 1.096
852.70 1.096
852.80 1.096
852.90 1.096
853.00 1.096
853.10 1.095
853.20 1.095
853.30 1.095
853.40 1.095
853.50 1.095
853.60 1.095
853.70 1.095
853.80 1.095
853.90 1.094
854.00 1.094
854.10 1.094
854.20 1.094
854.30 1.094
854.40 1.094
854.50 1.094
854.60 1.093
854.70 1.093
854.80 1.093
854.90 1.093
855.00 1.093
855.10 1.093
855.20 1.093
855.30 1.093
855.40 1.092
855.50 1.092
855.60 1.092
855.70 1.092
855.80 1.092
855.90 1.092
856.00 1.092
856.10 1.091
856.20 1.091
856.30 1.091
856.40 1.091
856.50 1.091
856.60 1.091
856.70 1.091
856.80 1.091
856.90 1.09
857.00 1.09
857.10 1.09
857.20 1.09
857.30 1.09
857.40 1.09
857.50 1.09
857.60 1.089
857.70 1.089
857.80 1.089
857.90 1.089
858.00 1.089
858.10 1.089
858.20 1.089
858.30 1.088
858.40 1.088
858.50 1.088
858.60 1.088
858.70 1.088
858.80 1.088
858.90 1.088
859.00 1.088
859.10 1.087
859.20 1.087
859.30 1.087
859.40 1.087
859.50 1.087
859.60 1.087
859.70 1.087
859.80 1.086
859.90 1.086
860.00 1.086
860.10 1.086
860.20 1.086
860.30 1.086
860.40 1.086
860.50 1.085
860.60 1.085
860.70 1.085
860.80 1.085
860.90 1.085
861.00 1.085
861.10 1.085
861.20 1.085
861.30 1.084
861.40 1.084
861.50 1.084
861.60 1.084
861.70 1.084
861.80 1.084
861.90 1.084
862.00 1.083
862.10 1.083
862.20 1.083
862.30 1.083
862.40 1.083
862.50 1.083
862.60 1.083
862.70 1.082
862.80 1.082
862.90 1.082
863.00 1.082
863.10 1.082
863.20 1.082
863.30 1.082
863.40 1.081
863.50 1.081
863.60 1.081
863.70 1.081
863.80 1.081
863.90 1.081
864.00 1.081
864.10 1.081
864.20 1.08
864.30 1.08
864.40 1.08
864.50 1.08
864.60 1.08
864.70 1.08
864.80 1.08
864.90 1.079
865.00 1.079
865.10 1.079
865.20 1.079
865.30 1.079
865.40 1.079
865.50 1.079
865.60 1.078
865.70 1.078
865.80 1.078
865.90 1.078
866.00 1.078
866.10 1.078
866.20 1.078
866.30 1.078
866.40 1.077
866.50 1.077
866.60 1.077
866.70 1.077
866.80 1.077
866.90 1.077
867.00 1.077
867.10 1.076
867.20 1.076
867.30 1.076
867.40 1.076
867.50 1.076
867.60 1.076
867.70 1.076
867.80 1.075
867.90 1.075
868.00 1.075
868.10 1.075
868.20 1.075
868.30 1.075
868.40 1.075
868.50 1.074
868.60 1.074
868.70 1.074
868.80 1.074
868.90 1.074
869.00 1.074
869.10 1.074
869.20 1.073
869.30 1.073
869.40 1.073
869.50 1.073
869.60 1.073
869.70 1.073
869.80 1.073
869.90 1.072
870.00 1.072
870.10 1.072
870.20 1.072
870.30 1.072
870.40 1.072
870.50 1.072
870.60 1.071
870.70 1.071
870.80 1.071
870.90 1.071
871.00 1.071
871.10 1.071
871.20 1.071
871.30 1.071
871.40 1.07
871.50 1.07
871.60 1.07
871.70 1.07
871.80 1.07
871.90 1.07
872.00 1.07
872.10 1.069
872.20 1.069
872.30 1.069
872.40 1.069
872.50 1.069
872.60 1.069
872.70 1.069
872.80 1.068
872.90 1.068
873.00 1.068
873.10 1.068
873.20 1.068
873.30 1.068
873.40 1.068
873.50 1.067
873.60 1.067
873.70 1.067
873.80 1.067
873.90 1.067
874.00 1.067
874.10 1.067
874.20 1.066
874.30 1.066
874.40 1.066
874.50 1.066
874.60 1.066
874.70 1.066
874.80 1.066
874.90 1.065
875.00 1.065
875.10 1.065
875.20 1.065
875.30 1.065
875.40 1.065
875.50 1.065
875.60 1.064
875.70 1.064
875.80 1.064
875.90 1.064
876.00 1.064
876.10 1.064
876.20 1.064
876.30 1.063
876.40 1.063
876.50 1.063
876.60 1.063
876.70 1.063
876.80 1.063
876.90 1.063
877.00 1.062
877.10 1.062
877.20 1.062
877.30 1.062
877.40 1.062
877.50 1.062
877.60 1.062
877.70 1.061
877.80 1.061
877.90 1.061
878.00 1.061
878.10 1.061
878.20 1.061
878.30 1.061
878.40 1.06
878.50 1.06
878.60 1.06
878.70 1.06
878.80 1.06
878.90 1.06
879.00 1.059
879.10 1.059
879.20 1.059
879.30 1.059
879.40 1.059
879.50 1.059
879.60 1.059
879.70 1.058
879.80 1.058
879.90 1.058
880.00 1.058
880.10 1.058
880.20 1.058
880.30 1.058
880.40 1.057
880.50 1.057
880.60 1.057
880.70 1.057
880.80 1.057
880.90 1.057
881.00 1.057
881.10 1.056
881.20 1.056
881.30 1.056
881.40 1.056
881.50 1.056
881.60 1.056
881.70 1.056
881.80 1.055
881.90 1.055
882.00 1.055
882.10 1.055
882.20 1.055
882.30 1.055
882.40 1.055
882.50 1.054
882.60 1.054
882.70 1.054
882.80 1.054
882.90 1.054
883.00 1.054
883.10 1.053
883.20 1.053
883.30 1.053
883.40 1.053
883.50 1.053
883.60 1.053
883.70 1.053
883.80 1.052
883.90 1.052
884.00 1.052
884.10 1.052
884.20 1.052
884.30 1.052
884.40 1.052
884.50 1.051
884.60 1.051
884.70 1.051
884.80 1.051
884.90 1.051
885.00 1.051
885.10 1.051
885.20 1.05
885.30 1.05
885.40 1.05
885.50 1.05
885.60 1.05
885.70 1.05
885.80 1.049
885.90 1.049
886.00 1.049
886.10 1.049
886.20 1.049
886.30 1.049
886.40 1.049
886.50 1.048
886.60 1.048
886.70 1.048
886.80 1.048
886.90 1.048
887.00 1.048
887.10 1.048
887.20 1.047
887.30 1.047
887.40 1.047
887.50 1.047
887.60 1.047
887.70 1.047
887.80 1.046
887.90 1.046
888.00 1.046
888.10 1.046
888.20 1.046
888.30 1.046
888.40 1.046
888.50 1.045
888.60 1.045
888.70 1.045
888.80 1.045
888.90 1.045
889.00 1.045
889.10 1.045
889.20 1.044
889.30 1.044
889.40 1.044
889.50 1.044
889.60 1.044
889.70 1.044
889.80 1.043
889.90 1.043
890.00 1.043
890.10 1.043
890.20 1.043
890.30 1.043
890.40 1.043
890.50 1.042
890.60 1.042
890.70 1.042
890.80 1.042
890.90 1.042
891.00 1.042
891.10 1.041
891.20 1.041
891.30 1.041
891.40 1.041
891.50 1.041
891.60 1.041
891.70 1.041
891.80 1.04
891.90 1.04
892.00 1.04
892.10 1.04
892.20 1.04
892.30 1.04
892.40 1.04
892.50 1.039
892.60 1.039
892.70 1.039
892.80 1.039
892.90 1.039
893.00 1.039
893.10 1.038
893.20 1.038
893.30 1.038
893.40 1.038
893.50 1.038
893.60 1.038
893.70 1.038
893.80 1.037
893.90 1.037
894.00 1.037
894.10 1.037
894.20 1.037
894.30 1.037
894.40 1.037
894.50 1.036
894.60 1.036
894.70 1.036
894.80 1.036
894.90 1.036
895.00 1.036
895.10 1.036
895.20 1.035
895.30 1.035
895.40 1.035
895.50 1.035
895.60 1.035
895.70 1.035
895.80 1.035
895.90 1.034
896.00 1.034
896.10 1.034
896.20 1.034
896.30 1.034
896.40 1.034
896.50 1.033
896.60 1.033
896.70 1.033
896.80 1.033
896.90 1.033
897.00 1.033
897.10 1.033
897.20 1.032
897.30 1.032
897.40 1.032
897.50 1.032
897.60 1.032
897.70 1.032
897.80 1.031
897.90 1.031
898.00 1.031
898.10 1.031
898.20 1.031
898.30 1.031
898.40 1.03
898.50 1.03
898.60 1.03
898.70 1.03
898.80 1.03
898.90 1.03
899.00 1.03
899.10 1.029
899.20 1.029
899.30 1.029
899.40 1.029
899.50 1.029
899.60 1.029
899.70 1.028
899.80 1.028
899.90 1.028
900.00 1.028
900.10 1.028
900.20 1.028
900.30 1.027
900.40 1.027
900.50 1.027
900.60 1.027
900.70 1.027
900.80 1.027
900.90 1.026
901.00 1.026
901.10 1.026
901.20 1.026
901.30 1.026
901.40 1.026
901.50 1.026
901.60 1.025
901.70 1.025
901.80 1.025
901.90 1.025
902.00 1.025
902.10 1.025
902.20 1.024
902.30 1.024
902.40 1.024
902.50 1.024
902.60 1.024
902.70 1.023
902.80 1.023
902.90 1.023
903.00 1.023
903.10 1.023
903.20 1.023
903.30 1.022
903.40 1.022
903.50 1.022
903.60 1.022
903.70 1.022
903.80 1.021
903.90 1.021
904.00 1.021
904.10 1.021
904.20 1.021
904.30 1.021
904.40 1.02
904.50 1.02
904.60 1.02
904.70 1.02
904.80 1.02
904.90 1.019
905.00 1.019
905.10 1.019
905.20 1.019
905.30 1.019
905.40 1.019
905.50 1.018
905.60 1.018
905.70 1.018
905.80 1.018
905.90 1.018
906.00 1.017
906.10 1.017
906.20 1.017
906.30 1.017
906.40 1.017
906.50 1.016
906.60 1.016
906.70 1.016
906.80 1.016
906.90 1.016
907.00 1.016
907.10 1.015
907.20 1.015
907.30 1.015
907.40 1.015
907.50 1.015
907.60 1.015
907.70 1.014
907.80 1.014
907.90 1.014
908.00 1.014
908.10 1.014
908.20 1.014
908.30 1.013
908.40 1.013
908.50 1.013
908.60 1.013
908.70 1.013
908.80 1.012
908.90 1.012
909.00 1.012
909.10 1.012
909.20 1.012
909.30 1.012
909.40 1.011
909.50 1.011
909.60 1.011
909.70 1.011
909.80 1.011
909.90 1.011
910.00 1.01
910.10 1.01
910.20 1.01
910.30 1.01
910.40 1.01
910.50 1.01
910.60 1.009
910.70 1.009
910.80 1.009
910.90 1.009
911.00 1.009
911.10 1.008
911.20 1.008
911.30 1.008
911.40 1.008
911.50 1.008
911.60 1.008
911.70 1.007
911.80 1.007
911.90 1.007
912.00 1.007
912.10 1.007
912.20 1.007
912.30 1.006
912.40 1.006
912.50 1.006
912.60 1.006
912.70 1.006
912.80 1.006
912.90 1.005
913.00 1.005
913.10 1.005
913.20 1.005
913.30 1.005
913.40 1.005
913.50 1.004
913.60 1.004
913.70 1.004
913.80 1.004
913.90 1.004
914.00 1.004
914.10 1.004
914.20 1.003
914.30 1.003
914.40 1.003
914.50 1.003
914.60 1.003
914.70 1.003
914.80 1.002
914.90 1.002
915.00 1.002
915.10 1.002
915.20 1.002
915.30 1.002
915.40 1.001
915.50 1.001
915.60 1.001
915.70 1.001
915.80 1.001
915.90 1.001
916.00 1
916.10 1
916.20 1
916.30 1
916.40 0.9998
916.50 0.9996
916.60 0.9995
916.70 0.9993
916.80 0.9991
916.90 0.999
917.00 0.9988
917.10 0.9986
917.20 0.9985
917.30 0.9983
917.40 0.9981
917.50 0.998
917.60 0.9978
917.70 0.9976
917.80 0.9974
917.90 0.9973
918.00 0.9971
918.10 0.9969
918.20 0.9967
918.30 0.9966
918.40 0.9964
918.50 0.9962
918.60 0.996
918.70 0.9959
918.80 0.9957
918.90 0.9955
919.00 0.9954
919.10 0.9952
919.20 0.995
919.30 0.9948
919.40 0.9947
919.50 0.9945
919.60 0.9943
919.70 0.9941
919.80 0.994
919.90 0.9938
920.00 0.9936
920.10 0.9935
920.20 0.9933
920.30 0.9931
920.40 0.9929
920.50 0.9928
920.60 0.9926
920.70 0.9924
920.80 0.9923
920.90 0.9921
921.00 0.9919
921.10 0.9917
921.20 0.9916
921.30 0.9914
921.40 0.9912
921.50 0.9911
921.60 0.9909
921.70 0.9907
921.80 0.9905
921.90 0.9904
922.00 0.9902
922.10 0.99
922.20 0.9898
922.30 0.9897
922.40 0.9895
922.50 0.9893
922.60 0.9891
922.70 0.989
922.80 0.9888
922.90 0.9886
923.00 0.9884
923.10 0.9883
923.20 0.9881
923.30 0.9879
923.40 0.9877
923.50 0.9875
923.60 0.9874
923.70 0.9872
923.80 0.987
923.90 0.9868
924.00 0.9867
924.10 0.9865
924.20 0.9863
924.30 0.9861
924.40 0.986
924.50 0.9858
924.60 0.9856
924.70 0.9854
924.80 0.9853
924.90 0.9851
925.00 0.9849
925.10 0.9847
925.20 0.9846
925.30 0.9844
925.40 0.9842
925.50 0.984
925.60 0.9839
925.70 0.9837
925.80 0.9835
925.90 0.9833
926.00 0.9832
926.10 0.983
926.20 0.9828
926.30 0.9826
926.40 0.9825
926.50 0.9823
926.60 0.9821
926.70 0.9819
926.80 0.9818
926.90 0.9816
927.00 0.9814
927.10 0.9812
927.20 0.9811
927.30 0.9809
927.40 0.9807
927.50 0.9805
927.60 0.9804
927.70 0.9802
927.80 0.98
927.90 0.9798
928.00 0.9796
928.10 0.9795
928.20 0.9793
928.30 0.9791
928.40 0.9789
928.50 0.9788
928.60 0.9786
928.70 0.9784
928.80 0.9782
928.90 0.978
929.00 0.9779
929.10 0.9777
929.20 0.9775
929.30 0.9773
929.40 0.9772
929.50 0.977
929.60 0.9768
929.70 0.9766
929.80 0.9764
929.90 0.9763
930.00 0.9761
930.10 0.9759
930.20 0.9757
930.30 0.9756
930.40 0.9754
930.50 0.9752
930.60 0.975
930.70 0.9748
930.80 0.9747
930.90 0.9745
931.00 0.9743
931.10 0.9741
931.20 0.974
931.30 0.9738
931.40 0.9736
931.50 0.9734
931.60 0.9733
931.70 0.9731
931.80 0.9729
931.90 0.9727
932.00 0.9726
932.10 0.9724
932.20 0.9722
932.30 0.972
932.40 0.9718
932.50 0.9717
932.60 0.9715
932.70 0.9713
932.80 0.9711
932.90 0.9709
933.00 0.9707
933.10 0.9706
933.20 0.9704
933.30 0.9702
933.40 0.97
933.50 0.9698
933.60 0.9697
933.70 0.9695
933.80 0.9693
933.90 0.9691
934.00 0.9689
934.10 0.9688
934.20 0.9686
934.30 0.9684
934.40 0.9682
934.50 0.968
934.60 0.9679
934.70 0.9677
934.80 0.9675
934.90 0.9673
935.00 0.9671
935.10 0.9669
935.20 0.9667
935.30 0.9666
935.40 0.9664
935.50 0.9662
935.60 0.966
935.70 0.9658
935.80 0.9656
935.90 0.9655
936.00 0.9653
936.10 0.9651
936.20 0.9649
936.30 0.9647
936.40 0.9646
936.50 0.9644
936.60 0.9642
936.70 0.964
936.80 0.9638
936.90 0.9636
937.00 0.9635
937.10 0.9633
937.20 0.9631
937.30 0.9629
937.40 0.9627
937.50 0.9625
937.60 0.9624
937.70 0.9622
937.80 0.962
937.90 0.9618
938.00 0.9616
938.10 0.9614
938.20 0.9613
938.30 0.9611
938.40 0.9609
938.50 0.9607
938.60 0.9605
938.70 0.9603
938.80 0.9602
938.90 0.96
939.00 0.9598
939.10 0.9596
939.20 0.9594
939.30 0.9592
939.40 0.959
939.50 0.9588
939.60 0.9587
939.70 0.9585
939.80 0.9583
939.90 0.9581
940.00 0.9579
940.10 0.9577
940.20 0.9575
940.30 0.9574
940.40 0.9572
940.50 0.957
940.60 0.9568
940.70 0.9566
940.80 0.9564
940.90 0.9562
941.00 0.9561
941.10 0.9559
941.20 0.9557
941.30 0.9555
941.40 0.9553
941.50 0.9551
941.60 0.9549
941.70 0.9548
941.80 0.9546
941.90 0.9544
942.00 0.9542
942.10 0.954
942.20 0.9538
942.30 0.9537
942.40 0.9535
942.50 0.9533
942.60 0.9531
942.70 0.9529
942.80 0.9527
942.90 0.9525
943.00 0.9523
943.10 0.9521
943.20 0.952
943.30 0.9518
943.40 0.9516
943.50 0.9514
943.60 0.9512
943.70 0.951
943.80 0.9508
943.90 0.9506
944.00 0.9504
944.10 0.9503
944.20 0.9501
944.30 0.9499
944.40 0.9497
944.50 0.9495
944.60 0.9493
944.70 0.9491
944.80 0.9489
944.90 0.9488
945.00 0.9486
945.10 0.9484
945.20 0.9482
945.30 0.948
945.40 0.9478
945.50 0.9476
945.60 0.9474
945.70 0.9472
945.80 0.9471
945.90 0.9469
946.00 0.9467
946.10 0.9465
946.20 0.9463
946.30 0.9461
946.40 0.9459
946.50 0.9457
946.60 0.9455
946.70 0.9454
946.80 0.9452
946.90 0.945
947.00 0.9448
947.10 0.9446
947.20 0.9444
947.30 0.9442
947.40 0.944
947.50 0.9438
947.60 0.9437
947.70 0.9435
947.80 0.9433
947.90 0.9431
948.00 0.9429
948.10 0.9427
948.20 0.9425
948.30 0.9423
948.40 0.9421
948.50 0.9419
948.60 0.9417
948.70 0.9415
948.80 0.9413
948.90 0.9412
949.00 0.941
949.10 0.9408
949.20 0.9406
949.30 0.9404
949.40 0.9402
949.50 0.94
949.60 0.9398
949.70 0.9396
949.80 0.9394
949.90 0.9392
950.00 0.939
950.10 0.9389
950.20 0.9387
950.30 0.9385
950.40 0.9383
950.50 0.9381
950.60 0.9379
950.70 0.9377
950.80 0.9375
950.90 0.9373
951.00 0.9371
951.10 0.9369
951.20 0.9368
951.30 0.9366
951.40 0.9364
951.50 0.9362
951.60 0.936
951.70 0.9358
951.80 0.9356
951.90 0.9354
952.00 0.9352
952.10 0.935
952.20 0.9348
952.30 0.9346
952.40 0.9344
952.50 0.9343
952.60 0.9341
952.70 0.9339
952.80 0.9337
952.90 0.9335
953.00 0.9333
953.10 0.9331
953.20 0.9329
953.30 0.9327
953.40 0.9325
953.50 0.9323
953.60 0.9321
953.70 0.9319
953.80 0.9317
953.90 0.9315
954.00 0.9313
954.10 0.9311
954.20 0.9309
954.30 0.9308
954.40 0.9306
954.50 0.9304
954.60 0.9302
954.70 0.93
954.80 0.9298
954.90 0.9296
955.00 0.9294
955.10 0.9292
955.20 0.929
955.30 0.9288
955.40 0.9286
955.50 0.9284
955.60 0.9282
955.70 0.9281
955.80 0.9279
955.90 0.9277
956.00 0.9275
956.10 0.9273
956.20 0.9271
956.30 0.9269
956.40 0.9267
956.50 0.9265
956.60 0.9263
956.70 0.9261
956.80 0.9259
956.90 0.9257
957.00 0.9255
957.10 0.9253
957.20 0.9251
957.30 0.9249
957.40 0.9247
957.50 0.9245
957.60 0.9243
957.70 0.9241
957.80 0.9239
957.90 0.9237
958.00 0.9235
958.10 0.9234
958.20 0.9232
958.30 0.923
958.40 0.9228
958.50 0.9226
958.60 0.9224
958.70 0.9222
958.80 0.922
958.90 0.9218
959.00 0.9216
959.10 0.9214
959.20 0.9212
959.30 0.921
959.40 0.9208
959.50 0.9206
959.60 0.9204
959.70 0.9202
959.80 0.92
959.90 0.9198
960.00 0.9196
960.10 0.9194
960.20 0.9192
960.30 0.919
960.40 0.9188
960.50 0.9186
960.60 0.9184
960.70 0.9182
960.80 0.918
960.90 0.9178
961.00 0.9176
961.10 0.9174
961.20 0.9173
961.30 0.9171
961.40 0.9169
961.50 0.9167
961.60 0.9165
961.70 0.9163
961.80 0.9161
961.90 0.9159
962.00 0.9157
962.10 0.9155
962.20 0.9153
962.30 0.9151
962.40 0.9149
962.50 0.9147
962.60 0.9145
962.70 0.9143
962.80 0.9141
962.90 0.9139
963.00 0.9137
963.10 0.9135
963.20 0.9133
963.30 0.9131
963.40 0.9129
963.50 0.9127
963.60 0.9125
963.70 0.9123
963.80 0.9121
963.90 0.9119
964.00 0.9117
964.10 0.9115
964.20 0.9113
964.30 0.9111
964.40 0.9109
964.50 0.9107
964.60 0.9105
964.70 0.9103
964.80 0.9101
964.90 0.9099
965.00 0.9097
965.10 0.9095
965.20 0.9093
965.30 0.9091
965.40 0.9089
965.50 0.9087
965.60 0.9085
965.70 0.9083
965.80 0.9081
965.90 0.9079
966.00 0.9077
966.10 0.9076
966.20 0.9074
966.30 0.9072
966.40 0.907
966.50 0.9068
966.60 0.9066
966.70 0.9064
966.80 0.9062
966.90 0.906
967.00 0.9058
967.10 0.9056
967.20 0.9054
967.30 0.9052
967.40 0.905
967.50 0.9048
967.60 0.9046
967.70 0.9044
967.80 0.9042
967.90 0.904
968.00 0.9038
968.10 0.9036
968.20 0.9034
968.30 0.9032
968.40 0.903
968.50 0.9028
968.60 0.9026
968.70 0.9024
968.80 0.9022
968.90 0.902
969.00 0.9018
969.10 0.9016
969.20 0.9014
969.30 0.9012
969.40 0.901
969.50 0.9008
969.60 0.9006
969.70 0.9004
969.80 0.9002
969.90 0.9
970.00 0.8998
970.10 0.8996
970.20 0.8994
970.30 0.8992
970.40 0.899
970.50 0.8988
970.60 0.8986
970.70 0.8984
970.80 0.8982
970.90 0.898
971.00 0.8978
971.10 0.8976
971.20 0.8974
971.30 0.8972
971.40 0.897
971.50 0.8968
971.60 0.8966
971.70 0.8964
971.80 0.8962
971.90 0.896
972.00 0.8958
972.10 0.8956
972.20 0.8954
972.30 0.8952
972.40 0.895
972.50 0.8948
972.60 0.8946
972.70 0.8944
972.80 0.8942
972.90 0.894
973.00 0.8938
973.10 0.8936
973.20 0.8934
973.30 0.8932
973.40 0.893
973.50 0.8928
973.60 0.8926
973.70 0.8924
973.80 0.8922
973.90 0.892
974.00 0.8918
974.10 0.8916
974.20 0.8914
974.30 0.8912
974.40 0.891
974.50 0.8908
974.60 0.8906
974.70 0.8904
974.80 0.8902
974.90 0.89
975.00 0.8898
975.10 0.8896
975.20 0.8894
975.30 0.8892
975.40 0.889
975.50 0.8888
975.60 0.8886
975.70 0.8884
975.80 0.8882
975.90 0.888
976.00 0.8878
976.10 0.8876
976.20 0.8874
976.30 0.8872
976.40 0.887
976.50 0.8868
976.60 0.8866
976.70 0.8864
976.80 0.8862
976.90 0.886
977.00 0.8858
977.10 0.8856
977.20 0.8854
977.30 0.8852
977.40 0.885
977.50 0.8848
977.60 0.8846
977.70 0.8844
977.80 0.8842
977.90 0.884
978.00 0.8838
978.10 0.8836
978.20 0.8834
978.30 0.8832
978.40 0.883
978.50 0.8828
978.60 0.8826
978.70 0.8824
978.80 0.8822
978.90 0.882
979.00 0.8818
979.10 0.8816
979.20 0.8814
979.30 0.8812
979.40 0.881
979.50 0.8808
979.60 0.8806
979.70 0.8804
979.80 0.8802
979.90 0.88
980.00 0.8798
980.10 0.8796
980.20 0.8794
980.30 0.8792
980.40 0.879
980.50 0.8788
980.60 0.8786
980.70 0.8784
980.80 0.8782
980.90 0.878
981.00 0.8778
981.10 0.8776
981.20 0.8774
981.30 0.8772
981.40 0.877
981.50 0.8768
981.60 0.8766
981.70 0.8764
981.80 0.8762
981.90 0.876
982.00 0.8758
982.10 0.8756
982.20 0.8754
982.30 0.8752
982.40 0.875
982.50 0.8748
982.60 0.8746
982.70 0.8744
982.80 0.8742
982.90 0.874
983.00 0.8738
983.10 0.8736
983.20 0.8734
983.30 0.8732
983.40 0.873
983.50 0.8728
983.60 0.8726
983.70 0.8724
983.80 0.8722
983.90 0.872
984.00 0.8718
984.10 0.8716
984.20 0.8714
984.30 0.8712
984.40 0.871
984.50 0.8708
984.60 0.8706
984.70 0.8704
984.80 0.8702
984.90 0.87
985.00 0.8699
985.10 0.8697
985.20 0.8695
985.30 0.8693
985.40 0.8691
985.50 0.8689
985.60 0.8687
985.70 0.8685
985.80 0.8683
985.90 0.8681
986.00 0.8679
986.10 0.8677
986.20 0.8675
986.30 0.8673
986.40 0.8671
986.50 0.8669
986.60 0.8667
986.70 0.8665
986.80 0.8663
986.90 0.8661
987.00 0.8659
987.10 0.8657
987.20 0.8655
987.30 0.8653
987.40 0.8651
987.50 0.8649
987.60 0.8647
987.70 0.8645
987.80 0.8643
987.90 0.8641
988.00 0.8639
988.10 0.8637
988.20 0.8635
988.30 0.8633
988.40 0.8631
988.50 0.8629
988.60 0.8627
988.70 0.8625
988.80 0.8623
988.90 0.8621
989.00 0.8619
989.10 0.8617
989.20 0.8615
989.30 0.8613
989.40 0.8611
989.50 0.8609
989.60 0.8607
989.70 0.8605
989.80 0.8603
989.90 0.8601
990.00 0.8599
990.10 0.8597
990.20 0.8595
990.30 0.8593
990.40 0.8591
990.50 0.8589
990.60 0.8587
990.70 0.8585
990.80 0.8583
990.90 0.8581
991.00 0.8579
991.10 0.8577
991.20 0.8575
991.30 0.8573
991.40 0.8571
991.50 0.8569
991.60 0.8567
991.70 0.8565
991.80 0.8563
991.90 0.8561
992.00 0.8559
992.10 0.8557
992.20 0.8555
992.30 0.8553
992.40 0.8552
992.50 0.855
992.60 0.8548
992.70 0.8546
992.80 0.8544
992.90 0.8542
993.00 0.854
993.10 0.8538
993.20 0.8536
993.30 0.8534
993.40 0.8532
993.50 0.853
993.60 0.8528
993.70 0.8526
993.80 0.8524
993.90 0.8522
994.00 0.852
994.10 0.8518
994.20 0.8516
994.30 0.8514
994.40 0.8512
994.50 0.851
994.60 0.8508
994.70 0.8506
994.80 0.8504
994.90 0.8502
995.00 0.85
995.10 0.8498
995.20 0.8496
995.30 0.8494
995.40 0.8492
995.50 0.849
995.60 0.8488
995.70 0.8486
995.80 0.8484
995.90 0.8482
996.00 0.848
996.10 0.8478
996.20 0.8476
996.30 0.8474
996.40 0.8472
996.50 0.847
996.60 0.8468
996.70 0.8466
996.80 0.8464
996.90 0.8462
997.00 0.846
997.10 0.8458
997.20 0.8456
997.30 0.8454
997.40 0.8452
997.50 0.845
997.60 0.8449
997.70 0.8447
997.80 0.8445
997.90 0.8443
998.00 0.8441
998.10 0.8439
998.20 0.8437
998.30 0.8435
998.40 0.8433
998.50 0.8431
998.60 0.8429
998.70 0.8427
998.80 0.8425
998.90 0.8423
999.00 0.8421
999.10 0.8419
999.20 0.8417
999.30 0.8415
999.40 0.8413
999.50 0.8411
999.60 0.841
999.70 0.8408
999.80 0.8406
999.90 0.8404
1000.00 0.8402
1000.10 0.84
1000.20 0.8398
1000.30 0.8396
1000.40 0.8394
1000.50 0.8392
1000.60 0.839
1000.70 0.8388
1000.80 0.8386
1000.90 0.8384
1001.00 0.8382
1001.10 0.838
1001.20 0.8378
1001.30 0.8376
1001.40 0.8374
1001.50 0.8372
1001.60 0.837
1001.70 0.8369
1001.80 0.8367
1001.90 0.8365
1002.00 0.8363
1002.10 0.8361
1002.20 0.8359
1002.30 0.8357
1002.40 0.8355
1002.50 0.8353
1002.60 0.8351
1002.70 0.8349
1002.80 0.8347
1002.90 0.8346
1003.00 0.8344
1003.10 0.8342
1003.20 0.834
1003.30 0.8338
1003.40 0.8336
1003.50 0.8334
1003.60 0.8332
1003.70 0.833
1003.80 0.8328
1003.90 0.8326
1004.00 0.8324
1004.10 0.8322
1004.20 0.8321
1004.30 0.8319
1004.40 0.8317
1004.50 0.8315
1004.60 0.8313
1004.70 0.8311
1004.80 0.8309
1004.90 0.8307
1005.00 0.8305
1005.10 0.8303
1005.20 0.8301
1005.30 0.83
1005.40 0.8298
1005.50 0.8296
1005.60 0.8294
1005.70 0.8292
1005.80 0.829
1005.90 0.8288
1006.00 0.8286
1006.10 0.8284
1006.20 0.8282
1006.30 0.828
1006.40 0.8278
1006.50 0.8277
1006.60 0.8275
1006.70 0.8273
1006.80 0.8271
1006.90 0.8269
1007.00 0.8267
1007.10 0.8265
1007.20 0.8263
1007.30 0.8261
1007.40 0.826
1007.50 0.8258
1007.60 0.8256
1007.70 0.8254
1007.80 0.8252
1007.90 0.825
1008.00 0.8248
1008.10 0.8246
1008.20 0.8244
1008.30 0.8242
1008.40 0.8241
1008.50 0.8239
1008.60 0.8237
1008.70 0.8235
1008.80 0.8233
1008.90 0.8231
1009.00 0.8229
1009.10 0.8227
1009.20 0.8225
1009.30 0.8224
1009.40 0.8222
1009.50 0.822
1009.60 0.8218
1009.70 0.8216
1009.80 0.8214
1009.90 0.8212
1010.00 0.821
1010.10 0.8209
1010.20 0.8207
1010.30 0.8205
1010.40 0.8203
1010.50 0.8201
1010.60 0.8199
1010.70 0.8197
1010.80 0.8195
1010.90 0.8193
1011.00 0.8192
1011.10 0.819
1011.20 0.8188
1011.30 0.8186
1011.40 0.8184
1011.50 0.8182
1011.60 0.818
1011.70 0.8179
1011.80 0.8177
1011.90 0.8175
1012.00 0.8173
1012.10 0.8171
1012.20 0.8169
1012.30 0.8167
1012.40 0.8165
1012.50 0.8164
1012.60 0.8162
1012.70 0.816
1012.80 0.8158
1012.90 0.8156
1013.00 0.8154
1013.10 0.8152
1013.20 0.8151
1013.30 0.8149
1013.40 0.8147
1013.50 0.8145
1013.60 0.8143
1013.70 0.8141
1013.80 0.8139
1013.90 0.8138
1014.00 0.8136
1014.10 0.8134
1014.20 0.8132
1014.30 0.813
1014.40 0.8128
1014.50 0.8127
1014.60 0.8125
1014.70 0.8123
1014.80 0.8121
1014.90 0.8119
1015.00 0.8117
1015.10 0.8116
1015.20 0.8114
1015.30 0.8112
1015.40 0.811
1015.50 0.8108
1015.60 0.8106
1015.70 0.8105
1015.80 0.8103
1015.90 0.8101
1016.00 0.8099
1016.10 0.8097
1016.20 0.8095
1016.30 0.8094
1016.40 0.8092
1016.50 0.809
1016.60 0.8088
1016.70 0.8086
1016.80 0.8084
1016.90 0.8083
1017.00 0.8081
1017.10 0.8079
1017.20 0.8077
1017.30 0.8075
1017.40 0.8073
1017.50 0.8072
1017.60 0.807
1017.70 0.8068
1017.80 0.8066
1017.90 0.8064
1018.00 0.8063
1018.10 0.8061
1018.20 0.8059
1018.30 0.8057
1018.40 0.8055
1018.50 0.8053
1018.60 0.8052
1018.70 0.805
1018.80 0.8048
1018.90 0.8046
1019.00 0.8044
1019.10 0.8043
1019.20 0.8041
1019.30 0.8039
1019.40 0.8037
1019.50 0.8035
1019.60 0.8033
1019.70 0.8032
1019.80 0.803
1019.90 0.8028
1020.00 0.8026
1020.10 0.8024
1020.20 0.8023
1020.30 0.8021
1020.40 0.8019
1020.50 0.8017
1020.60 0.8015
1020.70 0.8014
1020.80 0.8012
1020.90 0.801
1021.00 0.8008
1021.10 0.8006
1021.20 0.8005
1021.30 0.8003
1021.40 0.8001
1021.50 0.7999
1021.60 0.7997
1021.70 0.7996
1021.80 0.7994
1021.90 0.7992
1022.00 0.799
1022.10 0.7989
1022.20 0.7987
1022.30 0.7985
1022.40 0.7983
1022.50 0.7981
1022.60 0.798
1022.70 0.7978
1022.80 0.7976
1022.90 0.7974
1023.00 0.7972
1023.10 0.7971
1023.20 0.7969
1023.30 0.7967
1023.40 0.7965
1023.50 0.7963
1023.60 0.7962
1023.70 0.796
1023.80 0.7958
1023.90 0.7956
1024.00 0.7954
1024.10 0.7953
1024.20 0.7951
1024.30 0.7949
1024.40 0.7947
1024.50 0.7946
1024.60 0.7944
1024.70 0.7942
1024.80 0.794
1024.90 0.7938
1025.00 0.7937
1025.10 0.7935
1025.20 0.7933
1025.30 0.7931
1025.40 0.793
1025.50 0.7928
1025.60 0.7926
1025.70 0.7924
1025.80 0.7922
1025.90 0.7921
1026.00 0.7919
1026.10 0.7917
1026.20 0.7915
1026.30 0.7914
1026.40 0.7912
1026.50 0.791
1026.60 0.7908
1026.70 0.7906
1026.80 0.7905
1026.90 0.7903
1027.00 0.7901
1027.10 0.7899
1027.20 0.7898
1027.30 0.7896
1027.40 0.7894
1027.50 0.7892
1027.60 0.7891
1027.70 0.7889
1027.80 0.7887
1027.90 0.7886
1028.00 0.7884
1028.10 0.7882
1028.20 0.788
1028.30 0.7879
1028.40 0.7877
1028.50 0.7875
1028.60 0.7873
1028.70 0.7872
1028.80 0.787
1028.90 0.7868
1029.00 0.7866
1029.10 0.7865
1029.20 0.7863
1029.30 0.7861
1029.40 0.786
1029.50 0.7858
1029.60 0.7856
1029.70 0.7854
1029.80 0.7853
1029.90 0.7851
1030.00 0.7849
1030.10 0.7847
1030.20 0.7846
1030.30 0.7844
1030.40 0.7842
1030.50 0.7841
1030.60 0.7839
1030.70 0.7837
1030.80 0.7835
1030.90 0.7834
1031.00 0.7832
1031.10 0.783
1031.20 0.7828
1031.30 0.7827
1031.40 0.7825
1031.50 0.7823
1031.60 0.7822
1031.70 0.782
1031.80 0.7818
1031.90 0.7816
1032.00 0.7815
1032.10 0.7813
1032.20 0.7811
1032.30 0.781
1032.40 0.7808
1032.50 0.7806
1032.60 0.7805
1032.70 0.7803
1032.80 0.7801
1032.90 0.7799
1033.00 0.7798
1033.10 0.7796
1033.20 0.7794
1033.30 0.7793
1033.40 0.7791
1033.50 0.7789
1033.60 0.7788
1033.70 0.7786
1033.80 0.7784
1033.90 0.7782
1034.00 0.7781
1034.10 0.7779
1034.20 0.7777
1034.30 0.7776
1034.40 0.7774
1034.50 0.7772
1034.60 0.7771
1034.70 0.7769
1034.80 0.7767
1034.90 0.7766
1035.00 0.7764
1035.10 0.7762
1035.20 0.776
1035.30 0.7759
1035.40 0.7757
1035.50 0.7755
1035.60 0.7754
1035.70 0.7752
1035.80 0.775
1035.90 0.7749
1036.00 0.7747
1036.10 0.7745
1036.20 0.7744
1036.30 0.7742
1036.40 0.774
1036.50 0.7739
1036.60 0.7737
1036.70 0.7735
1036.80 0.7734
1036.90 0.7732
1037.00 0.773
1037.10 0.7728
1037.20 0.7727
1037.30 0.7725
1037.40 0.7724
1037.50 0.7722
1037.60 0.772
1037.70 0.7719
1037.80 0.7717
1037.90 0.7715
1038.00 0.7714
1038.10 0.7712
1038.20 0.771
1038.30 0.7709
1038.40 0.7707
1038.50 0.7705
1038.60 0.7704
1038.70 0.7702
1038.80 0.77
1038.90 0.7699
1039.00 0.7697
1039.10 0.7696
1039.20 0.7694
1039.30 0.7692
1039.40 0.7691
1039.50 0.7689
1039.60 0.7687
1039.70 0.7686
1039.80 0.7684
1039.90 0.7682
1040.00 0.7681
1040.10 0.7679
1040.20 0.7678
1040.30 0.7676
1040.40 0.7674
1040.50 0.7673
1040.60 0.7671
1040.70 0.7669
1040.80 0.7668
1040.90 0.7666
1041.00 0.7664
1041.10 0.7663
1041.20 0.7661
1041.30 0.766
1041.40 0.7658
1041.50 0.7656
1041.60 0.7655
1041.70 0.7653
1041.80 0.7651
1041.90 0.765
1042.00 0.7648
1042.10 0.7647
1042.20 0.7645
1042.30 0.7643
1042.40 0.7642
1042.50 0.764
1042.60 0.7639
1042.70 0.7637
1042.80 0.7635
1042.90 0.7634
1043.00 0.7632
1043.10 0.7631
1043.20 0.7629
1043.30 0.7627
1043.40 0.7626
1043.50 0.7624
1043.60 0.7623
1043.70 0.7621
1043.80 0.7619
1043.90 0.7618
1044.00 0.7616
1044.10 0.7615
1044.20 0.7613
1044.30 0.7611
1044.40 0.761
1044.50 0.7608
1044.60 0.7607
1044.70 0.7605
1044.80 0.7603
1044.90 0.7602
1045.00 0.76
1045.10 0.7599
1045.20 0.7597
1045.30 0.7596
1045.40 0.7594
1045.50 0.7592
1045.60 0.7591
1045.70 0.7589
1045.80 0.7588
1045.90 0.7586
1046.00 0.7584
1046.10 0.7583
1046.20 0.7581
1046.30 0.758
1046.40 0.7578
1046.50 0.7577
1046.60 0.7575
1046.70 0.7573
1046.80 0.7572
1046.90 0.757
1047.00 0.7569
1047.10 0.7567
1047.20 0.7566
1047.30 0.7564
1047.40 0.7562
1047.50 0.7561
1047.60 0.7559
1047.70 0.7558
1047.80 0.7556
1047.90 0.7555
1048.00 0.7553
1048.10 0.7552
1048.20 0.755
1048.30 0.7549
1048.40 0.7547
1048.50 0.7545
1048.60 0.7544
1048.70 0.7542
1048.80 0.7541
1048.90 0.7539
1049.00 0.7538
1049.10 0.7536
1049.20 0.7535
1049.30 0.7533
1049.40 0.7532
1049.50 0.753
1049.60 0.7528
1049.70 0.7527
1049.80 0.7525
1049.90 0.7524
1050.00 0.7522
1050.10 0.7521
1050.20 0.7519
1050.30 0.7518
1050.40 0.7516
1050.50 0.7515
1050.60 0.7513
1050.70 0.7512
1050.80 0.751
1050.90 0.7509
1051.00 0.7507
1051.10 0.7505
1051.20 0.7504
1051.30 0.7502
1051.40 0.7501
1051.50 0.7499
1051.60 0.7498
1051.70 0.7496
1051.80 0.7495
1051.90 0.7493
1052.00 0.7492
1052.10 0.749
1052.20 0.7489
1052.30 0.7487
1052.40 0.7486
1052.50 0.7484
1052.60 0.7483
1052.70 0.7481
1052.80 0.748
1052.90 0.7478
1053.00 0.7477
1053.10 0.7475
1053.20 0.7474
1053.30 0.7472
1053.40 0.7471
1053.50 0.7469
1053.60 0.7468
1053.70 0.7466
1053.80 0.7465
1053.90 0.7463
1054.00 0.7462
1054.10 0.746
1054.20 0.7459
1054.30 0.7457
1054.40 0.7456
1054.50 0.7454
1054.60 0.7453
1054.70 0.7451
1054.80 0.745
1054.90 0.7448
1055.00 0.7447
1055.10 0.7445
1055.20 0.7444
1055.30 0.7442
1055.40 0.7441
1055.50 0.7439
1055.60 0.7438
1055.70 0.7436
1055.80 0.7435
1055.90 0.7433
1056.00 0.7432
1056.10 0.743
1056.20 0.7429
1056.30 0.7427
1056.40 0.7426
1056.50 0.7424
1056.60 0.7423
1056.70 0.7422
1056.80 0.742
1056.90 0.7419
1057.00 0.7417
1057.10 0.7416
1057.20 0.7414
1057.30 0.7413
1057.40 0.7411
1057.50 0.741
1057.60 0.7408
1057.70 0.7407
1057.80 0.7405
1057.90 0.7404
1058.00 0.7403
1058.10 0.7401
1058.20 0.74
1058.30 0.7398
1058.40 0.7397
1058.50 0.7395
1058.60 0.7394
1058.70 0.7392
1058.80 0.7391
1058.90 0.739
1059.00 0.7388
1059.10 0.7387
1059.20 0.7385
1059.30 0.7384
1059.40 0.7382
1059.50 0.7381
1059.60 0.738
1059.70 0.7378
1059.80 0.7377
1059.90 0.7375
1060.00 0.7374
1060.10 0.7372
1060.20 0.7371
1060.30 0.7369
1060.40 0.7368
1060.50 0.7367
1060.60 0.7365
1060.70 0.7364
1060.80 0.7362
1060.90 0.7361
1061.00 0.7359
1061.10 0.7358
1061.20 0.7357
1061.30 0.7355
1061.40 0.7354
1061.50 0.7352
1061.60 0.7351
1061.70 0.7349
1061.80 0.7348
1061.90 0.7347
1062.00 0.7345
1062.10 0.7344
1062.20 0.7342
1062.30 0.7341
1062.40 0.7339
1062.50 0.7338
1062.60 0.7337
1062.70 0.7335
1062.80 0.7334
1062.90 0.7332
1063.00 0.7331
1063.10 0.733
1063.20 0.7328
1063.30 0.7327
1063.40 0.7325
1063.50 0.7324
1063.60 0.7323
1063.70 0.7321
1063.80 0.732
1063.90 0.7318
1064.00 0.7317
1064.10 0.7316
1064.20 0.7314
1064.30 0.7313
1064.40 0.7312
1064.50 0.731
1064.60 0.7309
1064.70 0.7307
1064.80 0.7306
1064.90 0.7305
1065.00 0.7303
1065.10 0.7302
1065.20 0.73
1065.30 0.7299
1065.40 0.7298
1065.50 0.7296
1065.60 0.7295
1065.70 0.7293
1065.80 0.7292
1065.90 0.7291
1066.00 0.7289
1066.10 0.7288
1066.20 0.7286
1066.30 0.7285
1066.40 0.7284
1066.50 0.7282
1066.60 0.7281
1066.70 0.728
1066.80 0.7278
1066.90 0.7277
1067.00 0.7275
1067.10 0.7274
1067.20 0.7273
1067.30 0.7271
1067.40 0.727
1067.50 0.7269
1067.60 0.7267
1067.70 0.7266
1067.80 0.7265
1067.90 0.7263
1068.00 0.7262
1068.10 0.7261
1068.20 0.7259
1068.30 0.7258
1068.40 0.7256
1068.50 0.7255
1068.60 0.7254
1068.70 0.7252
1068.80 0.7251
1068.90 0.725
1069.00 0.7248
1069.10 0.7247
1069.20 0.7246
1069.30 0.7244
1069.40 0.7243
1069.50 0.7242
1069.60 0.724
1069.70 0.7239
1069.80 0.7238
1069.90 0.7236
1070.00 0.7235
1070.10 0.7234
1070.20 0.7232
1070.30 0.7231
1070.40 0.723
1070.50 0.7228
1070.60 0.7227
1070.70 0.7226
1070.80 0.7224
1070.90 0.7223
1071.00 0.7222
1071.10 0.722
1071.20 0.7219
1071.30 0.7218
1071.40 0.7216
1071.50 0.7215
1071.60 0.7214
1071.70 0.7212
1071.80 0.7211
1071.90 0.721
1072.00 0.7208
1072.10 0.7207
1072.20 0.7206
1072.30 0.7204
1072.40 0.7203
1072.50 0.7202
1072.60 0.72
1072.70 0.7199
1072.80 0.7198
1072.90 0.7196
1073.00 0.7195
1073.10 0.7194
1073.20 0.7192
1073.30 0.7191
1073.40 0.719
1073.50 0.7188
1073.60 0.7187
1073.70 0.7186
1073.80 0.7184
1073.90 0.7183
1074.00 0.7182
1074.10 0.718
1074.20 0.7179
1074.30 0.7178
1074.40 0.7177
1074.50 0.7175
1074.60 0.7174
1074.70 0.7173
1074.80 0.7171
1074.90 0.717
1075.00 0.7169
1075.10 0.7167
1075.20 0.7166
1075.30 0.7165
1075.40 0.7163
1075.50 0.7162
1075.60 0.7161
1075.70 0.716
1075.80 0.7158
1075.90 0.7157
1076.00 0.7156
1076.10 0.7154
1076.20 0.7153
1076.30 0.7152
1076.40 0.715
1076.50 0.7149
1076.60 0.7148
1076.70 0.7147
1076.80 0.7145
1076.90 0.7144
1077.00 0.7143
1077.10 0.7141
1077.20 0.714
1077.30 0.7139
1077.40 0.7137
1077.50 0.7136
1077.60 0.7135
1077.70 0.7133
1077.80 0.7132
1077.90 0.7131
1078.00 0.713
1078.10 0.7128
1078.20 0.7127
1078.30 0.7126
1078.40 0.7124
1078.50 0.7123
1078.60 0.7122
1078.70 0.7121
1078.80 0.7119
1078.90 0.7118
1079.00 0.7117
1079.10 0.7116
1079.20 0.7114
1079.30 0.7113
1079.40 0.7112
1079.50 0.711
1079.60 0.7109
1079.70 0.7108
1079.80 0.7107
1079.90 0.7105
1080.00 0.7104
1080.10 0.7103
1080.20 0.7102
1080.30 0.71
1080.40 0.7099
1080.50 0.7098
1080.60 0.7096
1080.70 0.7095
1080.80 0.7094
1080.90 0.7093
1081.00 0.7091
1081.10 0.709
1081.20 0.7089
1081.30 0.7088
1081.40 0.7086
1081.50 0.7085
1081.60 0.7084
1081.70 0.7083
1081.80 0.7081
1081.90 0.708
1082.00 0.7079
1082.10 0.7078
1082.20 0.7076
1082.30 0.7075
1082.40 0.7074
1082.50 0.7073
1082.60 0.7071
1082.70 0.707
1082.80 0.7069
1082.90 0.7067
1083.00 0.7066
1083.10 0.7065
1083.20 0.7064
1083.30 0.7062
1083.40 0.7061
1083.50 0.706
1083.60 0.7059
1083.70 0.7057
1083.80 0.7056
1083.90 0.7055
1084.00 0.7054
1084.10 0.7052
1084.20 0.7051
1084.30 0.705
1084.40 0.7048
1084.50 0.7047
1084.60 0.7046
1084.70 0.7045
1084.80 0.7043
1084.90 0.7042
1085.00 0.7041
1085.10 0.704
1085.20 0.7039
1085.30 0.7037
1085.40 0.7036
1085.50 0.7035
1085.60 0.7034
1085.70 0.7032
1085.80 0.7031
1085.90 0.703
1086.00 0.7029
1086.10 0.7027
1086.20 0.7026
1086.30 0.7025
1086.40 0.7024
1086.50 0.7022
1086.60 0.7021
1086.70 0.702
1086.80 0.7019
1086.90 0.7018
1087.00 0.7016
1087.10 0.7015
1087.20 0.7014
1087.30 0.7013
1087.40 0.7011
1087.50 0.701
1087.60 0.7009
1087.70 0.7008
1087.80 0.7006
1087.90 0.7005
1088.00 0.7004
1088.10 0.7003
1088.20 0.7001
1088.30 0.7
1088.40 0.6999
1088.50 0.6998
1088.60 0.6996
1088.70 0.6995
1088.80 0.6994
1088.90 0.6993
1089.00 0.6992
1089.10 0.699
1089.20 0.6989
1089.30 0.6988
1089.40 0.6987
1089.50 0.6985
1089.60 0.6984
1089.70 0.6983
1089.80 0.6982
1089.90 0.6981
1090.00 0.6979
1090.10 0.6978
1090.20 0.6977
1090.30 0.6976
1090.40 0.6974
1090.50 0.6973
1090.60 0.6972
1090.70 0.6971
1090.80 0.697
1090.90 0.6968
1091.00 0.6967
1091.10 0.6966
1091.20 0.6965
1091.30 0.6964
1091.40 0.6962
1091.50 0.6961
1091.60 0.696
1091.70 0.6959
1091.80 0.6958
1091.90 0.6956
1092.00 0.6955
1092.10 0.6954
1092.20 0.6953
1092.30 0.6951
1092.40 0.695
1092.50 0.6949
1092.60 0.6948
1092.70 0.6946
1092.80 0.6945
1092.90 0.6944
1093.00 0.6943
1093.10 0.6942
1093.20 0.6941
1093.30 0.694
1093.40 0.6938
1093.50 0.6937
1093.60 0.6936
1093.70 0.6935
1093.80 0.6934
1093.90 0.6932
1094.00 0.6931
1094.10 0.693
1094.20 0.6929
1094.30 0.6928
1094.40 0.6926
1094.50 0.6925
1094.60 0.6924
1094.70 0.6923
1094.80 0.6922
1094.90 0.692
1095.00 0.6919
1095.10 0.6918
1095.20 0.6917
1095.30 0.6916
1095.40 0.6914
1095.50 0.6913
1095.60 0.6912
1095.70 0.6911
1095.80 0.691
1095.90 0.6908
1096.00 0.6907
1096.10 0.6906
1096.20 0.6905
1096.30 0.6904
1096.40 0.6902
1096.50 0.6901
1096.60 0.69
1096.70 0.6899
1096.80 0.6898
1096.90 0.6896
1097.00 0.6895
1097.10 0.6894
1097.20 0.6893
1097.30 0.6892
1097.40 0.689
1097.50 0.6889
1097.60 0.6888
1097.70 0.6887
1097.80 0.6886
1097.90 0.6884
1098.00 0.6883
1098.10 0.6882
1098.20 0.6881
1098.30 0.688
1098.40 0.6879
1098.50 0.6877
1098.60 0.6876
1098.70 0.6875
1098.80 0.6874
1098.90 0.6873
1099.00 0.6871
1099.10 0.687
1099.20 0.6869
1099.30 0.6868
1099.40 0.6867
1099.50 0.6865
1099.60 0.6864
1099.70 0.6863
1099.80 0.6862
1099.90 0.6861
1100.00 0.6859
1100.10 0.6858
1100.20 0.6857
1100.30 0.6856
1100.40 0.6855
1100.50 0.6854
1100.60 0.6852
1100.70 0.6851
1100.80 0.685
1100.90 0.6849
1101.00 0.6848
1101.10 0.6846
1101.20 0.6845
1101.30 0.6844
1101.40 0.6843
1101.50 0.6842
1101.60 0.6841
1101.70 0.6839
1101.80 0.6838
1101.90 0.6837
1102.00 0.6836
1102.10 0.6835
1102.20 0.6834
1102.30 0.6832
1102.40 0.6831
1102.50 0.683
1102.60 0.6829
1102.70 0.6828
1102.80 0.6827
1102.90 0.6825
1103.00 0.6824
1103.10 0.6823
1103.20 0.6822
1103.30 0.6821
1103.40 0.6819
1103.50 0.6818
1103.60 0.6817
1103.70 0.6816
1103.80 0.6815
1103.90 0.6814
1104.00 0.6812
1104.10 0.6811
1104.20 0.681
1104.30 0.6809
1104.40 0.6808
1104.50 0.6806
1104.60 0.6805
1104.70 0.6804
1104.80 0.6803
1104.90 0.6802
1105.00 0.6801
1105.10 0.6799
1105.20 0.6798
1105.30 0.6797
1105.40 0.6796
1105.50 0.6795
1105.60 0.6794
1105.70 0.6792
1105.80 0.6791
1105.90 0.679
1106.00 0.6789
1106.10 0.6788
1106.20 0.6787
1106.30 0.6785
1106.40 0.6784
1106.50 0.6783
1106.60 0.6782
1106.70 0.6781
1106.80 0.678
1106.90 0.6778
1107.00 0.6777
1107.10 0.6776
1107.20 0.6775
1107.30 0.6774
1107.40 0.6773
1107.50 0.6771
1107.60 0.677
1107.70 0.6769
1107.80 0.6768
1107.90 0.6767
1108.00 0.6766
1108.10 0.6764
1108.20 0.6763
1108.30 0.6762
1108.40 0.6761
1108.50 0.676
1108.60 0.6759
1108.70 0.6757
1108.80 0.6756
1108.90 0.6755
1109.00 0.6754
1109.10 0.6753
1109.20 0.6752
1109.30 0.6751
1109.40 0.6749
1109.50 0.6748
1109.60 0.6747
1109.70 0.6746
1109.80 0.6745
1109.90 0.6744
1110.00 0.6742
1110.10 0.6741
1110.20 0.674
1110.30 0.6739
1110.40 0.6738
1110.50 0.6737
1110.60 0.6736
1110.70 0.6734
1110.80 0.6733
1110.90 0.6732
1111.00 0.6731
1111.10 0.673
1111.20 0.6729
1111.30 0.6728
1111.40 0.6726
1111.50 0.6725
1111.60 0.6724
1111.70 0.6723
1111.80 0.6722
1111.90 0.6721
1112.00 0.672
1112.10 0.6718
1112.20 0.6717
1112.30 0.6716
1112.40 0.6715
1112.50 0.6714
1112.60 0.6713
1112.70 0.6711
1112.80 0.671
1112.90 0.6709
1113.00 0.6708
1113.10 0.6707
1113.20 0.6706
1113.30 0.6704
1113.40 0.6703
1113.50 0.6702
1113.60 0.6701
1113.70 0.67
1113.80 0.6699
1113.90 0.6698
1114.00 0.6696
1114.10 0.6695
1114.20 0.6694
1114.30 0.6693
1114.40 0.6692
1114.50 0.6691
1114.60 0.669
1114.70 0.6688
1114.80 0.6687
1114.90 0.6686
1115.00 0.6685
1115.10 0.6684
1115.20 0.6683
1115.30 0.6682
1115.40 0.668
1115.50 0.6679
1115.60 0.6678
1115.70 0.6677
1115.80 0.6676
1115.90 0.6675
1116.00 0.6674
1116.10 0.6673
1116.20 0.6671
1116.30 0.667
1116.40 0.6669
1116.50 0.6668
1116.60 0.6667
1116.70 0.6666
1116.80 0.6665
1116.90 0.6663
1117.00 0.6662
1117.10 0.6661
1117.20 0.666
1117.30 0.6659
1117.40 0.6658
1117.50 0.6657
1117.60 0.6656
1117.70 0.6654
1117.80 0.6653
1117.90 0.6652
1118.00 0.6651
1118.10 0.665
1118.20 0.6649
1118.30 0.6648
1118.40 0.6646
1118.50 0.6645
1118.60 0.6644
1118.70 0.6643
1118.80 0.6642
1118.90 0.6641
1119.00 0.664
1119.10 0.6639
1119.20 0.6637
1119.30 0.6636
1119.40 0.6635
1119.50 0.6634
1119.60 0.6633
1119.70 0.6632
1119.80 0.6631
1119.90 0.663
1120.00 0.6628
1120.10 0.6627
1120.20 0.6626
1120.30 0.6625
1120.40 0.6624
1120.50 0.6623
1120.60 0.6622
1120.70 0.6621
1120.80 0.6619
1120.90 0.6618
1121.00 0.6617
1121.10 0.6616
1121.20 0.6615
1121.30 0.6614
1121.40 0.6613
1121.50 0.6612
1121.60 0.6611
1121.70 0.6609
1121.80 0.6608
1121.90 0.6607
1122.00 0.6606
1122.10 0.6605
1122.20 0.6604
1122.30 0.6603
1122.40 0.6601
1122.50 0.66
1122.60 0.6599
1122.70 0.6598
1122.80 0.6597
1122.90 0.6596
1123.00 0.6595
1123.10 0.6594
1123.20 0.6592
1123.30 0.6591
1123.40 0.659
1123.50 0.6589
1123.60 0.6588
1123.70 0.6587
1123.80 0.6586
1123.90 0.6585
1124.00 0.6583
1124.10 0.6582
1124.20 0.6581
1124.30 0.658
1124.40 0.6579
1124.50 0.6578
1124.60 0.6577
1124.70 0.6575
1124.80 0.6574
1124.90 0.6573
1125.00 0.6572
1125.10 0.6571
1125.20 0.657
1125.30 0.6569
1125.40 0.6568
1125.50 0.6566
1125.60 0.6565
1125.70 0.6564
1125.80 0.6563
1125.90 0.6562
1126.00 0.6561
1126.10 0.656
1126.20 0.6559
1126.30 0.6557
1126.40 0.6556
1126.50 0.6555
1126.60 0.6554
1126.70 0.6553
1126.80 0.6552
1126.90 0.6551
1127.00 0.655
1127.10 0.6548
1127.20 0.6547
1127.30 0.6546
1127.40 0.6545
1127.50 0.6544
1127.60 0.6543
1127.70 0.6542
1127.80 0.6541
1127.90 0.654
1128.00 0.6538
1128.10 0.6537
1128.20 0.6536
1128.30 0.6535
1128.40 0.6534
1128.50 0.6533
1128.60 0.6532
1128.70 0.6531
1128.80 0.6529
1128.90 0.6528
1129.00 0.6527
1129.10 0.6526
1129.20 0.6525
1129.30 0.6524
1129.40 0.6523
1129.50 0.6522
1129.60 0.6521
1129.70 0.6519
1129.80 0.6518
1129.90 0.6517
1130.00 0.6516
1130.10 0.6515
1130.20 0.6514
1130.30 0.6513
1130.40 0.6512
1130.50 0.6511
1130.60 0.6509
1130.70 0.6508
1130.80 0.6507
1130.90 0.6506
1131.00 0.6505
1131.10 0.6504
1131.20 0.6503
1131.30 0.6502
1131.40 0.6501
1131.50 0.6499
1131.60 0.6498
1131.70 0.6497
1131.80 0.6496
1131.90 0.6495
1132.00 0.6494
1132.10 0.6493
1132.20 0.6492
1132.30 0.6491
1132.40 0.6489
1132.50 0.6488
1132.60 0.6487
1132.70 0.6486
1132.80 0.6485
1132.90 0.6484
1133.00 0.6483
1133.10 0.6482
1133.20 0.648
1133.30 0.6479
1133.40 0.6478
1133.50 0.6477
1133.60 0.6476
1133.70 0.6475
1133.80 0.6474
1133.90 0.6473
1134.00 0.6471
1134.10 0.647
1134.20 0.6469
1134.30 0.6468
1134.40 0.6467
1134.50 0.6466
1134.60 0.6465
1134.70 0.6464
1134.80 0.6463
1134.90 0.6461
1135.00 0.646
1135.10 0.6459
1135.20 0.6458
1135.30 0.6457
1135.40 0.6456
1135.50 0.6455
1135.60 0.6454
1135.70 0.6452
1135.80 0.6451
1135.90 0.645
1136.00 0.6449
1136.10 0.6448
1136.20 0.6447
1136.30 0.6446
1136.40 0.6445
1136.50 0.6444
1136.60 0.6442
1136.70 0.6441
1136.80 0.644
1136.90 0.6439
1137.00 0.6438
1137.10 0.6437
1137.20 0.6436
1137.30 0.6435
1137.40 0.6434
1137.50 0.6432
1137.60 0.6431
1137.70 0.643
1137.80 0.6429
1137.90 0.6428
1138.00 0.6427
1138.10 0.6426
1138.20 0.6425
1138.30 0.6423
1138.40 0.6422
1138.50 0.6421
1138.60 0.642
1138.70 0.6419
1138.80 0.6418
1138.90 0.6417
1139.00 0.6416
1139.10 0.6414
1139.20 0.6413
1139.30 0.6412
1139.40 0.6411
1139.50 0.641
1139.60 0.6409
1139.70 0.6408
1139.80 0.6407
1139.90 0.6405
1140.00 0.6404
1140.10 0.6403
1140.20 0.6402
1140.30 0.6401
1140.40 0.64
1140.50 0.6399
1140.60 0.6398
1140.70 0.6396
1140.80 0.6395
1140.90 0.6394
1141.00 0.6393
1141.10 0.6392
1141.20 0.6391
1141.30 0.639
1141.40 0.6389
1141.50 0.6388
1141.60 0.6386
1141.70 0.6385
1141.80 0.6384
1141.90 0.6383
1142.00 0.6382
1142.10 0.6381
1142.20 0.638
1142.30 0.6379
1142.40 0.6377
1142.50 0.6376
1142.60 0.6375
1142.70 0.6374
1142.80 0.6373
1142.90 0.6372
1143.00 0.6371
1143.10 0.637
1143.20 0.6369
1143.30 0.6367
1143.40 0.6366
1143.50 0.6365
1143.60 0.6364
1143.70 0.6363
1143.80 0.6362
1143.90 0.6361
1144.00 0.636
1144.10 0.6358
1144.20 0.6357
1144.30 0.6356
1144.40 0.6355
1144.50 0.6354
1144.60 0.6353
1144.70 0.6352
1144.80 0.6351
1144.90 0.6349
1145.00 0.6348
1145.10 0.6347
1145.20 0.6346
1145.30 0.6345
1145.40 0.6344
1145.50 0.6343
1145.60 0.6342
1145.70 0.6341
1145.80 0.6339
1145.90 0.6338
1146.00 0.6337
1146.10 0.6336
1146.20 0.6335
1146.30 0.6334
1146.40 0.6333
1146.50 0.6332
1146.60 0.633
1146.70 0.6329
1146.80 0.6328
1146.90 0.6327
1147.00 0.6326
1147.10 0.6325
1147.20 0.6324
1147.30 0.6323
1147.40 0.6321
1147.50 0.632
1147.60 0.6319
1147.70 0.6318
1147.80 0.6317
1147.90 0.6316
1148.00 0.6315
1148.10 0.6314
1148.20 0.6312
1148.30 0.6311
1148.40 0.631
1148.50 0.6309
1148.60 0.6308
1148.70 0.6307
1148.80 0.6306
1148.90 0.6304
1149.00 0.6303
1149.10 0.6302
1149.20 0.6301
1149.30 0.63
1149.40 0.6299
1149.50 0.6298
1149.60 0.6297
1149.70 0.6295
1149.80 0.6294
1149.90 0.6293
1150.00 0.6292
1150.10 0.6291
1150.20 0.629
1150.30 0.6289
1150.40 0.6288
1150.50 0.6286
1150.60 0.6285
1150.70 0.6284
1150.80 0.6283
1150.90 0.6282
1151.00 0.6281
1151.10 0.628
1151.20 0.6278
1151.30 0.6277
1151.40 0.6276
1151.50 0.6275
1151.60 0.6274
1151.70 0.6273
1151.80 0.6272
1151.90 0.6271
1152.00 0.627
1152.10 0.6268
1152.20 0.6267
1152.30 0.6266
1152.40 0.6265
1152.50 0.6264
1152.60 0.6263
1152.70 0.6262
1152.80 0.626
1152.90 0.6259
1153.00 0.6258
1153.10 0.6257
1153.20 0.6256
1153.30 0.6255
1153.40 0.6254
1153.50 0.6252
1153.60 0.6251
1153.70 0.625
1153.80 0.6249
1153.90 0.6248
1154.00 0.6247
1154.10 0.6246
1154.20 0.6245
1154.30 0.6243
1154.40 0.6242
1154.50 0.6241
1154.60 0.624
1154.70 0.6239
1154.80 0.6238
1154.90 0.6237
1155.00 0.6236
1155.10 0.6234
1155.20 0.6233
1155.30 0.6232
1155.40 0.6231
1155.50 0.623
1155.60 0.6229
1155.70 0.6228
1155.80 0.6227
1155.90 0.6225
1156.00 0.6224
1156.10 0.6223
1156.20 0.6222
1156.30 0.6221
1156.40 0.622
1156.50 0.6219
1156.60 0.6218
1156.70 0.6216
1156.80 0.6215
1156.90 0.6214
1157.00 0.6213
1157.10 0.6212
1157.20 0.6211
1157.30 0.621
1157.40 0.6208
1157.50 0.6207
1157.60 0.6206
1157.70 0.6205
1157.80 0.6204
1157.90 0.6203
1158.00 0.6202
1158.10 0.62
1158.20 0.6199
1158.30 0.6198
1158.40 0.6197
1158.50 0.6196
1158.60 0.6195
1158.70 0.6194
1158.80 0.6192
1158.90 0.6191
1159.00 0.619
1159.10 0.6189
1159.20 0.6188
1159.30 0.6187
1159.40 0.6186
1159.50 0.6184
1159.60 0.6183
1159.70 0.6182
1159.80 0.6181
1159.90 0.618
1160.00 0.6179
1160.10 0.6178
1160.20 0.6176
1160.30 0.6175
1160.40 0.6174
1160.50 0.6173
1160.60 0.6172
1160.70 0.6171
1160.80 0.617
1160.90 0.6169
1161.00 0.6167
1161.10 0.6166
1161.20 0.6165
1161.30 0.6164
1161.40 0.6163
1161.50 0.6162
1161.60 0.6161
1161.70 0.6159
1161.80 0.6158
1161.90 0.6157
1162.00 0.6156
1162.10 0.6155
1162.20 0.6154
1162.30 0.6153
1162.40 0.6151
1162.50 0.615
1162.60 0.6149
1162.70 0.6148
1162.80 0.6147
1162.90 0.6146
1163.00 0.6145
1163.10 0.6143
1163.20 0.6142
1163.30 0.6141
1163.40 0.614
1163.50 0.6139
1163.60 0.6138
1163.70 0.6136
1163.80 0.6135
1163.90 0.6134
1164.00 0.6133
1164.10 0.6132
1164.20 0.6131
1164.30 0.613
1164.40 0.6128
1164.50 0.6127
1164.60 0.6126
1164.70 0.6125
1164.80 0.6124
1164.90 0.6123
1165.00 0.6122
1165.10 0.612
1165.20 0.6119
1165.30 0.6118
1165.40 0.6117
1165.50 0.6116
1165.60 0.6115
1165.70 0.6114
1165.80 0.6112
1165.90 0.6111
1166.00 0.611
1166.10 0.6109
1166.20 0.6108
1166.30 0.6107
1166.40 0.6106
1166.50 0.6104
1166.60 0.6103
1166.70 0.6102
1166.80 0.6101
1166.90 0.61
1167.00 0.6099
1167.10 0.6098
1167.20 0.6096
1167.30 0.6095
1167.40 0.6094
1167.50 0.6093
1167.60 0.6092
1167.70 0.6091
1167.80 0.6089
1167.90 0.6088
1168.00 0.6087
1168.10 0.6086
1168.20 0.6085
1168.30 0.6084
1168.40 0.6082
1168.50 0.6081
1168.60 0.608
1168.70 0.6079
1168.80 0.6078
1168.90 0.6077
1169.00 0.6076
1169.10 0.6074
1169.20 0.6073
1169.30 0.6072
1169.40 0.6071
1169.50 0.607
1169.60 0.6069
1169.70 0.6067
1169.80 0.6066
1169.90 0.6065
1170.00 0.6064
1170.10 0.6063
1170.20 0.6062
1170.30 0.606
1170.40 0.6059
1170.50 0.6058
1170.60 0.6057
1170.70 0.6056
1170.80 0.6055
1170.90 0.6054
1171.00 0.6052
1171.10 0.6051
1171.20 0.605
1171.30 0.6049
1171.40 0.6048
1171.50 0.6047
1171.60 0.6046
1171.70 0.6044
1171.80 0.6043
1171.90 0.6042
1172.00 0.6041
1172.10 0.604
1172.20 0.6039
1172.30 0.6037
1172.40 0.6036
1172.50 0.6035
1172.60 0.6034
1172.70 0.6033
1172.80 0.6032
1172.90 0.603
1173.00 0.6029
1173.10 0.6028
1173.20 0.6027
1173.30 0.6026
1173.40 0.6025
1173.50 0.6023
1173.60 0.6022
1173.70 0.6021
1173.80 0.602
1173.90 0.6019
1174.00 0.6018
1174.10 0.6016
1174.20 0.6015
1174.30 0.6014
1174.40 0.6013
1174.50 0.6012
1174.60 0.6011
1174.70 0.6009
1174.80 0.6008
1174.90 0.6007
1175.00 0.6006
1175.10 0.6005
1175.20 0.6004
1175.30 0.6002
1175.40 0.6001
1175.50 0.6
1175.60 0.5999
1175.70 0.5998
1175.80 0.5997
1175.90 0.5996
1176.00 0.5994
1176.10 0.5993
1176.20 0.5992
1176.30 0.5991
1176.40 0.599
1176.50 0.5989
1176.60 0.5987
1176.70 0.5986
1176.80 0.5985
1176.90 0.5984
1177.00 0.5983
1177.10 0.5982
1177.20 0.598
1177.30 0.5979
1177.40 0.5978
1177.50 0.5977
1177.60 0.5976
1177.70 0.5975
1177.80 0.5973
1177.90 0.5972
1178.00 0.5971
1178.10 0.597
1178.20 0.5969
1178.30 0.5968
1178.40 0.5966
1178.50 0.5965
1178.60 0.5964
1178.70 0.5963
1178.80 0.5962
1178.90 0.5961
1179.00 0.5959
1179.10 0.5958
1179.20 0.5957
1179.30 0.5956
1179.40 0.5955
1179.50 0.5954
1179.60 0.5952
1179.70 0.5951
1179.80 0.595
1179.90 0.5949
1180.00 0.5948
1180.10 0.5947
1180.20 0.5945
1180.30 0.5944
1180.40 0.5943
1180.50 0.5942
1180.60 0.5941
1180.70 0.594
1180.80 0.5938
1180.90 0.5937
1181.00 0.5936
1181.10 0.5935
1181.20 0.5934
1181.30 0.5933
1181.40 0.5931
1181.50 0.593
1181.60 0.5929
1181.70 0.5928
1181.80 0.5927
1181.90 0.5926
1182.00 0.5924
1182.10 0.5923
1182.20 0.5922
1182.30 0.5921
1182.40 0.592
1182.50 0.5919
1182.60 0.5917
1182.70 0.5916
1182.80 0.5915
1182.90 0.5914
1183.00 0.5913
1183.10 0.5911
1183.20 0.591
1183.30 0.5909
1183.40 0.5908
1183.50 0.5907
1183.60 0.5905
1183.70 0.5904
1183.80 0.5903
1183.90 0.5902
1184.00 0.5901
1184.10 0.59
1184.20 0.5898
1184.30 0.5897
1184.40 0.5896
1184.50 0.5895
1184.60 0.5894
1184.70 0.5892
1184.80 0.5891
1184.90 0.589
1185.00 0.5889
1185.10 0.5888
1185.20 0.5887
1185.30 0.5885
1185.40 0.5884
1185.50 0.5883
1185.60 0.5882
1185.70 0.5881
1185.80 0.5879
1185.90 0.5878
1186.00 0.5877
1186.10 0.5876
1186.20 0.5875
1186.30 0.5874
1186.40 0.5872
1186.50 0.5871
1186.60 0.587
1186.70 0.5869
1186.80 0.5868
1186.90 0.5867
1187.00 0.5865
1187.10 0.5864
1187.20 0.5863
1187.30 0.5862
1187.40 0.5861
1187.50 0.5859
1187.60 0.5858
1187.70 0.5857
1187.80 0.5856
1187.90 0.5855
1188.00 0.5854
1188.10 0.5852
1188.20 0.5851
1188.30 0.585
1188.40 0.5849
1188.50 0.5848
1188.60 0.5846
1188.70 0.5845
1188.80 0.5844
1188.90 0.5843
1189.00 0.5842
1189.10 0.5841
1189.20 0.5839
1189.30 0.5838
1189.40 0.5837
1189.50 0.5836
1189.60 0.5835
1189.70 0.5834
1189.80 0.5832
1189.90 0.5831
1190.00 0.583
1190.10 0.5829
1190.20 0.5828
1190.30 0.5826
1190.40 0.5825
1190.50 0.5824
1190.60 0.5823
1190.70 0.5822
1190.80 0.5821
1190.90 0.5819
1191.00 0.5818
1191.10 0.5817
1191.20 0.5816
1191.30 0.5815
1191.40 0.5814
1191.50 0.5812
1191.60 0.5811
1191.70 0.581
1191.80 0.5809
1191.90 0.5808
1192.00 0.5807
1192.10 0.5805
1192.20 0.5804
1192.30 0.5803
1192.40 0.5802
1192.50 0.5801
1192.60 0.5799
1192.70 0.5798
1192.80 0.5797
1192.90 0.5796
1193.00 0.5795
1193.10 0.5793
1193.20 0.5792
1193.30 0.5791
1193.40 0.579
1193.50 0.5789
1193.60 0.5788
1193.70 0.5786
1193.80 0.5785
1193.90 0.5784
1194.00 0.5783
1194.10 0.5782
1194.20 0.5781
1194.30 0.5779
1194.40 0.5778
1194.50 0.5777
1194.60 0.5776
1194.70 0.5775
1194.80 0.5773
1194.90 0.5772
1195.00 0.5771
1195.10 0.577
1195.20 0.5769
1195.30 0.5768
1195.40 0.5766
1195.50 0.5765
1195.60 0.5764
1195.70 0.5763
1195.80 0.5762
1195.90 0.5761
1196.00 0.5759
1196.10 0.5758
1196.20 0.5757
1196.30 0.5756
1196.40 0.5755
1196.50 0.5753
1196.60 0.5752
1196.70 0.5751
1196.80 0.575
1196.90 0.5749
1197.00 0.5748
1197.10 0.5746
1197.20 0.5745
1197.30 0.5744
1197.40 0.5743
1197.50 0.5742
1197.60 0.574
1197.70 0.5739
1197.80 0.5738
1197.90 0.5737
1198.00 0.5736
1198.10 0.5735
1198.20 0.5733
1198.30 0.5732
1198.40 0.5731
1198.50 0.573
1198.60 0.5729
1198.70 0.5727
1198.80 0.5726
1198.90 0.5725
1199.00 0.5724
1199.10 0.5723
1199.20 0.5722
1199.30 0.572
1199.40 0.5719
1199.50 0.5718
1199.60 0.5717
1199.70 0.5716
1199.80 0.5714
1199.90 0.5713
1200.00 0
