# Version 2.1 - nm, norm@500 to 1, cut digits, bergeron_110000_85.dat_110000
# Wavelength(nm)  Flambda(ergs/cm^s/s/nm)
300.00 6.909
300.10 6.9
300.20 6.891
300.30 6.883
300.40 6.874
300.50 6.865
300.60 6.857
300.70 6.848
300.80 6.839
300.90 6.831
301.00 6.822
301.10 6.814
301.20 6.805
301.30 6.796
301.40 6.788
301.50 6.779
301.60 6.771
301.70 6.762
301.80 6.754
301.90 6.745
302.00 6.737
302.10 6.729
302.20 6.72
302.30 6.712
302.40 6.703
302.50 6.695
302.60 6.687
302.70 6.678
302.80 6.67
302.90 6.662
303.00 6.653
303.10 6.645
303.20 6.637
303.30 6.628
303.40 6.62
303.50 6.612
303.60 6.604
303.70 6.595
303.80 6.587
303.90 6.579
304.00 6.571
304.10 6.562
304.20 6.554
304.30 6.546
304.40 6.538
304.50 6.53
304.60 6.522
304.70 6.514
304.80 6.506
304.90 6.497
305.00 6.489
305.10 6.481
305.20 6.473
305.30 6.465
305.40 6.457
305.50 6.449
305.60 6.441
305.70 6.433
305.80 6.425
305.90 6.417
306.00 6.409
306.10 6.401
306.20 6.394
306.30 6.386
306.40 6.378
306.50 6.37
306.60 6.362
306.70 6.354
306.80 6.346
306.90 6.338
307.00 6.331
307.10 6.323
307.20 6.315
307.30 6.307
307.40 6.299
307.50 6.292
307.60 6.284
307.70 6.276
307.80 6.269
307.90 6.261
308.00 6.253
308.10 6.245
308.20 6.238
308.30 6.23
308.40 6.222
308.50 6.215
308.60 6.207
308.70 6.2
308.80 6.192
308.90 6.184
309.00 6.177
309.10 6.169
309.20 6.162
309.30 6.154
309.40 6.147
309.50 6.139
309.60 6.132
309.70 6.124
309.80 6.117
309.90 6.109
310.00 6.102
310.10 6.094
310.20 6.087
310.30 6.079
310.40 6.072
310.50 6.064
310.60 6.057
310.70 6.05
310.80 6.042
310.90 6.035
311.00 6.028
311.10 6.02
311.20 6.013
311.30 6.006
311.40 5.998
311.50 5.991
311.60 5.984
311.70 5.976
311.80 5.969
311.90 5.962
312.00 5.955
312.10 5.947
312.20 5.94
312.30 5.933
312.40 5.926
312.50 5.919
312.60 5.911
312.70 5.904
312.80 5.897
312.90 5.89
313.00 5.883
313.10 5.876
313.20 5.868
313.30 5.861
313.40 5.854
313.50 5.847
313.60 5.84
313.70 5.833
313.80 5.826
313.90 5.819
314.00 5.812
314.10 5.805
314.20 5.798
314.30 5.791
314.40 5.784
314.50 5.777
314.60 5.77
314.70 5.763
314.80 5.756
314.90 5.749
315.00 5.742
315.10 5.735
315.20 5.729
315.30 5.722
315.40 5.715
315.50 5.708
315.60 5.701
315.70 5.694
315.80 5.687
315.90 5.681
316.00 5.674
316.10 5.667
316.20 5.66
316.30 5.653
316.40 5.647
316.50 5.64
316.60 5.633
316.70 5.626
316.80 5.62
316.90 5.613
317.00 5.606
317.10 5.599
317.20 5.593
317.30 5.586
317.40 5.579
317.50 5.573
317.60 5.566
317.70 5.559
317.80 5.553
317.90 5.546
318.00 5.539
318.10 5.533
318.20 5.526
318.30 5.52
318.40 5.513
318.50 5.507
318.60 5.5
318.70 5.493
318.80 5.487
318.90 5.48
319.00 5.474
319.10 5.467
319.20 5.461
319.30 5.454
319.40 5.448
319.50 5.441
319.60 5.435
319.70 5.429
319.80 5.422
319.90 5.416
320.00 5.409
320.10 5.403
320.20 5.396
320.30 5.39
320.40 5.384
320.50 5.377
320.60 5.371
320.70 5.365
320.80 5.358
320.90 5.352
321.00 5.346
321.10 5.339
321.20 5.333
321.30 5.327
321.40 5.32
321.50 5.314
321.60 5.308
321.70 5.302
321.80 5.295
321.90 5.289
322.00 5.283
322.10 5.277
322.20 5.27
322.30 5.264
322.40 5.258
322.50 5.252
322.60 5.246
322.70 5.239
322.80 5.233
322.90 5.227
323.00 5.221
323.10 5.215
323.20 5.209
323.30 5.203
323.40 5.196
323.50 5.19
323.60 5.184
323.70 5.178
323.80 5.172
323.90 5.166
324.00 5.16
324.10 5.154
324.20 5.148
324.30 5.142
324.40 5.136
324.50 5.13
324.60 5.124
324.70 5.118
324.80 5.112
324.90 5.106
325.00 5.1
325.10 5.094
325.20 5.088
325.30 5.082
325.40 5.076
325.50 5.07
325.60 5.064
325.70 5.059
325.80 5.053
325.90 5.047
326.00 5.041
326.10 5.035
326.20 5.029
326.30 5.023
326.40 5.017
326.50 5.012
326.60 5.006
326.70 5
326.80 4.994
326.90 4.988
327.00 4.983
327.10 4.977
327.20 4.971
327.30 4.965
327.40 4.959
327.50 4.954
327.60 4.948
327.70 4.942
327.80 4.937
327.90 4.931
328.00 4.925
328.10 4.919
328.20 4.914
328.30 4.908
328.40 4.902
328.50 4.897
328.60 4.891
328.70 4.885
328.80 4.88
328.90 4.874
329.00 4.868
329.10 4.863
329.20 4.857
329.30 4.852
329.40 4.846
329.50 4.84
329.60 4.835
329.70 4.829
329.80 4.824
329.90 4.818
330.00 4.813
330.10 4.807
330.20 4.802
330.30 4.796
330.40 4.791
330.50 4.785
330.60 4.78
330.70 4.774
330.80 4.769
330.90 4.763
331.00 4.758
331.10 4.752
331.20 4.747
331.30 4.741
331.40 4.736
331.50 4.73
331.60 4.725
331.70 4.72
331.80 4.714
331.90 4.709
332.00 4.703
332.10 4.698
332.20 4.693
332.30 4.687
332.40 4.682
332.50 4.677
332.60 4.671
332.70 4.666
332.80 4.661
332.90 4.655
333.00 4.65
333.10 4.645
333.20 4.639
333.30 4.634
333.40 4.629
333.50 4.624
333.60 4.618
333.70 4.613
333.80 4.608
333.90 4.602
334.00 4.597
334.10 4.592
334.20 4.587
334.30 4.582
334.40 4.576
334.50 4.571
334.60 4.566
334.70 4.561
334.80 4.556
334.90 4.551
335.00 4.545
335.10 4.54
335.20 4.535
335.30 4.53
335.40 4.525
335.50 4.52
335.60 4.515
335.70 4.509
335.80 4.504
335.90 4.499
336.00 4.494
336.10 4.489
336.20 4.484
336.30 4.479
336.40 4.474
336.50 4.469
336.60 4.464
336.70 4.459
336.80 4.454
336.90 4.449
337.00 4.444
337.10 4.439
337.20 4.434
337.30 4.429
337.40 4.424
337.50 4.419
337.60 4.414
337.70 4.409
337.80 4.404
337.90 4.399
338.00 4.394
338.10 4.389
338.20 4.384
338.30 4.379
338.40 4.374
338.50 4.369
338.60 4.364
338.70 4.359
338.80 4.355
338.90 4.35
339.00 4.345
339.10 4.34
339.20 4.335
339.30 4.33
339.40 4.325
339.50 4.32
339.60 4.316
339.70 4.311
339.80 4.306
339.90 4.301
340.00 4.296
340.10 4.291
340.20 4.287
340.30 4.282
340.40 4.277
340.50 4.272
340.60 4.268
340.70 4.263
340.80 4.258
340.90 4.253
341.00 4.249
341.10 4.244
341.20 4.239
341.30 4.234
341.40 4.23
341.50 4.225
341.60 4.22
341.70 4.216
341.80 4.211
341.90 4.206
342.00 4.201
342.10 4.197
342.20 4.192
342.30 4.188
342.40 4.183
342.50 4.178
342.60 4.174
342.70 4.169
342.80 4.164
342.90 4.16
343.00 4.155
343.10 4.151
343.20 4.146
343.30 4.141
343.40 4.137
343.50 4.132
343.60 4.128
343.70 4.123
343.80 4.118
343.90 4.114
344.00 4.109
344.10 4.105
344.20 4.1
344.30 4.096
344.40 4.091
344.50 4.087
344.60 4.082
344.70 4.078
344.80 4.073
344.90 4.069
345.00 4.064
345.10 4.06
345.20 4.055
345.30 4.051
345.40 4.046
345.50 4.042
345.60 4.037
345.70 4.033
345.80 4.028
345.90 4.024
346.00 4.02
346.10 4.015
346.20 4.011
346.30 4.006
346.40 4.002
346.50 3.998
346.60 3.993
346.70 3.989
346.80 3.985
346.90 3.98
347.00 3.976
347.10 3.971
347.20 3.967
347.30 3.963
347.40 3.958
347.50 3.954
347.60 3.95
347.70 3.945
347.80 3.941
347.90 3.937
348.00 3.932
348.10 3.928
348.20 3.924
348.30 3.92
348.40 3.915
348.50 3.911
348.60 3.907
348.70 3.902
348.80 3.898
348.90 3.894
349.00 3.89
349.10 3.885
349.20 3.881
349.30 3.877
349.40 3.873
349.50 3.869
349.60 3.864
349.70 3.86
349.80 3.856
349.90 3.852
350.00 3.848
350.10 3.843
350.20 3.839
350.30 3.835
350.40 3.831
350.50 3.827
350.60 3.823
350.70 3.818
350.80 3.814
350.90 3.81
351.00 3.806
351.10 3.802
351.20 3.798
351.30 3.794
351.40 3.79
351.50 3.785
351.60 3.781
351.70 3.777
351.80 3.773
351.90 3.769
352.00 3.765
352.10 3.761
352.20 3.757
352.30 3.753
352.40 3.749
352.50 3.745
352.60 3.741
352.70 3.737
352.80 3.733
352.90 3.729
353.00 3.725
353.10 3.721
353.20 3.717
353.30 3.713
353.40 3.709
353.50 3.705
353.60 3.701
353.70 3.697
353.80 3.693
353.90 3.689
354.00 3.685
354.10 3.681
354.20 3.677
354.30 3.673
354.40 3.669
354.50 3.665
354.60 3.661
354.70 3.657
354.80 3.653
354.90 3.649
355.00 3.645
355.10 3.641
355.20 3.637
355.30 3.634
355.40 3.63
355.50 3.626
355.60 3.622
355.70 3.618
355.80 3.614
355.90 3.61
356.00 3.606
356.10 3.602
356.20 3.599
356.30 3.595
356.40 3.591
356.50 3.587
356.60 3.583
356.70 3.579
356.80 3.576
356.90 3.572
357.00 3.568
357.10 3.564
357.20 3.56
357.30 3.557
357.40 3.553
357.50 3.549
357.60 3.545
357.70 3.541
357.80 3.538
357.90 3.534
358.00 3.53
358.10 3.526
358.20 3.523
358.30 3.519
358.40 3.515
358.50 3.511
358.60 3.508
358.70 3.504
358.80 3.5
358.90 3.497
359.00 3.493
359.10 3.489
359.20 3.485
359.30 3.482
359.40 3.478
359.50 3.474
359.60 3.471
359.70 3.467
359.80 3.463
359.90 3.46
360.00 3.456
360.10 3.452
360.20 3.449
360.30 3.445
360.40 3.441
360.50 3.438
360.60 3.434
360.70 3.431
360.80 3.427
360.90 3.423
361.00 3.42
361.10 3.416
361.20 3.412
361.30 3.409
361.40 3.405
361.50 3.402
361.60 3.398
361.70 3.395
361.80 3.391
361.90 3.387
362.00 3.384
362.10 3.38
362.20 3.377
362.30 3.373
362.40 3.37
362.50 3.366
362.60 3.362
362.70 3.359
362.80 3.355
362.90 3.352
363.00 3.348
363.10 3.345
363.20 3.341
363.30 3.338
363.40 3.334
363.50 3.331
363.60 3.327
363.70 3.324
363.80 3.32
363.90 3.317
364.00 3.313
364.10 3.31
364.20 3.307
364.30 3.303
364.40 3.3
364.50 3.296
364.60 3.293
364.70 3.289
364.80 3.286
364.90 3.282
365.00 3.279
365.10 3.276
365.20 3.272
365.30 3.269
365.40 3.265
365.50 3.262
365.60 3.259
365.70 3.255
365.80 3.252
365.90 3.248
366.00 3.245
366.10 3.242
366.20 3.238
366.30 3.235
366.40 3.231
366.50 3.228
366.60 3.225
366.70 3.221
366.80 3.218
366.90 3.215
367.00 3.211
367.10 3.208
367.20 3.204
367.30 3.201
367.40 3.198
367.50 3.194
367.60 3.191
367.70 3.188
367.80 3.184
367.90 3.181
368.00 3.178
368.10 3.174
368.20 3.171
368.30 3.168
368.40 3.164
368.50 3.161
368.60 3.158
368.70 3.154
368.80 3.151
368.90 3.148
369.00 3.144
369.10 3.141
369.20 3.138
369.30 3.135
369.40 3.131
369.50 3.128
369.60 3.125
369.70 3.121
369.80 3.118
369.90 3.115
370.00 3.112
370.10 3.108
370.20 3.105
370.30 3.102
370.40 3.099
370.50 3.095
370.60 3.092
370.70 3.089
370.80 3.086
370.90 3.082
371.00 3.079
371.10 3.076
371.20 3.073
371.30 3.07
371.40 3.066
371.50 3.063
371.60 3.06
371.70 3.057
371.80 3.054
371.90 3.05
372.00 3.047
372.10 3.044
372.20 3.041
372.30 3.038
372.40 3.035
372.50 3.032
372.60 3.029
372.70 3.026
372.80 3.022
372.90 3.019
373.00 3.016
373.10 3.013
373.20 3.01
373.30 3.007
373.40 3.004
373.50 3.001
373.60 2.998
373.70 2.995
373.80 2.992
373.90 2.989
374.00 2.986
374.10 2.982
374.20 2.979
374.30 2.976
374.40 2.973
374.50 2.97
374.60 2.967
374.70 2.964
374.80 2.961
374.90 2.958
375.00 2.955
375.10 2.952
375.20 2.949
375.30 2.946
375.40 2.943
375.50 2.94
375.60 2.937
375.70 2.933
375.80 2.93
375.90 2.927
376.00 2.924
376.10 2.921
376.20 2.918
376.30 2.915
376.40 2.912
376.50 2.909
376.60 2.906
376.70 2.903
376.80 2.9
376.90 2.897
377.00 2.895
377.10 2.892
377.20 2.889
377.30 2.886
377.40 2.883
377.50 2.88
377.60 2.877
377.70 2.874
377.80 2.871
377.90 2.868
378.00 2.865
378.10 2.862
378.20 2.859
378.30 2.857
378.40 2.854
378.50 2.851
378.60 2.848
378.70 2.845
378.80 2.842
378.90 2.839
379.00 2.836
379.10 2.833
379.20 2.831
379.30 2.828
379.40 2.825
379.50 2.822
379.60 2.819
379.70 2.816
379.80 2.814
379.90 2.811
380.00 2.808
380.10 2.805
380.20 2.802
380.30 2.8
380.40 2.797
380.50 2.794
380.60 2.791
380.70 2.788
380.80 2.786
380.90 2.783
381.00 2.78
381.10 2.777
381.20 2.774
381.30 2.772
381.40 2.769
381.50 2.766
381.60 2.763
381.70 2.761
381.80 2.758
381.90 2.755
382.00 2.752
382.10 2.75
382.20 2.747
382.30 2.744
382.40 2.742
382.50 2.739
382.60 2.736
382.70 2.734
382.80 2.731
382.90 2.728
383.00 2.725
383.10 2.723
383.20 2.72
383.30 2.717
383.40 2.715
383.50 2.712
383.60 2.71
383.70 2.707
383.80 2.704
383.90 2.702
384.00 2.699
384.10 2.696
384.20 2.694
384.30 2.691
384.40 2.689
384.50 2.686
384.60 2.683
384.70 2.681
384.80 2.678
384.90 2.676
385.00 2.673
385.10 2.67
385.20 2.668
385.30 2.665
385.40 2.663
385.50 2.66
385.60 2.658
385.70 2.655
385.80 2.652
385.90 2.65
386.00 2.647
386.10 2.645
386.20 2.642
386.30 2.64
386.40 2.637
386.50 2.634
386.60 2.632
386.70 2.629
386.80 2.627
386.90 2.624
387.00 2.621
387.10 2.619
387.20 2.616
387.30 2.614
387.40 2.611
387.50 2.609
387.60 2.606
387.70 2.603
387.80 2.601
387.90 2.598
388.00 2.596
388.10 2.593
388.20 2.591
388.30 2.588
388.40 2.586
388.50 2.583
388.60 2.581
388.70 2.579
388.80 2.576
388.90 2.574
389.00 2.571
389.10 2.569
389.20 2.567
389.30 2.564
389.40 2.562
389.50 2.559
389.60 2.557
389.70 2.555
389.80 2.552
389.90 2.55
390.00 2.548
390.10 2.546
390.20 2.543
390.30 2.541
390.40 2.539
390.50 2.536
390.60 2.534
390.70 2.532
390.80 2.53
390.90 2.527
391.00 2.525
391.10 2.523
391.20 2.52
391.30 2.518
391.40 2.516
391.50 2.513
391.60 2.511
391.70 2.509
391.80 2.506
391.90 2.504
392.00 2.502
392.10 2.499
392.20 2.497
392.30 2.494
392.40 2.492
392.50 2.489
392.60 2.487
392.70 2.485
392.80 2.482
392.90 2.48
393.00 2.477
393.10 2.475
393.20 2.472
393.30 2.47
393.40 2.467
393.50 2.464
393.60 2.462
393.70 2.459
393.80 2.457
393.90 2.454
394.00 2.452
394.10 2.449
394.20 2.446
394.30 2.444
394.40 2.441
394.50 2.438
394.60 2.436
394.70 2.433
394.80 2.43
394.90 2.428
395.00 2.425
395.10 2.422
395.20 2.419
395.30 2.417
395.40 2.414
395.50 2.411
395.60 2.409
395.70 2.406
395.80 2.403
395.90 2.4
396.00 2.398
396.10 2.395
396.20 2.392
396.30 2.39
396.40 2.387
396.50 2.384
396.60 2.382
396.70 2.379
396.80 2.377
396.90 2.374
397.00 2.372
397.10 2.37
397.20 2.368
397.30 2.366
397.40 2.365
397.50 2.363
397.60 2.361
397.70 2.359
397.80 2.358
397.90 2.356
398.00 2.355
398.10 2.353
398.20 2.352
398.30 2.35
398.40 2.348
398.50 2.347
398.60 2.345
398.70 2.344
398.80 2.342
398.90 2.341
399.00 2.339
399.10 2.337
399.20 2.336
399.30 2.334
399.40 2.332
399.50 2.331
399.60 2.329
399.70 2.327
399.80 2.326
399.90 2.324
400.00 2.322
400.10 2.321
400.20 2.319
400.30 2.317
400.40 2.315
400.50 2.314
400.60 2.312
400.70 2.31
400.80 2.308
400.90 2.306
401.00 2.304
401.10 2.303
401.20 2.301
401.30 2.299
401.40 2.297
401.50 2.295
401.60 2.293
401.70 2.291
401.80 2.289
401.90 2.287
402.00 2.285
402.10 2.283
402.20 2.281
402.30 2.279
402.40 2.277
402.50 2.275
402.60 2.273
402.70 2.27
402.80 2.268
402.90 2.266
403.00 2.264
403.10 2.262
403.20 2.259
403.30 2.257
403.40 2.255
403.50 2.253
403.60 2.25
403.70 2.248
403.80 2.246
403.90 2.243
404.00 2.241
404.10 2.239
404.20 2.236
404.30 2.234
404.40 2.232
404.50 2.229
404.60 2.227
404.70 2.224
404.80 2.222
404.90 2.219
405.00 2.216
405.10 2.214
405.20 2.211
405.30 2.209
405.40 2.206
405.50 2.203
405.60 2.201
405.70 2.198
405.80 2.195
405.90 2.192
406.00 2.189
406.10 2.187
406.20 2.184
406.30 2.181
406.40 2.178
406.50 2.175
406.60 2.172
406.70 2.169
406.80 2.166
406.90 2.163
407.00 2.16
407.10 2.157
407.20 2.154
407.30 2.15
407.40 2.147
407.50 2.144
407.60 2.141
407.70 2.137
407.80 2.134
407.90 2.131
408.00 2.127
408.10 2.124
408.20 2.121
408.30 2.117
408.40 2.114
408.50 2.11
408.60 2.107
408.70 2.103
408.80 2.1
408.90 2.096
409.00 2.093
409.10 2.09
409.20 2.086
409.30 2.083
409.40 2.08
409.50 2.077
409.60 2.074
409.70 2.072
409.80 2.07
409.90 2.068
410.00 2.067
410.10 2.066
410.20 2.065
410.30 2.062
410.40 2.059
410.50 2.057
410.60 2.055
410.70 2.054
410.80 2.052
410.90 2.052
411.00 2.051
411.10 2.05
411.20 2.05
411.30 2.05
411.40 2.049
411.50 2.049
411.60 2.049
411.70 2.048
411.80 2.048
411.90 2.048
412.00 2.047
412.10 2.047
412.20 2.047
412.30 2.046
412.40 2.046
412.50 2.046
412.60 2.045
412.70 2.045
412.80 2.044
412.90 2.044
413.00 2.043
413.10 2.042
413.20 2.042
413.30 2.041
413.40 2.04
413.50 2.04
413.60 2.039
413.70 2.038
413.80 2.037
413.90 2.036
414.00 2.035
414.10 2.034
414.20 2.034
414.30 2.033
414.40 2.032
414.50 2.031
414.60 2.03
414.70 2.028
414.80 2.027
414.90 2.026
415.00 2.025
415.10 2.024
415.20 2.023
415.30 2.022
415.40 2.02
415.50 2.019
415.60 2.018
415.70 2.017
415.80 2.015
415.90 2.014
416.00 2.013
416.10 2.011
416.20 2.01
416.30 2.009
416.40 2.007
416.50 2.006
416.60 2.005
416.70 2.003
416.80 2.002
416.90 2
417.00 1.999
417.10 1.997
417.20 1.996
417.30 1.994
417.40 1.993
417.50 1.991
417.60 1.99
417.70 1.988
417.80 1.987
417.90 1.985
418.00 1.984
418.10 1.982
418.20 1.981
418.30 1.979
418.40 1.978
418.50 1.976
418.60 1.974
418.70 1.973
418.80 1.971
418.90 1.97
419.00 1.968
419.10 1.966
419.20 1.965
419.30 1.963
419.40 1.961
419.50 1.96
419.60 1.958
419.70 1.956
419.80 1.955
419.90 1.953
420.00 1.951
420.10 1.95
420.20 1.948
420.30 1.946
420.40 1.945
420.50 1.943
420.60 1.941
420.70 1.94
420.80 1.938
420.90 1.936
421.00 1.934
421.10 1.933
421.20 1.931
421.30 1.929
421.40 1.928
421.50 1.926
421.60 1.924
421.70 1.922
421.80 1.921
421.90 1.919
422.00 1.917
422.10 1.915
422.20 1.914
422.30 1.912
422.40 1.91
422.50 1.908
422.60 1.907
422.70 1.905
422.80 1.903
422.90 1.901
423.00 1.899
423.10 1.898
423.20 1.896
423.30 1.894
423.40 1.892
423.50 1.89
423.60 1.889
423.70 1.887
423.80 1.885
423.90 1.883
424.00 1.881
424.10 1.879
424.20 1.878
424.30 1.876
424.40 1.874
424.50 1.872
424.60 1.87
424.70 1.868
424.80 1.866
424.90 1.864
425.00 1.863
425.10 1.861
425.20 1.859
425.30 1.857
425.40 1.855
425.50 1.853
425.60 1.851
425.70 1.849
425.80 1.847
425.90 1.845
426.00 1.843
426.10 1.841
426.20 1.839
426.30 1.837
426.40 1.835
426.50 1.833
426.60 1.831
426.70 1.829
426.80 1.827
426.90 1.825
427.00 1.823
427.10 1.821
427.20 1.819
427.30 1.817
427.40 1.814
427.50 1.812
427.60 1.81
427.70 1.808
427.80 1.806
427.90 1.803
428.00 1.801
428.10 1.799
428.20 1.796
428.30 1.794
428.40 1.792
428.50 1.789
428.60 1.787
428.70 1.785
428.80 1.782
428.90 1.78
429.00 1.777
429.10 1.775
429.20 1.772
429.30 1.769
429.40 1.767
429.50 1.764
429.60 1.761
429.70 1.759
429.80 1.756
429.90 1.753
430.00 1.75
430.10 1.747
430.20 1.744
430.30 1.741
430.40 1.738
430.50 1.735
430.60 1.732
430.70 1.729
430.80 1.726
430.90 1.722
431.00 1.719
431.10 1.716
431.20 1.712
431.30 1.709
431.40 1.705
431.50 1.702
431.60 1.698
431.70 1.695
431.80 1.691
431.90 1.687
432.00 1.683
432.10 1.679
432.20 1.676
432.30 1.672
432.40 1.668
432.50 1.664
432.60 1.66
432.70 1.656
432.80 1.652
432.90 1.648
433.00 1.644
433.10 1.64
433.20 1.636
433.30 1.632
433.40 1.628
433.50 1.625
433.60 1.621
433.70 1.617
433.80 1.612
433.90 1.607
434.00 1.604
434.10 1.603
434.20 1.603
434.30 1.605
434.40 1.607
434.50 1.609
434.60 1.61
434.70 1.611
434.80 1.612
434.90 1.613
435.00 1.614
435.10 1.615
435.20 1.616
435.30 1.617
435.40 1.618
435.50 1.619
435.60 1.621
435.70 1.622
435.80 1.623
435.90 1.624
436.00 1.625
436.10 1.625
436.20 1.626
436.30 1.627
436.40 1.628
436.50 1.629
436.60 1.629
436.70 1.63
436.80 1.63
436.90 1.631
437.00 1.631
437.10 1.631
437.20 1.632
437.30 1.632
437.40 1.632
437.50 1.632
437.60 1.632
437.70 1.632
437.80 1.632
437.90 1.632
438.00 1.632
438.10 1.632
438.20 1.632
438.30 1.632
438.40 1.631
438.50 1.631
438.60 1.631
438.70 1.63
438.80 1.63
438.90 1.629
439.00 1.629
439.10 1.628
439.20 1.628
439.30 1.627
439.40 1.627
439.50 1.626
439.60 1.625
439.70 1.624
439.80 1.624
439.90 1.623
440.00 1.622
440.10 1.621
440.20 1.621
440.30 1.62
440.40 1.619
440.50 1.618
440.60 1.617
440.70 1.616
440.80 1.615
440.90 1.614
441.00 1.613
441.10 1.612
441.20 1.611
441.30 1.61
441.40 1.609
441.50 1.608
441.60 1.607
441.70 1.606
441.80 1.605
441.90 1.604
442.00 1.603
442.10 1.602
442.20 1.601
442.30 1.6
442.40 1.599
442.50 1.597
442.60 1.596
442.70 1.595
442.80 1.594
442.90 1.593
443.00 1.592
443.10 1.591
443.20 1.589
443.30 1.588
443.40 1.587
443.50 1.586
443.60 1.585
443.70 1.583
443.80 1.582
443.90 1.581
444.00 1.58
444.10 1.579
444.20 1.577
444.30 1.576
444.40 1.575
444.50 1.574
444.60 1.572
444.70 1.571
444.80 1.57
444.90 1.569
445.00 1.567
445.10 1.566
445.20 1.565
445.30 1.564
445.40 1.562
445.50 1.561
445.60 1.56
445.70 1.559
445.80 1.557
445.90 1.556
446.00 1.555
446.10 1.554
446.20 1.552
446.30 1.551
446.40 1.55
446.50 1.549
446.60 1.547
446.70 1.546
446.80 1.545
446.90 1.544
447.00 1.542
447.10 1.541
447.20 1.54
447.30 1.539
447.40 1.537
447.50 1.536
447.60 1.535
447.70 1.533
447.80 1.532
447.90 1.531
448.00 1.53
448.10 1.528
448.20 1.527
448.30 1.526
448.40 1.525
448.50 1.523
448.60 1.522
448.70 1.521
448.80 1.519
448.90 1.518
449.00 1.517
449.10 1.516
449.20 1.514
449.30 1.513
449.40 1.512
449.50 1.511
449.60 1.509
449.70 1.508
449.80 1.507
449.90 1.506
450.00 1.504
450.10 1.503
450.20 1.502
450.30 1.501
450.40 1.499
450.50 1.498
450.60 1.497
450.70 1.495
450.80 1.494
450.90 1.493
451.00 1.492
451.10 1.49
451.20 1.489
451.30 1.488
451.40 1.487
451.50 1.485
451.60 1.484
451.70 1.483
451.80 1.482
451.90 1.48
452.00 1.479
452.10 1.478
452.20 1.477
452.30 1.475
452.40 1.474
452.50 1.473
452.60 1.472
452.70 1.47
452.80 1.469
452.90 1.468
453.00 1.467
453.10 1.466
453.20 1.464
453.30 1.463
453.40 1.462
453.50 1.461
453.60 1.459
453.70 1.458
453.80 1.457
453.90 1.456
454.00 1.454
454.10 1.453
454.20 1.452
454.30 1.451
454.40 1.45
454.50 1.448
454.60 1.447
454.70 1.446
454.80 1.445
454.90 1.443
455.00 1.442
455.10 1.441
455.20 1.44
455.30 1.439
455.40 1.437
455.50 1.436
455.60 1.435
455.70 1.434
455.80 1.432
455.90 1.431
456.00 1.43
456.10 1.429
456.20 1.428
456.30 1.426
456.40 1.425
456.50 1.424
456.60 1.423
456.70 1.422
456.80 1.42
456.90 1.419
457.00 1.418
457.10 1.417
457.20 1.416
457.30 1.414
457.40 1.413
457.50 1.412
457.60 1.411
457.70 1.41
457.80 1.408
457.90 1.407
458.00 1.406
458.10 1.405
458.20 1.404
458.30 1.403
458.40 1.401
458.50 1.4
458.60 1.399
458.70 1.398
458.80 1.397
458.90 1.395
459.00 1.394
459.10 1.393
459.20 1.392
459.30 1.391
459.40 1.39
459.50 1.388
459.60 1.387
459.70 1.386
459.80 1.385
459.90 1.384
460.00 1.383
460.10 1.381
460.20 1.38
460.30 1.379
460.40 1.378
460.50 1.377
460.60 1.376
460.70 1.374
460.80 1.373
460.90 1.372
461.00 1.371
461.10 1.37
461.20 1.369
461.30 1.368
461.40 1.366
461.50 1.365
461.60 1.364
461.70 1.363
461.80 1.362
461.90 1.361
462.00 1.359
462.10 1.358
462.20 1.357
462.30 1.356
462.40 1.355
462.50 1.354
462.60 1.353
462.70 1.352
462.80 1.35
462.90 1.349
463.00 1.348
463.10 1.347
463.20 1.346
463.30 1.345
463.40 1.344
463.50 1.342
463.60 1.341
463.70 1.34
463.80 1.339
463.90 1.338
464.00 1.337
464.10 1.336
464.20 1.335
464.30 1.333
464.40 1.332
464.50 1.331
464.60 1.33
464.70 1.329
464.80 1.328
464.90 1.327
465.00 1.326
465.10 1.324
465.20 1.323
465.30 1.322
465.40 1.321
465.50 1.32
465.60 1.319
465.70 1.318
465.80 1.317
465.90 1.316
466.00 1.315
466.10 1.313
466.20 1.312
466.30 1.311
466.40 1.31
466.50 1.309
466.60 1.308
466.70 1.307
466.80 1.306
466.90 1.305
467.00 1.303
467.10 1.302
467.20 1.301
467.30 1.3
467.40 1.299
467.50 1.298
467.60 1.297
467.70 1.296
467.80 1.295
467.90 1.294
468.00 1.293
468.10 1.291
468.20 1.29
468.30 1.289
468.40 1.288
468.50 1.287
468.60 1.286
468.70 1.285
468.80 1.284
468.90 1.283
469.00 1.282
469.10 1.281
469.20 1.28
469.30 1.278
469.40 1.277
469.50 1.276
469.60 1.275
469.70 1.274
469.80 1.273
469.90 1.272
470.00 1.271
470.10 1.27
470.20 1.269
470.30 1.268
470.40 1.267
470.50 1.265
470.60 1.264
470.70 1.263
470.80 1.262
470.90 1.261
471.00 1.26
471.10 1.259
471.20 1.258
471.30 1.257
471.40 1.256
471.50 1.255
471.60 1.254
471.70 1.253
471.80 1.252
471.90 1.25
472.00 1.249
472.10 1.248
472.20 1.247
472.30 1.246
472.40 1.245
472.50 1.244
472.60 1.243
472.70 1.242
472.80 1.241
472.90 1.24
473.00 1.239
473.10 1.238
473.20 1.236
473.30 1.235
473.40 1.234
473.50 1.233
473.60 1.232
473.70 1.231
473.80 1.23
473.90 1.229
474.00 1.228
474.10 1.227
474.20 1.226
474.30 1.225
474.40 1.224
474.50 1.222
474.60 1.221
474.70 1.22
474.80 1.219
474.90 1.218
475.00 1.217
475.10 1.216
475.20 1.215
475.30 1.214
475.40 1.213
475.50 1.212
475.60 1.21
475.70 1.209
475.80 1.208
475.90 1.207
476.00 1.206
476.10 1.205
476.20 1.204
476.30 1.203
476.40 1.202
476.50 1.2
476.60 1.199
476.70 1.198
476.80 1.197
476.90 1.196
477.00 1.195
477.10 1.194
477.20 1.192
477.30 1.191
477.40 1.19
477.50 1.189
477.60 1.188
477.70 1.187
477.80 1.185
477.90 1.184
478.00 1.183
478.10 1.182
478.20 1.181
478.30 1.179
478.40 1.178
478.50 1.177
478.60 1.176
478.70 1.174
478.80 1.173
478.90 1.172
479.00 1.171
479.10 1.169
479.20 1.168
479.30 1.167
479.40 1.165
479.50 1.164
479.60 1.163
479.70 1.161
479.80 1.16
479.90 1.159
480.00 1.157
480.10 1.156
480.20 1.155
480.30 1.153
480.40 1.152
480.50 1.15
480.60 1.148
480.70 1.147
480.80 1.145
480.90 1.144
481.00 1.142
481.10 1.141
481.20 1.139
481.30 1.138
481.40 1.136
481.50 1.134
481.60 1.132
481.70 1.13
481.80 1.129
481.90 1.127
482.00 1.125
482.10 1.123
482.20 1.121
482.30 1.119
482.40 1.117
482.50 1.115
482.60 1.113
482.70 1.111
482.80 1.109
482.90 1.107
483.00 1.105
483.10 1.103
483.20 1.1
483.30 1.098
483.40 1.095
483.50 1.092
483.60 1.09
483.70 1.087
483.80 1.085
483.90 1.082
484.00 1.08
484.10 1.077
484.20 1.074
484.30 1.072
484.40 1.069
484.50 1.066
484.60 1.063
484.70 1.06
484.80 1.057
484.90 1.054
485.00 1.051
485.10 1.048
485.20 1.045
485.30 1.042
485.40 1.04
485.50 1.037
485.60 1.035
485.70 1.033
485.80 1.033
485.90 1.034
486.00 1.038
486.10 1.046
486.20 1.043
486.30 1.033
486.40 1.03
486.50 1.027
486.60 1.027
486.70 1.027
486.80 1.027
486.90 1.028
487.00 1.029
487.10 1.031
487.20 1.032
487.30 1.033
487.40 1.035
487.50 1.036
487.60 1.037
487.70 1.039
487.80 1.04
487.90 1.041
488.00 1.042
488.10 1.043
488.20 1.044
488.30 1.045
488.40 1.046
488.50 1.047
488.60 1.048
488.70 1.048
488.80 1.049
488.90 1.05
489.00 1.051
489.10 1.052
489.20 1.052
489.30 1.052
489.40 1.053
489.50 1.053
489.60 1.053
489.70 1.054
489.80 1.054
489.90 1.054
490.00 1.055
490.10 1.055
490.20 1.055
490.30 1.055
490.40 1.055
490.50 1.055
490.60 1.055
490.70 1.055
490.80 1.055
490.90 1.055
491.00 1.055
491.10 1.055
491.20 1.054
491.30 1.054
491.40 1.054
491.50 1.054
491.60 1.053
491.70 1.053
491.80 1.053
491.90 1.052
492.00 1.052
492.10 1.052
492.20 1.051
492.30 1.051
492.40 1.05
492.50 1.05
492.60 1.049
492.70 1.049
492.80 1.049
492.90 1.048
493.00 1.048
493.10 1.047
493.20 1.047
493.30 1.046
493.40 1.045
493.50 1.045
493.60 1.044
493.70 1.044
493.80 1.043
493.90 1.043
494.00 1.042
494.10 1.041
494.20 1.041
494.30 1.04
494.40 1.04
494.50 1.039
494.60 1.038
494.70 1.038
494.80 1.037
494.90 1.036
495.00 1.036
495.10 1.035
495.20 1.034
495.30 1.034
495.40 1.033
495.50 1.032
495.60 1.032
495.70 1.031
495.80 1.03
495.90 1.03
496.00 1.029
496.10 1.028
496.20 1.028
496.30 1.027
496.40 1.026
496.50 1.025
496.60 1.025
496.70 1.024
496.80 1.023
496.90 1.023
497.00 1.022
497.10 1.021
497.20 1.02
497.30 1.02
497.40 1.019
497.50 1.018
497.60 1.018
497.70 1.017
497.80 1.016
497.90 1.015
498.00 1.015
498.10 1.014
498.20 1.013
498.30 1.013
498.40 1.012
498.50 1.011
498.60 1.01
498.70 1.01
498.80 1.009
498.90 1.008
499.00 1.007
499.10 1.007
499.20 1.006
499.30 1.005
499.40 1.004
499.50 1.004
499.60 1.003
499.70 1.002
499.80 1.001
499.90 1.001
500.00 1
500.10 0.9993
500.20 0.9985
500.30 0.9978
500.40 0.997
500.50 0.9963
500.60 0.9956
500.70 0.9948
500.80 0.9941
500.90 0.9933
501.00 0.9926
501.10 0.9919
501.20 0.9911
501.30 0.9904
501.40 0.9897
501.50 0.9889
501.60 0.9882
501.70 0.9874
501.80 0.9867
501.90 0.986
502.00 0.9852
502.10 0.9845
502.20 0.9838
502.30 0.983
502.40 0.9823
502.50 0.9815
502.60 0.9808
502.70 0.9801
502.80 0.9793
502.90 0.9786
503.00 0.9779
503.10 0.9771
503.20 0.9764
503.30 0.9756
503.40 0.9749
503.50 0.9742
503.60 0.9734
503.70 0.9727
503.80 0.972
503.90 0.9712
504.00 0.9705
504.10 0.9698
504.20 0.9691
504.30 0.9683
504.40 0.9676
504.50 0.9669
504.60 0.9661
504.70 0.9654
504.80 0.9647
504.90 0.964
505.00 0.9632
505.10 0.9625
505.20 0.9618
505.30 0.961
505.40 0.9603
505.50 0.9596
505.60 0.9589
505.70 0.9581
505.80 0.9574
505.90 0.9567
506.00 0.956
506.10 0.9553
506.20 0.9545
506.30 0.9538
506.40 0.9531
506.50 0.9524
506.60 0.9516
506.70 0.9509
506.80 0.9502
506.90 0.9495
507.00 0.9488
507.10 0.9481
507.20 0.9473
507.30 0.9466
507.40 0.9459
507.50 0.9452
507.60 0.9445
507.70 0.9438
507.80 0.9431
507.90 0.9424
508.00 0.9416
508.10 0.9409
508.20 0.9402
508.30 0.9395
508.40 0.9388
508.50 0.9381
508.60 0.9374
508.70 0.9367
508.80 0.936
508.90 0.9353
509.00 0.9345
509.10 0.9338
509.20 0.9331
509.30 0.9324
509.40 0.9317
509.50 0.931
509.60 0.9303
509.70 0.9296
509.80 0.9289
509.90 0.9282
510.00 0.9275
510.10 0.9268
510.20 0.9261
510.30 0.9254
510.40 0.9247
510.50 0.924
510.60 0.9233
510.70 0.9226
510.80 0.9219
510.90 0.9212
511.00 0.9205
511.10 0.9199
511.20 0.9192
511.30 0.9185
511.40 0.9178
511.50 0.9171
511.60 0.9164
511.70 0.9157
511.80 0.915
511.90 0.9143
512.00 0.9136
512.10 0.9129
512.20 0.9123
512.30 0.9116
512.40 0.9109
512.50 0.9102
512.60 0.9095
512.70 0.9088
512.80 0.9082
512.90 0.9075
513.00 0.9068
513.10 0.9061
513.20 0.9054
513.30 0.9047
513.40 0.9041
513.50 0.9034
513.60 0.9027
513.70 0.902
513.80 0.9013
513.90 0.9007
514.00 0.9
514.10 0.8993
514.20 0.8986
514.30 0.898
514.40 0.8973
514.50 0.8966
514.60 0.8959
514.70 0.8953
514.80 0.8946
514.90 0.8939
515.00 0.8933
515.10 0.8926
515.20 0.8919
515.30 0.8912
515.40 0.8906
515.50 0.8899
515.60 0.8892
515.70 0.8886
515.80 0.8879
515.90 0.8872
516.00 0.8866
516.10 0.8859
516.20 0.8853
516.30 0.8846
516.40 0.8839
516.50 0.8833
516.60 0.8826
516.70 0.8819
516.80 0.8813
516.90 0.8806
517.00 0.88
517.10 0.8793
517.20 0.8787
517.30 0.878
517.40 0.8773
517.50 0.8767
517.60 0.876
517.70 0.8754
517.80 0.8747
517.90 0.8741
518.00 0.8734
518.10 0.8728
518.20 0.8721
518.30 0.8715
518.40 0.8708
518.50 0.8702
518.60 0.8695
518.70 0.8689
518.80 0.8682
518.90 0.8676
519.00 0.8669
519.10 0.8663
519.20 0.8656
519.30 0.865
519.40 0.8643
519.50 0.8637
519.60 0.8631
519.70 0.8624
519.80 0.8618
519.90 0.8611
520.00 0.8605
520.10 0.8598
520.20 0.8592
520.30 0.8586
520.40 0.8579
520.50 0.8573
520.60 0.8567
520.70 0.856
520.80 0.8554
520.90 0.8547
521.00 0.8541
521.10 0.8535
521.20 0.8528
521.30 0.8522
521.40 0.8516
521.50 0.8509
521.60 0.8503
521.70 0.8497
521.80 0.8491
521.90 0.8484
522.00 0.8478
522.10 0.8472
522.20 0.8465
522.30 0.8459
522.40 0.8453
522.50 0.8447
522.60 0.844
522.70 0.8434
522.80 0.8428
522.90 0.8422
523.00 0.8415
523.10 0.8409
523.20 0.8403
523.30 0.8397
523.40 0.839
523.50 0.8384
523.60 0.8378
523.70 0.8372
523.80 0.8366
523.90 0.8359
524.00 0.8353
524.10 0.8347
524.20 0.8341
524.30 0.8335
524.40 0.8329
524.50 0.8322
524.60 0.8316
524.70 0.831
524.80 0.8304
524.90 0.8298
525.00 0.8292
525.10 0.8286
525.20 0.828
525.30 0.8273
525.40 0.8267
525.50 0.8261
525.60 0.8255
525.70 0.8249
525.80 0.8243
525.90 0.8237
526.00 0.8231
526.10 0.8225
526.20 0.8219
526.30 0.8213
526.40 0.8207
526.50 0.8201
526.60 0.8195
526.70 0.8189
526.80 0.8183
526.90 0.8177
527.00 0.8171
527.10 0.8164
527.20 0.8158
527.30 0.8153
527.40 0.8147
527.50 0.8141
527.60 0.8135
527.70 0.8129
527.80 0.8123
527.90 0.8117
528.00 0.8111
528.10 0.8105
528.20 0.8099
528.30 0.8093
528.40 0.8087
528.50 0.8081
528.60 0.8075
528.70 0.8069
528.80 0.8063
528.90 0.8057
529.00 0.8051
529.10 0.8045
529.20 0.804
529.30 0.8034
529.40 0.8028
529.50 0.8022
529.60 0.8016
529.70 0.801
529.80 0.8004
529.90 0.7999
530.00 0.7993
530.10 0.7987
530.20 0.7981
530.30 0.7975
530.40 0.7969
530.50 0.7963
530.60 0.7958
530.70 0.7952
530.80 0.7946
530.90 0.794
531.00 0.7934
531.10 0.7929
531.20 0.7923
531.30 0.7917
531.40 0.7911
531.50 0.7906
531.60 0.79
531.70 0.7894
531.80 0.7888
531.90 0.7883
532.00 0.7877
532.10 0.7871
532.20 0.7865
532.30 0.786
532.40 0.7854
532.50 0.7848
532.60 0.7842
532.70 0.7837
532.80 0.7831
532.90 0.7825
533.00 0.782
533.10 0.7814
533.20 0.7808
533.30 0.7803
533.40 0.7797
533.50 0.7791
533.60 0.7786
533.70 0.778
533.80 0.7774
533.90 0.7769
534.00 0.7763
534.10 0.7757
534.20 0.7752
534.30 0.7746
534.40 0.7741
534.50 0.7735
534.60 0.7729
534.70 0.7724
534.80 0.7718
534.90 0.7712
535.00 0.7707
535.10 0.7701
535.20 0.7696
535.30 0.769
535.40 0.7685
535.50 0.7679
535.60 0.7673
535.70 0.7668
535.80 0.7662
535.90 0.7657
536.00 0.7651
536.10 0.7646
536.20 0.764
536.30 0.7635
536.40 0.7629
536.50 0.7624
536.60 0.7618
536.70 0.7613
536.80 0.7607
536.90 0.7602
537.00 0.7596
537.10 0.7591
537.20 0.7585
537.30 0.758
537.40 0.7574
537.50 0.7569
537.60 0.7563
537.70 0.7558
537.80 0.7552
537.90 0.7547
538.00 0.7541
538.10 0.7536
538.20 0.7531
538.30 0.7525
538.40 0.752
538.50 0.7514
538.60 0.7509
538.70 0.7503
538.80 0.7498
538.90 0.7493
539.00 0.7487
539.10 0.7482
539.20 0.7477
539.30 0.7471
539.40 0.7466
539.50 0.746
539.60 0.7455
539.70 0.745
539.80 0.7444
539.90 0.7439
540.00 0.7434
540.10 0.7428
540.20 0.7423
540.30 0.7418
540.40 0.7412
540.50 0.7407
540.60 0.7402
540.70 0.7396
540.80 0.7391
540.90 0.7386
541.00 0.738
541.10 0.7375
541.20 0.737
541.30 0.7365
541.40 0.7359
541.50 0.7354
541.60 0.7349
541.70 0.7344
541.80 0.7338
541.90 0.7333
542.00 0.7328
542.10 0.7323
542.20 0.7317
542.30 0.7312
542.40 0.7307
542.50 0.7302
542.60 0.7296
542.70 0.7291
542.80 0.7286
542.90 0.7281
543.00 0.7276
543.10 0.727
543.20 0.7265
543.30 0.726
543.40 0.7255
543.50 0.725
543.60 0.7244
543.70 0.7239
543.80 0.7234
543.90 0.7229
544.00 0.7224
544.10 0.7219
544.20 0.7213
544.30 0.7208
544.40 0.7203
544.50 0.7198
544.60 0.7193
544.70 0.7188
544.80 0.7183
544.90 0.7178
545.00 0.7172
545.10 0.7167
545.20 0.7162
545.30 0.7157
545.40 0.7152
545.50 0.7147
545.60 0.7142
545.70 0.7137
545.80 0.7132
545.90 0.7127
546.00 0.7122
546.10 0.7117
546.20 0.7111
546.30 0.7106
546.40 0.7101
546.50 0.7096
546.60 0.7091
546.70 0.7086
546.80 0.7081
546.90 0.7076
547.00 0.7071
547.10 0.7066
547.20 0.7061
547.30 0.7056
547.40 0.7051
547.50 0.7046
547.60 0.7041
547.70 0.7036
547.80 0.7031
547.90 0.7026
548.00 0.7021
548.10 0.7016
548.20 0.7011
548.30 0.7006
548.40 0.7001
548.50 0.6996
548.60 0.6991
548.70 0.6987
548.80 0.6982
548.90 0.6977
549.00 0.6972
549.10 0.6967
549.20 0.6962
549.30 0.6957
549.40 0.6952
549.50 0.6947
549.60 0.6942
549.70 0.6937
549.80 0.6932
549.90 0.6928
550.00 0.6923
550.10 0.6918
550.20 0.6913
550.30 0.6908
550.40 0.6903
550.50 0.6898
550.60 0.6893
550.70 0.6889
550.80 0.6884
550.90 0.6879
551.00 0.6874
551.10 0.6869
551.20 0.6864
551.30 0.6859
551.40 0.6855
551.50 0.685
551.60 0.6845
551.70 0.684
551.80 0.6835
551.90 0.6831
552.00 0.6826
552.10 0.6821
552.20 0.6816
552.30 0.6811
552.40 0.6807
552.50 0.6802
552.60 0.6797
552.70 0.6792
552.80 0.6787
552.90 0.6783
553.00 0.6778
553.10 0.6773
553.20 0.6768
553.30 0.6764
553.40 0.6759
553.50 0.6754
553.60 0.6749
553.70 0.6745
553.80 0.674
553.90 0.6735
554.00 0.6731
554.10 0.6726
554.20 0.6721
554.30 0.6716
554.40 0.6712
554.50 0.6707
554.60 0.6702
554.70 0.6698
554.80 0.6693
554.90 0.6688
555.00 0.6684
555.10 0.6679
555.20 0.6674
555.30 0.667
555.40 0.6665
555.50 0.666
555.60 0.6656
555.70 0.6651
555.80 0.6646
555.90 0.6642
556.00 0.6637
556.10 0.6632
556.20 0.6628
556.30 0.6623
556.40 0.6619
556.50 0.6614
556.60 0.6609
556.70 0.6605
556.80 0.66
556.90 0.6595
557.00 0.6591
557.10 0.6586
557.20 0.6582
557.30 0.6577
557.40 0.6573
557.50 0.6568
557.60 0.6563
557.70 0.6559
557.80 0.6554
557.90 0.655
558.00 0.6545
558.10 0.6541
558.20 0.6536
558.30 0.6531
558.40 0.6527
558.50 0.6522
558.60 0.6518
558.70 0.6513
558.80 0.6509
558.90 0.6504
559.00 0.65
559.10 0.6495
559.20 0.6491
559.30 0.6486
559.40 0.6482
559.50 0.6477
559.60 0.6473
559.70 0.6468
559.80 0.6464
559.90 0.6459
560.00 0.6455
560.10 0.645
560.20 0.6446
560.30 0.6441
560.40 0.6437
560.50 0.6432
560.60 0.6428
560.70 0.6424
560.80 0.6419
560.90 0.6415
561.00 0.641
561.10 0.6406
561.20 0.6401
561.30 0.6397
561.40 0.6392
561.50 0.6388
561.60 0.6384
561.70 0.6379
561.80 0.6375
561.90 0.637
562.00 0.6366
562.10 0.6362
562.20 0.6357
562.30 0.6353
562.40 0.6348
562.50 0.6344
562.60 0.634
562.70 0.6335
562.80 0.6331
562.90 0.6327
563.00 0.6322
563.10 0.6318
563.20 0.6313
563.30 0.6309
563.40 0.6305
563.50 0.63
563.60 0.6296
563.70 0.6292
563.80 0.6287
563.90 0.6283
564.00 0.6279
564.10 0.6274
564.20 0.627
564.30 0.6266
564.40 0.6261
564.50 0.6257
564.60 0.6253
564.70 0.6249
564.80 0.6244
564.90 0.624
565.00 0.6236
565.10 0.6231
565.20 0.6227
565.30 0.6223
565.40 0.6219
565.50 0.6214
565.60 0.621
565.70 0.6206
565.80 0.6202
565.90 0.6197
566.00 0.6193
566.10 0.6189
566.20 0.6184
566.30 0.618
566.40 0.6176
566.50 0.6172
566.60 0.6168
566.70 0.6163
566.80 0.6159
566.90 0.6155
567.00 0.6151
567.10 0.6146
567.20 0.6142
567.30 0.6138
567.40 0.6134
567.50 0.613
567.60 0.6125
567.70 0.6121
567.80 0.6117
567.90 0.6113
568.00 0.6109
568.10 0.6105
568.20 0.61
568.30 0.6096
568.40 0.6092
568.50 0.6088
568.60 0.6084
568.70 0.608
568.80 0.6075
568.90 0.6071
569.00 0.6067
569.10 0.6063
569.20 0.6059
569.30 0.6055
569.40 0.6051
569.50 0.6046
569.60 0.6042
569.70 0.6038
569.80 0.6034
569.90 0.603
570.00 0.6026
570.10 0.6022
570.20 0.6018
570.30 0.6014
570.40 0.6009
570.50 0.6005
570.60 0.6001
570.70 0.5997
570.80 0.5993
570.90 0.5989
571.00 0.5985
571.10 0.5981
571.20 0.5977
571.30 0.5973
571.40 0.5969
571.50 0.5965
571.60 0.5961
571.70 0.5957
571.80 0.5953
571.90 0.5948
572.00 0.5944
572.10 0.594
572.20 0.5936
572.30 0.5932
572.40 0.5928
572.50 0.5924
572.60 0.592
572.70 0.5916
572.80 0.5912
572.90 0.5908
573.00 0.5904
573.10 0.59
573.20 0.5896
573.30 0.5892
573.40 0.5888
573.50 0.5884
573.60 0.588
573.70 0.5876
573.80 0.5872
573.90 0.5868
574.00 0.5864
574.10 0.586
574.20 0.5856
574.30 0.5852
574.40 0.5848
574.50 0.5845
574.60 0.5841
574.70 0.5837
574.80 0.5833
574.90 0.5829
575.00 0.5825
575.10 0.5821
575.20 0.5817
575.30 0.5813
575.40 0.5809
575.50 0.5805
575.60 0.5801
575.70 0.5797
575.80 0.5793
575.90 0.579
576.00 0.5786
576.10 0.5782
576.20 0.5778
576.30 0.5774
576.40 0.577
576.50 0.5766
576.60 0.5762
576.70 0.5758
576.80 0.5754
576.90 0.5751
577.00 0.5747
577.10 0.5743
577.20 0.5739
577.30 0.5735
577.40 0.5731
577.50 0.5727
577.60 0.5724
577.70 0.572
577.80 0.5716
577.90 0.5712
578.00 0.5708
578.10 0.5704
578.20 0.57
578.30 0.5697
578.40 0.5693
578.50 0.5689
578.60 0.5685
578.70 0.5681
578.80 0.5678
578.90 0.5674
579.00 0.567
579.10 0.5666
579.20 0.5662
579.30 0.5659
579.40 0.5655
579.50 0.5651
579.60 0.5647
579.70 0.5643
579.80 0.564
579.90 0.5636
580.00 0.5632
580.10 0.5628
580.20 0.5624
580.30 0.5621
580.40 0.5617
580.50 0.5613
580.60 0.5609
580.70 0.5606
580.80 0.5602
580.90 0.5598
581.00 0.5594
581.10 0.5591
581.20 0.5587
581.30 0.5583
581.40 0.558
581.50 0.5576
581.60 0.5572
581.70 0.5568
581.80 0.5565
581.90 0.5561
582.00 0.5557
582.10 0.5553
582.20 0.555
582.30 0.5546
582.40 0.5542
582.50 0.5539
582.60 0.5535
582.70 0.5531
582.80 0.5528
582.90 0.5524
583.00 0.552
583.10 0.5517
583.20 0.5513
583.30 0.5509
583.40 0.5506
583.50 0.5502
583.60 0.5498
583.70 0.5495
583.80 0.5491
583.90 0.5487
584.00 0.5484
584.10 0.548
584.20 0.5476
584.30 0.5473
584.40 0.5469
584.50 0.5465
584.60 0.5462
584.70 0.5458
584.80 0.5454
584.90 0.5451
585.00 0.5447
585.10 0.5444
585.20 0.544
585.30 0.5436
585.40 0.5433
585.50 0.5429
585.60 0.5426
585.70 0.5422
585.80 0.5418
585.90 0.5415
586.00 0.5411
586.10 0.5408
586.20 0.5404
586.30 0.54
586.40 0.5397
586.50 0.5393
586.60 0.539
586.70 0.5386
586.80 0.5383
586.90 0.5379
587.00 0.5375
587.10 0.5372
587.20 0.5368
587.30 0.5365
587.40 0.5361
587.50 0.5358
587.60 0.5354
587.70 0.5351
587.80 0.5347
587.90 0.5343
588.00 0.534
588.10 0.5336
588.20 0.5333
588.30 0.5329
588.40 0.5326
588.50 0.5322
588.60 0.5319
588.70 0.5315
588.80 0.5312
588.90 0.5308
589.00 0.5305
589.10 0.5301
589.20 0.5298
589.30 0.5294
589.40 0.5291
589.50 0.5287
589.60 0.5284
589.70 0.528
589.80 0.5277
589.90 0.5273
590.00 0.527
590.10 0.5266
590.20 0.5263
590.30 0.5259
590.40 0.5256
590.50 0.5253
590.60 0.5249
590.70 0.5246
590.80 0.5242
590.90 0.5239
591.00 0.5235
591.10 0.5232
591.20 0.5228
591.30 0.5225
591.40 0.5222
591.50 0.5218
591.60 0.5215
591.70 0.5211
591.80 0.5208
591.90 0.5204
592.00 0.5201
592.10 0.5198
592.20 0.5194
592.30 0.5191
592.40 0.5187
592.50 0.5184
592.60 0.5181
592.70 0.5177
592.80 0.5174
592.90 0.517
593.00 0.5167
593.10 0.5164
593.20 0.516
593.30 0.5157
593.40 0.5153
593.50 0.515
593.60 0.5147
593.70 0.5143
593.80 0.514
593.90 0.5137
594.00 0.5133
594.10 0.513
594.20 0.5127
594.30 0.5123
594.40 0.512
594.50 0.5116
594.60 0.5113
594.70 0.511
594.80 0.5106
594.90 0.5103
595.00 0.51
595.10 0.5096
595.20 0.5093
595.30 0.509
595.40 0.5086
595.50 0.5083
595.60 0.508
595.70 0.5076
595.80 0.5073
595.90 0.507
596.00 0.5067
596.10 0.5063
596.20 0.506
596.30 0.5057
596.40 0.5053
596.50 0.505
596.60 0.5047
596.70 0.5043
596.80 0.504
596.90 0.5037
597.00 0.5034
597.10 0.503
597.20 0.5027
597.30 0.5024
597.40 0.502
597.50 0.5017
597.60 0.5014
597.70 0.5011
597.80 0.5007
597.90 0.5004
598.00 0.5001
598.10 0.4998
598.20 0.4994
598.30 0.4991
598.40 0.4988
598.50 0.4985
598.60 0.4981
598.70 0.4978
598.80 0.4975
598.90 0.4972
599.00 0.4969
599.10 0.4965
599.20 0.4962
599.30 0.4959
599.40 0.4956
599.50 0.4952
599.60 0.4949
599.70 0.4946
599.80 0.4943
599.90 0.494
600.00 0.4936
600.10 0.4933
600.20 0.493
600.30 0.4927
600.40 0.4924
600.50 0.492
600.60 0.4917
600.70 0.4914
600.80 0.4911
600.90 0.4908
601.00 0.4905
601.10 0.4901
601.20 0.4898
601.30 0.4895
601.40 0.4892
601.50 0.4889
601.60 0.4885
601.70 0.4882
601.80 0.4879
601.90 0.4876
602.00 0.4873
602.10 0.487
602.20 0.4867
602.30 0.4863
602.40 0.486
602.50 0.4857
602.60 0.4854
602.70 0.4851
602.80 0.4848
602.90 0.4845
603.00 0.4842
603.10 0.4838
603.20 0.4835
603.30 0.4832
603.40 0.4829
603.50 0.4826
603.60 0.4823
603.70 0.482
603.80 0.4817
603.90 0.4814
604.00 0.481
604.10 0.4807
604.20 0.4804
604.30 0.4801
604.40 0.4798
604.50 0.4795
604.60 0.4792
604.70 0.4789
604.80 0.4786
604.90 0.4783
605.00 0.478
605.10 0.4776
605.20 0.4773
605.30 0.477
605.40 0.4767
605.50 0.4764
605.60 0.4761
605.70 0.4758
605.80 0.4755
605.90 0.4752
606.00 0.4749
606.10 0.4746
606.20 0.4743
606.30 0.474
606.40 0.4737
606.50 0.4734
606.60 0.4731
606.70 0.4728
606.80 0.4725
606.90 0.4722
607.00 0.4719
607.10 0.4715
607.20 0.4712
607.30 0.4709
607.40 0.4706
607.50 0.4703
607.60 0.47
607.70 0.4697
607.80 0.4694
607.90 0.4691
608.00 0.4688
608.10 0.4685
608.20 0.4682
608.30 0.4679
608.40 0.4676
608.50 0.4673
608.60 0.467
608.70 0.4667
608.80 0.4664
608.90 0.4661
609.00 0.4658
609.10 0.4656
609.20 0.4653
609.30 0.465
609.40 0.4647
609.50 0.4644
609.60 0.4641
609.70 0.4638
609.80 0.4635
609.90 0.4632
610.00 0.4629
610.10 0.4626
610.20 0.4623
610.30 0.462
610.40 0.4617
610.50 0.4614
610.60 0.4611
610.70 0.4608
610.80 0.4605
610.90 0.4602
611.00 0.4599
611.10 0.4596
611.20 0.4594
611.30 0.4591
611.40 0.4588
611.50 0.4585
611.60 0.4582
611.70 0.4579
611.80 0.4576
611.90 0.4573
612.00 0.457
612.10 0.4567
612.20 0.4564
612.30 0.4561
612.40 0.4559
612.50 0.4556
612.60 0.4553
612.70 0.455
612.80 0.4547
612.90 0.4544
613.00 0.4541
613.10 0.4538
613.20 0.4535
613.30 0.4533
613.40 0.453
613.50 0.4527
613.60 0.4524
613.70 0.4521
613.80 0.4518
613.90 0.4515
614.00 0.4513
614.10 0.451
614.20 0.4507
614.30 0.4504
614.40 0.4501
614.50 0.4498
614.60 0.4495
614.70 0.4493
614.80 0.449
614.90 0.4487
615.00 0.4484
615.10 0.4481
615.20 0.4478
615.30 0.4475
615.40 0.4473
615.50 0.447
615.60 0.4467
615.70 0.4464
615.80 0.4461
615.90 0.4459
616.00 0.4456
616.10 0.4453
616.20 0.445
616.30 0.4447
616.40 0.4444
616.50 0.4442
616.60 0.4439
616.70 0.4436
616.80 0.4433
616.90 0.443
617.00 0.4428
617.10 0.4425
617.20 0.4422
617.30 0.4419
617.40 0.4416
617.50 0.4414
617.60 0.4411
617.70 0.4408
617.80 0.4405
617.90 0.4403
618.00 0.44
618.10 0.4397
618.20 0.4394
618.30 0.4391
618.40 0.4389
618.50 0.4386
618.60 0.4383
618.70 0.438
618.80 0.4378
618.90 0.4375
619.00 0.4372
619.10 0.4369
619.20 0.4367
619.30 0.4364
619.40 0.4361
619.50 0.4358
619.60 0.4356
619.70 0.4353
619.80 0.435
619.90 0.4347
620.00 0.4345
620.10 0.4342
620.20 0.4339
620.30 0.4337
620.40 0.4334
620.50 0.4331
620.60 0.4328
620.70 0.4326
620.80 0.4323
620.90 0.432
621.00 0.4318
621.10 0.4315
621.20 0.4312
621.30 0.4309
621.40 0.4307
621.50 0.4304
621.60 0.4301
621.70 0.4299
621.80 0.4296
621.90 0.4293
622.00 0.429
622.10 0.4288
622.20 0.4285
622.30 0.4282
622.40 0.428
622.50 0.4277
622.60 0.4274
622.70 0.4272
622.80 0.4269
622.90 0.4266
623.00 0.4264
623.10 0.4261
623.20 0.4258
623.30 0.4256
623.40 0.4253
623.50 0.425
623.60 0.4248
623.70 0.4245
623.80 0.4242
623.90 0.424
624.00 0.4237
624.10 0.4234
624.20 0.4232
624.30 0.4229
624.40 0.4227
624.50 0.4224
624.60 0.4221
624.70 0.4219
624.80 0.4216
624.90 0.4213
625.00 0.4211
625.10 0.4208
625.20 0.4205
625.30 0.4203
625.40 0.42
625.50 0.4198
625.60 0.4195
625.70 0.4192
625.80 0.419
625.90 0.4187
626.00 0.4184
626.10 0.4182
626.20 0.4179
626.30 0.4177
626.40 0.4174
626.50 0.4171
626.60 0.4169
626.70 0.4166
626.80 0.4164
626.90 0.4161
627.00 0.4158
627.10 0.4156
627.20 0.4153
627.30 0.4151
627.40 0.4148
627.50 0.4146
627.60 0.4143
627.70 0.414
627.80 0.4138
627.90 0.4135
628.00 0.4133
628.10 0.413
628.20 0.4128
628.30 0.4125
628.40 0.4122
628.50 0.412
628.60 0.4117
628.70 0.4115
628.80 0.4112
628.90 0.411
629.00 0.4107
629.10 0.4104
629.20 0.4102
629.30 0.4099
629.40 0.4097
629.50 0.4094
629.60 0.4092
629.70 0.4089
629.80 0.4087
629.90 0.4084
630.00 0.4082
630.10 0.4079
630.20 0.4077
630.30 0.4074
630.40 0.4071
630.50 0.4069
630.60 0.4066
630.70 0.4064
630.80 0.4061
630.90 0.4059
631.00 0.4056
631.10 0.4054
631.20 0.4051
631.30 0.4049
631.40 0.4046
631.50 0.4044
631.60 0.4041
631.70 0.4039
631.80 0.4036
631.90 0.4034
632.00 0.4031
632.10 0.4029
632.20 0.4026
632.30 0.4024
632.40 0.4021
632.50 0.4019
632.60 0.4016
632.70 0.4014
632.80 0.4011
632.90 0.4009
633.00 0.4006
633.10 0.4004
633.20 0.4001
633.30 0.3999
633.40 0.3996
633.50 0.3994
633.60 0.3991
633.70 0.3989
633.80 0.3986
633.90 0.3984
634.00 0.3982
634.10 0.3979
634.20 0.3977
634.30 0.3974
634.40 0.3972
634.50 0.3969
634.60 0.3967
634.70 0.3964
634.80 0.3962
634.90 0.3959
635.00 0.3957
635.10 0.3954
635.20 0.3952
635.30 0.395
635.40 0.3947
635.50 0.3945
635.60 0.3942
635.70 0.394
635.80 0.3937
635.90 0.3935
636.00 0.3932
636.10 0.393
636.20 0.3928
636.30 0.3925
636.40 0.3923
636.50 0.392
636.60 0.3918
636.70 0.3915
636.80 0.3913
636.90 0.3911
637.00 0.3908
637.10 0.3906
637.20 0.3903
637.30 0.3901
637.40 0.3898
637.50 0.3896
637.60 0.3894
637.70 0.3891
637.80 0.3889
637.90 0.3886
638.00 0.3884
638.10 0.3881
638.20 0.3879
638.30 0.3877
638.40 0.3874
638.50 0.3872
638.60 0.3869
638.70 0.3867
638.80 0.3865
638.90 0.3862
639.00 0.386
639.10 0.3857
639.20 0.3855
639.30 0.3853
639.40 0.385
639.50 0.3848
639.60 0.3845
639.70 0.3843
639.80 0.3841
639.90 0.3838
640.00 0.3836
640.10 0.3833
640.20 0.3831
640.30 0.3829
640.40 0.3826
640.50 0.3824
640.60 0.3821
640.70 0.3819
640.80 0.3817
640.90 0.3814
641.00 0.3812
641.10 0.3809
641.20 0.3807
641.30 0.3805
641.40 0.3802
641.50 0.38
641.60 0.3798
641.70 0.3795
641.80 0.3793
641.90 0.379
642.00 0.3788
642.10 0.3786
642.20 0.3783
642.30 0.3781
642.40 0.3778
642.50 0.3776
642.60 0.3774
642.70 0.3771
642.80 0.3769
642.90 0.3766
643.00 0.3764
643.10 0.3762
643.20 0.3759
643.30 0.3757
643.40 0.3754
643.50 0.3752
643.60 0.375
643.70 0.3747
643.80 0.3745
643.90 0.3742
644.00 0.374
644.10 0.3738
644.20 0.3735
644.30 0.3733
644.40 0.373
644.50 0.3728
644.60 0.3725
644.70 0.3723
644.80 0.3721
644.90 0.3718
645.00 0.3716
645.10 0.3713
645.20 0.3711
645.30 0.3708
645.40 0.3706
645.50 0.3704
645.60 0.3701
645.70 0.3699
645.80 0.3696
645.90 0.3694
646.00 0.3691
646.10 0.3689
646.20 0.3686
646.30 0.3684
646.40 0.3681
646.50 0.3679
646.60 0.3676
646.70 0.3674
646.80 0.3671
646.90 0.3669
647.00 0.3666
647.10 0.3664
647.20 0.3661
647.30 0.3659
647.40 0.3656
647.50 0.3653
647.60 0.3651
647.70 0.3648
647.80 0.3645
647.90 0.3643
648.00 0.364
648.10 0.3638
648.20 0.3635
648.30 0.3632
648.40 0.363
648.50 0.3627
648.60 0.3624
648.70 0.3621
648.80 0.3619
648.90 0.3616
649.00 0.3613
649.10 0.361
649.20 0.3607
649.30 0.3605
649.40 0.3602
649.50 0.3599
649.60 0.3596
649.70 0.3593
649.80 0.359
649.90 0.3587
650.00 0.3584
650.10 0.3581
650.20 0.3578
650.30 0.3575
650.40 0.3571
650.50 0.3568
650.60 0.3565
650.70 0.3561
650.80 0.3558
650.90 0.3554
651.00 0.3551
651.10 0.3548
651.20 0.3544
651.30 0.3541
651.40 0.3537
651.50 0.3533
651.60 0.3529
651.70 0.3525
651.80 0.3521
651.90 0.3517
652.00 0.3513
652.10 0.3509
652.20 0.3506
652.30 0.3501
652.40 0.3497
652.50 0.3492
652.60 0.3487
652.70 0.3482
652.80 0.3478
652.90 0.3473
653.00 0.3468
653.10 0.3463
653.20 0.3458
653.30 0.3453
653.40 0.3448
653.50 0.3442
653.60 0.3436
653.70 0.343
653.80 0.3424
653.90 0.3418
654.00 0.3412
654.10 0.3406
654.20 0.34
654.30 0.3394
654.40 0.3387
654.50 0.3381
654.60 0.3374
654.70 0.3367
654.80 0.336
654.90 0.3354
655.00 0.3347
655.10 0.334
655.20 0.3333
655.30 0.3326
655.40 0.3319
655.50 0.3313
655.60 0.3307
655.70 0.3302
655.80 0.3299
655.90 0.3299
656.00 0.3311
656.10 0.3329
656.20 0.3436
656.30 0.3537
656.40 0.3376
656.50 0.3311
656.60 0.3295
656.70 0.3281
656.80 0.3281
656.90 0.328
657.00 0.3282
657.10 0.3284
657.20 0.3287
657.30 0.3289
657.40 0.3292
657.50 0.3295
657.60 0.3298
657.70 0.3301
657.80 0.3304
657.90 0.3307
658.00 0.331
658.10 0.3313
658.20 0.3315
658.30 0.3318
658.40 0.332
658.50 0.3322
658.60 0.3323
658.70 0.3325
658.80 0.3327
658.90 0.3329
659.00 0.3331
659.10 0.3333
659.20 0.3334
659.30 0.3336
659.40 0.3337
659.50 0.3337
659.60 0.3338
659.70 0.3339
659.80 0.3339
659.90 0.334
660.00 0.3341
660.10 0.3341
660.20 0.3342
660.30 0.3342
660.40 0.3342
660.50 0.3342
660.60 0.3342
660.70 0.3341
660.80 0.3341
660.90 0.3341
661.00 0.3341
661.10 0.334
661.20 0.334
661.30 0.334
661.40 0.3339
661.50 0.3338
661.60 0.3337
661.70 0.3337
661.80 0.3336
661.90 0.3335
662.00 0.3334
662.10 0.3333
662.20 0.3332
662.30 0.3332
662.40 0.333
662.50 0.3329
662.60 0.3328
662.70 0.3327
662.80 0.3326
662.90 0.3324
663.00 0.3323
663.10 0.3322
663.20 0.3321
663.30 0.332
663.40 0.3318
663.50 0.3317
663.60 0.3315
663.70 0.3314
663.80 0.3313
663.90 0.3311
664.00 0.331
664.10 0.3308
664.20 0.3307
664.30 0.3305
664.40 0.3304
664.50 0.3302
664.60 0.3301
664.70 0.3299
664.80 0.3298
664.90 0.3296
665.00 0.3294
665.10 0.3293
665.20 0.3291
665.30 0.329
665.40 0.3288
665.50 0.3286
665.60 0.3285
665.70 0.3283
665.80 0.3281
665.90 0.328
666.00 0.3278
666.10 0.3276
666.20 0.3275
666.30 0.3273
666.40 0.3271
666.50 0.327
666.60 0.3268
666.70 0.3266
666.80 0.3265
666.90 0.3263
667.00 0.3261
667.10 0.3259
667.20 0.3258
667.30 0.3256
667.40 0.3254
667.50 0.3253
667.60 0.3251
667.70 0.3249
667.80 0.3247
667.90 0.3246
668.00 0.3244
668.10 0.3242
668.20 0.324
668.30 0.3239
668.40 0.3237
668.50 0.3235
668.60 0.3233
668.70 0.3231
668.80 0.323
668.90 0.3228
669.00 0.3226
669.10 0.3224
669.20 0.3223
669.30 0.3221
669.40 0.3219
669.50 0.3217
669.60 0.3215
669.70 0.3214
669.80 0.3212
669.90 0.321
670.00 0.3208
670.10 0.3207
670.20 0.3205
670.30 0.3203
670.40 0.3201
670.50 0.3199
670.60 0.3198
670.70 0.3196
670.80 0.3194
670.90 0.3192
671.00 0.319
671.10 0.3189
671.20 0.3187
671.30 0.3185
671.40 0.3183
671.50 0.3182
671.60 0.318
671.70 0.3178
671.80 0.3176
671.90 0.3174
672.00 0.3173
672.10 0.3171
672.20 0.3169
672.30 0.3167
672.40 0.3165
672.50 0.3164
672.60 0.3162
672.70 0.316
672.80 0.3158
672.90 0.3157
673.00 0.3155
673.10 0.3153
673.20 0.3151
673.30 0.3149
673.40 0.3148
673.50 0.3146
673.60 0.3144
673.70 0.3142
673.80 0.314
673.90 0.3139
674.00 0.3137
674.10 0.3135
674.20 0.3133
674.30 0.3132
674.40 0.313
674.50 0.3128
674.60 0.3126
674.70 0.3124
674.80 0.3123
674.90 0.3121
675.00 0.3119
675.10 0.3117
675.20 0.3116
675.30 0.3114
675.40 0.3112
675.50 0.311
675.60 0.3109
675.70 0.3107
675.80 0.3105
675.90 0.3103
676.00 0.3101
676.10 0.31
676.20 0.3098
676.30 0.3096
676.40 0.3094
676.50 0.3093
676.60 0.3091
676.70 0.3089
676.80 0.3087
676.90 0.3086
677.00 0.3084
677.10 0.3082
677.20 0.308
677.30 0.3079
677.40 0.3077
677.50 0.3075
677.60 0.3073
677.70 0.3072
677.80 0.307
677.90 0.3068
678.00 0.3066
678.10 0.3065
678.20 0.3063
678.30 0.3061
678.40 0.3059
678.50 0.3058
678.60 0.3056
678.70 0.3054
678.80 0.3052
678.90 0.3051
679.00 0.3049
679.10 0.3047
679.20 0.3046
679.30 0.3044
679.40 0.3042
679.50 0.304
679.60 0.3039
679.70 0.3037
679.80 0.3035
679.90 0.3033
680.00 0.3032
680.10 0.303
680.20 0.3028
680.30 0.3027
680.40 0.3025
680.50 0.3023
680.60 0.3021
680.70 0.302
680.80 0.3018
680.90 0.3016
681.00 0.3014
681.10 0.3013
681.20 0.3011
681.30 0.3009
681.40 0.3008
681.50 0.3006
681.60 0.3004
681.70 0.3003
681.80 0.3001
681.90 0.2999
682.00 0.2997
682.10 0.2996
682.20 0.2994
682.30 0.2992
682.40 0.2991
682.50 0.2989
682.60 0.2987
682.70 0.2986
682.80 0.2984
682.90 0.2982
683.00 0.298
683.10 0.2979
683.20 0.2977
683.30 0.2975
683.40 0.2974
683.50 0.2972
683.60 0.297
683.70 0.2969
683.80 0.2967
683.90 0.2965
684.00 0.2964
684.10 0.2962
684.20 0.296
684.30 0.2959
684.40 0.2957
684.50 0.2955
684.60 0.2953
684.70 0.2952
684.80 0.295
684.90 0.2948
685.00 0.2947
685.10 0.2945
685.20 0.2943
685.30 0.2942
685.40 0.294
685.50 0.2938
685.60 0.2937
685.70 0.2935
685.80 0.2933
685.90 0.2932
686.00 0.293
686.10 0.2928
686.20 0.2927
686.30 0.2925
686.40 0.2924
686.50 0.2922
686.60 0.292
686.70 0.2919
686.80 0.2917
686.90 0.2915
687.00 0.2914
687.10 0.2912
687.20 0.291
687.30 0.2909
687.40 0.2907
687.50 0.2905
687.60 0.2904
687.70 0.2902
687.80 0.29
687.90 0.2899
688.00 0.2897
688.10 0.2896
688.20 0.2894
688.30 0.2892
688.40 0.2891
688.50 0.2889
688.60 0.2887
688.70 0.2886
688.80 0.2884
688.90 0.2883
689.00 0.2881
689.10 0.2879
689.20 0.2878
689.30 0.2876
689.40 0.2874
689.50 0.2873
689.60 0.2871
689.70 0.287
689.80 0.2868
689.90 0.2866
690.00 0.2865
690.10 0.2863
690.20 0.2862
690.30 0.286
690.40 0.2858
690.50 0.2857
690.60 0.2855
690.70 0.2853
690.80 0.2852
690.90 0.285
691.00 0.2849
691.10 0.2847
691.20 0.2845
691.30 0.2844
691.40 0.2842
691.50 0.2841
691.60 0.2839
691.70 0.2838
691.80 0.2836
691.90 0.2834
692.00 0.2833
692.10 0.2831
692.20 0.283
692.30 0.2828
692.40 0.2826
692.50 0.2825
692.60 0.2823
692.70 0.2822
692.80 0.282
692.90 0.2818
693.00 0.2817
693.10 0.2815
693.20 0.2814
693.30 0.2812
693.40 0.2811
693.50 0.2809
693.60 0.2807
693.70 0.2806
693.80 0.2804
693.90 0.2803
694.00 0.2801
694.10 0.2799
694.20 0.2798
694.30 0.2796
694.40 0.2795
694.50 0.2793
694.60 0.2792
694.70 0.279
694.80 0.2788
694.90 0.2787
695.00 0.2785
695.10 0.2784
695.20 0.2782
695.30 0.2781
695.40 0.2779
695.50 0.2778
695.60 0.2776
695.70 0.2774
695.80 0.2773
695.90 0.2771
696.00 0.277
696.10 0.2768
696.20 0.2767
696.30 0.2765
696.40 0.2764
696.50 0.2762
696.60 0.2761
696.70 0.2759
696.80 0.2757
696.90 0.2756
697.00 0.2754
697.10 0.2753
697.20 0.2751
697.30 0.275
697.40 0.2748
697.50 0.2747
697.60 0.2745
697.70 0.2744
697.80 0.2742
697.90 0.2741
698.00 0.2739
698.10 0.2738
698.20 0.2736
698.30 0.2734
698.40 0.2733
698.50 0.2731
698.60 0.273
698.70 0.2728
698.80 0.2727
698.90 0.2725
699.00 0.2724
699.10 0.2722
699.20 0.2721
699.30 0.2719
699.40 0.2718
699.50 0.2716
699.60 0.2715
699.70 0.2713
699.80 0.2712
699.90 0.271
700.00 0.2709
700.10 0.2707
700.20 0.2706
700.30 0.2704
700.40 0.2703
700.50 0.2701
700.60 0.27
700.70 0.2698
700.80 0.2697
700.90 0.2695
701.00 0.2694
701.10 0.2692
701.20 0.2691
701.30 0.2689
701.40 0.2688
701.50 0.2686
701.60 0.2685
701.70 0.2683
701.80 0.2682
701.90 0.268
702.00 0.2679
702.10 0.2677
702.20 0.2676
702.30 0.2674
702.40 0.2673
702.50 0.2671
702.60 0.267
702.70 0.2668
702.80 0.2667
702.90 0.2665
703.00 0.2664
703.10 0.2662
703.20 0.2661
703.30 0.266
703.40 0.2658
703.50 0.2657
703.60 0.2655
703.70 0.2654
703.80 0.2652
703.90 0.2651
704.00 0.2649
704.10 0.2648
704.20 0.2646
704.30 0.2645
704.40 0.2643
704.50 0.2642
704.60 0.264
704.70 0.2639
704.80 0.2637
704.90 0.2636
705.00 0.2635
705.10 0.2633
705.20 0.2632
705.30 0.263
705.40 0.2629
705.50 0.2627
705.60 0.2626
705.70 0.2624
705.80 0.2623
705.90 0.2622
706.00 0.262
706.10 0.2619
706.20 0.2617
706.30 0.2616
706.40 0.2614
706.50 0.2613
706.60 0.2611
706.70 0.261
706.80 0.2609
706.90 0.2607
707.00 0.2606
707.10 0.2604
707.20 0.2603
707.30 0.2601
707.40 0.26
707.50 0.2599
707.60 0.2597
707.70 0.2596
707.80 0.2594
707.90 0.2593
708.00 0.2591
708.10 0.259
708.20 0.2589
708.30 0.2587
708.40 0.2586
708.50 0.2584
708.60 0.2583
708.70 0.2581
708.80 0.258
708.90 0.2579
709.00 0.2577
709.10 0.2576
709.20 0.2574
709.30 0.2573
709.40 0.2571
709.50 0.257
709.60 0.2569
709.70 0.2567
709.80 0.2566
709.90 0.2564
710.00 0.2563
710.10 0.2562
710.20 0.256
710.30 0.2559
710.40 0.2557
710.50 0.2556
710.60 0.2555
710.70 0.2553
710.80 0.2552
710.90 0.255
711.00 0.2549
711.10 0.2548
711.20 0.2546
711.30 0.2545
711.40 0.2543
711.50 0.2542
711.60 0.2541
711.70 0.2539
711.80 0.2538
711.90 0.2537
712.00 0.2535
712.10 0.2534
712.20 0.2532
712.30 0.2531
712.40 0.253
712.50 0.2528
712.60 0.2527
712.70 0.2525
712.80 0.2524
712.90 0.2523
713.00 0.2521
713.10 0.252
713.20 0.2519
713.30 0.2517
713.40 0.2516
713.50 0.2514
713.60 0.2513
713.70 0.2512
713.80 0.251
713.90 0.2509
714.00 0.2508
714.10 0.2506
714.20 0.2505
714.30 0.2503
714.40 0.2502
714.50 0.2501
714.60 0.2499
714.70 0.2498
714.80 0.2497
714.90 0.2495
715.00 0.2494
715.10 0.2492
715.20 0.2491
715.30 0.249
715.40 0.2488
715.50 0.2487
715.60 0.2486
715.70 0.2484
715.80 0.2483
715.90 0.2482
716.00 0.248
716.10 0.2479
716.20 0.2478
716.30 0.2476
716.40 0.2475
716.50 0.2474
716.60 0.2472
716.70 0.2471
716.80 0.247
716.90 0.2468
717.00 0.2467
717.10 0.2466
717.20 0.2464
717.30 0.2463
717.40 0.2462
717.50 0.246
717.60 0.2459
717.70 0.2458
717.80 0.2456
717.90 0.2455
718.00 0.2454
718.10 0.2452
718.20 0.2451
718.30 0.245
718.40 0.2448
718.50 0.2447
718.60 0.2446
718.70 0.2444
718.80 0.2443
718.90 0.2442
719.00 0.244
719.10 0.2439
719.20 0.2438
719.30 0.2436
719.40 0.2435
719.50 0.2434
719.60 0.2432
719.70 0.2431
719.80 0.243
719.90 0.2428
720.00 0.2427
720.10 0.2426
720.20 0.2424
720.30 0.2423
720.40 0.2422
720.50 0.242
720.60 0.2419
720.70 0.2418
720.80 0.2417
720.90 0.2415
721.00 0.2414
721.10 0.2413
721.20 0.2411
721.30 0.241
721.40 0.2409
721.50 0.2407
721.60 0.2406
721.70 0.2405
721.80 0.2404
721.90 0.2402
722.00 0.2401
722.10 0.24
722.20 0.2398
722.30 0.2397
722.40 0.2396
722.50 0.2394
722.60 0.2393
722.70 0.2392
722.80 0.2391
722.90 0.2389
723.00 0.2388
723.10 0.2387
723.20 0.2385
723.30 0.2384
723.40 0.2383
723.50 0.2382
723.60 0.238
723.70 0.2379
723.80 0.2378
723.90 0.2376
724.00 0.2375
724.10 0.2374
724.20 0.2373
724.30 0.2371
724.40 0.237
724.50 0.2369
724.60 0.2367
724.70 0.2366
724.80 0.2365
724.90 0.2364
725.00 0.2362
725.10 0.2361
725.20 0.236
725.30 0.2359
725.40 0.2357
725.50 0.2356
725.60 0.2355
725.70 0.2354
725.80 0.2352
725.90 0.2351
726.00 0.235
726.10 0.2349
726.20 0.2347
726.30 0.2346
726.40 0.2345
726.50 0.2343
726.60 0.2342
726.70 0.2341
726.80 0.234
726.90 0.2338
727.00 0.2337
727.10 0.2336
727.20 0.2335
727.30 0.2333
727.40 0.2332
727.50 0.2331
727.60 0.233
727.70 0.2328
727.80 0.2327
727.90 0.2326
728.00 0.2325
728.10 0.2323
728.20 0.2322
728.30 0.2321
728.40 0.232
728.50 0.2318
728.60 0.2317
728.70 0.2316
728.80 0.2315
728.90 0.2314
729.00 0.2312
729.10 0.2311
729.20 0.231
729.30 0.2309
729.40 0.2307
729.50 0.2306
729.60 0.2305
729.70 0.2304
729.80 0.2302
729.90 0.2301
730.00 0.23
730.10 0.2299
730.20 0.2297
730.30 0.2296
730.40 0.2295
730.50 0.2294
730.60 0.2293
730.70 0.2291
730.80 0.229
730.90 0.2289
731.00 0.2288
731.10 0.2287
731.20 0.2285
731.30 0.2284
731.40 0.2283
731.50 0.2282
731.60 0.2281
731.70 0.2279
731.80 0.2278
731.90 0.2277
732.00 0.2276
732.10 0.2274
732.20 0.2273
732.30 0.2272
732.40 0.2271
732.50 0.227
732.60 0.2268
732.70 0.2267
732.80 0.2266
732.90 0.2265
733.00 0.2264
733.10 0.2262
733.20 0.2261
733.30 0.226
733.40 0.2259
733.50 0.2258
733.60 0.2256
733.70 0.2255
733.80 0.2254
733.90 0.2253
734.00 0.2252
734.10 0.225
734.20 0.2249
734.30 0.2248
734.40 0.2247
734.50 0.2246
734.60 0.2245
734.70 0.2243
734.80 0.2242
734.90 0.2241
735.00 0.224
735.10 0.2239
735.20 0.2237
735.30 0.2236
735.40 0.2235
735.50 0.2234
735.60 0.2233
735.70 0.2231
735.80 0.223
735.90 0.2229
736.00 0.2228
736.10 0.2227
736.20 0.2226
736.30 0.2224
736.40 0.2223
736.50 0.2222
736.60 0.2221
736.70 0.222
736.80 0.2218
736.90 0.2217
737.00 0.2216
737.10 0.2215
737.20 0.2214
737.30 0.2213
737.40 0.2211
737.50 0.221
737.60 0.2209
737.70 0.2208
737.80 0.2207
737.90 0.2206
738.00 0.2204
738.10 0.2203
738.20 0.2202
738.30 0.2201
738.40 0.22
738.50 0.2199
738.60 0.2197
738.70 0.2196
738.80 0.2195
738.90 0.2194
739.00 0.2193
739.10 0.2192
739.20 0.219
739.30 0.2189
739.40 0.2188
739.50 0.2187
739.60 0.2186
739.70 0.2185
739.80 0.2183
739.90 0.2182
740.00 0.2181
740.10 0.218
740.20 0.2179
740.30 0.2178
740.40 0.2176
740.50 0.2175
740.60 0.2174
740.70 0.2173
740.80 0.2172
740.90 0.2171
741.00 0.217
741.10 0.2169
741.20 0.2167
741.30 0.2166
741.40 0.2165
741.50 0.2164
741.60 0.2163
741.70 0.2162
741.80 0.2161
741.90 0.2159
742.00 0.2158
742.10 0.2157
742.20 0.2156
742.30 0.2155
742.40 0.2154
742.50 0.2153
742.60 0.2152
742.70 0.215
742.80 0.2149
742.90 0.2148
743.00 0.2147
743.10 0.2146
743.20 0.2145
743.30 0.2144
743.40 0.2143
743.50 0.2141
743.60 0.214
743.70 0.2139
743.80 0.2138
743.90 0.2137
744.00 0.2136
744.10 0.2135
744.20 0.2134
744.30 0.2133
744.40 0.2131
744.50 0.213
744.60 0.2129
744.70 0.2128
744.80 0.2127
744.90 0.2126
745.00 0.2125
745.10 0.2124
745.20 0.2123
745.30 0.2121
745.40 0.212
745.50 0.2119
745.60 0.2118
745.70 0.2117
745.80 0.2116
745.90 0.2115
746.00 0.2114
746.10 0.2113
746.20 0.2111
746.30 0.211
746.40 0.2109
746.50 0.2108
746.60 0.2107
746.70 0.2106
746.80 0.2105
746.90 0.2104
747.00 0.2103
747.10 0.2101
747.20 0.21
747.30 0.2099
747.40 0.2098
747.50 0.2097
747.60 0.2096
747.70 0.2095
747.80 0.2094
747.90 0.2093
748.00 0.2092
748.10 0.209
748.20 0.2089
748.30 0.2088
748.40 0.2087
748.50 0.2086
748.60 0.2085
748.70 0.2084
748.80 0.2083
748.90 0.2082
749.00 0.2081
749.10 0.208
749.20 0.2078
749.30 0.2077
749.40 0.2076
749.50 0.2075
749.60 0.2074
749.70 0.2073
749.80 0.2072
749.90 0.2071
750.00 0.207
750.10 0.2069
750.20 0.2068
750.30 0.2067
750.40 0.2065
750.50 0.2064
750.60 0.2063
750.70 0.2062
750.80 0.2061
750.90 0.206
751.00 0.2059
751.10 0.2058
751.20 0.2057
751.30 0.2056
751.40 0.2055
751.50 0.2054
751.60 0.2053
751.70 0.2052
751.80 0.2051
751.90 0.205
752.00 0.2049
752.10 0.2047
752.20 0.2046
752.30 0.2045
752.40 0.2044
752.50 0.2043
752.60 0.2042
752.70 0.2041
752.80 0.204
752.90 0.2039
753.00 0.2038
753.10 0.2037
753.20 0.2036
753.30 0.2035
753.40 0.2034
753.50 0.2033
753.60 0.2032
753.70 0.2031
753.80 0.203
753.90 0.2029
754.00 0.2027
754.10 0.2026
754.20 0.2025
754.30 0.2024
754.40 0.2023
754.50 0.2022
754.60 0.2021
754.70 0.202
754.80 0.2019
754.90 0.2018
755.00 0.2017
755.10 0.2016
755.20 0.2015
755.30 0.2014
755.40 0.2013
755.50 0.2012
755.60 0.2011
755.70 0.201
755.80 0.2009
755.90 0.2008
756.00 0.2007
756.10 0.2006
756.20 0.2005
756.30 0.2004
756.40 0.2002
756.50 0.2001
756.60 0.2
756.70 0.1999
756.80 0.1998
756.90 0.1997
757.00 0.1996
757.10 0.1995
757.20 0.1994
757.30 0.1993
757.40 0.1992
757.50 0.1991
757.60 0.199
757.70 0.1989
757.80 0.1988
757.90 0.1987
758.00 0.1986
758.10 0.1985
758.20 0.1984
758.30 0.1983
758.40 0.1982
758.50 0.1981
758.60 0.198
758.70 0.1979
758.80 0.1978
758.90 0.1977
759.00 0.1976
759.10 0.1975
759.20 0.1974
759.30 0.1973
759.40 0.1972
759.50 0.1971
759.60 0.197
759.70 0.1969
759.80 0.1968
759.90 0.1967
760.00 0.1965
760.10 0.1964
760.20 0.1963
760.30 0.1962
760.40 0.1961
760.50 0.1961
760.60 0.196
760.70 0.1959
760.80 0.1958
760.90 0.1957
761.00 0.1956
761.10 0.1955
761.20 0.1954
761.30 0.1953
761.40 0.1952
761.50 0.1951
761.60 0.195
761.70 0.1949
761.80 0.1948
761.90 0.1947
762.00 0.1946
762.10 0.1945
762.20 0.1944
762.30 0.1943
762.40 0.1942
762.50 0.1941
762.60 0.194
762.70 0.1939
762.80 0.1938
762.90 0.1937
763.00 0.1936
763.10 0.1935
763.20 0.1934
763.30 0.1933
763.40 0.1932
763.50 0.1931
763.60 0.193
763.70 0.1929
763.80 0.1928
763.90 0.1927
764.00 0.1926
764.10 0.1925
764.20 0.1924
764.30 0.1923
764.40 0.1922
764.50 0.1921
764.60 0.192
764.70 0.1919
764.80 0.1918
764.90 0.1917
765.00 0.1916
765.10 0.1915
765.20 0.1914
765.30 0.1913
765.40 0.1912
765.50 0.1911
765.60 0.191
765.70 0.1909
765.80 0.1908
765.90 0.1907
766.00 0.1906
766.10 0.1905
766.20 0.1904
766.30 0.1903
766.40 0.1902
766.50 0.1901
766.60 0.19
766.70 0.19
766.80 0.1899
766.90 0.1898
767.00 0.1897
767.10 0.1896
767.20 0.1895
767.30 0.1894
767.40 0.1893
767.50 0.1892
767.60 0.1891
767.70 0.189
767.80 0.1889
767.90 0.1888
768.00 0.1887
768.10 0.1886
768.20 0.1885
768.30 0.1884
768.40 0.1883
768.50 0.1882
768.60 0.1881
768.70 0.188
768.80 0.1879
768.90 0.1878
769.00 0.1877
769.10 0.1876
769.20 0.1875
769.30 0.1874
769.40 0.1873
769.50 0.1873
769.60 0.1872
769.70 0.1871
769.80 0.187
769.90 0.1869
770.00 0.1868
770.10 0.1867
770.20 0.1866
770.30 0.1865
770.40 0.1864
770.50 0.1863
770.60 0.1862
770.70 0.1861
770.80 0.186
770.90 0.1859
771.00 0.1858
771.10 0.1857
771.20 0.1857
771.30 0.1856
771.40 0.1855
771.50 0.1854
771.60 0.1853
771.70 0.1852
771.80 0.1851
771.90 0.185
772.00 0.1849
772.10 0.1848
772.20 0.1847
772.30 0.1846
772.40 0.1845
772.50 0.1844
772.60 0.1843
772.70 0.1843
772.80 0.1842
772.90 0.1841
773.00 0.184
773.10 0.1839
773.20 0.1838
773.30 0.1837
773.40 0.1836
773.50 0.1835
773.60 0.1834
773.70 0.1833
773.80 0.1832
773.90 0.1831
774.00 0.1831
774.10 0.183
774.20 0.1829
774.30 0.1828
774.40 0.1827
774.50 0.1826
774.60 0.1825
774.70 0.1824
774.80 0.1823
774.90 0.1822
775.00 0.1821
775.10 0.182
775.20 0.182
775.30 0.1819
775.40 0.1818
775.50 0.1817
775.60 0.1816
775.70 0.1815
775.80 0.1814
775.90 0.1813
776.00 0.1812
776.10 0.1811
776.20 0.181
776.30 0.1809
776.40 0.1809
776.50 0.1808
776.60 0.1807
776.70 0.1806
776.80 0.1805
776.90 0.1804
777.00 0.1803
777.10 0.1802
777.20 0.1801
777.30 0.18
777.40 0.1799
777.50 0.1799
777.60 0.1798
777.70 0.1797
777.80 0.1796
777.90 0.1795
778.00 0.1794
778.10 0.1793
778.20 0.1792
778.30 0.1791
778.40 0.179
778.50 0.1789
778.60 0.1789
778.70 0.1788
778.80 0.1787
778.90 0.1786
779.00 0.1785
779.10 0.1784
779.20 0.1783
779.30 0.1782
779.40 0.1781
779.50 0.178
779.60 0.178
779.70 0.1779
779.80 0.1778
779.90 0.1777
780.00 0.1776
780.10 0.1775
780.20 0.1774
780.30 0.1773
780.40 0.1772
780.50 0.1772
780.60 0.1771
780.70 0.177
780.80 0.1769
780.90 0.1768
781.00 0.1767
781.10 0.1766
781.20 0.1765
781.30 0.1765
781.40 0.1764
781.50 0.1763
781.60 0.1762
781.70 0.1761
781.80 0.176
781.90 0.1759
782.00 0.1758
782.10 0.1758
782.20 0.1757
782.30 0.1756
782.40 0.1755
782.50 0.1754
782.60 0.1753
782.70 0.1752
782.80 0.1751
782.90 0.1751
783.00 0.175
783.10 0.1749
783.20 0.1748
783.30 0.1747
783.40 0.1746
783.50 0.1745
783.60 0.1745
783.70 0.1744
783.80 0.1743
783.90 0.1742
784.00 0.1741
784.10 0.174
784.20 0.1739
784.30 0.1738
784.40 0.1738
784.50 0.1737
784.60 0.1736
784.70 0.1735
784.80 0.1734
784.90 0.1733
785.00 0.1732
785.10 0.1732
785.20 0.1731
785.30 0.173
785.40 0.1729
785.50 0.1728
785.60 0.1727
785.70 0.1726
785.80 0.1726
785.90 0.1725
786.00 0.1724
786.10 0.1723
786.20 0.1722
786.30 0.1721
786.40 0.172
786.50 0.172
786.60 0.1719
786.70 0.1718
786.80 0.1717
786.90 0.1716
787.00 0.1715
787.10 0.1714
787.20 0.1714
787.30 0.1713
787.40 0.1712
787.50 0.1711
787.60 0.171
787.70 0.1709
787.80 0.1708
787.90 0.1708
788.00 0.1707
788.10 0.1706
788.20 0.1705
788.30 0.1704
788.40 0.1703
788.50 0.1702
788.60 0.1702
788.70 0.1701
788.80 0.17
788.90 0.1699
789.00 0.1698
789.10 0.1697
789.20 0.1697
789.30 0.1696
789.40 0.1695
789.50 0.1694
789.60 0.1693
789.70 0.1692
789.80 0.1691
789.90 0.1691
790.00 0.169
790.10 0.1689
790.20 0.1688
790.30 0.1687
790.40 0.1686
790.50 0.1686
790.60 0.1685
790.70 0.1684
790.80 0.1683
790.90 0.1682
791.00 0.1682
791.10 0.1681
791.20 0.168
791.30 0.1679
791.40 0.1678
791.50 0.1677
791.60 0.1677
791.70 0.1676
791.80 0.1675
791.90 0.1674
792.00 0.1673
792.10 0.1672
792.20 0.1672
792.30 0.1671
792.40 0.167
792.50 0.1669
792.60 0.1668
792.70 0.1668
792.80 0.1667
792.90 0.1666
793.00 0.1665
793.10 0.1664
793.20 0.1663
793.30 0.1663
793.40 0.1662
793.50 0.1661
793.60 0.166
793.70 0.1659
793.80 0.1659
793.90 0.1658
794.00 0.1657
794.10 0.1656
794.20 0.1655
794.30 0.1655
794.40 0.1654
794.50 0.1653
794.60 0.1652
794.70 0.1651
794.80 0.165
794.90 0.165
795.00 0.1649
795.10 0.1648
795.20 0.1647
795.30 0.1646
795.40 0.1646
795.50 0.1645
795.60 0.1644
795.70 0.1643
795.80 0.1642
795.90 0.1642
796.00 0.1641
796.10 0.164
796.20 0.1639
796.30 0.1638
796.40 0.1638
796.50 0.1637
796.60 0.1636
796.70 0.1635
796.80 0.1634
796.90 0.1634
797.00 0.1633
797.10 0.1632
797.20 0.1631
797.30 0.163
797.40 0.163
797.50 0.1629
797.60 0.1628
797.70 0.1627
797.80 0.1626
797.90 0.1626
798.00 0.1625
798.10 0.1624
798.20 0.1623
798.30 0.1622
798.40 0.1622
798.50 0.1621
798.60 0.162
798.70 0.1619
798.80 0.1618
798.90 0.1618
799.00 0.1617
799.10 0.1616
799.20 0.1615
799.30 0.1614
799.40 0.1614
799.50 0.1613
799.60 0.1612
799.70 0.1611
799.80 0.161
799.90 0.161
800.00 0.1609
800.10 0.1608
800.20 0.1607
800.30 0.1606
800.40 0.1606
800.50 0.1605
800.60 0.1604
800.70 0.1603
800.80 0.1603
800.90 0.1602
801.00 0.1601
801.10 0.16
801.20 0.1599
801.30 0.1599
801.40 0.1598
801.50 0.1597
801.60 0.1596
801.70 0.1596
801.80 0.1595
801.90 0.1594
802.00 0.1593
802.10 0.1593
802.20 0.1592
802.30 0.1591
802.40 0.159
802.50 0.1589
802.60 0.1589
802.70 0.1588
802.80 0.1587
802.90 0.1586
803.00 0.1586
803.10 0.1585
803.20 0.1584
803.30 0.1583
803.40 0.1583
803.50 0.1582
803.60 0.1581
803.70 0.158
803.80 0.1579
803.90 0.1579
804.00 0.1578
804.10 0.1577
804.20 0.1576
804.30 0.1576
804.40 0.1575
804.50 0.1574
804.60 0.1573
804.70 0.1573
804.80 0.1572
804.90 0.1571
805.00 0.157
805.10 0.157
805.20 0.1569
805.30 0.1568
805.40 0.1567
805.50 0.1566
805.60 0.1566
805.70 0.1565
805.80 0.1564
805.90 0.1563
806.00 0.1563
806.10 0.1562
806.20 0.1561
806.30 0.156
806.40 0.156
806.50 0.1559
806.60 0.1558
806.70 0.1557
806.80 0.1557
806.90 0.1556
807.00 0.1555
807.10 0.1554
807.20 0.1554
807.30 0.1553
807.40 0.1552
807.50 0.1551
807.60 0.1551
807.70 0.155
807.80 0.1549
807.90 0.1548
808.00 0.1548
808.10 0.1547
808.20 0.1546
808.30 0.1545
808.40 0.1545
808.50 0.1544
808.60 0.1543
808.70 0.1542
808.80 0.1542
808.90 0.1541
809.00 0.154
809.10 0.1539
809.20 0.1539
809.30 0.1538
809.40 0.1537
809.50 0.1536
809.60 0.1536
809.70 0.1535
809.80 0.1534
809.90 0.1533
810.00 0.1533
810.10 0.1532
810.20 0.1531
810.30 0.153
810.40 0.153
810.50 0.1529
810.60 0.1528
810.70 0.1527
810.80 0.1527
810.90 0.1526
811.00 0.1525
811.10 0.1525
811.20 0.1524
811.30 0.1523
811.40 0.1522
811.50 0.1522
811.60 0.1521
811.70 0.152
811.80 0.1519
811.90 0.1519
812.00 0.1518
812.10 0.1517
812.20 0.1517
812.30 0.1516
812.40 0.1515
812.50 0.1514
812.60 0.1514
812.70 0.1513
812.80 0.1512
812.90 0.1511
813.00 0.1511
813.10 0.151
813.20 0.1509
813.30 0.1509
813.40 0.1508
813.50 0.1507
813.60 0.1506
813.70 0.1506
813.80 0.1505
813.90 0.1504
814.00 0.1504
814.10 0.1503
814.20 0.1502
814.30 0.1501
814.40 0.1501
814.50 0.15
814.60 0.1499
814.70 0.1499
814.80 0.1498
814.90 0.1497
815.00 0.1496
815.10 0.1496
815.20 0.1495
815.30 0.1494
815.40 0.1493
815.50 0.1493
815.60 0.1492
815.70 0.1491
815.80 0.1491
815.90 0.149
816.00 0.1489
816.10 0.1488
816.20 0.1488
816.30 0.1487
816.40 0.1486
816.50 0.1486
816.60 0.1485
816.70 0.1484
816.80 0.1484
816.90 0.1483
817.00 0.1482
817.10 0.1481
817.20 0.1481
817.30 0.148
817.40 0.1479
817.50 0.1479
817.60 0.1478
817.70 0.1477
817.80 0.1476
817.90 0.1476
818.00 0.1475
818.10 0.1474
818.20 0.1474
818.30 0.1473
818.40 0.1472
818.50 0.1471
818.60 0.1471
818.70 0.147
818.80 0.1469
818.90 0.1469
819.00 0.1468
819.10 0.1467
819.20 0.1467
819.30 0.1466
819.40 0.1465
819.50 0.1464
819.60 0.1464
819.70 0.1463
819.80 0.1462
819.90 0.1462
820.00 0.1461
820.10 0.146
820.20 0.1459
820.30 0.1459
820.40 0.1458
820.50 0.1457
820.60 0.1457
820.70 0.1456
820.80 0.1455
820.90 0.1455
821.00 0.1454
821.10 0.1453
821.20 0.1453
821.30 0.1452
821.40 0.1451
821.50 0.145
821.60 0.145
821.70 0.1449
821.80 0.1448
821.90 0.1448
822.00 0.1447
822.10 0.1446
822.20 0.1446
822.30 0.1445
822.40 0.1444
822.50 0.1444
822.60 0.1443
822.70 0.1442
822.80 0.1442
822.90 0.1441
823.00 0.144
823.10 0.144
823.20 0.1439
823.30 0.1438
823.40 0.1437
823.50 0.1437
823.60 0.1436
823.70 0.1435
823.80 0.1435
823.90 0.1434
824.00 0.1433
824.10 0.1433
824.20 0.1432
824.30 0.1431
824.40 0.1431
824.50 0.143
824.60 0.1429
824.70 0.1429
824.80 0.1428
824.90 0.1427
825.00 0.1427
825.10 0.1426
825.20 0.1425
825.30 0.1425
825.40 0.1424
825.50 0.1423
825.60 0.1423
825.70 0.1422
825.80 0.1421
825.90 0.1421
826.00 0.142
826.10 0.1419
826.20 0.1419
826.30 0.1418
826.40 0.1417
826.50 0.1417
826.60 0.1416
826.70 0.1415
826.80 0.1415
826.90 0.1414
827.00 0.1413
827.10 0.1412
827.20 0.1412
827.30 0.1411
827.40 0.1411
827.50 0.141
827.60 0.1409
827.70 0.1409
827.80 0.1408
827.90 0.1407
828.00 0.1407
828.10 0.1406
828.20 0.1405
828.30 0.1405
828.40 0.1404
828.50 0.1403
828.60 0.1403
828.70 0.1402
828.80 0.1401
828.90 0.1401
829.00 0.14
829.10 0.1399
829.20 0.1399
829.30 0.1398
829.40 0.1397
829.50 0.1397
829.60 0.1396
829.70 0.1395
829.80 0.1395
829.90 0.1394
830.00 0.1393
830.10 0.1393
830.20 0.1392
830.30 0.1391
830.40 0.1391
830.50 0.139
830.60 0.1389
830.70 0.1389
830.80 0.1388
830.90 0.1387
831.00 0.1387
831.10 0.1386
831.20 0.1385
831.30 0.1385
831.40 0.1384
831.50 0.1384
831.60 0.1383
831.70 0.1382
831.80 0.1382
831.90 0.1381
832.00 0.138
832.10 0.138
832.20 0.1379
832.30 0.1378
832.40 0.1378
832.50 0.1377
832.60 0.1376
832.70 0.1376
832.80 0.1375
832.90 0.1374
833.00 0.1374
833.10 0.1373
833.20 0.1373
833.30 0.1372
833.40 0.1371
833.50 0.1371
833.60 0.137
833.70 0.1369
833.80 0.1369
833.90 0.1368
834.00 0.1367
834.10 0.1367
834.20 0.1366
834.30 0.1365
834.40 0.1365
834.50 0.1364
834.60 0.1364
834.70 0.1363
834.80 0.1362
834.90 0.1362
835.00 0.1361
835.10 0.136
835.20 0.136
835.30 0.1359
835.40 0.1358
835.50 0.1358
835.60 0.1357
835.70 0.1357
835.80 0.1356
835.90 0.1355
836.00 0.1355
836.10 0.1354
836.20 0.1353
836.30 0.1353
836.40 0.1352
836.50 0.1351
836.60 0.1351
836.70 0.135
836.80 0.135
836.90 0.1349
837.00 0.1348
837.10 0.1348
837.20 0.1347
837.30 0.1346
837.40 0.1346
837.50 0.1345
837.60 0.1345
837.70 0.1344
837.80 0.1343
837.90 0.1343
838.00 0.1342
838.10 0.1341
838.20 0.1341
838.30 0.134
838.40 0.134
838.50 0.1339
838.60 0.1338
838.70 0.1338
838.80 0.1337
838.90 0.1336
839.00 0.1336
839.10 0.1335
839.20 0.1335
839.30 0.1334
839.40 0.1333
839.50 0.1333
839.60 0.1332
839.70 0.1331
839.80 0.1331
839.90 0.133
840.00 0.133
840.10 0.1329
840.20 0.1328
840.30 0.1328
840.40 0.1327
840.50 0.1327
840.60 0.1326
840.70 0.1325
840.80 0.1325
840.90 0.1324
841.00 0.1323
841.10 0.1323
841.20 0.1322
841.30 0.1322
841.40 0.1321
841.50 0.132
841.60 0.132
841.70 0.1319
841.80 0.1318
841.90 0.1318
842.00 0.1317
842.10 0.1317
842.20 0.1316
842.30 0.1315
842.40 0.1315
842.50 0.1314
842.60 0.1314
842.70 0.1313
842.80 0.1312
842.90 0.1312
843.00 0.1311
843.10 0.1311
843.20 0.131
843.30 0.1309
843.40 0.1309
843.50 0.1308
843.60 0.1308
843.70 0.1307
843.80 0.1306
843.90 0.1306
844.00 0.1305
844.10 0.1305
844.20 0.1304
844.30 0.1303
844.40 0.1303
844.50 0.1302
844.60 0.1301
844.70 0.1301
844.80 0.13
844.90 0.13
845.00 0.1299
845.10 0.1298
845.20 0.1298
845.30 0.1297
845.40 0.1297
845.50 0.1296
845.60 0.1295
845.70 0.1295
845.80 0.1294
845.90 0.1294
846.00 0.1293
846.10 0.1292
846.20 0.1292
846.30 0.1291
846.40 0.1291
846.50 0.129
846.60 0.1289
846.70 0.1289
846.80 0.1288
846.90 0.1288
847.00 0.1287
847.10 0.1286
847.20 0.1286
847.30 0.1285
847.40 0.1285
847.50 0.1284
847.60 0.1284
847.70 0.1283
847.80 0.1282
847.90 0.1282
848.00 0.1281
848.10 0.1281
848.20 0.128
848.30 0.1279
848.40 0.1279
848.50 0.1278
848.60 0.1278
848.70 0.1277
848.80 0.1276
848.90 0.1276
849.00 0.1275
849.10 0.1275
849.20 0.1274
849.30 0.1274
849.40 0.1273
849.50 0.1272
849.60 0.1272
849.70 0.1271
849.80 0.1271
849.90 0.127
850.00 0.1269
850.10 0.1269
850.20 0.1268
850.30 0.1268
850.40 0.1267
850.50 0.1267
850.60 0.1266
850.70 0.1265
850.80 0.1265
850.90 0.1264
851.00 0.1264
851.10 0.1263
851.20 0.1262
851.30 0.1262
851.40 0.1261
851.50 0.1261
851.60 0.126
851.70 0.126
851.80 0.1259
851.90 0.1258
852.00 0.1258
852.10 0.1257
852.20 0.1257
852.30 0.1256
852.40 0.1255
852.50 0.1255
852.60 0.1254
852.70 0.1254
852.80 0.1253
852.90 0.1253
853.00 0.1252
853.10 0.1251
853.20 0.1251
853.30 0.125
853.40 0.125
853.50 0.1249
853.60 0.1249
853.70 0.1248
853.80 0.1247
853.90 0.1247
854.00 0.1246
854.10 0.1246
854.20 0.1245
854.30 0.1245
854.40 0.1244
854.50 0.1243
854.60 0.1243
854.70 0.1242
854.80 0.1242
854.90 0.1241
855.00 0.1241
855.10 0.124
855.20 0.1239
855.30 0.1239
855.40 0.1238
855.50 0.1238
855.60 0.1237
855.70 0.1237
855.80 0.1236
855.90 0.1236
856.00 0.1235
856.10 0.1234
856.20 0.1234
856.30 0.1233
856.40 0.1233
856.50 0.1232
856.60 0.1232
856.70 0.1231
856.80 0.123
856.90 0.123
857.00 0.1229
857.10 0.1229
857.20 0.1228
857.30 0.1228
857.40 0.1227
857.50 0.1227
857.60 0.1226
857.70 0.1225
857.80 0.1225
857.90 0.1224
858.00 0.1224
858.10 0.1223
858.20 0.1223
858.30 0.1222
858.40 0.1222
858.50 0.1221
858.60 0.122
858.70 0.122
858.80 0.1219
858.90 0.1219
859.00 0.1218
859.10 0.1218
859.20 0.1217
859.30 0.1217
859.40 0.1216
859.50 0.1215
859.60 0.1215
859.70 0.1214
859.80 0.1214
859.90 0.1213
860.00 0.1213
860.10 0.1212
860.20 0.1212
860.30 0.1211
860.40 0.121
860.50 0.121
860.60 0.1209
860.70 0.1209
860.80 0.1208
860.90 0.1208
861.00 0.1207
861.10 0.1207
861.20 0.1206
861.30 0.1206
861.40 0.1205
861.50 0.1204
861.60 0.1204
861.70 0.1203
861.80 0.1203
861.90 0.1202
862.00 0.1202
862.10 0.1201
862.20 0.1201
862.30 0.12
862.40 0.12
862.50 0.1199
862.60 0.1198
862.70 0.1198
862.80 0.1197
862.90 0.1197
863.00 0.1196
863.10 0.1196
863.20 0.1195
863.30 0.1195
863.40 0.1194
863.50 0.1194
863.60 0.1193
863.70 0.1192
863.80 0.1192
863.90 0.1191
864.00 0.1191
864.10 0.119
864.20 0.119
864.30 0.1189
864.40 0.1189
864.50 0.1188
864.60 0.1188
864.70 0.1187
864.80 0.1187
864.90 0.1186
865.00 0.1185
865.10 0.1185
865.20 0.1184
865.30 0.1184
865.40 0.1183
865.50 0.1183
865.60 0.1182
865.70 0.1182
865.80 0.1181
865.90 0.1181
866.00 0.118
866.10 0.118
866.20 0.1179
866.30 0.1179
866.40 0.1178
866.50 0.1177
866.60 0.1177
866.70 0.1176
866.80 0.1176
866.90 0.1175
867.00 0.1175
867.10 0.1174
867.20 0.1174
867.30 0.1173
867.40 0.1173
867.50 0.1172
867.60 0.1172
867.70 0.1171
867.80 0.1171
867.90 0.117
868.00 0.117
868.10 0.1169
868.20 0.1168
868.30 0.1168
868.40 0.1167
868.50 0.1167
868.60 0.1166
868.70 0.1166
868.80 0.1165
868.90 0.1165
869.00 0.1164
869.10 0.1164
869.20 0.1163
869.30 0.1163
869.40 0.1162
869.50 0.1162
869.60 0.1161
869.70 0.1161
869.80 0.116
869.90 0.116
870.00 0.1159
870.10 0.1159
870.20 0.1158
870.30 0.1157
870.40 0.1157
870.50 0.1156
870.60 0.1156
870.70 0.1155
870.80 0.1155
870.90 0.1154
871.00 0.1154
871.10 0.1153
871.20 0.1153
871.30 0.1152
871.40 0.1152
871.50 0.1151
871.60 0.1151
871.70 0.115
871.80 0.115
871.90 0.1149
872.00 0.1149
872.10 0.1148
872.20 0.1148
872.30 0.1147
872.40 0.1147
872.50 0.1146
872.60 0.1146
872.70 0.1145
872.80 0.1145
872.90 0.1144
873.00 0.1144
873.10 0.1143
873.20 0.1143
873.30 0.1142
873.40 0.1141
873.50 0.1141
873.60 0.114
873.70 0.114
873.80 0.1139
873.90 0.1139
874.00 0.1138
874.10 0.1138
874.20 0.1137
874.30 0.1137
874.40 0.1136
874.50 0.1136
874.60 0.1135
874.70 0.1135
874.80 0.1134
874.90 0.1134
875.00 0.1133
875.10 0.1133
875.20 0.1132
875.30 0.1132
875.40 0.1131
875.50 0.1131
875.60 0.113
875.70 0.113
875.80 0.1129
875.90 0.1129
876.00 0.1128
876.10 0.1128
876.20 0.1127
876.30 0.1127
876.40 0.1126
876.50 0.1126
876.60 0.1125
876.70 0.1125
876.80 0.1124
876.90 0.1124
877.00 0.1123
877.10 0.1123
877.20 0.1122
877.30 0.1122
877.40 0.1121
877.50 0.1121
877.60 0.112
877.70 0.112
877.80 0.1119
877.90 0.1119
878.00 0.1118
878.10 0.1118
878.20 0.1117
878.30 0.1117
878.40 0.1116
878.50 0.1116
878.60 0.1115
878.70 0.1115
878.80 0.1114
878.90 0.1114
879.00 0.1113
879.10 0.1113
879.20 0.1112
879.30 0.1112
879.40 0.1111
879.50 0.1111
879.60 0.111
879.70 0.111
879.80 0.1109
879.90 0.1109
880.00 0.1108
880.10 0.1108
880.20 0.1107
880.30 0.1107
880.40 0.1106
880.50 0.1106
880.60 0.1105
880.70 0.1105
880.80 0.1104
880.90 0.1104
881.00 0.1103
881.10 0.1103
881.20 0.1102
881.30 0.1102
881.40 0.1101
881.50 0.1101
881.60 0.11
881.70 0.11
881.80 0.11
881.90 0.1099
882.00 0.1099
882.10 0.1098
882.20 0.1098
882.30 0.1097
882.40 0.1097
882.50 0.1096
882.60 0.1096
882.70 0.1095
882.80 0.1095
882.90 0.1094
883.00 0.1094
883.10 0.1093
883.20 0.1093
883.30 0.1092
883.40 0.1092
883.50 0.1091
883.60 0.1091
883.70 0.109
883.80 0.109
883.90 0.1089
884.00 0.1089
884.10 0.1088
884.20 0.1088
884.30 0.1087
884.40 0.1087
884.50 0.1086
884.60 0.1086
884.70 0.1085
884.80 0.1085
884.90 0.1085
885.00 0.1084
885.10 0.1084
885.20 0.1083
885.30 0.1083
885.40 0.1082
885.50 0.1082
885.60 0.1081
885.70 0.1081
885.80 0.108
885.90 0.108
886.00 0.1079
886.10 0.1079
886.20 0.1078
886.30 0.1078
886.40 0.1077
886.50 0.1077
886.60 0.1076
886.70 0.1076
886.80 0.1075
886.90 0.1075
887.00 0.1075
887.10 0.1074
887.20 0.1074
887.30 0.1073
887.40 0.1073
887.50 0.1072
887.60 0.1072
887.70 0.1071
887.80 0.1071
887.90 0.107
888.00 0.107
888.10 0.1069
888.20 0.1069
888.30 0.1068
888.40 0.1068
888.50 0.1067
888.60 0.1067
888.70 0.1066
888.80 0.1066
888.90 0.1066
889.00 0.1065
889.10 0.1065
889.20 0.1064
889.30 0.1064
889.40 0.1063
889.50 0.1063
889.60 0.1062
889.70 0.1062
889.80 0.1061
889.90 0.1061
890.00 0.106
890.10 0.106
890.20 0.1059
890.30 0.1059
890.40 0.1059
890.50 0.1058
890.60 0.1058
890.70 0.1057
890.80 0.1057
890.90 0.1056
891.00 0.1056
891.10 0.1055
891.20 0.1055
891.30 0.1054
891.40 0.1054
891.50 0.1053
891.60 0.1053
891.70 0.1053
891.80 0.1052
891.90 0.1052
892.00 0.1051
892.10 0.1051
892.20 0.105
892.30 0.105
892.40 0.1049
892.50 0.1049
892.60 0.1048
892.70 0.1048
892.80 0.1047
892.90 0.1047
893.00 0.1047
893.10 0.1046
893.20 0.1046
893.30 0.1045
893.40 0.1045
893.50 0.1044
893.60 0.1044
893.70 0.1043
893.80 0.1043
893.90 0.1042
894.00 0.1042
894.10 0.1042
894.20 0.1041
894.30 0.1041
894.40 0.104
894.50 0.104
894.60 0.1039
894.70 0.1039
894.80 0.1038
894.90 0.1038
895.00 0.1037
895.10 0.1037
895.20 0.1037
895.30 0.1036
895.40 0.1036
895.50 0.1035
895.60 0.1035
895.70 0.1034
895.80 0.1034
895.90 0.1033
896.00 0.1033
896.10 0.1032
896.20 0.1032
896.30 0.1032
896.40 0.1031
896.50 0.1031
896.60 0.103
896.70 0.103
896.80 0.1029
896.90 0.1029
897.00 0.1028
897.10 0.1028
897.20 0.1028
897.30 0.1027
897.40 0.1027
897.50 0.1026
897.60 0.1026
897.70 0.1025
897.80 0.1025
897.90 0.1024
898.00 0.1024
898.10 0.1024
898.20 0.1023
898.30 0.1023
898.40 0.1022
898.50 0.1022
898.60 0.1021
898.70 0.1021
898.80 0.102
898.90 0.102
899.00 0.102
899.10 0.1019
899.20 0.1019
899.30 0.1018
899.40 0.1018
899.50 0.1017
899.60 0.1017
899.70 0.1016
899.80 0.1016
899.90 0.1016
900.00 0.1015
900.10 0.1015
900.20 0.1014
900.30 0.1014
900.40 0.1013
900.50 0.1013
900.60 0.1012
900.70 0.1012
900.80 0.1012
900.90 0.1011
901.00 0.1011
901.10 0.101
901.20 0.101
901.30 0.1009
901.40 0.1009
901.50 0.1009
901.60 0.1008
901.70 0.1008
901.80 0.1007
901.90 0.1007
902.00 0.1006
902.10 0.1006
902.20 0.1005
902.30 0.1005
902.40 0.1005
902.50 0.1004
902.60 0.1004
902.70 0.1003
902.80 0.1003
902.90 0.1002
903.00 0.1002
903.10 0.1002
903.20 0.1001
903.30 0.1001
903.40 0.1
903.50 0.09998
903.60 0.09994
903.70 0.0999
903.80 0.09985
903.90 0.09981
904.00 0.09977
904.10 0.09972
904.20 0.09968
904.30 0.09964
904.40 0.09959
904.50 0.09955
904.60 0.09951
904.70 0.09946
904.80 0.09942
904.90 0.09938
905.00 0.09933
905.10 0.09929
905.20 0.09925
905.30 0.09921
905.40 0.09916
905.50 0.09912
905.60 0.09908
905.70 0.09903
905.80 0.09899
905.90 0.09895
906.00 0.0989
906.10 0.09886
906.20 0.09882
906.30 0.09878
906.40 0.09873
906.50 0.09869
906.60 0.09865
906.70 0.09861
906.80 0.09856
906.90 0.09852
907.00 0.09848
907.10 0.09843
907.20 0.09839
907.30 0.09835
907.40 0.09831
907.50 0.09827
907.60 0.09822
907.70 0.09818
907.80 0.09814
907.90 0.0981
908.00 0.09805
908.10 0.09801
908.20 0.09797
908.30 0.09793
908.40 0.09789
908.50 0.09784
908.60 0.0978
908.70 0.09776
908.80 0.09772
908.90 0.09768
909.00 0.09763
909.10 0.09759
909.20 0.09755
909.30 0.09751
909.40 0.09747
909.50 0.09742
909.60 0.09738
909.70 0.09734
909.80 0.0973
909.90 0.09726
910.00 0.09722
910.10 0.09717
910.20 0.09713
910.30 0.09709
910.40 0.09705
910.50 0.09701
910.60 0.09696
910.70 0.09692
910.80 0.09688
910.90 0.09684
911.00 0.0968
911.10 0.09676
911.20 0.09671
911.30 0.09667
911.40 0.09663
911.50 0.09659
911.60 0.09655
911.70 0.09651
911.80 0.09647
911.90 0.09642
912.00 0.09638
912.10 0.09634
912.20 0.0963
912.30 0.09626
912.40 0.09622
912.50 0.09618
912.60 0.09614
912.70 0.0961
912.80 0.09605
912.90 0.09601
913.00 0.09597
913.10 0.09593
913.20 0.09589
913.30 0.09585
913.40 0.09581
913.50 0.09577
913.60 0.09573
913.70 0.09569
913.80 0.09565
913.90 0.0956
914.00 0.09556
914.10 0.09552
914.20 0.09548
914.30 0.09544
914.40 0.0954
914.50 0.09536
914.60 0.09532
914.70 0.09528
914.80 0.09524
914.90 0.0952
915.00 0.09516
915.10 0.09512
915.20 0.09508
915.30 0.09504
915.40 0.09499
915.50 0.09495
915.60 0.09491
915.70 0.09487
915.80 0.09483
915.90 0.09479
916.00 0.09475
916.10 0.09471
916.20 0.09467
916.30 0.09463
916.40 0.09459
916.50 0.09455
916.60 0.09451
916.70 0.09447
916.80 0.09443
916.90 0.09439
917.00 0.09435
917.10 0.09431
917.20 0.09427
917.30 0.09423
917.40 0.09419
917.50 0.09415
917.60 0.09411
917.70 0.09407
917.80 0.09403
917.90 0.09399
918.00 0.09395
918.10 0.09391
918.20 0.09387
918.30 0.09383
918.40 0.09379
918.50 0.09375
918.60 0.09371
918.70 0.09367
918.80 0.09363
918.90 0.09359
919.00 0.09356
919.10 0.09352
919.20 0.09348
919.30 0.09344
919.40 0.0934
919.50 0.09336
919.60 0.09332
919.70 0.09328
919.80 0.09324
919.90 0.0932
920.00 0.09316
920.10 0.09312
920.20 0.09308
920.30 0.09304
920.40 0.093
920.50 0.09296
920.60 0.09293
920.70 0.09289
920.80 0.09285
920.90 0.09281
921.00 0.09277
921.10 0.09273
921.20 0.09269
921.30 0.09265
921.40 0.09261
921.50 0.09257
921.60 0.09253
921.70 0.09249
921.80 0.09246
921.90 0.09242
922.00 0.09238
922.10 0.09234
922.20 0.0923
922.30 0.09226
922.40 0.09222
922.50 0.09218
922.60 0.09214
922.70 0.0921
922.80 0.09206
922.90 0.09203
923.00 0.09199
923.10 0.09195
923.20 0.09191
923.30 0.09187
923.40 0.09183
923.50 0.09179
923.60 0.09175
923.70 0.09171
923.80 0.09167
923.90 0.09164
924.00 0.0916
924.10 0.09156
924.20 0.09152
924.30 0.09148
924.40 0.09144
924.50 0.0914
924.60 0.09136
924.70 0.09133
924.80 0.09129
924.90 0.09125
925.00 0.09121
925.10 0.09117
925.20 0.09113
925.30 0.09109
925.40 0.09105
925.50 0.09102
925.60 0.09098
925.70 0.09094
925.80 0.0909
925.90 0.09086
926.00 0.09082
926.10 0.09078
926.20 0.09075
926.30 0.09071
926.40 0.09067
926.50 0.09063
926.60 0.09059
926.70 0.09055
926.80 0.09051
926.90 0.09048
927.00 0.09044
927.10 0.0904
927.20 0.09036
927.30 0.09032
927.40 0.09029
927.50 0.09025
927.60 0.09021
927.70 0.09017
927.80 0.09013
927.90 0.0901
928.00 0.09006
928.10 0.09002
928.20 0.08998
928.30 0.08994
928.40 0.08991
928.50 0.08987
928.60 0.08983
928.70 0.08979
928.80 0.08975
928.90 0.08972
929.00 0.08968
929.10 0.08964
929.20 0.0896
929.30 0.08957
929.40 0.08953
929.50 0.08949
929.60 0.08945
929.70 0.08942
929.80 0.08938
929.90 0.08934
930.00 0.0893
930.10 0.08926
930.20 0.08923
930.30 0.08919
930.40 0.08915
930.50 0.08911
930.60 0.08908
930.70 0.08904
930.80 0.089
930.90 0.08896
931.00 0.08893
931.10 0.08889
931.20 0.08885
931.30 0.08881
931.40 0.08878
931.50 0.08874
931.60 0.0887
931.70 0.08866
931.80 0.08863
931.90 0.08859
932.00 0.08855
932.10 0.08852
932.20 0.08848
932.30 0.08844
932.40 0.0884
932.50 0.08837
932.60 0.08833
932.70 0.08829
932.80 0.08826
932.90 0.08822
933.00 0.08818
933.10 0.08814
933.20 0.08811
933.30 0.08807
933.40 0.08803
933.50 0.088
933.60 0.08796
933.70 0.08792
933.80 0.08789
933.90 0.08785
934.00 0.08781
934.10 0.08778
934.20 0.08774
934.30 0.0877
934.40 0.08767
934.50 0.08763
934.60 0.08759
934.70 0.08756
934.80 0.08752
934.90 0.08748
935.00 0.08745
935.10 0.08741
935.20 0.08737
935.30 0.08734
935.40 0.0873
935.50 0.08726
935.60 0.08723
935.70 0.08719
935.80 0.08715
935.90 0.08712
936.00 0.08708
936.10 0.08704
936.20 0.08701
936.30 0.08697
936.40 0.08694
936.50 0.0869
936.60 0.08686
936.70 0.08683
936.80 0.08679
936.90 0.08675
937.00 0.08672
937.10 0.08668
937.20 0.08664
937.30 0.08661
937.40 0.08657
937.50 0.08654
937.60 0.0865
937.70 0.08646
937.80 0.08643
937.90 0.08639
938.00 0.08636
938.10 0.08632
938.20 0.08628
938.30 0.08625
938.40 0.08621
938.50 0.08618
938.60 0.08614
938.70 0.0861
938.80 0.08607
938.90 0.08603
939.00 0.086
939.10 0.08596
939.20 0.08593
939.30 0.08589
939.40 0.08585
939.50 0.08582
939.60 0.08578
939.70 0.08575
939.80 0.08571
939.90 0.08568
940.00 0.08564
940.10 0.0856
940.20 0.08557
940.30 0.08553
940.40 0.0855
940.50 0.08546
940.60 0.08543
940.70 0.08539
940.80 0.08535
940.90 0.08532
941.00 0.08528
941.10 0.08525
941.20 0.08521
941.30 0.08518
941.40 0.08514
941.50 0.08511
941.60 0.08507
941.70 0.08504
941.80 0.085
941.90 0.08496
942.00 0.08493
942.10 0.08489
942.20 0.08486
942.30 0.08482
942.40 0.08479
942.50 0.08475
942.60 0.08472
942.70 0.08468
942.80 0.08465
942.90 0.08461
943.00 0.08458
943.10 0.08454
943.20 0.08451
943.30 0.08447
943.40 0.08444
943.50 0.0844
943.60 0.08437
943.70 0.08433
943.80 0.0843
943.90 0.08426
944.00 0.08423
944.10 0.08419
944.20 0.08416
944.30 0.08412
944.40 0.08409
944.50 0.08405
944.60 0.08402
944.70 0.08398
944.80 0.08395
944.90 0.08391
945.00 0.08388
945.10 0.08384
945.20 0.08381
945.30 0.08378
945.40 0.08374
945.50 0.08371
945.60 0.08367
945.70 0.08364
945.80 0.0836
945.90 0.08357
946.00 0.08353
946.10 0.0835
946.20 0.08346
946.30 0.08343
946.40 0.0834
946.50 0.08336
946.60 0.08333
946.70 0.08329
946.80 0.08326
946.90 0.08322
947.00 0.08319
947.10 0.08315
947.20 0.08312
947.30 0.08309
947.40 0.08305
947.50 0.08302
947.60 0.08298
947.70 0.08295
947.80 0.08292
947.90 0.08288
948.00 0.08285
948.10 0.08281
948.20 0.08278
948.30 0.08275
948.40 0.08271
948.50 0.08268
948.60 0.08264
948.70 0.08261
948.80 0.08258
948.90 0.08254
949.00 0.08251
949.10 0.08247
949.20 0.08244
949.30 0.08241
949.40 0.08237
949.50 0.08234
949.60 0.08231
949.70 0.08227
949.80 0.08224
949.90 0.0822
950.00 0.08217
950.10 0.08214
950.20 0.0821
950.30 0.08207
950.40 0.08204
950.50 0.082
950.60 0.08197
950.70 0.08194
950.80 0.0819
950.90 0.08187
951.00 0.08184
951.10 0.0818
951.20 0.08177
951.30 0.08174
951.40 0.0817
951.50 0.08167
951.60 0.08164
951.70 0.0816
951.80 0.08157
951.90 0.08154
952.00 0.08151
952.10 0.08147
952.20 0.08144
952.30 0.08141
952.40 0.08137
952.50 0.08134
952.60 0.08131
952.70 0.08128
952.80 0.08124
952.90 0.08121
953.00 0.08118
953.10 0.08114
953.20 0.08111
953.30 0.08108
953.40 0.08105
953.50 0.08102
953.60 0.08098
953.70 0.08095
953.80 0.08092
953.90 0.08089
954.00 0.08085
954.10 0.08082
954.20 0.08079
954.30 0.08076
954.40 0.08073
954.50 0.08069
954.60 0.08066
954.70 0.08063
954.80 0.08059
954.90 0.08056
955.00 0.08053
955.10 0.08049
955.20 0.08046
955.30 0.08042
955.40 0.08039
955.50 0.08036
955.60 0.08032
955.70 0.08029
955.80 0.08026
955.90 0.08022
956.00 0.08019
956.10 0.08016
956.20 0.08012
956.30 0.08009
956.40 0.08006
956.50 0.08002
956.60 0.07999
956.70 0.07996
956.80 0.07992
956.90 0.07989
957.00 0.07986
957.10 0.07982
957.20 0.07979
957.30 0.07976
957.40 0.07973
957.50 0.07969
957.60 0.07966
957.70 0.07963
957.80 0.0796
957.90 0.07956
958.00 0.07953
958.10 0.0795
958.20 0.07946
958.30 0.07943
958.40 0.0794
958.50 0.07937
958.60 0.07933
958.70 0.0793
958.80 0.07927
958.90 0.07924
959.00 0.0792
959.10 0.07917
959.20 0.07914
959.30 0.07911
959.40 0.07907
959.50 0.07904
959.60 0.07901
959.70 0.07898
959.80 0.07895
959.90 0.07891
960.00 0.07888
960.10 0.07885
960.20 0.07882
960.30 0.07879
960.40 0.07875
960.50 0.07872
960.60 0.07869
960.70 0.07866
960.80 0.07863
960.90 0.07859
961.00 0.07856
961.10 0.07853
961.20 0.0785
961.30 0.07847
961.40 0.07843
961.50 0.0784
961.60 0.07837
961.70 0.07834
961.80 0.07831
961.90 0.07827
962.00 0.07824
962.10 0.07821
962.20 0.07818
962.30 0.07815
962.40 0.07812
962.50 0.07808
962.60 0.07805
962.70 0.07802
962.80 0.07799
962.90 0.07796
963.00 0.07793
963.10 0.07789
963.20 0.07786
963.30 0.07783
963.40 0.0778
963.50 0.07777
963.60 0.07774
963.70 0.07771
963.80 0.07767
963.90 0.07764
964.00 0.07761
964.10 0.07758
964.20 0.07755
964.30 0.07752
964.40 0.07749
964.50 0.07746
964.60 0.07742
964.70 0.07739
964.80 0.07736
964.90 0.07733
965.00 0.0773
965.10 0.07727
965.20 0.07724
965.30 0.07721
965.40 0.07717
965.50 0.07714
965.60 0.07711
965.70 0.07708
965.80 0.07705
965.90 0.07702
966.00 0.07699
966.10 0.07696
966.20 0.07693
966.30 0.0769
966.40 0.07686
966.50 0.07683
966.60 0.0768
966.70 0.07677
966.80 0.07674
966.90 0.07671
967.00 0.07668
967.10 0.07665
967.20 0.07662
967.30 0.07659
967.40 0.07656
967.50 0.07652
967.60 0.07649
967.70 0.07646
967.80 0.07643
967.90 0.0764
968.00 0.07637
968.10 0.07634
968.20 0.07631
968.30 0.07628
968.40 0.07625
968.50 0.07622
968.60 0.07619
968.70 0.07616
968.80 0.07613
968.90 0.07609
969.00 0.07606
969.10 0.07603
969.20 0.076
969.30 0.07597
969.40 0.07594
969.50 0.07591
969.60 0.07588
969.70 0.07585
969.80 0.07582
969.90 0.07579
970.00 0.07576
970.10 0.07573
970.20 0.0757
970.30 0.07567
970.40 0.07564
970.50 0.07561
970.60 0.07558
970.70 0.07555
970.80 0.07552
970.90 0.07549
971.00 0.07546
971.10 0.07543
971.20 0.07539
971.30 0.07536
971.40 0.07533
971.50 0.0753
971.60 0.07527
971.70 0.07524
971.80 0.07521
971.90 0.07518
972.00 0.07515
972.10 0.07512
972.20 0.07509
972.30 0.07506
972.40 0.07503
972.50 0.075
972.60 0.07497
972.70 0.07494
972.80 0.07491
972.90 0.07488
973.00 0.07485
973.10 0.07482
973.20 0.07479
973.30 0.07476
973.40 0.07473
973.50 0.0747
973.60 0.07467
973.70 0.07464
973.80 0.07461
973.90 0.07458
974.00 0.07455
974.10 0.07452
974.20 0.07449
974.30 0.07446
974.40 0.07443
974.50 0.0744
974.60 0.07437
974.70 0.07434
974.80 0.07431
974.90 0.07428
975.00 0.07425
975.10 0.07422
975.20 0.07419
975.30 0.07416
975.40 0.07413
975.50 0.0741
975.60 0.07407
975.70 0.07404
975.80 0.07401
975.90 0.07398
976.00 0.07396
976.10 0.07393
976.20 0.0739
976.30 0.07387
976.40 0.07384
976.50 0.07381
976.60 0.07378
976.70 0.07375
976.80 0.07372
976.90 0.07369
977.00 0.07366
977.10 0.07363
977.20 0.0736
977.30 0.07357
977.40 0.07354
977.50 0.07351
977.60 0.07348
977.70 0.07345
977.80 0.07342
977.90 0.07339
978.00 0.07336
978.10 0.07333
978.20 0.0733
978.30 0.07328
978.40 0.07325
978.50 0.07322
978.60 0.07319
978.70 0.07316
978.80 0.07313
978.90 0.0731
979.00 0.07307
979.10 0.07304
979.20 0.07301
979.30 0.07298
979.40 0.07295
979.50 0.07292
979.60 0.07289
979.70 0.07286
979.80 0.07284
979.90 0.07281
980.00 0.07278
980.10 0.07275
980.20 0.07272
980.30 0.07269
980.40 0.07266
980.50 0.07263
980.60 0.0726
980.70 0.07257
980.80 0.07254
980.90 0.07251
981.00 0.07248
981.10 0.07246
981.20 0.07243
981.30 0.0724
981.40 0.07237
981.50 0.07234
981.60 0.07231
981.70 0.07228
981.80 0.07225
981.90 0.07222
982.00 0.07219
982.10 0.07217
982.20 0.07214
982.30 0.07211
982.40 0.07208
982.50 0.07205
982.60 0.07202
982.70 0.07199
982.80 0.07196
982.90 0.07193
983.00 0.0719
983.10 0.07188
983.20 0.07185
983.30 0.07182
983.40 0.07179
983.50 0.07176
983.60 0.07173
983.70 0.0717
983.80 0.07167
983.90 0.07164
984.00 0.07162
984.10 0.07159
984.20 0.07156
984.30 0.07153
984.40 0.0715
984.50 0.07147
984.60 0.07144
984.70 0.07141
984.80 0.07139
984.90 0.07136
985.00 0.07133
985.10 0.0713
985.20 0.07127
985.30 0.07124
985.40 0.07121
985.50 0.07119
985.60 0.07116
985.70 0.07113
985.80 0.0711
985.90 0.07107
986.00 0.07104
986.10 0.07101
986.20 0.07099
986.30 0.07096
986.40 0.07093
986.50 0.0709
986.60 0.07087
986.70 0.07084
986.80 0.07081
986.90 0.07079
987.00 0.07076
987.10 0.07073
987.20 0.0707
987.30 0.07067
987.40 0.07064
987.50 0.07061
987.60 0.07059
987.70 0.07056
987.80 0.07053
987.90 0.0705
988.00 0.07047
988.10 0.07044
988.20 0.07042
988.30 0.07039
988.40 0.07036
988.50 0.07033
988.60 0.0703
988.70 0.07027
988.80 0.07025
988.90 0.07022
989.00 0.07019
989.10 0.07016
989.20 0.07013
989.30 0.07011
989.40 0.07008
989.50 0.07005
989.60 0.07002
989.70 0.06999
989.80 0.06996
989.90 0.06994
990.00 0.06991
990.10 0.06988
990.20 0.06985
990.30 0.06982
990.40 0.0698
990.50 0.06977
990.60 0.06974
990.70 0.06971
990.80 0.06968
990.90 0.06966
991.00 0.06963
991.10 0.0696
991.20 0.06957
991.30 0.06954
991.40 0.06951
991.50 0.06949
991.60 0.06946
991.70 0.06943
991.80 0.0694
991.90 0.06937
992.00 0.06935
992.10 0.06932
992.20 0.06929
992.30 0.06926
992.40 0.06924
992.50 0.06921
992.60 0.06918
992.70 0.06915
992.80 0.06912
992.90 0.0691
993.00 0.06907
993.10 0.06904
993.20 0.06901
993.30 0.06899
993.40 0.06896
993.50 0.06893
993.60 0.0689
993.70 0.06887
993.80 0.06885
993.90 0.06882
994.00 0.06879
994.10 0.06876
994.20 0.06874
994.30 0.06871
994.40 0.06868
994.50 0.06865
994.60 0.06862
994.70 0.0686
994.80 0.06857
994.90 0.06854
995.00 0.06851
995.10 0.06849
995.20 0.06846
995.30 0.06843
995.40 0.0684
995.50 0.06838
995.60 0.06835
995.70 0.06832
995.80 0.06829
995.90 0.06827
996.00 0.06824
996.10 0.06821
996.20 0.06819
996.30 0.06816
996.40 0.06813
996.50 0.0681
996.60 0.06808
996.70 0.06805
996.80 0.06802
996.90 0.06799
997.00 0.06797
997.10 0.06794
997.20 0.06791
997.30 0.06789
997.40 0.06786
997.50 0.06783
997.60 0.0678
997.70 0.06778
997.80 0.06775
997.90 0.06772
998.00 0.0677
998.10 0.06767
998.20 0.06764
998.30 0.06762
998.40 0.06759
998.50 0.06756
998.60 0.06754
998.70 0.06751
998.80 0.06748
998.90 0.06746
999.00 0.06743
999.10 0.0674
999.20 0.06738
999.30 0.06735
999.40 0.06732
999.50 0.0673
999.60 0.06727
999.70 0.06724
999.80 0.06721
999.90 0.06719
1000.00 0.06716
1000.10 0.06713
1000.20 0.0671
1000.30 0.06707
1000.40 0.06705
1000.50 0.06702
1000.60 0.06699
1000.70 0.06696
1000.80 0.06694
1000.90 0.06691
1001.00 0.06688
1001.10 0.06685
1001.20 0.06682
1001.30 0.0668
1001.40 0.06677
1001.50 0.06674
1001.60 0.06671
1001.70 0.06669
1001.80 0.06666
1001.90 0.06664
1002.00 0.06661
1002.10 0.06659
1002.20 0.06656
1002.30 0.06654
1002.40 0.06651
1002.50 0.06649
1002.60 0.06647
1002.70 0.06644
1002.80 0.06642
1002.90 0.06639
1003.00 0.06637
1003.10 0.06634
1003.20 0.06632
1003.30 0.0663
1003.40 0.06627
1003.50 0.06625
1003.60 0.06623
1003.70 0.0662
1003.80 0.06618
1003.90 0.06616
1004.00 0.06613
1004.10 0.06611
1004.20 0.06609
1004.30 0.06606
1004.40 0.06604
1004.50 0.06601
1004.60 0.06599
1004.70 0.06596
1004.80 0.06594
1004.90 0.06591
1005.00 0.06589
1005.10 0.06586
1005.20 0.06583
1005.30 0.06581
1005.40 0.06578
1005.50 0.06576
1005.60 0.06573
1005.70 0.0657
1005.80 0.06567
1005.90 0.06565
1006.00 0.06562
1006.10 0.06559
1006.20 0.06556
1006.30 0.06553
1006.40 0.06551
1006.50 0.06548
1006.60 0.06545
1006.70 0.06543
1006.80 0.0654
1006.90 0.06537
1007.00 0.06534
1007.10 0.06532
1007.20 0.06529
1007.30 0.06526
1007.40 0.06524
1007.50 0.06521
1007.60 0.06518
1007.70 0.06516
1007.80 0.06513
1007.90 0.06511
1008.00 0.06508
1008.10 0.06505
1008.20 0.06503
1008.30 0.065
1008.40 0.06498
1008.50 0.06495
1008.60 0.06493
1008.70 0.0649
1008.80 0.06488
1008.90 0.06485
1009.00 0.06482
1009.10 0.0648
1009.20 0.06477
1009.30 0.06475
1009.40 0.06472
1009.50 0.0647
1009.60 0.06467
1009.70 0.06465
1009.80 0.06462
1009.90 0.0646
1010.00 0.06457
1010.10 0.06455
1010.20 0.06452
1010.30 0.0645
1010.40 0.06447
1010.50 0.06445
1010.60 0.06442
1010.70 0.0644
1010.80 0.06437
1010.90 0.06435
1011.00 0.06433
1011.10 0.0643
1011.20 0.06428
1011.30 0.06425
1011.40 0.06423
1011.50 0.0642
1011.60 0.06418
1011.70 0.06415
1011.80 0.06413
1011.90 0.0641
1012.00 0.06408
1012.10 0.06406
1012.20 0.06403
1012.30 0.06401
1012.40 0.06398
1012.50 0.06396
1012.60 0.06394
1012.70 0.06391
1012.80 0.06389
1012.90 0.06386
1013.00 0.06384
1013.10 0.06381
1013.20 0.06379
1013.30 0.06377
1013.40 0.06374
1013.50 0.06372
1013.60 0.06369
1013.70 0.06367
1013.80 0.06365
1013.90 0.06362
1014.00 0.0636
1014.10 0.06357
1014.20 0.06355
1014.30 0.06353
1014.40 0.0635
1014.50 0.06348
1014.60 0.06345
1014.70 0.06343
1014.80 0.06341
1014.90 0.06338
1015.00 0.06336
1015.10 0.06334
1015.20 0.06331
1015.30 0.06329
1015.40 0.06326
1015.50 0.06324
1015.60 0.06322
1015.70 0.06319
1015.80 0.06317
1015.90 0.06315
1016.00 0.06312
1016.10 0.0631
1016.20 0.06307
1016.30 0.06305
1016.40 0.06303
1016.50 0.063
1016.60 0.06298
1016.70 0.06296
1016.80 0.06293
1016.90 0.06291
1017.00 0.06289
1017.10 0.06286
1017.20 0.06284
1017.30 0.06282
1017.40 0.06279
1017.50 0.06277
1017.60 0.06274
1017.70 0.06272
1017.80 0.0627
1017.90 0.06267
1018.00 0.06265
1018.10 0.06263
1018.20 0.0626
1018.30 0.06258
1018.40 0.06256
1018.50 0.06253
1018.60 0.06251
1018.70 0.06249
1018.80 0.06246
1018.90 0.06244
1019.00 0.06242
1019.10 0.06239
1019.20 0.06237
1019.30 0.06235
1019.40 0.06232
1019.50 0.0623
1019.60 0.06228
1019.70 0.06225
1019.80 0.06223
1019.90 0.06221
1020.00 0.06218
1020.10 0.06216
1020.20 0.06214
1020.30 0.06211
1020.40 0.06209
1020.50 0.06207
1020.60 0.06204
1020.70 0.06202
1020.80 0.062
1020.90 0.06197
1021.00 0.06195
1021.10 0.06193
1021.20 0.0619
1021.30 0.06188
1021.40 0.06186
1021.50 0.06183
1021.60 0.06181
1021.70 0.06179
1021.80 0.06176
1021.90 0.06174
1022.00 0.06172
1022.10 0.06169
1022.20 0.06167
1022.30 0.06165
1022.40 0.06162
1022.50 0.0616
1022.60 0.06158
1022.70 0.06156
1022.80 0.06153
1022.90 0.06151
1023.00 0.06149
1023.10 0.06146
1023.20 0.06144
1023.30 0.06142
1023.40 0.06139
1023.50 0.06137
1023.60 0.06135
1023.70 0.06132
1023.80 0.0613
1023.90 0.06128
1024.00 0.06126
1024.10 0.06123
1024.20 0.06121
1024.30 0.06119
1024.40 0.06116
1024.50 0.06114
1024.60 0.06112
1024.70 0.06109
1024.80 0.06107
1024.90 0.06105
1025.00 0.06103
1025.10 0.061
1025.20 0.06098
1025.30 0.06096
1025.40 0.06093
1025.50 0.06091
1025.60 0.06089
1025.70 0.06087
1025.80 0.06084
1025.90 0.06082
1026.00 0.0608
1026.10 0.06077
1026.20 0.06075
1026.30 0.06073
1026.40 0.06071
1026.50 0.06068
1026.60 0.06066
1026.70 0.06064
1026.80 0.06061
1026.90 0.06059
1027.00 0.06057
1027.10 0.06055
1027.20 0.06052
1027.30 0.0605
1027.40 0.06048
1027.50 0.06046
1027.60 0.06043
1027.70 0.06041
1027.80 0.06039
1027.90 0.06036
1028.00 0.06034
1028.10 0.06032
1028.20 0.0603
1028.30 0.06027
1028.40 0.06025
1028.50 0.06023
1028.60 0.06021
1028.70 0.06018
1028.80 0.06016
1028.90 0.06014
1029.00 0.06012
1029.10 0.06009
1029.20 0.06007
1029.30 0.06005
1029.40 0.06002
1029.50 0.06
1029.60 0.05998
1029.70 0.05996
1029.80 0.05993
1029.90 0.05991
1030.00 0.05989
1030.10 0.05987
1030.20 0.05984
1030.30 0.05982
1030.40 0.0598
1030.50 0.05978
1030.60 0.05975
1030.70 0.05973
1030.80 0.05971
1030.90 0.05969
1031.00 0.05966
1031.10 0.05964
1031.20 0.05962
1031.30 0.0596
1031.40 0.05958
1031.50 0.05955
1031.60 0.05953
1031.70 0.05951
1031.80 0.05949
1031.90 0.05946
1032.00 0.05944
1032.10 0.05942
1032.20 0.0594
1032.30 0.05937
1032.40 0.05935
1032.50 0.05933
1032.60 0.05931
1032.70 0.05928
1032.80 0.05926
1032.90 0.05924
1033.00 0.05922
1033.10 0.0592
1033.20 0.05917
1033.30 0.05915
1033.40 0.05913
1033.50 0.05911
1033.60 0.05908
1033.70 0.05906
1033.80 0.05904
1033.90 0.05902
1034.00 0.059
1034.10 0.05897
1034.20 0.05895
1034.30 0.05893
1034.40 0.05891
1034.50 0.05889
1034.60 0.05886
1034.70 0.05884
1034.80 0.05882
1034.90 0.0588
1035.00 0.05877
1035.10 0.05875
1035.20 0.05873
1035.30 0.05871
1035.40 0.05869
1035.50 0.05866
1035.60 0.05864
1035.70 0.05862
1035.80 0.0586
1035.90 0.05858
1036.00 0.05855
1036.10 0.05853
1036.20 0.05851
1036.30 0.05849
1036.40 0.05847
1036.50 0.05844
1036.60 0.05842
1036.70 0.0584
1036.80 0.05838
1036.90 0.05836
1037.00 0.05833
1037.10 0.05831
1037.20 0.05829
1037.30 0.05827
1037.40 0.05825
1037.50 0.05822
1037.60 0.0582
1037.70 0.05818
1037.80 0.05816
1037.90 0.05814
1038.00 0.05812
1038.10 0.05809
1038.20 0.05807
1038.30 0.05805
1038.40 0.05803
1038.50 0.05801
1038.60 0.05799
1038.70 0.05796
1038.80 0.05794
1038.90 0.05792
1039.00 0.0579
1039.10 0.05788
1039.20 0.05785
1039.30 0.05783
1039.40 0.05781
1039.50 0.05779
1039.60 0.05777
1039.70 0.05775
1039.80 0.05772
1039.90 0.0577
1040.00 0.05768
1040.10 0.05766
1040.20 0.05764
1040.30 0.05762
1040.40 0.05759
1040.50 0.05757
1040.60 0.05755
1040.70 0.05753
1040.80 0.05751
1040.90 0.05749
1041.00 0.05747
1041.10 0.05744
1041.20 0.05742
1041.30 0.0574
1041.40 0.05738
1041.50 0.05736
1041.60 0.05734
1041.70 0.05731
1041.80 0.05729
1041.90 0.05727
1042.00 0.05725
1042.10 0.05723
1042.20 0.05721
1042.30 0.05719
1042.40 0.05716
1042.50 0.05714
1042.60 0.05712
1042.70 0.0571
1042.80 0.05708
1042.90 0.05706
1043.00 0.05704
1043.10 0.05701
1043.20 0.05699
1043.30 0.05697
1043.40 0.05695
1043.50 0.05693
1043.60 0.05691
1043.70 0.05689
1043.80 0.05687
1043.90 0.05684
1044.00 0.05682
1044.10 0.0568
1044.20 0.05678
1044.30 0.05676
1044.40 0.05674
1044.50 0.05672
1044.60 0.0567
1044.70 0.05667
1044.80 0.05665
1044.90 0.05663
1045.00 0.05661
1045.10 0.05659
1045.20 0.05657
1045.30 0.05655
1045.40 0.05653
1045.50 0.0565
1045.60 0.05648
1045.70 0.05646
1045.80 0.05644
1045.90 0.05642
1046.00 0.0564
1046.10 0.05638
1046.20 0.05636
1046.30 0.05633
1046.40 0.05631
1046.50 0.05629
1046.60 0.05627
1046.70 0.05625
1046.80 0.05623
1046.90 0.05621
1047.00 0.05619
1047.10 0.05617
1047.20 0.05615
1047.30 0.05612
1047.40 0.0561
1047.50 0.05608
1047.60 0.05606
1047.70 0.05604
1047.80 0.05602
1047.90 0.056
1048.00 0.05598
1048.10 0.05596
1048.20 0.05594
1048.30 0.05592
1048.40 0.05589
1048.50 0.05587
1048.60 0.05585
1048.70 0.05583
1048.80 0.05581
1048.90 0.05579
1049.00 0.05577
1049.10 0.05575
1049.20 0.05573
1049.30 0.05571
1049.40 0.05569
1049.50 0.05567
1049.60 0.05564
1049.70 0.05562
1049.80 0.0556
1049.90 0.05558
1050.00 0.05556
1050.10 0.05554
1050.20 0.05552
1050.30 0.0555
1050.40 0.05548
1050.50 0.05546
1050.60 0.05544
1050.70 0.05542
1050.80 0.0554
1050.90 0.05537
1051.00 0.05535
1051.10 0.05533
1051.20 0.05531
1051.30 0.05529
1051.40 0.05527
1051.50 0.05525
1051.60 0.05523
1051.70 0.05521
1051.80 0.05519
1051.90 0.05517
1052.00 0.05515
1052.10 0.05513
1052.20 0.05511
1052.30 0.05509
1052.40 0.05506
1052.50 0.05504
1052.60 0.05502
1052.70 0.055
1052.80 0.05498
1052.90 0.05496
1053.00 0.05494
1053.10 0.05492
1053.20 0.0549
1053.30 0.05488
1053.40 0.05486
1053.50 0.05484
1053.60 0.05482
1053.70 0.0548
1053.80 0.05478
1053.90 0.05476
1054.00 0.05474
1054.10 0.05472
1054.20 0.0547
1054.30 0.05468
1054.40 0.05466
1054.50 0.05464
1054.60 0.05461
1054.70 0.05459
1054.80 0.05457
1054.90 0.05455
1055.00 0.05453
1055.10 0.05451
1055.20 0.05449
1055.30 0.05447
1055.40 0.05445
1055.50 0.05443
1055.60 0.05441
1055.70 0.05439
1055.80 0.05437
1055.90 0.05435
1056.00 0.05433
1056.10 0.05431
1056.20 0.05429
1056.30 0.05427
1056.40 0.05425
1056.50 0.05423
1056.60 0.05421
1056.70 0.05419
1056.80 0.05417
1056.90 0.05415
1057.00 0.05413
1057.10 0.05411
1057.20 0.05409
1057.30 0.05407
1057.40 0.05405
1057.50 0.05403
1057.60 0.05401
1057.70 0.05399
1057.80 0.05397
1057.90 0.05395
1058.00 0.05393
1058.10 0.05391
1058.20 0.05389
1058.30 0.05387
1058.40 0.05385
1058.50 0.05383
1058.60 0.05381
1058.70 0.05379
1058.80 0.05377
1058.90 0.05375
1059.00 0.05373
1059.10 0.05371
1059.20 0.05369
1059.30 0.05367
1059.40 0.05365
1059.50 0.05363
1059.60 0.05361
1059.70 0.05359
1059.80 0.05357
1059.90 0.05355
1060.00 0.05353
1060.10 0.05351
1060.20 0.05349
1060.30 0.05347
1060.40 0.05345
1060.50 0.05343
1060.60 0.05341
1060.70 0.05339
1060.80 0.05337
1060.90 0.05335
1061.00 0.05333
1061.10 0.05331
1061.20 0.05329
1061.30 0.05327
1061.40 0.05325
1061.50 0.05323
1061.60 0.05321
1061.70 0.05319
1061.80 0.05317
1061.90 0.05315
1062.00 0.05313
1062.10 0.05311
1062.20 0.05309
1062.30 0.05307
1062.40 0.05305
1062.50 0.05303
1062.60 0.05301
1062.70 0.05299
1062.80 0.05297
1062.90 0.05295
1063.00 0.05293
1063.10 0.05291
1063.20 0.05289
1063.30 0.05287
1063.40 0.05285
1063.50 0.05283
1063.60 0.05281
1063.70 0.05279
1063.80 0.05277
1063.90 0.05275
1064.00 0.05273
1064.10 0.05271
1064.20 0.05269
1064.30 0.05267
1064.40 0.05265
1064.50 0.05264
1064.60 0.05262
1064.70 0.0526
1064.80 0.05258
1064.90 0.05256
1065.00 0.05254
1065.10 0.05252
1065.20 0.0525
1065.30 0.05248
1065.40 0.05246
1065.50 0.05244
1065.60 0.05242
1065.70 0.0524
1065.80 0.05238
1065.90 0.05236
1066.00 0.05234
1066.10 0.05232
1066.20 0.0523
1066.30 0.05228
1066.40 0.05226
1066.50 0.05224
1066.60 0.05222
1066.70 0.0522
1066.80 0.05219
1066.90 0.05217
1067.00 0.05215
1067.10 0.05213
1067.20 0.05211
1067.30 0.05209
1067.40 0.05207
1067.50 0.05205
1067.60 0.05203
1067.70 0.05201
1067.80 0.05199
1067.90 0.05197
1068.00 0.05195
1068.10 0.05193
1068.20 0.05191
1068.30 0.05189
1068.40 0.05187
1068.50 0.05185
1068.60 0.05183
1068.70 0.05182
1068.80 0.0518
1068.90 0.05178
1069.00 0.05176
1069.10 0.05174
1069.20 0.05172
1069.30 0.0517
1069.40 0.05168
1069.50 0.05166
1069.60 0.05164
1069.70 0.05162
1069.80 0.0516
1069.90 0.05158
1070.00 0.05156
1070.10 0.05154
1070.20 0.05153
1070.30 0.05151
1070.40 0.05149
1070.50 0.05147
1070.60 0.05145
1070.70 0.05143
1070.80 0.05141
1070.90 0.05139
1071.00 0.05137
1071.10 0.05135
1071.20 0.05133
1071.30 0.05131
1071.40 0.05129
1071.50 0.05128
1071.60 0.05126
1071.70 0.05124
1071.80 0.05122
1071.90 0.0512
1072.00 0.05118
1072.10 0.05116
1072.20 0.05114
1072.30 0.05112
1072.40 0.0511
1072.50 0.05108
1072.60 0.05106
1072.70 0.05104
1072.80 0.05103
1072.90 0.05101
1073.00 0.05099
1073.10 0.05097
1073.20 0.05095
1073.30 0.05093
1073.40 0.05091
1073.50 0.05089
1073.60 0.05087
1073.70 0.05085
1073.80 0.05083
1073.90 0.05081
1074.00 0.0508
1074.10 0.05078
1074.20 0.05076
1074.30 0.05074
1074.40 0.05072
1074.50 0.0507
1074.60 0.05068
1074.70 0.05066
1074.80 0.05064
1074.90 0.05062
1075.00 0.0506
1075.10 0.05058
1075.20 0.05057
1075.30 0.05055
1075.40 0.05053
1075.50 0.05051
1075.60 0.05049
1075.70 0.05047
1075.80 0.05045
1075.90 0.05043
1076.00 0.05041
1076.10 0.05039
1076.20 0.05037
1076.30 0.05036
1076.40 0.05034
1076.50 0.05032
1076.60 0.0503
1076.70 0.05028
1076.80 0.05026
1076.90 0.05024
1077.00 0.05022
1077.10 0.0502
1077.20 0.05018
1077.30 0.05017
1077.40 0.05015
1077.50 0.05013
1077.60 0.05011
1077.70 0.05009
1077.80 0.05007
1077.90 0.05005
1078.00 0.05003
1078.10 0.05001
1078.20 0.04999
1078.30 0.04997
1078.40 0.04996
1078.50 0.04994
1078.60 0.04992
1078.70 0.0499
1078.80 0.04988
1078.90 0.04986
1079.00 0.04984
1079.10 0.04982
1079.20 0.0498
1079.30 0.04979
1079.40 0.04977
1079.50 0.04975
1079.60 0.04973
1079.70 0.04971
1079.80 0.04969
1079.90 0.04967
1080.00 0.04965
1080.10 0.04963
1080.20 0.04961
1080.30 0.0496
1080.40 0.04958
1080.50 0.04956
1080.60 0.04954
1080.70 0.04952
1080.80 0.0495
1080.90 0.04948
1081.00 0.04946
1081.10 0.04944
1081.20 0.04942
1081.30 0.04941
1081.40 0.04939
1081.50 0.04937
1081.60 0.04935
1081.70 0.04933
1081.80 0.04931
1081.90 0.04929
1082.00 0.04927
1082.10 0.04925
1082.20 0.04924
1082.30 0.04922
1082.40 0.0492
1082.50 0.04918
1082.60 0.04916
1082.70 0.04914
1082.80 0.04912
1082.90 0.0491
1083.00 0.04908
1083.10 0.04907
1083.20 0.04905
1083.30 0.04903
1083.40 0.04901
1083.50 0.04899
1083.60 0.04897
1083.70 0.04895
1083.80 0.04893
1083.90 0.04892
1084.00 0.0489
1084.10 0.04888
1084.20 0.04886
1084.30 0.04884
1084.40 0.04882
1084.50 0.0488
1084.60 0.04878
1084.70 0.04877
1084.80 0.04875
1084.90 0.04873
1085.00 0.04871
1085.10 0.04869
1085.20 0.04867
1085.30 0.04865
1085.40 0.04864
1085.50 0.04862
1085.60 0.0486
1085.70 0.04858
1085.80 0.04856
1085.90 0.04854
1086.00 0.04852
1086.10 0.04851
1086.20 0.04849
1086.30 0.04847
1086.40 0.04845
1086.50 0.04843
1086.60 0.04841
1086.70 0.0484
1086.80 0.04838
1086.90 0.04836
1087.00 0.04834
1087.10 0.04832
1087.20 0.0483
1087.30 0.04829
1087.40 0.04827
1087.50 0.04825
1087.60 0.04823
1087.70 0.04821
1087.80 0.0482
1087.90 0.04818
1088.00 0.04816
1088.10 0.04814
1088.20 0.04812
1088.30 0.04811
1088.40 0.04809
1088.50 0.04807
1088.60 0.04805
1088.70 0.04803
1088.80 0.04802
1088.90 0.048
1089.00 0.04798
1089.10 0.04797
1089.20 0.04795
1089.30 0.04793
1089.40 0.04791
1089.50 0.0479
1089.60 0.04788
1089.70 0.04786
1089.80 0.04784
1089.90 0.04783
1090.00 0.04781
1090.10 0.04779
1090.20 0.04778
1090.30 0.04776
1090.40 0.04774
1090.50 0.04772
1090.60 0.04771
1090.70 0.04769
1090.80 0.04768
1090.90 0.04766
1091.00 0.04764
1091.10 0.04763
1091.20 0.04761
1091.30 0.0476
1091.40 0.04758
1091.50 0.04756
1091.60 0.04755
1091.70 0.04753
1091.80 0.04752
1091.90 0.0475
1092.00 0.04748
1092.10 0.04747
1092.20 0.04745
1092.30 0.04744
1092.40 0.04742
1092.50 0.04741
1092.60 0.04739
1092.70 0.04738
1092.80 0.04737
1092.90 0.04735
1093.00 0.04734
1093.10 0.04733
1093.20 0.04731
1093.30 0.0473
1093.40 0.0473
1093.50 0.04729
1093.60 0.04729
1093.70 0.04729
1093.80 0.04728
1093.90 0.04726
1094.00 0.04723
1094.10 0.0472
1094.20 0.04717
1094.30 0.04714
1094.40 0.04712
1094.50 0.0471
1094.60 0.04708
1094.70 0.04705
1094.80 0.04703
1094.90 0.04701
1095.00 0.04699
1095.10 0.04697
1095.20 0.04696
1095.30 0.04694
1095.40 0.04692
1095.50 0.0469
1095.60 0.04688
1095.70 0.04686
1095.80 0.04685
1095.90 0.04683
1096.00 0.04681
1096.10 0.04679
1096.20 0.04677
1096.30 0.04676
1096.40 0.04674
1096.50 0.04672
1096.60 0.0467
1096.70 0.04669
1096.80 0.04667
1096.90 0.04665
1097.00 0.04663
1097.10 0.04662
1097.20 0.0466
1097.30 0.04658
1097.40 0.04657
1097.50 0.04655
1097.60 0.04653
1097.70 0.04652
1097.80 0.0465
1097.90 0.04648
1098.00 0.04647
1098.10 0.04645
1098.20 0.04643
1098.30 0.04642
1098.40 0.0464
1098.50 0.04638
1098.60 0.04637
1098.70 0.04635
1098.80 0.04634
1098.90 0.04632
1099.00 0.04631
1099.10 0.04629
1099.20 0.04627
1099.30 0.04626
1099.40 0.04624
1099.50 0.04623
1099.60 0.04621
1099.70 0.04619
1099.80 0.04618
1099.90 0.04616
1100.00 0.04615
1100.10 0.04613
1100.20 0.04612
1100.30 0.0461
1100.40 0.04608
1100.50 0.04607
1100.60 0.04605
1100.70 0.04604
1100.80 0.04602
1100.90 0.04601
1101.00 0.04599
1101.10 0.04598
1101.20 0.04596
1101.30 0.04595
1101.40 0.04593
1101.50 0.04591
1101.60 0.0459
1101.70 0.04588
1101.80 0.04587
1101.90 0.04585
1102.00 0.04584
1102.10 0.04582
1102.20 0.04581
1102.30 0.04579
1102.40 0.04578
1102.50 0.04576
1102.60 0.04575
1102.70 0.04573
1102.80 0.04572
1102.90 0.0457
1103.00 0.04569
1103.10 0.04567
1103.20 0.04566
1103.30 0.04564
1103.40 0.04563
1103.50 0.04561
1103.60 0.04559
1103.70 0.04558
1103.80 0.04556
1103.90 0.04555
1104.00 0.04553
1104.10 0.04552
1104.20 0.0455
1104.30 0.04549
1104.40 0.04547
1104.50 0.04546
1104.60 0.04544
1104.70 0.04543
1104.80 0.04541
1104.90 0.0454
1105.00 0.04538
1105.10 0.04537
1105.20 0.04535
1105.30 0.04534
1105.40 0.04532
1105.50 0.04531
1105.60 0.04529
1105.70 0.04528
1105.80 0.04526
1105.90 0.04525
1106.00 0.04523
1106.10 0.04522
1106.20 0.0452
1106.30 0.04519
1106.40 0.04517
1106.50 0.04516
1106.60 0.04514
1106.70 0.04513
1106.80 0.04511
1106.90 0.0451
1107.00 0.04508
1107.10 0.04507
1107.20 0.04505
1107.30 0.04504
1107.40 0.04502
1107.50 0.04501
1107.60 0.04499
1107.70 0.04498
1107.80 0.04496
1107.90 0.04495
1108.00 0.04493
1108.10 0.04492
1108.20 0.0449
1108.30 0.04489
1108.40 0.04487
1108.50 0.04486
1108.60 0.04484
1108.70 0.04483
1108.80 0.04481
1108.90 0.0448
1109.00 0.04478
1109.10 0.04477
1109.20 0.04475
1109.30 0.04474
1109.40 0.04472
1109.50 0.04471
1109.60 0.04469
1109.70 0.04468
1109.80 0.04466
1109.90 0.04465
1110.00 0.04463
1110.10 0.04462
1110.20 0.0446
1110.30 0.04459
1110.40 0.04457
1110.50 0.04456
1110.60 0.04454
1110.70 0.04453
1110.80 0.04451
1110.90 0.0445
1111.00 0.04448
1111.10 0.04447
1111.20 0.04445
1111.30 0.04444
1111.40 0.04442
1111.50 0.04441
1111.60 0.04439
1111.70 0.04438
1111.80 0.04436
1111.90 0.04435
1112.00 0.04433
1112.10 0.04432
1112.20 0.0443
1112.30 0.04429
1112.40 0.04427
1112.50 0.04426
1112.60 0.04424
1112.70 0.04423
1112.80 0.04421
1112.90 0.0442
1113.00 0.04418
1113.10 0.04417
1113.20 0.04415
1113.30 0.04414
1113.40 0.04412
1113.50 0.04411
1113.60 0.04409
1113.70 0.04408
1113.80 0.04406
1113.90 0.04405
1114.00 0.04403
1114.10 0.04402
1114.20 0.044
1114.30 0.04399
1114.40 0.04397
1114.50 0.04396
1114.60 0.04394
1114.70 0.04393
1114.80 0.04391
1114.90 0.0439
1115.00 0.04388
1115.10 0.04387
1115.20 0.04385
1115.30 0.04384
1115.40 0.04382
1115.50 0.04381
1115.60 0.04379
1115.70 0.04378
1115.80 0.04376
1115.90 0.04375
1116.00 0.04373
1116.10 0.04372
1116.20 0.0437
1116.30 0.04369
1116.40 0.04367
1116.50 0.04366
1116.60 0.04364
1116.70 0.04363
1116.80 0.04361
1116.90 0.0436
1117.00 0.04358
1117.10 0.04357
1117.20 0.04355
1117.30 0.04354
1117.40 0.04352
1117.50 0.04351
1117.60 0.04349
1117.70 0.04348
1117.80 0.04346
1117.90 0.04345
1118.00 0.04343
1118.10 0.04342
1118.20 0.0434
1118.30 0.04339
1118.40 0.04337
1118.50 0.04336
1118.60 0.04334
1118.70 0.04333
1118.80 0.04331
1118.90 0.0433
1119.00 0.04328
1119.10 0.04327
1119.20 0.04325
1119.30 0.04324
1119.40 0.04322
1119.50 0.04321
1119.60 0.0432
1119.70 0.04318
1119.80 0.04317
1119.90 0.04315
1120.00 0.04314
1120.10 0.04312
1120.20 0.04311
1120.30 0.04309
1120.40 0.04308
1120.50 0.04306
1120.60 0.04305
1120.70 0.04303
1120.80 0.04302
1120.90 0.043
1121.00 0.04299
1121.10 0.04297
1121.20 0.04296
1121.30 0.04294
1121.40 0.04293
1121.50 0.04291
1121.60 0.0429
1121.70 0.04288
1121.80 0.04287
1121.90 0.04286
1122.00 0.04284
1122.10 0.04283
1122.20 0.04281
1122.30 0.0428
1122.40 0.04278
1122.50 0.04277
1122.60 0.04275
1122.70 0.04274
1122.80 0.04272
1122.90 0.04271
1123.00 0.04269
1123.10 0.04268
1123.20 0.04266
1123.30 0.04265
1123.40 0.04263
1123.50 0.04262
1123.60 0.04261
1123.70 0.04259
1123.80 0.04258
1123.90 0.04256
1124.00 0.04255
1124.10 0.04253
1124.20 0.04252
1124.30 0.0425
1124.40 0.04249
1124.50 0.04247
1124.60 0.04246
1124.70 0.04244
1124.80 0.04243
1124.90 0.04242
1125.00 0.0424
1125.10 0.04239
1125.20 0.04237
1125.30 0.04236
1125.40 0.04234
1125.50 0.04233
1125.60 0.04231
1125.70 0.0423
1125.80 0.04228
1125.90 0.04227
1126.00 0.04225
1126.10 0.04224
1126.20 0.04223
1126.30 0.04221
1126.40 0.0422
1126.50 0.04218
1126.60 0.04217
1126.70 0.04215
1126.80 0.04214
1126.90 0.04212
1127.00 0.04211
1127.10 0.04209
1127.20 0.04208
1127.30 0.04207
1127.40 0.04205
1127.50 0.04204
1127.60 0.04202
1127.70 0.04201
1127.80 0.04199
1127.90 0.04198
1128.00 0.04196
1128.10 0.04195
1128.20 0.04194
1128.30 0.04192
1128.40 0.04191
1128.50 0.04189
1128.60 0.04188
1128.70 0.04186
1128.80 0.04185
1128.90 0.04184
1129.00 0.04182
1129.10 0.04181
1129.20 0.04179
1129.30 0.04178
1129.40 0.04176
1129.50 0.04175
1129.60 0.04173
1129.70 0.04172
1129.80 0.04171
1129.90 0.04169
1130.00 0.04168
1130.10 0.04166
1130.20 0.04165
1130.30 0.04163
1130.40 0.04162
1130.50 0.04161
1130.60 0.04159
1130.70 0.04158
1130.80 0.04156
1130.90 0.04155
1131.00 0.04153
1131.10 0.04152
1131.20 0.04151
1131.30 0.04149
1131.40 0.04148
1131.50 0.04146
1131.60 0.04145
1131.70 0.04143
1131.80 0.04142
1131.90 0.04141
1132.00 0.04139
1132.10 0.04138
1132.20 0.04136
1132.30 0.04135
1132.40 0.04133
1132.50 0.04132
1132.60 0.04131
1132.70 0.04129
1132.80 0.04128
1132.90 0.04126
1133.00 0.04125
1133.10 0.04123
1133.20 0.04122
1133.30 0.04121
1133.40 0.04119
1133.50 0.04118
1133.60 0.04116
1133.70 0.04115
1133.80 0.04114
1133.90 0.04112
1134.00 0.04111
1134.10 0.04109
1134.20 0.04108
1134.30 0.04106
1134.40 0.04105
1134.50 0.04104
1134.60 0.04102
1134.70 0.04101
1134.80 0.04099
1134.90 0.04098
1135.00 0.04097
1135.10 0.04095
1135.20 0.04094
1135.30 0.04092
1135.40 0.04091
1135.50 0.0409
1135.60 0.04088
1135.70 0.04087
1135.80 0.04085
1135.90 0.04084
1136.00 0.04083
1136.10 0.04081
1136.20 0.0408
1136.30 0.04078
1136.40 0.04077
1136.50 0.04076
1136.60 0.04074
1136.70 0.04073
1136.80 0.04071
1136.90 0.0407
1137.00 0.04069
1137.10 0.04067
1137.20 0.04066
1137.30 0.04064
1137.40 0.04063
1137.50 0.04062
1137.60 0.0406
1137.70 0.04059
1137.80 0.04057
1137.90 0.04056
1138.00 0.04055
1138.10 0.04053
1138.20 0.04052
1138.30 0.0405
1138.40 0.04049
1138.50 0.04048
1138.60 0.04046
1138.70 0.04045
1138.80 0.04044
1138.90 0.04042
1139.00 0.04041
1139.10 0.04039
1139.20 0.04038
1139.30 0.04037
1139.40 0.04035
1139.50 0.04034
1139.60 0.04032
1139.70 0.04031
1139.80 0.0403
1139.90 0.04028
1140.00 0.04027
1140.10 0.04026
1140.20 0.04024
1140.30 0.04023
1140.40 0.04021
1140.50 0.0402
1140.60 0.04019
1140.70 0.04017
1140.80 0.04016
1140.90 0.04014
1141.00 0.04013
1141.10 0.04012
1141.20 0.0401
1141.30 0.04009
1141.40 0.04008
1141.50 0.04006
1141.60 0.04005
1141.70 0.04003
1141.80 0.04002
1141.90 0.04001
1142.00 0.03999
1142.10 0.03998
1142.20 0.03997
1142.30 0.03995
1142.40 0.03994
1142.50 0.03993
1142.60 0.03991
1142.70 0.0399
1142.80 0.03988
1142.90 0.03987
1143.00 0.03986
1143.10 0.03984
1143.20 0.03983
1143.30 0.03982
1143.40 0.0398
1143.50 0.03979
1143.60 0.03978
1143.70 0.03976
1143.80 0.03975
1143.90 0.03973
1144.00 0.03972
1144.10 0.03971
1144.20 0.03969
1144.30 0.03968
1144.40 0.03967
1144.50 0.03965
1144.60 0.03964
1144.70 0.03963
1144.80 0.03961
1144.90 0.0396
1145.00 0.03959
1145.10 0.03957
1145.20 0.03956
1145.30 0.03955
1145.40 0.03953
1145.50 0.03952
1145.60 0.0395
1145.70 0.03949
1145.80 0.03948
1145.90 0.03946
1146.00 0.03945
1146.10 0.03944
1146.20 0.03942
1146.30 0.03941
1146.40 0.0394
1146.50 0.03938
1146.60 0.03937
1146.70 0.03936
1146.80 0.03934
1146.90 0.03933
1147.00 0.03932
1147.10 0.0393
1147.20 0.03929
1147.30 0.03928
1147.40 0.03926
1147.50 0.03925
1147.60 0.03924
1147.70 0.03922
1147.80 0.03921
1147.90 0.0392
1148.00 0.03918
1148.10 0.03917
1148.20 0.03916
1148.30 0.03914
1148.40 0.03913
1148.50 0.03912
1148.60 0.0391
1148.70 0.03909
1148.80 0.03908
1148.90 0.03906
1149.00 0.03905
1149.10 0.03904
1149.20 0.03902
1149.30 0.03901
1149.40 0.039
1149.50 0.03898
1149.60 0.03897
1149.70 0.03896
1149.80 0.03894
1149.90 0.03893
1150.00 0.03892
1150.10 0.0389
1150.20 0.03889
1150.30 0.03888
1150.40 0.03886
1150.50 0.03885
1150.60 0.03884
1150.70 0.03882
1150.80 0.03881
1150.90 0.0388
1151.00 0.03878
1151.10 0.03877
1151.20 0.03876
1151.30 0.03874
1151.40 0.03873
1151.50 0.03872
1151.60 0.0387
1151.70 0.03869
1151.80 0.03868
1151.90 0.03867
1152.00 0.03865
1152.10 0.03864
1152.20 0.03863
1152.30 0.03861
1152.40 0.0386
1152.50 0.03859
1152.60 0.03857
1152.70 0.03856
1152.80 0.03855
1152.90 0.03853
1153.00 0.03852
1153.10 0.03851
1153.20 0.0385
1153.30 0.03848
1153.40 0.03847
1153.50 0.03846
1153.60 0.03844
1153.70 0.03843
1153.80 0.03842
1153.90 0.0384
1154.00 0.03839
1154.10 0.03838
1154.20 0.03836
1154.30 0.03835
1154.40 0.03834
1154.50 0.03833
1154.60 0.03831
1154.70 0.0383
1154.80 0.03829
1154.90 0.03827
1155.00 0.03826
1155.10 0.03825
1155.20 0.03823
1155.30 0.03822
1155.40 0.03821
1155.50 0.0382
1155.60 0.03818
1155.70 0.03817
1155.80 0.03816
1155.90 0.03814
1156.00 0.03813
1156.10 0.03812
1156.20 0.03811
1156.30 0.03809
1156.40 0.03808
1156.50 0.03807
1156.60 0.03805
1156.70 0.03804
1156.80 0.03803
1156.90 0.03801
1157.00 0.038
1157.10 0.03799
1157.20 0.03798
1157.30 0.03796
1157.40 0.03795
1157.50 0.03794
1157.60 0.03793
1157.70 0.03791
1157.80 0.0379
1157.90 0.03789
1158.00 0.03787
1158.10 0.03786
1158.20 0.03785
1158.30 0.03784
1158.40 0.03782
1158.50 0.03781
1158.60 0.0378
1158.70 0.03778
1158.80 0.03777
1158.90 0.03776
1159.00 0.03775
1159.10 0.03773
1159.20 0.03772
1159.30 0.03771
1159.40 0.0377
1159.50 0.03768
1159.60 0.03767
1159.70 0.03766
1159.80 0.03764
1159.90 0.03763
1160.00 0.03762
1160.10 0.03761
1160.20 0.03759
1160.30 0.03758
1160.40 0.03757
1160.50 0.03756
1160.60 0.03754
1160.70 0.03753
1160.80 0.03752
1160.90 0.0375
1161.00 0.03749
1161.10 0.03748
1161.20 0.03747
1161.30 0.03745
1161.40 0.03744
1161.50 0.03743
1161.60 0.03742
1161.70 0.0374
1161.80 0.03739
1161.90 0.03738
1162.00 0.03737
1162.10 0.03735
1162.20 0.03734
1162.30 0.03733
1162.40 0.03731
1162.50 0.0373
1162.60 0.03729
1162.70 0.03728
1162.80 0.03726
1162.90 0.03725
1163.00 0.03724
1163.10 0.03723
1163.20 0.03721
1163.30 0.0372
1163.40 0.03719
1163.50 0.03718
1163.60 0.03716
1163.70 0.03715
1163.80 0.03714
1163.90 0.03713
1164.00 0.03711
1164.10 0.0371
1164.20 0.03709
1164.30 0.03708
1164.40 0.03706
1164.50 0.03705
1164.60 0.03704
1164.70 0.03703
1164.80 0.03701
1164.90 0.037
1165.00 0.03699
1165.10 0.03698
1165.20 0.03697
1165.30 0.03695
1165.40 0.03694
1165.50 0.03693
1165.60 0.03692
1165.70 0.0369
1165.80 0.03689
1165.90 0.03688
1166.00 0.03687
1166.10 0.03685
1166.20 0.03684
1166.30 0.03683
1166.40 0.03682
1166.50 0.0368
1166.60 0.03679
1166.70 0.03678
1166.80 0.03677
1166.90 0.03675
1167.00 0.03674
1167.10 0.03673
1167.20 0.03672
1167.30 0.0367
1167.40 0.03669
1167.50 0.03668
1167.60 0.03667
1167.70 0.03666
1167.80 0.03664
1167.90 0.03663
1168.00 0.03662
1168.10 0.03661
1168.20 0.03659
1168.30 0.03658
1168.40 0.03657
1168.50 0.03656
1168.60 0.03655
1168.70 0.03653
1168.80 0.03652
1168.90 0.03651
1169.00 0.0365
1169.10 0.03648
1169.20 0.03647
1169.30 0.03646
1169.40 0.03645
1169.50 0.03644
1169.60 0.03642
1169.70 0.03641
1169.80 0.0364
1169.90 0.03639
1170.00 0.03637
1170.10 0.03636
1170.20 0.03635
1170.30 0.03634
1170.40 0.03633
1170.50 0.03631
1170.60 0.0363
1170.70 0.03629
1170.80 0.03628
1170.90 0.03626
1171.00 0.03625
1171.10 0.03624
1171.20 0.03623
1171.30 0.03622
1171.40 0.0362
1171.50 0.03619
1171.60 0.03618
1171.70 0.03617
1171.80 0.03616
1171.90 0.03614
1172.00 0.03613
1172.10 0.03612
1172.20 0.03611
1172.30 0.03609
1172.40 0.03608
1172.50 0.03607
1172.60 0.03606
1172.70 0.03605
1172.80 0.03603
1172.90 0.03602
1173.00 0.03601
1173.10 0.036
1173.20 0.03599
1173.30 0.03597
1173.40 0.03596
1173.50 0.03595
1173.60 0.03594
1173.70 0.03593
1173.80 0.03591
1173.90 0.0359
1174.00 0.03589
1174.10 0.03588
1174.20 0.03587
1174.30 0.03585
1174.40 0.03584
1174.50 0.03583
1174.60 0.03582
1174.70 0.03581
1174.80 0.03579
1174.90 0.03578
1175.00 0.03577
1175.10 0.03576
1175.20 0.03575
1175.30 0.03573
1175.40 0.03572
1175.50 0.03571
1175.60 0.0357
1175.70 0.03569
1175.80 0.03568
1175.90 0.03566
1176.00 0.03565
1176.10 0.03564
1176.20 0.03563
1176.30 0.03562
1176.40 0.0356
1176.50 0.03559
1176.60 0.03558
1176.70 0.03557
1176.80 0.03556
1176.90 0.03554
1177.00 0.03553
1177.10 0.03552
1177.20 0.03551
1177.30 0.0355
1177.40 0.03549
1177.50 0.03547
1177.60 0.03546
1177.70 0.03545
1177.80 0.03544
1177.90 0.03543
1178.00 0.03541
1178.10 0.0354
1178.20 0.03539
1178.30 0.03538
1178.40 0.03537
1178.50 0.03536
1178.60 0.03534
1178.70 0.03533
1178.80 0.03532
1178.90 0.03531
1179.00 0.0353
1179.10 0.03529
1179.20 0.03527
1179.30 0.03526
1179.40 0.03525
1179.50 0.03524
1179.60 0.03523
1179.70 0.03522
1179.80 0.0352
1179.90 0.03519
1180.00 0.03518
1180.10 0.03517
1180.20 0.03516
1180.30 0.03514
1180.40 0.03513
1180.50 0.03512
1180.60 0.03511
1180.70 0.0351
1180.80 0.03509
1180.90 0.03507
1181.00 0.03506
1181.10 0.03505
1181.20 0.03504
1181.30 0.03503
1181.40 0.03502
1181.50 0.035
1181.60 0.03499
1181.70 0.03498
1181.80 0.03497
1181.90 0.03496
1182.00 0.03495
1182.10 0.03494
1182.20 0.03492
1182.30 0.03491
1182.40 0.0349
1182.50 0.03489
1182.60 0.03488
1182.70 0.03487
1182.80 0.03485
1182.90 0.03484
1183.00 0.03483
1183.10 0.03482
1183.20 0.03481
1183.30 0.0348
1183.40 0.03479
1183.50 0.03477
1183.60 0.03476
1183.70 0.03475
1183.80 0.03474
1183.90 0.03473
1184.00 0.03472
1184.10 0.0347
1184.20 0.03469
1184.30 0.03468
1184.40 0.03467
1184.50 0.03466
1184.60 0.03465
1184.70 0.03464
1184.80 0.03462
1184.90 0.03461
1185.00 0.0346
1185.10 0.03459
1185.20 0.03458
1185.30 0.03457
1185.40 0.03456
1185.50 0.03454
1185.60 0.03453
1185.70 0.03452
1185.80 0.03451
1185.90 0.0345
1186.00 0.03449
1186.10 0.03448
1186.20 0.03446
1186.30 0.03445
1186.40 0.03444
1186.50 0.03443
1186.60 0.03442
1186.70 0.03441
1186.80 0.0344
1186.90 0.03438
1187.00 0.03437
1187.10 0.03436
1187.20 0.03435
1187.30 0.03434
1187.40 0.03433
1187.50 0.03432
1187.60 0.0343
1187.70 0.03429
1187.80 0.03428
1187.90 0.03427
1188.00 0.03426
1188.10 0.03425
1188.20 0.03424
1188.30 0.03423
1188.40 0.03421
1188.50 0.0342
1188.60 0.03419
1188.70 0.03418
1188.80 0.03417
1188.90 0.03416
1189.00 0.03415
1189.10 0.03414
1189.20 0.03412
1189.30 0.03411
1189.40 0.0341
1189.50 0.03409
1189.60 0.03408
1189.70 0.03407
1189.80 0.03406
1189.90 0.03405
1190.00 0.03403
1190.10 0.03402
1190.20 0.03401
1190.30 0.034
1190.40 0.03399
1190.50 0.03398
1190.60 0.03397
1190.70 0.03396
1190.80 0.03394
1190.90 0.03393
1191.00 0.03392
1191.10 0.03391
1191.20 0.0339
1191.30 0.03389
1191.40 0.03388
1191.50 0.03387
1191.60 0.03385
1191.70 0.03384
1191.80 0.03383
1191.90 0.03382
1192.00 0.03381
1192.10 0.0338
1192.20 0.03379
1192.30 0.03378
1192.40 0.03377
1192.50 0.03375
1192.60 0.03374
1192.70 0.03373
1192.80 0.03372
1192.90 0.03371
1193.00 0.0337
1193.10 0.03369
1193.20 0.03368
1193.30 0.03367
1193.40 0.03366
1193.50 0.03364
1193.60 0.03363
1193.70 0.03362
1193.80 0.03361
1193.90 0.0336
1194.00 0.03359
1194.10 0.03358
1194.20 0.03357
1194.30 0.03356
1194.40 0.03354
1194.50 0.03353
1194.60 0.03352
1194.70 0.03351
1194.80 0.0335
1194.90 0.03349
1195.00 0.03348
1195.10 0.03347
1195.20 0.03346
1195.30 0.03345
1195.40 0.03343
1195.50 0.03342
1195.60 0.03341
1195.70 0.0334
1195.80 0.03339
1195.90 0.03338
1196.00 0.03337
1196.10 0.03336
1196.20 0.03335
1196.30 0.03334
1196.40 0.03333
1196.50 0.03331
1196.60 0.0333
1196.70 0.03329
1196.80 0.03328
1196.90 0.03327
1197.00 0.03326
1197.10 0.03325
1197.20 0.03324
1197.30 0.03323
1197.40 0.03322
1197.50 0.03321
1197.60 0.03319
1197.70 0.03318
1197.80 0.03317
1197.90 0.03316
1198.00 0.03315
1198.10 0.03314
1198.20 0.03313
1198.30 0.03312
1198.40 0.03311
1198.50 0.0331
1198.60 0.03309
1198.70 0.03307
1198.80 0.03306
1198.90 0.03305
1199.00 0.03304
1199.10 0.03303
1199.20 0.03302
1199.30 0.03301
1199.40 0.033
1199.50 0.03299
1199.60 0.03298
1199.70 0.03297
1199.80 0.03296
1199.90 0.03295
1200.00 0
