# Version 2.1 - nm, norm@500 to 1, cut digits, bergeron_80000_95.dat_80000
# Wavelength(nm)  Flambda(ergs/cm^s/s/nm)
300.00 6.723
300.10 6.715
300.20 6.706
300.30 6.698
300.40 6.69
300.50 6.681
300.60 6.673
300.70 6.665
300.80 6.657
300.90 6.648
301.00 6.64
301.10 6.632
301.20 6.624
301.30 6.615
301.40 6.607
301.50 6.599
301.60 6.591
301.70 6.583
301.80 6.575
301.90 6.566
302.00 6.558
302.10 6.55
302.20 6.542
302.30 6.534
302.40 6.526
302.50 6.518
302.60 6.51
302.70 6.502
302.80 6.494
302.90 6.486
303.00 6.478
303.10 6.47
303.20 6.462
303.30 6.454
303.40 6.446
303.50 6.438
303.60 6.43
303.70 6.422
303.80 6.414
303.90 6.406
304.00 6.398
304.10 6.391
304.20 6.383
304.30 6.375
304.40 6.367
304.50 6.359
304.60 6.351
304.70 6.344
304.80 6.336
304.90 6.328
305.00 6.32
305.10 6.313
305.20 6.305
305.30 6.297
305.40 6.289
305.50 6.282
305.60 6.274
305.70 6.266
305.80 6.259
305.90 6.251
306.00 6.243
306.10 6.236
306.20 6.228
306.30 6.221
306.40 6.213
306.50 6.205
306.60 6.198
306.70 6.19
306.80 6.183
306.90 6.175
307.00 6.168
307.10 6.16
307.20 6.153
307.30 6.145
307.40 6.138
307.50 6.13
307.60 6.123
307.70 6.115
307.80 6.108
307.90 6.101
308.00 6.093
308.10 6.086
308.20 6.078
308.30 6.071
308.40 6.064
308.50 6.056
308.60 6.049
308.70 6.042
308.80 6.034
308.90 6.027
309.00 6.02
309.10 6.012
309.20 6.005
309.30 5.998
309.40 5.991
309.50 5.983
309.60 5.976
309.70 5.969
309.80 5.962
309.90 5.954
310.00 5.947
310.10 5.94
310.20 5.933
310.30 5.926
310.40 5.919
310.50 5.912
310.60 5.904
310.70 5.897
310.80 5.89
310.90 5.883
311.00 5.876
311.10 5.869
311.20 5.862
311.30 5.855
311.40 5.848
311.50 5.841
311.60 5.834
311.70 5.827
311.80 5.82
311.90 5.813
312.00 5.806
312.10 5.799
312.20 5.792
312.30 5.785
312.40 5.778
312.50 5.771
312.60 5.764
312.70 5.757
312.80 5.75
312.90 5.744
313.00 5.737
313.10 5.73
313.20 5.723
313.30 5.716
313.40 5.709
313.50 5.703
313.60 5.696
313.70 5.689
313.80 5.682
313.90 5.675
314.00 5.669
314.10 5.662
314.20 5.655
314.30 5.648
314.40 5.642
314.50 5.635
314.60 5.628
314.70 5.621
314.80 5.615
314.90 5.608
315.00 5.601
315.10 5.595
315.20 5.588
315.30 5.582
315.40 5.575
315.50 5.568
315.60 5.562
315.70 5.555
315.80 5.549
315.90 5.542
316.00 5.535
316.10 5.529
316.20 5.522
316.30 5.516
316.40 5.509
316.50 5.503
316.60 5.496
316.70 5.49
316.80 5.483
316.90 5.477
317.00 5.47
317.10 5.464
317.20 5.457
317.30 5.451
317.40 5.444
317.50 5.438
317.60 5.432
317.70 5.425
317.80 5.419
317.90 5.412
318.00 5.406
318.10 5.4
318.20 5.393
318.30 5.387
318.40 5.381
318.50 5.374
318.60 5.368
318.70 5.362
318.80 5.355
318.90 5.349
319.00 5.343
319.10 5.337
319.20 5.33
319.30 5.324
319.40 5.318
319.50 5.312
319.60 5.305
319.70 5.299
319.80 5.293
319.90 5.287
320.00 5.28
320.10 5.274
320.20 5.268
320.30 5.262
320.40 5.256
320.50 5.25
320.60 5.244
320.70 5.237
320.80 5.231
320.90 5.225
321.00 5.219
321.10 5.213
321.20 5.207
321.30 5.201
321.40 5.195
321.50 5.189
321.60 5.183
321.70 5.177
321.80 5.171
321.90 5.165
322.00 5.159
322.10 5.153
322.20 5.147
322.30 5.141
322.40 5.135
322.50 5.129
322.60 5.123
322.70 5.117
322.80 5.111
322.90 5.105
323.00 5.099
323.10 5.093
323.20 5.087
323.30 5.081
323.40 5.075
323.50 5.069
323.60 5.064
323.70 5.058
323.80 5.052
323.90 5.046
324.00 5.04
324.10 5.034
324.20 5.028
324.30 5.023
324.40 5.017
324.50 5.011
324.60 5.005
324.70 5
324.80 4.994
324.90 4.988
325.00 4.982
325.10 4.976
325.20 4.971
325.30 4.965
325.40 4.959
325.50 4.954
325.60 4.948
325.70 4.942
325.80 4.936
325.90 4.931
326.00 4.925
326.10 4.919
326.20 4.914
326.30 4.908
326.40 4.903
326.50 4.897
326.60 4.891
326.70 4.886
326.80 4.88
326.90 4.874
327.00 4.869
327.10 4.863
327.20 4.858
327.30 4.852
327.40 4.847
327.50 4.841
327.60 4.835
327.70 4.83
327.80 4.824
327.90 4.819
328.00 4.813
328.10 4.808
328.20 4.802
328.30 4.797
328.40 4.791
328.50 4.786
328.60 4.78
328.70 4.775
328.80 4.77
328.90 4.764
329.00 4.759
329.10 4.753
329.20 4.748
329.30 4.742
329.40 4.737
329.50 4.732
329.60 4.726
329.70 4.721
329.80 4.715
329.90 4.71
330.00 4.705
330.10 4.699
330.20 4.694
330.30 4.689
330.40 4.683
330.50 4.678
330.60 4.673
330.70 4.668
330.80 4.662
330.90 4.657
331.00 4.652
331.10 4.646
331.20 4.641
331.30 4.636
331.40 4.631
331.50 4.625
331.60 4.62
331.70 4.615
331.80 4.61
331.90 4.604
332.00 4.599
332.10 4.594
332.20 4.589
332.30 4.584
332.40 4.579
332.50 4.573
332.60 4.568
332.70 4.563
332.80 4.558
332.90 4.553
333.00 4.548
333.10 4.543
333.20 4.537
333.30 4.532
333.40 4.527
333.50 4.522
333.60 4.517
333.70 4.512
333.80 4.507
333.90 4.502
334.00 4.497
334.10 4.492
334.20 4.487
334.30 4.482
334.40 4.477
334.50 4.472
334.60 4.467
334.70 4.462
334.80 4.457
334.90 4.452
335.00 4.447
335.10 4.442
335.20 4.437
335.30 4.432
335.40 4.427
335.50 4.422
335.60 4.417
335.70 4.412
335.80 4.407
335.90 4.402
336.00 4.397
336.10 4.392
336.20 4.387
336.30 4.382
336.40 4.377
336.50 4.372
336.60 4.368
336.70 4.363
336.80 4.358
336.90 4.353
337.00 4.348
337.10 4.343
337.20 4.339
337.30 4.334
337.40 4.329
337.50 4.324
337.60 4.319
337.70 4.314
337.80 4.31
337.90 4.305
338.00 4.3
338.10 4.295
338.20 4.29
338.30 4.286
338.40 4.281
338.50 4.276
338.60 4.271
338.70 4.267
338.80 4.262
338.90 4.257
339.00 4.253
339.10 4.248
339.20 4.243
339.30 4.238
339.40 4.234
339.50 4.229
339.60 4.224
339.70 4.22
339.80 4.215
339.90 4.21
340.00 4.206
340.10 4.201
340.20 4.196
340.30 4.192
340.40 4.187
340.50 4.183
340.60 4.178
340.70 4.173
340.80 4.169
340.90 4.164
341.00 4.16
341.10 4.155
341.20 4.15
341.30 4.146
341.40 4.141
341.50 4.137
341.60 4.132
341.70 4.128
341.80 4.123
341.90 4.118
342.00 4.114
342.10 4.109
342.20 4.105
342.30 4.1
342.40 4.096
342.50 4.091
342.60 4.087
342.70 4.082
342.80 4.078
342.90 4.074
343.00 4.069
343.10 4.065
343.20 4.06
343.30 4.056
343.40 4.051
343.50 4.047
343.60 4.042
343.70 4.038
343.80 4.034
343.90 4.029
344.00 4.025
344.10 4.02
344.20 4.016
344.30 4.012
344.40 4.007
344.50 4.003
344.60 3.998
344.70 3.994
344.80 3.99
344.90 3.985
345.00 3.981
345.10 3.977
345.20 3.972
345.30 3.968
345.40 3.964
345.50 3.959
345.60 3.955
345.70 3.951
345.80 3.946
345.90 3.942
346.00 3.938
346.10 3.934
346.20 3.929
346.30 3.925
346.40 3.921
346.50 3.917
346.60 3.912
346.70 3.908
346.80 3.904
346.90 3.9
347.00 3.895
347.10 3.891
347.20 3.887
347.30 3.883
347.40 3.879
347.50 3.874
347.60 3.87
347.70 3.866
347.80 3.862
347.90 3.858
348.00 3.853
348.10 3.849
348.20 3.845
348.30 3.841
348.40 3.837
348.50 3.833
348.60 3.829
348.70 3.824
348.80 3.82
348.90 3.816
349.00 3.812
349.10 3.808
349.20 3.804
349.30 3.8
349.40 3.796
349.50 3.792
349.60 3.787
349.70 3.783
349.80 3.779
349.90 3.775
350.00 3.771
350.10 3.767
350.20 3.763
350.30 3.759
350.40 3.755
350.50 3.751
350.60 3.747
350.70 3.743
350.80 3.739
350.90 3.735
351.00 3.731
351.10 3.727
351.20 3.723
351.30 3.719
351.40 3.715
351.50 3.711
351.60 3.707
351.70 3.703
351.80 3.699
351.90 3.695
352.00 3.691
352.10 3.687
352.20 3.683
352.30 3.679
352.40 3.675
352.50 3.672
352.60 3.668
352.70 3.664
352.80 3.66
352.90 3.656
353.00 3.652
353.10 3.648
353.20 3.644
353.30 3.64
353.40 3.636
353.50 3.633
353.60 3.629
353.70 3.625
353.80 3.621
353.90 3.617
354.00 3.613
354.10 3.609
354.20 3.606
354.30 3.602
354.40 3.598
354.50 3.594
354.60 3.59
354.70 3.586
354.80 3.583
354.90 3.579
355.00 3.575
355.10 3.571
355.20 3.568
355.30 3.564
355.40 3.56
355.50 3.556
355.60 3.552
355.70 3.549
355.80 3.545
355.90 3.541
356.00 3.537
356.10 3.534
356.20 3.53
356.30 3.526
356.40 3.522
356.50 3.519
356.60 3.515
356.70 3.511
356.80 3.508
356.90 3.504
357.00 3.5
357.10 3.497
357.20 3.493
357.30 3.489
357.40 3.485
357.50 3.482
357.60 3.478
357.70 3.474
357.80 3.471
357.90 3.467
358.00 3.463
358.10 3.46
358.20 3.456
358.30 3.453
358.40 3.449
358.50 3.445
358.60 3.442
358.70 3.438
358.80 3.434
358.90 3.431
359.00 3.427
359.10 3.424
359.20 3.42
359.30 3.417
359.40 3.413
359.50 3.409
359.60 3.406
359.70 3.402
359.80 3.399
359.90 3.395
360.00 3.391
360.10 3.388
360.20 3.384
360.30 3.381
360.40 3.377
360.50 3.374
360.60 3.37
360.70 3.367
360.80 3.363
360.90 3.36
361.00 3.356
361.10 3.353
361.20 3.349
361.30 3.346
361.40 3.342
361.50 3.339
361.60 3.335
361.70 3.332
361.80 3.328
361.90 3.325
362.00 3.321
362.10 3.318
362.20 3.315
362.30 3.311
362.40 3.308
362.50 3.304
362.60 3.301
362.70 3.297
362.80 3.294
362.90 3.29
363.00 3.287
363.10 3.284
363.20 3.28
363.30 3.277
363.40 3.273
363.50 3.27
363.60 3.267
363.70 3.263
363.80 3.26
363.90 3.257
364.00 3.253
364.10 3.25
364.20 3.246
364.30 3.243
364.40 3.24
364.50 3.236
364.60 3.233
364.70 3.23
364.80 3.226
364.90 3.223
365.00 3.22
365.10 3.216
365.20 3.213
365.30 3.21
365.40 3.206
365.50 3.203
365.60 3.2
365.70 3.196
365.80 3.193
365.90 3.19
366.00 3.187
366.10 3.183
366.20 3.18
366.30 3.177
366.40 3.173
366.50 3.17
366.60 3.167
366.70 3.164
366.80 3.16
366.90 3.157
367.00 3.154
367.10 3.151
367.20 3.147
367.30 3.144
367.40 3.141
367.50 3.138
367.60 3.134
367.70 3.131
367.80 3.128
367.90 3.125
368.00 3.122
368.10 3.118
368.20 3.115
368.30 3.112
368.40 3.108
368.50 3.105
368.60 3.102
368.70 3.099
368.80 3.095
368.90 3.092
369.00 3.089
369.10 3.086
369.20 3.082
369.30 3.079
369.40 3.076
369.50 3.073
369.60 3.07
369.70 3.066
369.80 3.063
369.90 3.06
370.00 3.057
370.10 3.053
370.20 3.05
370.30 3.047
370.40 3.044
370.50 3.041
370.60 3.037
370.70 3.034
370.80 3.031
370.90 3.028
371.00 3.025
371.10 3.022
371.20 3.018
371.30 3.015
371.40 3.012
371.50 3.009
371.60 3.006
371.70 3.002
371.80 2.999
371.90 2.996
372.00 2.993
372.10 2.99
372.20 2.987
372.30 2.984
372.40 2.981
372.50 2.978
372.60 2.975
372.70 2.972
372.80 2.969
372.90 2.966
373.00 2.964
373.10 2.961
373.20 2.958
373.30 2.955
373.40 2.952
373.50 2.949
373.60 2.946
373.70 2.943
373.80 2.94
373.90 2.937
374.00 2.934
374.10 2.931
374.20 2.928
374.30 2.925
374.40 2.922
374.50 2.919
374.60 2.916
374.70 2.913
374.80 2.91
374.90 2.907
375.00 2.904
375.10 2.901
375.20 2.898
375.30 2.895
375.40 2.892
375.50 2.889
375.60 2.886
375.70 2.883
375.80 2.88
375.90 2.877
376.00 2.874
376.10 2.871
376.20 2.868
376.30 2.865
376.40 2.862
376.50 2.859
376.60 2.856
376.70 2.853
376.80 2.85
376.90 2.847
377.00 2.844
377.10 2.841
377.20 2.838
377.30 2.836
377.40 2.833
377.50 2.83
377.60 2.827
377.70 2.824
377.80 2.821
377.90 2.818
378.00 2.816
378.10 2.813
378.20 2.81
378.30 2.807
378.40 2.804
378.50 2.801
378.60 2.799
378.70 2.796
378.80 2.793
378.90 2.79
379.00 2.787
379.10 2.784
379.20 2.782
379.30 2.779
379.40 2.776
379.50 2.773
379.60 2.77
379.70 2.768
379.80 2.765
379.90 2.762
380.00 2.759
380.10 2.756
380.20 2.754
380.30 2.751
380.40 2.748
380.50 2.745
380.60 2.743
380.70 2.74
380.80 2.737
380.90 2.734
381.00 2.732
381.10 2.729
381.20 2.726
381.30 2.723
381.40 2.721
381.50 2.718
381.60 2.715
381.70 2.713
381.80 2.71
381.90 2.707
382.00 2.705
382.10 2.702
382.20 2.699
382.30 2.697
382.40 2.694
382.50 2.691
382.60 2.689
382.70 2.686
382.80 2.683
382.90 2.681
383.00 2.678
383.10 2.675
383.20 2.673
383.30 2.67
383.40 2.667
383.50 2.665
383.60 2.662
383.70 2.659
383.80 2.657
383.90 2.654
384.00 2.652
384.10 2.649
384.20 2.646
384.30 2.644
384.40 2.641
384.50 2.639
384.60 2.636
384.70 2.634
384.80 2.631
384.90 2.628
385.00 2.626
385.10 2.623
385.20 2.621
385.30 2.618
385.40 2.616
385.50 2.613
385.60 2.611
385.70 2.608
385.80 2.605
385.90 2.603
386.00 2.6
386.10 2.598
386.20 2.595
386.30 2.593
386.40 2.59
386.50 2.588
386.60 2.585
386.70 2.583
386.80 2.58
386.90 2.578
387.00 2.575
387.10 2.573
387.20 2.57
387.30 2.568
387.40 2.565
387.50 2.563
387.60 2.56
387.70 2.558
387.80 2.556
387.90 2.553
388.00 2.551
388.10 2.548
388.20 2.546
388.30 2.543
388.40 2.541
388.50 2.539
388.60 2.536
388.70 2.534
388.80 2.531
388.90 2.529
389.00 2.527
389.10 2.524
389.20 2.522
389.30 2.519
389.40 2.517
389.50 2.515
389.60 2.512
389.70 2.51
389.80 2.508
389.90 2.505
390.00 2.503
390.10 2.501
390.20 2.498
390.30 2.496
390.40 2.494
390.50 2.491
390.60 2.489
390.70 2.487
390.80 2.484
390.90 2.482
391.00 2.48
391.10 2.477
391.20 2.475
391.30 2.473
391.40 2.47
391.50 2.468
391.60 2.466
391.70 2.464
391.80 2.461
391.90 2.459
392.00 2.457
392.10 2.454
392.20 2.452
392.30 2.45
392.40 2.447
392.50 2.445
392.60 2.443
392.70 2.44
392.80 2.438
392.90 2.436
393.00 2.434
393.10 2.431
393.20 2.429
393.30 2.427
393.40 2.424
393.50 2.422
393.60 2.42
393.70 2.417
393.80 2.415
393.90 2.413
394.00 2.41
394.10 2.408
394.20 2.406
394.30 2.403
394.40 2.401
394.50 2.399
394.60 2.397
394.70 2.394
394.80 2.392
394.90 2.39
395.00 2.387
395.10 2.385
395.20 2.383
395.30 2.38
395.40 2.378
395.50 2.376
395.60 2.373
395.70 2.371
395.80 2.369
395.90 2.367
396.00 2.364
396.10 2.362
396.20 2.36
396.30 2.357
396.40 2.355
396.50 2.353
396.60 2.351
396.70 2.349
396.80 2.346
396.90 2.344
397.00 2.342
397.10 2.34
397.20 2.338
397.30 2.336
397.40 2.334
397.50 2.332
397.60 2.33
397.70 2.328
397.80 2.326
397.90 2.324
398.00 2.322
398.10 2.32
398.20 2.319
398.30 2.317
398.40 2.315
398.50 2.313
398.60 2.311
398.70 2.309
398.80 2.307
398.90 2.305
399.00 2.303
399.10 2.301
399.20 2.3
399.30 2.298
399.40 2.296
399.50 2.294
399.60 2.292
399.70 2.29
399.80 2.288
399.90 2.286
400.00 2.284
400.10 2.282
400.20 2.28
400.30 2.278
400.40 2.276
400.50 2.274
400.60 2.272
400.70 2.27
400.80 2.268
400.90 2.266
401.00 2.264
401.10 2.262
401.20 2.26
401.30 2.258
401.40 2.256
401.50 2.254
401.60 2.252
401.70 2.25
401.80 2.248
401.90 2.246
402.00 2.244
402.10 2.242
402.20 2.24
402.30 2.238
402.40 2.236
402.50 2.234
402.60 2.232
402.70 2.229
402.80 2.227
402.90 2.225
403.00 2.223
403.10 2.221
403.20 2.219
403.30 2.216
403.40 2.214
403.50 2.212
403.60 2.21
403.70 2.208
403.80 2.206
403.90 2.203
404.00 2.201
404.10 2.199
404.20 2.197
404.30 2.194
404.40 2.192
404.50 2.19
404.60 2.187
404.70 2.185
404.80 2.183
404.90 2.181
405.00 2.178
405.10 2.176
405.20 2.174
405.30 2.171
405.40 2.169
405.50 2.166
405.60 2.164
405.70 2.162
405.80 2.159
405.90 2.157
406.00 2.154
406.10 2.152
406.20 2.15
406.30 2.147
406.40 2.145
406.50 2.142
406.60 2.14
406.70 2.137
406.80 2.135
406.90 2.132
407.00 2.13
407.10 2.127
407.20 2.125
407.30 2.122
407.40 2.12
407.50 2.117
407.60 2.115
407.70 2.112
407.80 2.11
407.90 2.107
408.00 2.105
408.10 2.102
408.20 2.1
408.30 2.097
408.40 2.095
408.50 2.092
408.60 2.09
408.70 2.088
408.80 2.085
408.90 2.083
409.00 2.08
409.10 2.078
409.20 2.076
409.30 2.074
409.40 2.072
409.50 2.07
409.60 2.068
409.70 2.066
409.80 2.064
409.90 2.062
410.00 2.061
410.10 2.059
410.20 2.057
410.30 2.056
410.40 2.054
410.50 2.052
410.60 2.05
410.70 2.048
410.80 2.047
410.90 2.045
411.00 2.044
411.10 2.042
411.20 2.041
411.30 2.04
411.40 2.039
411.50 2.037
411.60 2.036
411.70 2.035
411.80 2.034
411.90 2.033
412.00 2.032
412.10 2.031
412.20 2.03
412.30 2.029
412.40 2.028
412.50 2.027
412.60 2.026
412.70 2.025
412.80 2.023
412.90 2.022
413.00 2.021
413.10 2.02
413.20 2.019
413.30 2.018
413.40 2.017
413.50 2.016
413.60 2.015
413.70 2.014
413.80 2.013
413.90 2.012
414.00 2.01
414.10 2.009
414.20 2.008
414.30 2.007
414.40 2.006
414.50 2.005
414.60 2.004
414.70 2.002
414.80 2.001
414.90 2
415.00 1.999
415.10 1.998
415.20 1.996
415.30 1.995
415.40 1.994
415.50 1.993
415.60 1.991
415.70 1.99
415.80 1.989
415.90 1.987
416.00 1.986
416.10 1.985
416.20 1.983
416.30 1.982
416.40 1.981
416.50 1.979
416.60 1.978
416.70 1.977
416.80 1.975
416.90 1.974
417.00 1.972
417.10 1.971
417.20 1.97
417.30 1.968
417.40 1.967
417.50 1.965
417.60 1.964
417.70 1.962
417.80 1.961
417.90 1.959
418.00 1.958
418.10 1.956
418.20 1.955
418.30 1.953
418.40 1.952
418.50 1.95
418.60 1.949
418.70 1.947
418.80 1.946
418.90 1.944
419.00 1.942
419.10 1.941
419.20 1.939
419.30 1.938
419.40 1.936
419.50 1.935
419.60 1.933
419.70 1.931
419.80 1.93
419.90 1.928
420.00 1.926
420.10 1.925
420.20 1.923
420.30 1.921
420.40 1.92
420.50 1.918
420.60 1.916
420.70 1.915
420.80 1.913
420.90 1.911
421.00 1.909
421.10 1.908
421.20 1.906
421.30 1.904
421.40 1.903
421.50 1.901
421.60 1.899
421.70 1.897
421.80 1.895
421.90 1.894
422.00 1.892
422.10 1.89
422.20 1.888
422.30 1.886
422.40 1.885
422.50 1.883
422.60 1.881
422.70 1.879
422.80 1.877
422.90 1.875
423.00 1.873
423.10 1.872
423.20 1.87
423.30 1.868
423.40 1.866
423.50 1.864
423.60 1.862
423.70 1.86
423.80 1.858
423.90 1.856
424.00 1.854
424.10 1.852
424.20 1.85
424.30 1.848
424.40 1.846
424.50 1.844
424.60 1.842
424.70 1.84
424.80 1.838
424.90 1.836
425.00 1.834
425.10 1.832
425.20 1.83
425.30 1.828
425.40 1.826
425.50 1.823
425.60 1.821
425.70 1.819
425.80 1.817
425.90 1.815
426.00 1.813
426.10 1.81
426.20 1.808
426.30 1.806
426.40 1.804
426.50 1.802
426.60 1.799
426.70 1.797
426.80 1.795
426.90 1.792
427.00 1.79
427.10 1.788
427.20 1.785
427.30 1.783
427.40 1.781
427.50 1.778
427.60 1.776
427.70 1.773
427.80 1.771
427.90 1.768
428.00 1.766
428.10 1.763
428.20 1.761
428.30 1.758
428.40 1.756
428.50 1.753
428.60 1.751
428.70 1.748
428.80 1.745
428.90 1.743
429.00 1.74
429.10 1.737
429.20 1.735
429.30 1.732
429.40 1.729
429.50 1.726
429.60 1.724
429.70 1.721
429.80 1.718
429.90 1.715
430.00 1.712
430.10 1.71
430.20 1.707
430.30 1.704
430.40 1.701
430.50 1.698
430.60 1.695
430.70 1.692
430.80 1.689
430.90 1.686
431.00 1.683
431.10 1.68
431.20 1.677
431.30 1.674
431.40 1.671
431.50 1.668
431.60 1.665
431.70 1.661
431.80 1.658
431.90 1.655
432.00 1.652
432.10 1.649
432.20 1.646
432.30 1.642
432.40 1.639
432.50 1.636
432.60 1.633
432.70 1.629
432.80 1.626
432.90 1.623
433.00 1.619
433.10 1.616
433.20 1.612
433.30 1.609
433.40 1.605
433.50 1.601
433.60 1.597
433.70 1.593
433.80 1.588
433.90 1.584
434.00 1.58
434.10 1.58
434.20 1.581
434.30 1.583
434.40 1.584
434.50 1.586
434.60 1.587
434.70 1.589
434.80 1.59
434.90 1.591
435.00 1.592
435.10 1.593
435.20 1.593
435.30 1.594
435.40 1.595
435.50 1.595
435.60 1.596
435.70 1.596
435.80 1.597
435.90 1.597
436.00 1.598
436.10 1.598
436.20 1.598
436.30 1.599
436.40 1.599
436.50 1.599
436.60 1.6
436.70 1.6
436.80 1.6
436.90 1.601
437.00 1.601
437.10 1.601
437.20 1.601
437.30 1.601
437.40 1.602
437.50 1.602
437.60 1.602
437.70 1.602
437.80 1.602
437.90 1.602
438.00 1.602
438.10 1.602
438.20 1.602
438.30 1.602
438.40 1.602
438.50 1.602
438.60 1.602
438.70 1.601
438.80 1.601
438.90 1.601
439.00 1.601
439.10 1.601
439.20 1.6
439.30 1.6
439.40 1.6
439.50 1.6
439.60 1.599
439.70 1.599
439.80 1.599
439.90 1.598
440.00 1.598
440.10 1.597
440.20 1.597
440.30 1.596
440.40 1.596
440.50 1.595
440.60 1.595
440.70 1.594
440.80 1.594
440.90 1.593
441.00 1.593
441.10 1.592
441.20 1.592
441.30 1.591
441.40 1.59
441.50 1.59
441.60 1.589
441.70 1.588
441.80 1.588
441.90 1.587
442.00 1.586
442.10 1.585
442.20 1.585
442.30 1.584
442.40 1.583
442.50 1.582
442.60 1.582
442.70 1.581
442.80 1.58
442.90 1.579
443.00 1.578
443.10 1.577
443.20 1.577
443.30 1.576
443.40 1.575
443.50 1.574
443.60 1.573
443.70 1.572
443.80 1.571
443.90 1.57
444.00 1.569
444.10 1.568
444.20 1.567
444.30 1.566
444.40 1.566
444.50 1.565
444.60 1.564
444.70 1.563
444.80 1.562
444.90 1.561
445.00 1.56
445.10 1.559
445.20 1.558
445.30 1.557
445.40 1.556
445.50 1.554
445.60 1.553
445.70 1.552
445.80 1.551
445.90 1.55
446.00 1.549
446.10 1.548
446.20 1.547
446.30 1.546
446.40 1.545
446.50 1.544
446.60 1.543
446.70 1.542
446.80 1.541
446.90 1.54
447.00 1.538
447.10 1.537
447.20 1.536
447.30 1.535
447.40 1.534
447.50 1.533
447.60 1.532
447.70 1.531
447.80 1.53
447.90 1.528
448.00 1.527
448.10 1.526
448.20 1.525
448.30 1.524
448.40 1.523
448.50 1.522
448.60 1.52
448.70 1.519
448.80 1.518
448.90 1.517
449.00 1.516
449.10 1.515
449.20 1.514
449.30 1.512
449.40 1.511
449.50 1.51
449.60 1.509
449.70 1.508
449.80 1.507
449.90 1.505
450.00 1.504
450.10 1.503
450.20 1.502
450.30 1.501
450.40 1.5
450.50 1.498
450.60 1.497
450.70 1.496
450.80 1.495
450.90 1.494
451.00 1.492
451.10 1.491
451.20 1.49
451.30 1.489
451.40 1.488
451.50 1.487
451.60 1.485
451.70 1.484
451.80 1.483
451.90 1.482
452.00 1.481
452.10 1.479
452.20 1.478
452.30 1.477
452.40 1.476
452.50 1.475
452.60 1.473
452.70 1.472
452.80 1.471
452.90 1.47
453.00 1.469
453.10 1.467
453.20 1.466
453.30 1.465
453.40 1.464
453.50 1.463
453.60 1.462
453.70 1.46
453.80 1.459
453.90 1.458
454.00 1.457
454.10 1.456
454.20 1.454
454.30 1.453
454.40 1.452
454.50 1.451
454.60 1.45
454.70 1.448
454.80 1.447
454.90 1.446
455.00 1.445
455.10 1.444
455.20 1.442
455.30 1.441
455.40 1.44
455.50 1.439
455.60 1.438
455.70 1.437
455.80 1.435
455.90 1.434
456.00 1.433
456.10 1.432
456.20 1.431
456.30 1.429
456.40 1.428
456.50 1.427
456.60 1.426
456.70 1.425
456.80 1.423
456.90 1.422
457.00 1.421
457.10 1.42
457.20 1.419
457.30 1.418
457.40 1.416
457.50 1.415
457.60 1.414
457.70 1.413
457.80 1.412
457.90 1.41
458.00 1.409
458.10 1.408
458.20 1.407
458.30 1.406
458.40 1.405
458.50 1.403
458.60 1.402
458.70 1.401
458.80 1.4
458.90 1.399
459.00 1.397
459.10 1.396
459.20 1.395
459.30 1.394
459.40 1.393
459.50 1.392
459.60 1.39
459.70 1.389
459.80 1.388
459.90 1.387
460.00 1.386
460.10 1.385
460.20 1.383
460.30 1.382
460.40 1.381
460.50 1.38
460.60 1.379
460.70 1.378
460.80 1.376
460.90 1.375
461.00 1.374
461.10 1.373
461.20 1.372
461.30 1.371
461.40 1.369
461.50 1.368
461.60 1.367
461.70 1.366
461.80 1.365
461.90 1.364
462.00 1.362
462.10 1.361
462.20 1.36
462.30 1.359
462.40 1.358
462.50 1.357
462.60 1.355
462.70 1.354
462.80 1.353
462.90 1.352
463.00 1.351
463.10 1.35
463.20 1.348
463.30 1.347
463.40 1.346
463.50 1.345
463.60 1.344
463.70 1.343
463.80 1.342
463.90 1.34
464.00 1.339
464.10 1.338
464.20 1.337
464.30 1.336
464.40 1.335
464.50 1.333
464.60 1.332
464.70 1.331
464.80 1.33
464.90 1.329
465.00 1.328
465.10 1.326
465.20 1.325
465.30 1.324
465.40 1.323
465.50 1.322
465.60 1.321
465.70 1.32
465.80 1.318
465.90 1.317
466.00 1.316
466.10 1.315
466.20 1.314
466.30 1.313
466.40 1.311
466.50 1.31
466.60 1.309
466.70 1.308
466.80 1.307
466.90 1.306
467.00 1.305
467.10 1.303
467.20 1.302
467.30 1.301
467.40 1.3
467.50 1.299
467.60 1.298
467.70 1.296
467.80 1.295
467.90 1.294
468.00 1.293
468.10 1.292
468.20 1.291
468.30 1.289
468.40 1.288
468.50 1.287
468.60 1.286
468.70 1.285
468.80 1.284
468.90 1.282
469.00 1.281
469.10 1.28
469.20 1.279
469.30 1.278
469.40 1.277
469.50 1.275
469.60 1.274
469.70 1.273
469.80 1.272
469.90 1.271
470.00 1.27
470.10 1.268
470.20 1.267
470.30 1.266
470.40 1.265
470.50 1.264
470.60 1.263
470.70 1.261
470.80 1.26
470.90 1.259
471.00 1.258
471.10 1.257
471.20 1.255
471.30 1.254
471.40 1.253
471.50 1.252
471.60 1.251
471.70 1.249
471.80 1.248
471.90 1.247
472.00 1.246
472.10 1.245
472.20 1.243
472.30 1.242
472.40 1.241
472.50 1.24
472.60 1.238
472.70 1.237
472.80 1.236
472.90 1.235
473.00 1.234
473.10 1.232
473.20 1.231
473.30 1.23
473.40 1.229
473.50 1.227
473.60 1.226
473.70 1.225
473.80 1.224
473.90 1.222
474.00 1.221
474.10 1.22
474.20 1.218
474.30 1.217
474.40 1.216
474.50 1.215
474.60 1.213
474.70 1.212
474.80 1.211
474.90 1.209
475.00 1.208
475.10 1.207
475.20 1.205
475.30 1.204
475.40 1.203
475.50 1.201
475.60 1.2
475.70 1.199
475.80 1.197
475.90 1.196
476.00 1.195
476.10 1.193
476.20 1.192
476.30 1.19
476.40 1.189
476.50 1.188
476.60 1.186
476.70 1.185
476.80 1.183
476.90 1.182
477.00 1.18
477.10 1.179
477.20 1.178
477.30 1.176
477.40 1.174
477.50 1.173
477.60 1.171
477.70 1.17
477.80 1.168
477.90 1.167
478.00 1.165
478.10 1.164
478.20 1.162
478.30 1.161
478.40 1.159
478.50 1.157
478.60 1.156
478.70 1.154
478.80 1.152
478.90 1.151
479.00 1.149
479.10 1.148
479.20 1.146
479.30 1.144
479.40 1.142
479.50 1.141
479.60 1.139
479.70 1.137
479.80 1.135
479.90 1.133
480.00 1.132
480.10 1.13
480.20 1.128
480.30 1.126
480.40 1.124
480.50 1.122
480.60 1.12
480.70 1.118
480.80 1.116
480.90 1.114
481.00 1.112
481.10 1.11
481.20 1.108
481.30 1.106
481.40 1.104
481.50 1.102
481.60 1.1
481.70 1.097
481.80 1.095
481.90 1.093
482.00 1.091
482.10 1.089
482.20 1.087
482.30 1.084
482.40 1.082
482.50 1.079
482.60 1.077
482.70 1.075
482.80 1.072
482.90 1.07
483.00 1.067
483.10 1.065
483.20 1.062
483.30 1.06
483.40 1.057
483.50 1.055
483.60 1.052
483.70 1.049
483.80 1.047
483.90 1.044
484.00 1.041
484.10 1.039
484.20 1.036
484.30 1.033
484.40 1.031
484.50 1.028
484.60 1.025
484.70 1.022
484.80 1.02
484.90 1.017
485.00 1.014
485.10 1.012
485.20 1.009
485.30 1.007
485.40 1.005
485.50 1.003
485.60 1.002
485.70 1.001
485.80 1.003
485.90 1.005
486.00 1.01
486.10 1.016
486.20 1.014
486.30 1.005
486.40 1
486.50 0.9962
486.60 0.9943
486.70 0.9935
486.80 0.9935
486.90 0.9939
487.00 0.9946
487.10 0.9954
487.20 0.9964
487.30 0.9976
487.40 0.9987
487.50 0.9998
487.60 1.001
487.70 1.002
487.80 1.003
487.90 1.004
488.00 1.006
488.10 1.007
488.20 1.008
488.30 1.009
488.40 1.01
488.50 1.011
488.60 1.012
488.70 1.013
488.80 1.014
488.90 1.015
489.00 1.016
489.10 1.017
489.20 1.017
489.30 1.018
489.40 1.019
489.50 1.02
489.60 1.02
489.70 1.021
489.80 1.022
489.90 1.022
490.00 1.023
490.10 1.024
490.20 1.024
490.30 1.025
490.40 1.025
490.50 1.026
490.60 1.026
490.70 1.026
490.80 1.027
490.90 1.027
491.00 1.028
491.10 1.028
491.20 1.028
491.30 1.029
491.40 1.029
491.50 1.029
491.60 1.029
491.70 1.029
491.80 1.03
491.90 1.03
492.00 1.03
492.10 1.03
492.20 1.03
492.30 1.03
492.40 1.03
492.50 1.03
492.60 1.03
492.70 1.03
492.80 1.03
492.90 1.03
493.00 1.03
493.10 1.03
493.20 1.03
493.30 1.03
493.40 1.03
493.50 1.029
493.60 1.029
493.70 1.029
493.80 1.029
493.90 1.029
494.00 1.028
494.10 1.028
494.20 1.028
494.30 1.028
494.40 1.027
494.50 1.027
494.60 1.027
494.70 1.026
494.80 1.026
494.90 1.026
495.00 1.026
495.10 1.025
495.20 1.025
495.30 1.025
495.40 1.024
495.50 1.024
495.60 1.023
495.70 1.023
495.80 1.023
495.90 1.022
496.00 1.022
496.10 1.021
496.20 1.021
496.30 1.02
496.40 1.02
496.50 1.019
496.60 1.019
496.70 1.018
496.80 1.018
496.90 1.018
497.00 1.017
497.10 1.017
497.20 1.016
497.30 1.016
497.40 1.015
497.50 1.014
497.60 1.014
497.70 1.013
497.80 1.013
497.90 1.012
498.00 1.012
498.10 1.011
498.20 1.011
498.30 1.01
498.40 1.01
498.50 1.009
498.60 1.008
498.70 1.008
498.80 1.007
498.90 1.007
499.00 1.006
499.10 1.005
499.20 1.005
499.30 1.004
499.40 1.004
499.50 1.003
499.60 1.002
499.70 1.002
499.80 1.001
499.90 1.001
500.00 1
500.10 0.9994
500.20 0.9988
500.30 0.9981
500.40 0.9975
500.50 0.9969
500.60 0.9962
500.70 0.9956
500.80 0.995
500.90 0.9943
501.00 0.9937
501.10 0.9931
501.20 0.9924
501.30 0.9918
501.40 0.9911
501.50 0.9905
501.60 0.9898
501.70 0.9891
501.80 0.9885
501.90 0.9878
502.00 0.9872
502.10 0.9865
502.20 0.9859
502.30 0.9852
502.40 0.9846
502.50 0.9839
502.60 0.9832
502.70 0.9826
502.80 0.9819
502.90 0.9812
503.00 0.9806
503.10 0.9799
503.20 0.9792
503.30 0.9786
503.40 0.9779
503.50 0.9772
503.60 0.9765
503.70 0.9759
503.80 0.9752
503.90 0.9745
504.00 0.9738
504.10 0.9732
504.20 0.9725
504.30 0.9718
504.40 0.9711
504.50 0.9704
504.60 0.9698
504.70 0.9691
504.80 0.9684
504.90 0.9677
505.00 0.9671
505.10 0.9664
505.20 0.9657
505.30 0.965
505.40 0.9643
505.50 0.9636
505.60 0.963
505.70 0.9623
505.80 0.9616
505.90 0.9609
506.00 0.9602
506.10 0.9595
506.20 0.9589
506.30 0.9582
506.40 0.9575
506.50 0.9568
506.60 0.9561
506.70 0.9554
506.80 0.9548
506.90 0.9541
507.00 0.9534
507.10 0.9527
507.20 0.952
507.30 0.9513
507.40 0.9506
507.50 0.95
507.60 0.9493
507.70 0.9486
507.80 0.9479
507.90 0.9472
508.00 0.9465
508.10 0.9459
508.20 0.9452
508.30 0.9445
508.40 0.9438
508.50 0.9431
508.60 0.9424
508.70 0.9418
508.80 0.9411
508.90 0.9404
509.00 0.9397
509.10 0.939
509.20 0.9383
509.30 0.9377
509.40 0.937
509.50 0.9363
509.60 0.9356
509.70 0.9349
509.80 0.9342
509.90 0.9336
510.00 0.9329
510.10 0.9322
510.20 0.9315
510.30 0.9308
510.40 0.9302
510.50 0.9295
510.60 0.9288
510.70 0.9281
510.80 0.9275
510.90 0.9268
511.00 0.9261
511.10 0.9254
511.20 0.9247
511.30 0.9241
511.40 0.9234
511.50 0.9227
511.60 0.922
511.70 0.9214
511.80 0.9207
511.90 0.92
512.00 0.9193
512.10 0.9187
512.20 0.918
512.30 0.9173
512.40 0.9166
512.50 0.916
512.60 0.9153
512.70 0.9146
512.80 0.914
512.90 0.9133
513.00 0.9126
513.10 0.9119
513.20 0.9113
513.30 0.9106
513.40 0.9099
513.50 0.9093
513.60 0.9086
513.70 0.9079
513.80 0.9073
513.90 0.9066
514.00 0.9059
514.10 0.9053
514.20 0.9046
514.30 0.9039
514.40 0.9033
514.50 0.9026
514.60 0.9019
514.70 0.9013
514.80 0.9006
514.90 0.9
515.00 0.8993
515.10 0.8986
515.20 0.898
515.30 0.8973
515.40 0.8966
515.50 0.896
515.60 0.8953
515.70 0.8947
515.80 0.894
515.90 0.8934
516.00 0.8927
516.10 0.892
516.20 0.8914
516.30 0.8907
516.40 0.8901
516.50 0.8894
516.60 0.8888
516.70 0.8881
516.80 0.8875
516.90 0.8868
517.00 0.8861
517.10 0.8855
517.20 0.8848
517.30 0.8842
517.40 0.8835
517.50 0.8829
517.60 0.8822
517.70 0.8816
517.80 0.8809
517.90 0.8803
518.00 0.8796
518.10 0.879
518.20 0.8783
518.30 0.8777
518.40 0.8771
518.50 0.8764
518.60 0.8758
518.70 0.8751
518.80 0.8745
518.90 0.8738
519.00 0.8732
519.10 0.8726
519.20 0.8719
519.30 0.8713
519.40 0.8706
519.50 0.87
519.60 0.8694
519.70 0.8687
519.80 0.8681
519.90 0.8674
520.00 0.8668
520.10 0.8662
520.20 0.8655
520.30 0.8649
520.40 0.8643
520.50 0.8636
520.60 0.863
520.70 0.8623
520.80 0.8617
520.90 0.8611
521.00 0.8604
521.10 0.8598
521.20 0.8592
521.30 0.8585
521.40 0.8579
521.50 0.8573
521.60 0.8567
521.70 0.856
521.80 0.8554
521.90 0.8548
522.00 0.8542
522.10 0.8535
522.20 0.8529
522.30 0.8523
522.40 0.8517
522.50 0.851
522.60 0.8504
522.70 0.8498
522.80 0.8492
522.90 0.8485
523.00 0.8479
523.10 0.8473
523.20 0.8467
523.30 0.8461
523.40 0.8454
523.50 0.8448
523.60 0.8442
523.70 0.8436
523.80 0.843
523.90 0.8423
524.00 0.8417
524.10 0.8411
524.20 0.8405
524.30 0.8399
524.40 0.8393
524.50 0.8387
524.60 0.838
524.70 0.8374
524.80 0.8368
524.90 0.8362
525.00 0.8356
525.10 0.835
525.20 0.8344
525.30 0.8338
525.40 0.8331
525.50 0.8325
525.60 0.8319
525.70 0.8313
525.80 0.8307
525.90 0.8301
526.00 0.8295
526.10 0.8289
526.20 0.8283
526.30 0.8277
526.40 0.8271
526.50 0.8265
526.60 0.8259
526.70 0.8253
526.80 0.8247
526.90 0.8241
527.00 0.8235
527.10 0.8229
527.20 0.8223
527.30 0.8217
527.40 0.8211
527.50 0.8205
527.60 0.8199
527.70 0.8193
527.80 0.8187
527.90 0.8181
528.00 0.8175
528.10 0.8169
528.20 0.8163
528.30 0.8157
528.40 0.8151
528.50 0.8145
528.60 0.8139
528.70 0.8133
528.80 0.8127
528.90 0.8121
529.00 0.8116
529.10 0.811
529.20 0.8104
529.30 0.8098
529.40 0.8092
529.50 0.8086
529.60 0.808
529.70 0.8074
529.80 0.8068
529.90 0.8063
530.00 0.8057
530.10 0.8051
530.20 0.8045
530.30 0.8039
530.40 0.8033
530.50 0.8027
530.60 0.8022
530.70 0.8016
530.80 0.801
530.90 0.8004
531.00 0.7998
531.10 0.7993
531.20 0.7987
531.30 0.7981
531.40 0.7975
531.50 0.7969
531.60 0.7964
531.70 0.7958
531.80 0.7952
531.90 0.7946
532.00 0.7941
532.10 0.7935
532.20 0.7929
532.30 0.7923
532.40 0.7918
532.50 0.7912
532.60 0.7906
532.70 0.7901
532.80 0.7895
532.90 0.7889
533.00 0.7883
533.10 0.7878
533.20 0.7872
533.30 0.7866
533.40 0.7861
533.50 0.7855
533.60 0.7849
533.70 0.7844
533.80 0.7838
533.90 0.7832
534.00 0.7827
534.10 0.7821
534.20 0.7815
534.30 0.781
534.40 0.7804
534.50 0.7798
534.60 0.7793
534.70 0.7787
534.80 0.7782
534.90 0.7776
535.00 0.777
535.10 0.7765
535.20 0.7759
535.30 0.7754
535.40 0.7748
535.50 0.7742
535.60 0.7737
535.70 0.7731
535.80 0.7726
535.90 0.772
536.00 0.7715
536.10 0.7709
536.20 0.7703
536.30 0.7698
536.40 0.7692
536.50 0.7687
536.60 0.7681
536.70 0.7676
536.80 0.767
536.90 0.7665
537.00 0.7659
537.10 0.7654
537.20 0.7648
537.30 0.7643
537.40 0.7637
537.50 0.7632
537.60 0.7626
537.70 0.7621
537.80 0.7615
537.90 0.761
538.00 0.7604
538.10 0.7599
538.20 0.7594
538.30 0.7588
538.40 0.7583
538.50 0.7577
538.60 0.7572
538.70 0.7566
538.80 0.7561
538.90 0.7556
539.00 0.755
539.10 0.7545
539.20 0.7539
539.30 0.7534
539.40 0.7529
539.50 0.7523
539.60 0.7518
539.70 0.7512
539.80 0.7507
539.90 0.7502
540.00 0.7496
540.10 0.7491
540.20 0.7486
540.30 0.748
540.40 0.7475
540.50 0.747
540.60 0.7464
540.70 0.7459
540.80 0.7454
540.90 0.7448
541.00 0.7443
541.10 0.7438
541.20 0.7432
541.30 0.7427
541.40 0.7422
541.50 0.7416
541.60 0.7411
541.70 0.7406
541.80 0.7401
541.90 0.7395
542.00 0.739
542.10 0.7385
542.20 0.7379
542.30 0.7374
542.40 0.7369
542.50 0.7364
542.60 0.7359
542.70 0.7353
542.80 0.7348
542.90 0.7343
543.00 0.7338
543.10 0.7332
543.20 0.7327
543.30 0.7322
543.40 0.7317
543.50 0.7312
543.60 0.7306
543.70 0.7301
543.80 0.7296
543.90 0.7291
544.00 0.7286
544.10 0.728
544.20 0.7275
544.30 0.727
544.40 0.7265
544.50 0.726
544.60 0.7255
544.70 0.7249
544.80 0.7244
544.90 0.7239
545.00 0.7234
545.10 0.7229
545.20 0.7224
545.30 0.7219
545.40 0.7214
545.50 0.7208
545.60 0.7203
545.70 0.7198
545.80 0.7193
545.90 0.7188
546.00 0.7183
546.10 0.7178
546.20 0.7173
546.30 0.7168
546.40 0.7163
546.50 0.7158
546.60 0.7153
546.70 0.7147
546.80 0.7142
546.90 0.7137
547.00 0.7132
547.10 0.7127
547.20 0.7122
547.30 0.7117
547.40 0.7112
547.50 0.7107
547.60 0.7102
547.70 0.7097
547.80 0.7092
547.90 0.7087
548.00 0.7082
548.10 0.7077
548.20 0.7072
548.30 0.7067
548.40 0.7062
548.50 0.7057
548.60 0.7052
548.70 0.7047
548.80 0.7042
548.90 0.7037
549.00 0.7032
549.10 0.7027
549.20 0.7022
549.30 0.7018
549.40 0.7013
549.50 0.7008
549.60 0.7003
549.70 0.6998
549.80 0.6993
549.90 0.6988
550.00 0.6983
550.10 0.6978
550.20 0.6973
550.30 0.6968
550.40 0.6963
550.50 0.6959
550.60 0.6954
550.70 0.6949
550.80 0.6944
550.90 0.6939
551.00 0.6934
551.10 0.6929
551.20 0.6924
551.30 0.692
551.40 0.6915
551.50 0.691
551.60 0.6905
551.70 0.69
551.80 0.6895
551.90 0.6891
552.00 0.6886
552.10 0.6881
552.20 0.6876
552.30 0.6871
552.40 0.6866
552.50 0.6862
552.60 0.6857
552.70 0.6852
552.80 0.6847
552.90 0.6842
553.00 0.6838
553.10 0.6833
553.20 0.6828
553.30 0.6823
553.40 0.6819
553.50 0.6814
553.60 0.6809
553.70 0.6804
553.80 0.68
553.90 0.6795
554.00 0.679
554.10 0.6785
554.20 0.6781
554.30 0.6776
554.40 0.6771
554.50 0.6766
554.60 0.6762
554.70 0.6757
554.80 0.6752
554.90 0.6748
555.00 0.6743
555.10 0.6738
555.20 0.6733
555.30 0.6729
555.40 0.6724
555.50 0.6719
555.60 0.6715
555.70 0.671
555.80 0.6705
555.90 0.6701
556.00 0.6696
556.10 0.6691
556.20 0.6687
556.30 0.6682
556.40 0.6677
556.50 0.6673
556.60 0.6668
556.70 0.6664
556.80 0.6659
556.90 0.6654
557.00 0.665
557.10 0.6645
557.20 0.664
557.30 0.6636
557.40 0.6631
557.50 0.6627
557.60 0.6622
557.70 0.6617
557.80 0.6613
557.90 0.6608
558.00 0.6604
558.10 0.6599
558.20 0.6594
558.30 0.659
558.40 0.6585
558.50 0.6581
558.60 0.6576
558.70 0.6572
558.80 0.6567
558.90 0.6563
559.00 0.6558
559.10 0.6553
559.20 0.6549
559.30 0.6544
559.40 0.654
559.50 0.6535
559.60 0.6531
559.70 0.6526
559.80 0.6522
559.90 0.6517
560.00 0.6513
560.10 0.6508
560.20 0.6504
560.30 0.6499
560.40 0.6495
560.50 0.649
560.60 0.6486
560.70 0.6481
560.80 0.6477
560.90 0.6472
561.00 0.6468
561.10 0.6463
561.20 0.6459
561.30 0.6455
561.40 0.645
561.50 0.6446
561.60 0.6441
561.70 0.6437
561.80 0.6432
561.90 0.6428
562.00 0.6423
562.10 0.6419
562.20 0.6415
562.30 0.641
562.40 0.6406
562.50 0.6401
562.60 0.6397
562.70 0.6393
562.80 0.6388
562.90 0.6384
563.00 0.6379
563.10 0.6375
563.20 0.6371
563.30 0.6366
563.40 0.6362
563.50 0.6358
563.60 0.6353
563.70 0.6349
563.80 0.6344
563.90 0.634
564.00 0.6336
564.10 0.6331
564.20 0.6327
564.30 0.6323
564.40 0.6318
564.50 0.6314
564.60 0.631
564.70 0.6305
564.80 0.6301
564.90 0.6297
565.00 0.6292
565.10 0.6288
565.20 0.6284
565.30 0.6279
565.40 0.6275
565.50 0.6271
565.60 0.6267
565.70 0.6262
565.80 0.6258
565.90 0.6254
566.00 0.6249
566.10 0.6245
566.20 0.6241
566.30 0.6237
566.40 0.6232
566.50 0.6228
566.60 0.6224
566.70 0.622
566.80 0.6215
566.90 0.6211
567.00 0.6207
567.10 0.6203
567.20 0.6198
567.30 0.6194
567.40 0.619
567.50 0.6186
567.60 0.6181
567.70 0.6177
567.80 0.6173
567.90 0.6169
568.00 0.6165
568.10 0.616
568.20 0.6156
568.30 0.6152
568.40 0.6148
568.50 0.6144
568.60 0.6139
568.70 0.6135
568.80 0.6131
568.90 0.6127
569.00 0.6123
569.10 0.6119
569.20 0.6114
569.30 0.611
569.40 0.6106
569.50 0.6102
569.60 0.6098
569.70 0.6094
569.80 0.609
569.90 0.6085
570.00 0.6081
570.10 0.6077
570.20 0.6073
570.30 0.6069
570.40 0.6065
570.50 0.6061
570.60 0.6057
570.70 0.6052
570.80 0.6048
570.90 0.6044
571.00 0.604
571.10 0.6036
571.20 0.6032
571.30 0.6028
571.40 0.6024
571.50 0.602
571.60 0.6016
571.70 0.6011
571.80 0.6007
571.90 0.6003
572.00 0.5999
572.10 0.5995
572.20 0.5991
572.30 0.5987
572.40 0.5983
572.50 0.5979
572.60 0.5975
572.70 0.5971
572.80 0.5967
572.90 0.5963
573.00 0.5959
573.10 0.5955
573.20 0.5951
573.30 0.5947
573.40 0.5943
573.50 0.5939
573.60 0.5935
573.70 0.5931
573.80 0.5927
573.90 0.5923
574.00 0.5919
574.10 0.5915
574.20 0.5911
574.30 0.5907
574.40 0.5903
574.50 0.5899
574.60 0.5895
574.70 0.5891
574.80 0.5887
574.90 0.5883
575.00 0.5879
575.10 0.5875
575.20 0.5871
575.30 0.5867
575.40 0.5863
575.50 0.5859
575.60 0.5855
575.70 0.5851
575.80 0.5847
575.90 0.5843
576.00 0.5839
576.10 0.5835
576.20 0.5832
576.30 0.5828
576.40 0.5824
576.50 0.582
576.60 0.5816
576.70 0.5812
576.80 0.5808
576.90 0.5804
577.00 0.58
577.10 0.5796
577.20 0.5792
577.30 0.5789
577.40 0.5785
577.50 0.5781
577.60 0.5777
577.70 0.5773
577.80 0.5769
577.90 0.5765
578.00 0.5761
578.10 0.5758
578.20 0.5754
578.30 0.575
578.40 0.5746
578.50 0.5742
578.60 0.5738
578.70 0.5734
578.80 0.5731
578.90 0.5727
579.00 0.5723
579.10 0.5719
579.20 0.5715
579.30 0.5711
579.40 0.5708
579.50 0.5704
579.60 0.57
579.70 0.5696
579.80 0.5692
579.90 0.5689
580.00 0.5685
580.10 0.5681
580.20 0.5677
580.30 0.5673
580.40 0.567
580.50 0.5666
580.60 0.5662
580.70 0.5658
580.80 0.5654
580.90 0.5651
581.00 0.5647
581.10 0.5643
581.20 0.5639
581.30 0.5636
581.40 0.5632
581.50 0.5628
581.60 0.5624
581.70 0.5621
581.80 0.5617
581.90 0.5613
582.00 0.5609
582.10 0.5606
582.20 0.5602
582.30 0.5598
582.40 0.5594
582.50 0.5591
582.60 0.5587
582.70 0.5583
582.80 0.558
582.90 0.5576
583.00 0.5572
583.10 0.5568
583.20 0.5565
583.30 0.5561
583.40 0.5557
583.50 0.5554
583.60 0.555
583.70 0.5546
583.80 0.5543
583.90 0.5539
584.00 0.5535
584.10 0.5532
584.20 0.5528
584.30 0.5524
584.40 0.5521
584.50 0.5517
584.60 0.5513
584.70 0.551
584.80 0.5506
584.90 0.5502
585.00 0.5499
585.10 0.5495
585.20 0.5491
585.30 0.5488
585.40 0.5484
585.50 0.548
585.60 0.5477
585.70 0.5473
585.80 0.547
585.90 0.5466
586.00 0.5462
586.10 0.5459
586.20 0.5455
586.30 0.5451
586.40 0.5448
586.50 0.5444
586.60 0.5441
586.70 0.5437
586.80 0.5433
586.90 0.543
587.00 0.5426
587.10 0.5423
587.20 0.5419
587.30 0.5416
587.40 0.5412
587.50 0.5408
587.60 0.5405
587.70 0.5401
587.80 0.5398
587.90 0.5394
588.00 0.5391
588.10 0.5387
588.20 0.5383
588.30 0.538
588.40 0.5376
588.50 0.5373
588.60 0.5369
588.70 0.5366
588.80 0.5362
588.90 0.5359
589.00 0.5355
589.10 0.5352
589.20 0.5348
589.30 0.5345
589.40 0.5341
589.50 0.5338
589.60 0.5334
589.70 0.533
589.80 0.5327
589.90 0.5323
590.00 0.532
590.10 0.5316
590.20 0.5313
590.30 0.5309
590.40 0.5306
590.50 0.5303
590.60 0.5299
590.70 0.5296
590.80 0.5292
590.90 0.5289
591.00 0.5285
591.10 0.5282
591.20 0.5278
591.30 0.5275
591.40 0.5271
591.50 0.5268
591.60 0.5264
591.70 0.5261
591.80 0.5257
591.90 0.5254
592.00 0.5251
592.10 0.5247
592.20 0.5244
592.30 0.524
592.40 0.5237
592.50 0.5233
592.60 0.523
592.70 0.5226
592.80 0.5223
592.90 0.522
593.00 0.5216
593.10 0.5213
593.20 0.5209
593.30 0.5206
593.40 0.5203
593.50 0.5199
593.60 0.5196
593.70 0.5192
593.80 0.5189
593.90 0.5186
594.00 0.5182
594.10 0.5179
594.20 0.5175
594.30 0.5172
594.40 0.5169
594.50 0.5165
594.60 0.5162
594.70 0.5159
594.80 0.5155
594.90 0.5152
595.00 0.5148
595.10 0.5145
595.20 0.5142
595.30 0.5138
595.40 0.5135
595.50 0.5132
595.60 0.5128
595.70 0.5125
595.80 0.5122
595.90 0.5118
596.00 0.5115
596.10 0.5112
596.20 0.5108
596.30 0.5105
596.40 0.5102
596.50 0.5098
596.60 0.5095
596.70 0.5092
596.80 0.5088
596.90 0.5085
597.00 0.5082
597.10 0.5078
597.20 0.5075
597.30 0.5072
597.40 0.5069
597.50 0.5065
597.60 0.5062
597.70 0.5059
597.80 0.5055
597.90 0.5052
598.00 0.5049
598.10 0.5046
598.20 0.5042
598.30 0.5039
598.40 0.5036
598.50 0.5032
598.60 0.5029
598.70 0.5026
598.80 0.5023
598.90 0.5019
599.00 0.5016
599.10 0.5013
599.20 0.501
599.30 0.5006
599.40 0.5003
599.50 0.5
599.60 0.4997
599.70 0.4993
599.80 0.499
599.90 0.4987
600.00 0.4984
600.10 0.498
600.20 0.4977
600.30 0.4974
600.40 0.4971
600.50 0.4968
600.60 0.4964
600.70 0.4961
600.80 0.4958
600.90 0.4955
601.00 0.4952
601.10 0.4948
601.20 0.4945
601.30 0.4942
601.40 0.4939
601.50 0.4936
601.60 0.4932
601.70 0.4929
601.80 0.4926
601.90 0.4923
602.00 0.492
602.10 0.4916
602.20 0.4913
602.30 0.491
602.40 0.4907
602.50 0.4904
602.60 0.4901
602.70 0.4897
602.80 0.4894
602.90 0.4891
603.00 0.4888
603.10 0.4885
603.20 0.4882
603.30 0.4879
603.40 0.4875
603.50 0.4872
603.60 0.4869
603.70 0.4866
603.80 0.4863
603.90 0.486
604.00 0.4857
604.10 0.4853
604.20 0.485
604.30 0.4847
604.40 0.4844
604.50 0.4841
604.60 0.4838
604.70 0.4835
604.80 0.4832
604.90 0.4829
605.00 0.4825
605.10 0.4822
605.20 0.4819
605.30 0.4816
605.40 0.4813
605.50 0.481
605.60 0.4807
605.70 0.4804
605.80 0.4801
605.90 0.4798
606.00 0.4795
606.10 0.4791
606.20 0.4788
606.30 0.4785
606.40 0.4782
606.50 0.4779
606.60 0.4776
606.70 0.4773
606.80 0.477
606.90 0.4767
607.00 0.4764
607.10 0.4761
607.20 0.4758
607.30 0.4755
607.40 0.4752
607.50 0.4749
607.60 0.4746
607.70 0.4742
607.80 0.4739
607.90 0.4736
608.00 0.4733
608.10 0.473
608.20 0.4727
608.30 0.4724
608.40 0.4721
608.50 0.4718
608.60 0.4715
608.70 0.4712
608.80 0.4709
608.90 0.4706
609.00 0.4703
609.10 0.47
609.20 0.4697
609.30 0.4694
609.40 0.4691
609.50 0.4688
609.60 0.4685
609.70 0.4682
609.80 0.4679
609.90 0.4676
610.00 0.4673
610.10 0.467
610.20 0.4667
610.30 0.4664
610.40 0.4661
610.50 0.4658
610.60 0.4655
610.70 0.4652
610.80 0.4649
610.90 0.4646
611.00 0.4643
611.10 0.464
611.20 0.4638
611.30 0.4635
611.40 0.4632
611.50 0.4629
611.60 0.4626
611.70 0.4623
611.80 0.462
611.90 0.4617
612.00 0.4614
612.10 0.4611
612.20 0.4608
612.30 0.4605
612.40 0.4602
612.50 0.4599
612.60 0.4596
612.70 0.4593
612.80 0.459
612.90 0.4588
613.00 0.4585
613.10 0.4582
613.20 0.4579
613.30 0.4576
613.40 0.4573
613.50 0.457
613.60 0.4567
613.70 0.4564
613.80 0.4561
613.90 0.4558
614.00 0.4556
614.10 0.4553
614.20 0.455
614.30 0.4547
614.40 0.4544
614.50 0.4541
614.60 0.4538
614.70 0.4535
614.80 0.4532
614.90 0.453
615.00 0.4527
615.10 0.4524
615.20 0.4521
615.30 0.4518
615.40 0.4515
615.50 0.4512
615.60 0.4509
615.70 0.4507
615.80 0.4504
615.90 0.4501
616.00 0.4498
616.10 0.4495
616.20 0.4492
616.30 0.4489
616.40 0.4487
616.50 0.4484
616.60 0.4481
616.70 0.4478
616.80 0.4475
616.90 0.4472
617.00 0.447
617.10 0.4467
617.20 0.4464
617.30 0.4461
617.40 0.4458
617.50 0.4455
617.60 0.4453
617.70 0.445
617.80 0.4447
617.90 0.4444
618.00 0.4441
618.10 0.4439
618.20 0.4436
618.30 0.4433
618.40 0.443
618.50 0.4427
618.60 0.4425
618.70 0.4422
618.80 0.4419
618.90 0.4416
619.00 0.4413
619.10 0.4411
619.20 0.4408
619.30 0.4405
619.40 0.4402
619.50 0.4399
619.60 0.4397
619.70 0.4394
619.80 0.4391
619.90 0.4388
620.00 0.4386
620.10 0.4383
620.20 0.438
620.30 0.4377
620.40 0.4374
620.50 0.4372
620.60 0.4369
620.70 0.4366
620.80 0.4363
620.90 0.4361
621.00 0.4358
621.10 0.4355
621.20 0.4352
621.30 0.435
621.40 0.4347
621.50 0.4344
621.60 0.4341
621.70 0.4339
621.80 0.4336
621.90 0.4333
622.00 0.433
622.10 0.4328
622.20 0.4325
622.30 0.4322
622.40 0.4319
622.50 0.4317
622.60 0.4314
622.70 0.4311
622.80 0.4309
622.90 0.4306
623.00 0.4303
623.10 0.43
623.20 0.4298
623.30 0.4295
623.40 0.4292
623.50 0.429
623.60 0.4287
623.70 0.4284
623.80 0.4281
623.90 0.4279
624.00 0.4276
624.10 0.4273
624.20 0.4271
624.30 0.4268
624.40 0.4265
624.50 0.4263
624.60 0.426
624.70 0.4257
624.80 0.4255
624.90 0.4252
625.00 0.4249
625.10 0.4246
625.20 0.4244
625.30 0.4241
625.40 0.4238
625.50 0.4236
625.60 0.4233
625.70 0.423
625.80 0.4228
625.90 0.4225
626.00 0.4222
626.10 0.422
626.20 0.4217
626.30 0.4214
626.40 0.4212
626.50 0.4209
626.60 0.4206
626.70 0.4204
626.80 0.4201
626.90 0.4198
627.00 0.4196
627.10 0.4193
627.20 0.4191
627.30 0.4188
627.40 0.4185
627.50 0.4183
627.60 0.418
627.70 0.4177
627.80 0.4175
627.90 0.4172
628.00 0.4169
628.10 0.4167
628.20 0.4164
628.30 0.4161
628.40 0.4159
628.50 0.4156
628.60 0.4154
628.70 0.4151
628.80 0.4148
628.90 0.4146
629.00 0.4143
629.10 0.414
629.20 0.4138
629.30 0.4135
629.40 0.4133
629.50 0.413
629.60 0.4127
629.70 0.4125
629.80 0.4122
629.90 0.412
630.00 0.4117
630.10 0.4114
630.20 0.4112
630.30 0.4109
630.40 0.4106
630.50 0.4104
630.60 0.4101
630.70 0.4099
630.80 0.4096
630.90 0.4093
631.00 0.4091
631.10 0.4088
631.20 0.4086
631.30 0.4083
631.40 0.408
631.50 0.4078
631.60 0.4075
631.70 0.4073
631.80 0.407
631.90 0.4068
632.00 0.4065
632.10 0.4062
632.20 0.406
632.30 0.4057
632.40 0.4055
632.50 0.4052
632.60 0.4049
632.70 0.4047
632.80 0.4044
632.90 0.4042
633.00 0.4039
633.10 0.4037
633.20 0.4034
633.30 0.4031
633.40 0.4029
633.50 0.4026
633.60 0.4024
633.70 0.4021
633.80 0.4018
633.90 0.4016
634.00 0.4013
634.10 0.4011
634.20 0.4008
634.30 0.4006
634.40 0.4003
634.50 0.4
634.60 0.3998
634.70 0.3995
634.80 0.3993
634.90 0.399
635.00 0.3988
635.10 0.3985
635.20 0.3982
635.30 0.398
635.40 0.3977
635.50 0.3975
635.60 0.3972
635.70 0.397
635.80 0.3967
635.90 0.3964
636.00 0.3962
636.10 0.3959
636.20 0.3957
636.30 0.3954
636.40 0.3952
636.50 0.3949
636.60 0.3946
636.70 0.3944
636.80 0.3941
636.90 0.3939
637.00 0.3936
637.10 0.3933
637.20 0.3931
637.30 0.3928
637.40 0.3926
637.50 0.3923
637.60 0.3921
637.70 0.3918
637.80 0.3915
637.90 0.3913
638.00 0.391
638.10 0.3908
638.20 0.3905
638.30 0.3902
638.40 0.39
638.50 0.3897
638.60 0.3895
638.70 0.3892
638.80 0.3889
638.90 0.3887
639.00 0.3884
639.10 0.3882
639.20 0.3879
639.30 0.3877
639.40 0.3874
639.50 0.3871
639.60 0.3869
639.70 0.3866
639.80 0.3863
639.90 0.3861
640.00 0.3858
640.10 0.3856
640.20 0.3853
640.30 0.385
640.40 0.3848
640.50 0.3845
640.60 0.3842
640.70 0.384
640.80 0.3837
640.90 0.3834
641.00 0.3832
641.10 0.3829
641.20 0.3826
641.30 0.3824
641.40 0.3821
641.50 0.3818
641.60 0.3816
641.70 0.3813
641.80 0.381
641.90 0.3808
642.00 0.3805
642.10 0.3802
642.20 0.38
642.30 0.3797
642.40 0.3794
642.50 0.3791
642.60 0.3789
642.70 0.3786
642.80 0.3783
642.90 0.378
643.00 0.3778
643.10 0.3775
643.20 0.3772
643.30 0.3769
643.40 0.3767
643.50 0.3764
643.60 0.3761
643.70 0.3758
643.80 0.3755
643.90 0.3752
644.00 0.375
644.10 0.3747
644.20 0.3744
644.30 0.3741
644.40 0.3738
644.50 0.3735
644.60 0.3732
644.70 0.3729
644.80 0.3726
644.90 0.3724
645.00 0.3721
645.10 0.3718
645.20 0.3715
645.30 0.3712
645.40 0.3709
645.50 0.3706
645.60 0.3703
645.70 0.37
645.80 0.3697
645.90 0.3693
646.00 0.369
646.10 0.3687
646.20 0.3684
646.30 0.3681
646.40 0.3678
646.50 0.3675
646.60 0.3671
646.70 0.3668
646.80 0.3665
646.90 0.3662
647.00 0.3659
647.10 0.3655
647.20 0.3652
647.30 0.3649
647.40 0.3645
647.50 0.3642
647.60 0.3638
647.70 0.3635
647.80 0.3632
647.90 0.3628
648.00 0.3625
648.10 0.3621
648.20 0.3618
648.30 0.3614
648.40 0.361
648.50 0.3607
648.60 0.3603
648.70 0.3599
648.80 0.3595
648.90 0.3592
649.00 0.3588
649.10 0.3584
649.20 0.358
649.30 0.3577
649.40 0.3572
649.50 0.3568
649.60 0.3564
649.70 0.356
649.80 0.3556
649.90 0.3552
650.00 0.3548
650.10 0.3544
650.20 0.3539
650.30 0.3535
650.40 0.3531
650.50 0.3526
650.60 0.3521
650.70 0.3517
650.80 0.3512
650.90 0.3508
651.00 0.3503
651.10 0.3498
651.20 0.3494
651.30 0.3489
651.40 0.3484
651.50 0.3479
651.60 0.3474
651.70 0.3469
651.80 0.3463
651.90 0.3458
652.00 0.3453
652.10 0.3448
652.20 0.3443
652.30 0.3437
652.40 0.3432
652.50 0.3426
652.60 0.342
652.70 0.3414
652.80 0.3408
652.90 0.3403
653.00 0.3397
653.10 0.3391
653.20 0.3385
653.30 0.3379
653.40 0.3373
653.50 0.3367
653.60 0.336
653.70 0.3354
653.80 0.3347
653.90 0.3341
654.00 0.3334
654.10 0.3328
654.20 0.3322
654.30 0.3315
654.40 0.3308
654.50 0.3302
654.60 0.3295
654.70 0.3288
654.80 0.3281
654.90 0.3275
655.00 0.3268
655.10 0.3262
655.20 0.3255
655.30 0.3248
655.40 0.3243
655.50 0.3237
655.60 0.3232
655.70 0.3228
655.80 0.3226
655.90 0.3228
656.00 0.3239
656.10 0.3254
656.20 0.3334
656.30 0.3429
656.40 0.3287
656.50 0.3238
656.60 0.3223
656.70 0.321
656.80 0.3208
656.90 0.3206
657.00 0.3207
657.10 0.3209
657.20 0.3211
657.30 0.3213
657.40 0.3216
657.50 0.3219
657.60 0.3222
657.70 0.3225
657.80 0.3227
657.90 0.323
658.00 0.3233
658.10 0.3236
658.20 0.3239
658.30 0.3242
658.40 0.3244
658.50 0.3247
658.60 0.3249
658.70 0.3252
658.80 0.3254
658.90 0.3257
659.00 0.3259
659.10 0.3262
659.20 0.3264
659.30 0.3267
659.40 0.3269
659.50 0.327
659.60 0.3272
659.70 0.3274
659.80 0.3276
659.90 0.3277
660.00 0.3279
660.10 0.3281
660.20 0.3283
660.30 0.3284
660.40 0.3286
660.50 0.3287
660.60 0.3288
660.70 0.3289
660.80 0.329
660.90 0.3291
661.00 0.3292
661.10 0.3293
661.20 0.3294
661.30 0.3295
661.40 0.3295
661.50 0.3296
661.60 0.3296
661.70 0.3297
661.80 0.3297
661.90 0.3298
662.00 0.3298
662.10 0.3299
662.20 0.3299
662.30 0.3299
662.40 0.3299
662.50 0.3299
662.60 0.3299
662.70 0.3299
662.80 0.3299
662.90 0.3299
663.00 0.3299
663.10 0.3299
663.20 0.3299
663.30 0.3299
663.40 0.3298
663.50 0.3298
663.60 0.3297
663.70 0.3297
663.80 0.3296
663.90 0.3296
664.00 0.3295
664.10 0.3295
664.20 0.3294
664.30 0.3294
664.40 0.3293
664.50 0.3292
664.60 0.3292
664.70 0.3291
664.80 0.329
664.90 0.3289
665.00 0.3288
665.10 0.3288
665.20 0.3287
665.30 0.3286
665.40 0.3285
665.50 0.3284
665.60 0.3283
665.70 0.3282
665.80 0.3281
665.90 0.328
666.00 0.3279
666.10 0.3278
666.20 0.3277
666.30 0.3276
666.40 0.3275
666.50 0.3273
666.60 0.3272
666.70 0.3271
666.80 0.327
666.90 0.3269
667.00 0.3268
667.10 0.3266
667.20 0.3265
667.30 0.3264
667.40 0.3263
667.50 0.3261
667.60 0.326
667.70 0.3259
667.80 0.3257
667.90 0.3256
668.00 0.3255
668.10 0.3253
668.20 0.3252
668.30 0.3251
668.40 0.3249
668.50 0.3248
668.60 0.3246
668.70 0.3245
668.80 0.3243
668.90 0.3242
669.00 0.3241
669.10 0.3239
669.20 0.3238
669.30 0.3236
669.40 0.3235
669.50 0.3233
669.60 0.3232
669.70 0.323
669.80 0.3229
669.90 0.3227
670.00 0.3226
670.10 0.3224
670.20 0.3223
670.30 0.3221
670.40 0.322
670.50 0.3218
670.60 0.3217
670.70 0.3215
670.80 0.3213
670.90 0.3212
671.00 0.321
671.10 0.3209
671.20 0.3207
671.30 0.3206
671.40 0.3204
671.50 0.3202
671.60 0.3201
671.70 0.3199
671.80 0.3198
671.90 0.3196
672.00 0.3194
672.10 0.3193
672.20 0.3191
672.30 0.319
672.40 0.3188
672.50 0.3186
672.60 0.3185
672.70 0.3183
672.80 0.3181
672.90 0.318
673.00 0.3178
673.10 0.3176
673.20 0.3175
673.30 0.3173
673.40 0.3172
673.50 0.317
673.60 0.3168
673.70 0.3167
673.80 0.3165
673.90 0.3163
674.00 0.3162
674.10 0.316
674.20 0.3158
674.30 0.3157
674.40 0.3155
674.50 0.3153
674.60 0.3152
674.70 0.315
674.80 0.3148
674.90 0.3147
675.00 0.3145
675.10 0.3143
675.20 0.3142
675.30 0.314
675.40 0.3138
675.50 0.3137
675.60 0.3135
675.70 0.3133
675.80 0.3131
675.90 0.313
676.00 0.3128
676.10 0.3126
676.20 0.3125
676.30 0.3123
676.40 0.3121
676.50 0.312
676.60 0.3118
676.70 0.3116
676.80 0.3115
676.90 0.3113
677.00 0.3111
677.10 0.311
677.20 0.3108
677.30 0.3106
677.40 0.3104
677.50 0.3103
677.60 0.3101
677.70 0.3099
677.80 0.3098
677.90 0.3096
678.00 0.3094
678.10 0.3093
678.20 0.3091
678.30 0.3089
678.40 0.3088
678.50 0.3086
678.60 0.3084
678.70 0.3082
678.80 0.3081
678.90 0.3079
679.00 0.3077
679.10 0.3076
679.20 0.3074
679.30 0.3072
679.40 0.3071
679.50 0.3069
679.60 0.3067
679.70 0.3066
679.80 0.3064
679.90 0.3062
680.00 0.3061
680.10 0.3059
680.20 0.3057
680.30 0.3055
680.40 0.3054
680.50 0.3052
680.60 0.305
680.70 0.3049
680.80 0.3047
680.90 0.3045
681.00 0.3044
681.10 0.3042
681.20 0.304
681.30 0.3039
681.40 0.3037
681.50 0.3035
681.60 0.3034
681.70 0.3032
681.80 0.303
681.90 0.3029
682.00 0.3027
682.10 0.3025
682.20 0.3023
682.30 0.3022
682.40 0.302
682.50 0.3018
682.60 0.3017
682.70 0.3015
682.80 0.3013
682.90 0.3012
683.00 0.301
683.10 0.3008
683.20 0.3007
683.30 0.3005
683.40 0.3003
683.50 0.3002
683.60 0.3
683.70 0.2998
683.80 0.2997
683.90 0.2995
684.00 0.2993
684.10 0.2992
684.20 0.299
684.30 0.2988
684.40 0.2987
684.50 0.2985
684.60 0.2983
684.70 0.2982
684.80 0.298
684.90 0.2978
685.00 0.2977
685.10 0.2975
685.20 0.2973
685.30 0.2972
685.40 0.297
685.50 0.2968
685.60 0.2967
685.70 0.2965
685.80 0.2964
685.90 0.2962
686.00 0.296
686.10 0.2959
686.20 0.2957
686.30 0.2955
686.40 0.2954
686.50 0.2952
686.60 0.295
686.70 0.2949
686.80 0.2947
686.90 0.2945
687.00 0.2944
687.10 0.2942
687.20 0.294
687.30 0.2939
687.40 0.2937
687.50 0.2936
687.60 0.2934
687.70 0.2932
687.80 0.2931
687.90 0.2929
688.00 0.2927
688.10 0.2926
688.20 0.2924
688.30 0.2922
688.40 0.2921
688.50 0.2919
688.60 0.2918
688.70 0.2916
688.80 0.2914
688.90 0.2913
689.00 0.2911
689.10 0.2909
689.20 0.2908
689.30 0.2906
689.40 0.2905
689.50 0.2903
689.60 0.2901
689.70 0.29
689.80 0.2898
689.90 0.2897
690.00 0.2895
690.10 0.2893
690.20 0.2892
690.30 0.289
690.40 0.2888
690.50 0.2887
690.60 0.2885
690.70 0.2884
690.80 0.2882
690.90 0.288
691.00 0.2879
691.10 0.2877
691.20 0.2876
691.30 0.2874
691.40 0.2872
691.50 0.2871
691.60 0.2869
691.70 0.2868
691.80 0.2866
691.90 0.2864
692.00 0.2863
692.10 0.2861
692.20 0.286
692.30 0.2858
692.40 0.2856
692.50 0.2855
692.60 0.2853
692.70 0.2852
692.80 0.285
692.90 0.2849
693.00 0.2847
693.10 0.2845
693.20 0.2844
693.30 0.2842
693.40 0.2841
693.50 0.2839
693.60 0.2837
693.70 0.2836
693.80 0.2834
693.90 0.2833
694.00 0.2831
694.10 0.283
694.20 0.2828
694.30 0.2826
694.40 0.2825
694.50 0.2823
694.60 0.2822
694.70 0.282
694.80 0.2819
694.90 0.2817
695.00 0.2815
695.10 0.2814
695.20 0.2812
695.30 0.2811
695.40 0.2809
695.50 0.2808
695.60 0.2806
695.70 0.2804
695.80 0.2803
695.90 0.2801
696.00 0.28
696.10 0.2798
696.20 0.2797
696.30 0.2795
696.40 0.2794
696.50 0.2792
696.60 0.2791
696.70 0.2789
696.80 0.2787
696.90 0.2786
697.00 0.2784
697.10 0.2783
697.20 0.2781
697.30 0.278
697.40 0.2778
697.50 0.2777
697.60 0.2775
697.70 0.2774
697.80 0.2772
697.90 0.277
698.00 0.2769
698.10 0.2767
698.20 0.2766
698.30 0.2764
698.40 0.2763
698.50 0.2761
698.60 0.276
698.70 0.2758
698.80 0.2757
698.90 0.2755
699.00 0.2754
699.10 0.2752
699.20 0.2751
699.30 0.2749
699.40 0.2747
699.50 0.2746
699.60 0.2744
699.70 0.2743
699.80 0.2741
699.90 0.274
700.00 0.2738
700.10 0.2737
700.20 0.2735
700.30 0.2734
700.40 0.2732
700.50 0.2731
700.60 0.2729
700.70 0.2728
700.80 0.2726
700.90 0.2725
701.00 0.2723
701.10 0.2722
701.20 0.272
701.30 0.2719
701.40 0.2717
701.50 0.2716
701.60 0.2714
701.70 0.2713
701.80 0.2711
701.90 0.271
702.00 0.2708
702.10 0.2707
702.20 0.2705
702.30 0.2704
702.40 0.2702
702.50 0.2701
702.60 0.2699
702.70 0.2698
702.80 0.2696
702.90 0.2695
703.00 0.2693
703.10 0.2692
703.20 0.269
703.30 0.2689
703.40 0.2687
703.50 0.2686
703.60 0.2684
703.70 0.2683
703.80 0.2682
703.90 0.268
704.00 0.2679
704.10 0.2677
704.20 0.2676
704.30 0.2674
704.40 0.2673
704.50 0.2671
704.60 0.267
704.70 0.2668
704.80 0.2667
704.90 0.2665
705.00 0.2664
705.10 0.2662
705.20 0.2661
705.30 0.2659
705.40 0.2658
705.50 0.2657
705.60 0.2655
705.70 0.2654
705.80 0.2652
705.90 0.2651
706.00 0.2649
706.10 0.2648
706.20 0.2646
706.30 0.2645
706.40 0.2643
706.50 0.2642
706.60 0.2641
706.70 0.2639
706.80 0.2638
706.90 0.2636
707.00 0.2635
707.10 0.2633
707.20 0.2632
707.30 0.263
707.40 0.2629
707.50 0.2628
707.60 0.2626
707.70 0.2625
707.80 0.2623
707.90 0.2622
708.00 0.262
708.10 0.2619
708.20 0.2617
708.30 0.2616
708.40 0.2615
708.50 0.2613
708.60 0.2612
708.70 0.261
708.80 0.2609
708.90 0.2607
709.00 0.2606
709.10 0.2605
709.20 0.2603
709.30 0.2602
709.40 0.26
709.50 0.2599
709.60 0.2597
709.70 0.2596
709.80 0.2595
709.90 0.2593
710.00 0.2592
710.10 0.259
710.20 0.2589
710.30 0.2587
710.40 0.2586
710.50 0.2585
710.60 0.2583
710.70 0.2582
710.80 0.258
710.90 0.2579
711.00 0.2578
711.10 0.2576
711.20 0.2575
711.30 0.2573
711.40 0.2572
711.50 0.2571
711.60 0.2569
711.70 0.2568
711.80 0.2566
711.90 0.2565
712.00 0.2564
712.10 0.2562
712.20 0.2561
712.30 0.2559
712.40 0.2558
712.50 0.2557
712.60 0.2555
712.70 0.2554
712.80 0.2552
712.90 0.2551
713.00 0.255
713.10 0.2548
713.20 0.2547
713.30 0.2546
713.40 0.2544
713.50 0.2543
713.60 0.2541
713.70 0.254
713.80 0.2539
713.90 0.2537
714.00 0.2536
714.10 0.2534
714.20 0.2533
714.30 0.2532
714.40 0.253
714.50 0.2529
714.60 0.2528
714.70 0.2526
714.80 0.2525
714.90 0.2523
715.00 0.2522
715.10 0.2521
715.20 0.2519
715.30 0.2518
715.40 0.2517
715.50 0.2515
715.60 0.2514
715.70 0.2512
715.80 0.2511
715.90 0.251
716.00 0.2508
716.10 0.2507
716.20 0.2506
716.30 0.2504
716.40 0.2503
716.50 0.2502
716.60 0.25
716.70 0.2499
716.80 0.2498
716.90 0.2496
717.00 0.2495
717.10 0.2493
717.20 0.2492
717.30 0.2491
717.40 0.2489
717.50 0.2488
717.60 0.2487
717.70 0.2485
717.80 0.2484
717.90 0.2483
718.00 0.2481
718.10 0.248
718.20 0.2479
718.30 0.2477
718.40 0.2476
718.50 0.2475
718.60 0.2473
718.70 0.2472
718.80 0.2471
718.90 0.2469
719.00 0.2468
719.10 0.2467
719.20 0.2465
719.30 0.2464
719.40 0.2463
719.50 0.2461
719.60 0.246
719.70 0.2459
719.80 0.2457
719.90 0.2456
720.00 0.2455
720.10 0.2453
720.20 0.2452
720.30 0.2451
720.40 0.2449
720.50 0.2448
720.60 0.2447
720.70 0.2445
720.80 0.2444
720.90 0.2443
721.00 0.2441
721.10 0.244
721.20 0.2439
721.30 0.2437
721.40 0.2436
721.50 0.2435
721.60 0.2434
721.70 0.2432
721.80 0.2431
721.90 0.243
722.00 0.2428
722.10 0.2427
722.20 0.2426
722.30 0.2424
722.40 0.2423
722.50 0.2422
722.60 0.242
722.70 0.2419
722.80 0.2418
722.90 0.2417
723.00 0.2415
723.10 0.2414
723.20 0.2413
723.30 0.2411
723.40 0.241
723.50 0.2409
723.60 0.2407
723.70 0.2406
723.80 0.2405
723.90 0.2404
724.00 0.2402
724.10 0.2401
724.20 0.24
724.30 0.2398
724.40 0.2397
724.50 0.2396
724.60 0.2395
724.70 0.2393
724.80 0.2392
724.90 0.2391
725.00 0.2389
725.10 0.2388
725.20 0.2387
725.30 0.2386
725.40 0.2384
725.50 0.2383
725.60 0.2382
725.70 0.238
725.80 0.2379
725.90 0.2378
726.00 0.2377
726.10 0.2375
726.20 0.2374
726.30 0.2373
726.40 0.2372
726.50 0.237
726.60 0.2369
726.70 0.2368
726.80 0.2366
726.90 0.2365
727.00 0.2364
727.10 0.2363
727.20 0.2361
727.30 0.236
727.40 0.2359
727.50 0.2358
727.60 0.2356
727.70 0.2355
727.80 0.2354
727.90 0.2353
728.00 0.2351
728.10 0.235
728.20 0.2349
728.30 0.2348
728.40 0.2346
728.50 0.2345
728.60 0.2344
728.70 0.2343
728.80 0.2341
728.90 0.234
729.00 0.2339
729.10 0.2338
729.20 0.2336
729.30 0.2335
729.40 0.2334
729.50 0.2333
729.60 0.2331
729.70 0.233
729.80 0.2329
729.90 0.2328
730.00 0.2326
730.10 0.2325
730.20 0.2324
730.30 0.2323
730.40 0.2321
730.50 0.232
730.60 0.2319
730.70 0.2318
730.80 0.2316
730.90 0.2315
731.00 0.2314
731.10 0.2313
731.20 0.2312
731.30 0.231
731.40 0.2309
731.50 0.2308
731.60 0.2307
731.70 0.2305
731.80 0.2304
731.90 0.2303
732.00 0.2302
732.10 0.2301
732.20 0.2299
732.30 0.2298
732.40 0.2297
732.50 0.2296
732.60 0.2295
732.70 0.2293
732.80 0.2292
732.90 0.2291
733.00 0.229
733.10 0.2288
733.20 0.2287
733.30 0.2286
733.40 0.2285
733.50 0.2284
733.60 0.2282
733.70 0.2281
733.80 0.228
733.90 0.2279
734.00 0.2278
734.10 0.2276
734.20 0.2275
734.30 0.2274
734.40 0.2273
734.50 0.2272
734.60 0.227
734.70 0.2269
734.80 0.2268
734.90 0.2267
735.00 0.2266
735.10 0.2264
735.20 0.2263
735.30 0.2262
735.40 0.2261
735.50 0.226
735.60 0.2258
735.70 0.2257
735.80 0.2256
735.90 0.2255
736.00 0.2254
736.10 0.2252
736.20 0.2251
736.30 0.225
736.40 0.2249
736.50 0.2248
736.60 0.2246
736.70 0.2245
736.80 0.2244
736.90 0.2243
737.00 0.2242
737.10 0.2241
737.20 0.2239
737.30 0.2238
737.40 0.2237
737.50 0.2236
737.60 0.2235
737.70 0.2233
737.80 0.2232
737.90 0.2231
738.00 0.223
738.10 0.2229
738.20 0.2227
738.30 0.2226
738.40 0.2225
738.50 0.2224
738.60 0.2223
738.70 0.2222
738.80 0.222
738.90 0.2219
739.00 0.2218
739.10 0.2217
739.20 0.2216
739.30 0.2214
739.40 0.2213
739.50 0.2212
739.60 0.2211
739.70 0.221
739.80 0.2209
739.90 0.2207
740.00 0.2206
740.10 0.2205
740.20 0.2204
740.30 0.2203
740.40 0.2202
740.50 0.2201
740.60 0.2199
740.70 0.2198
740.80 0.2197
740.90 0.2196
741.00 0.2195
741.10 0.2194
741.20 0.2193
741.30 0.2191
741.40 0.219
741.50 0.2189
741.60 0.2188
741.70 0.2187
741.80 0.2186
741.90 0.2185
742.00 0.2183
742.10 0.2182
742.20 0.2181
742.30 0.218
742.40 0.2179
742.50 0.2178
742.60 0.2177
742.70 0.2175
742.80 0.2174
742.90 0.2173
743.00 0.2172
743.10 0.2171
743.20 0.217
743.30 0.2169
743.40 0.2167
743.50 0.2166
743.60 0.2165
743.70 0.2164
743.80 0.2163
743.90 0.2162
744.00 0.2161
744.10 0.216
744.20 0.2158
744.30 0.2157
744.40 0.2156
744.50 0.2155
744.60 0.2154
744.70 0.2153
744.80 0.2152
744.90 0.2151
745.00 0.2149
745.10 0.2148
745.20 0.2147
745.30 0.2146
745.40 0.2145
745.50 0.2144
745.60 0.2143
745.70 0.2142
745.80 0.214
745.90 0.2139
746.00 0.2138
746.10 0.2137
746.20 0.2136
746.30 0.2135
746.40 0.2134
746.50 0.2133
746.60 0.2132
746.70 0.213
746.80 0.2129
746.90 0.2128
747.00 0.2127
747.10 0.2126
747.20 0.2125
747.30 0.2124
747.40 0.2123
747.50 0.2121
747.60 0.212
747.70 0.2119
747.80 0.2118
747.90 0.2117
748.00 0.2116
748.10 0.2115
748.20 0.2114
748.30 0.2113
748.40 0.2112
748.50 0.211
748.60 0.2109
748.70 0.2108
748.80 0.2107
748.90 0.2106
749.00 0.2105
749.10 0.2104
749.20 0.2103
749.30 0.2102
749.40 0.21
749.50 0.2099
749.60 0.2098
749.70 0.2097
749.80 0.2096
749.90 0.2095
750.00 0.2094
750.10 0.2093
750.20 0.2092
750.30 0.2091
750.40 0.209
750.50 0.2089
750.60 0.2087
750.70 0.2086
750.80 0.2085
750.90 0.2084
751.00 0.2083
751.10 0.2082
751.20 0.2081
751.30 0.208
751.40 0.2079
751.50 0.2078
751.60 0.2077
751.70 0.2076
751.80 0.2075
751.90 0.2074
752.00 0.2072
752.10 0.2071
752.20 0.207
752.30 0.2069
752.40 0.2068
752.50 0.2067
752.60 0.2066
752.70 0.2065
752.80 0.2064
752.90 0.2063
753.00 0.2062
753.10 0.2061
753.20 0.206
753.30 0.2059
753.40 0.2058
753.50 0.2056
753.60 0.2055
753.70 0.2054
753.80 0.2053
753.90 0.2052
754.00 0.2051
754.10 0.205
754.20 0.2049
754.30 0.2048
754.40 0.2047
754.50 0.2046
754.60 0.2045
754.70 0.2044
754.80 0.2043
754.90 0.2042
755.00 0.2041
755.10 0.204
755.20 0.2039
755.30 0.2037
755.40 0.2036
755.50 0.2035
755.60 0.2034
755.70 0.2033
755.80 0.2032
755.90 0.2031
756.00 0.203
756.10 0.2029
756.20 0.2028
756.30 0.2027
756.40 0.2026
756.50 0.2025
756.60 0.2024
756.70 0.2023
756.80 0.2022
756.90 0.2021
757.00 0.202
757.10 0.2019
757.20 0.2018
757.30 0.2017
757.40 0.2015
757.50 0.2014
757.60 0.2013
757.70 0.2012
757.80 0.2011
757.90 0.201
758.00 0.2009
758.10 0.2008
758.20 0.2007
758.30 0.2006
758.40 0.2005
758.50 0.2004
758.60 0.2003
758.70 0.2002
758.80 0.2001
758.90 0.2
759.00 0.1999
759.10 0.1998
759.20 0.1997
759.30 0.1996
759.40 0.1995
759.50 0.1994
759.60 0.1993
759.70 0.1992
759.80 0.1991
759.90 0.199
760.00 0.1989
760.10 0.1988
760.20 0.1987
760.30 0.1986
760.40 0.1985
760.50 0.1984
760.60 0.1983
760.70 0.1982
760.80 0.198
760.90 0.1979
761.00 0.1978
761.10 0.1977
761.20 0.1976
761.30 0.1975
761.40 0.1974
761.50 0.1973
761.60 0.1972
761.70 0.1971
761.80 0.197
761.90 0.1969
762.00 0.1968
762.10 0.1967
762.20 0.1966
762.30 0.1965
762.40 0.1964
762.50 0.1963
762.60 0.1962
762.70 0.1961
762.80 0.196
762.90 0.1959
763.00 0.1958
763.10 0.1957
763.20 0.1956
763.30 0.1955
763.40 0.1954
763.50 0.1953
763.60 0.1952
763.70 0.1951
763.80 0.195
763.90 0.195
764.00 0.1949
764.10 0.1948
764.20 0.1947
764.30 0.1946
764.40 0.1945
764.50 0.1944
764.60 0.1943
764.70 0.1942
764.80 0.1941
764.90 0.194
765.00 0.1939
765.10 0.1938
765.20 0.1937
765.30 0.1936
765.40 0.1935
765.50 0.1934
765.60 0.1933
765.70 0.1932
765.80 0.1931
765.90 0.193
766.00 0.1929
766.10 0.1928
766.20 0.1927
766.30 0.1926
766.40 0.1925
766.50 0.1924
766.60 0.1923
766.70 0.1922
766.80 0.1921
766.90 0.192
767.00 0.1919
767.10 0.1918
767.20 0.1917
767.30 0.1916
767.40 0.1915
767.50 0.1914
767.60 0.1913
767.70 0.1912
767.80 0.1911
767.90 0.191
768.00 0.1909
768.10 0.1908
768.20 0.1907
768.30 0.1906
768.40 0.1905
768.50 0.1904
768.60 0.1903
768.70 0.1902
768.80 0.1901
768.90 0.19
769.00 0.1899
769.10 0.1898
769.20 0.1898
769.30 0.1897
769.40 0.1896
769.50 0.1895
769.60 0.1894
769.70 0.1893
769.80 0.1892
769.90 0.1891
770.00 0.189
770.10 0.1889
770.20 0.1888
770.30 0.1887
770.40 0.1886
770.50 0.1885
770.60 0.1884
770.70 0.1883
770.80 0.1882
770.90 0.1881
771.00 0.188
771.10 0.1879
771.20 0.1878
771.30 0.1877
771.40 0.1877
771.50 0.1876
771.60 0.1875
771.70 0.1874
771.80 0.1873
771.90 0.1872
772.00 0.1871
772.10 0.187
772.20 0.1869
772.30 0.1868
772.40 0.1867
772.50 0.1866
772.60 0.1865
772.70 0.1864
772.80 0.1863
772.90 0.1862
773.00 0.1862
773.10 0.1861
773.20 0.186
773.30 0.1859
773.40 0.1858
773.50 0.1857
773.60 0.1856
773.70 0.1855
773.80 0.1854
773.90 0.1853
774.00 0.1852
774.10 0.1851
774.20 0.185
774.30 0.1849
774.40 0.1848
774.50 0.1848
774.60 0.1847
774.70 0.1846
774.80 0.1845
774.90 0.1844
775.00 0.1843
775.10 0.1842
775.20 0.1841
775.30 0.184
775.40 0.1839
775.50 0.1838
775.60 0.1837
775.70 0.1836
775.80 0.1835
775.90 0.1835
776.00 0.1834
776.10 0.1833
776.20 0.1832
776.30 0.1831
776.40 0.183
776.50 0.1829
776.60 0.1828
776.70 0.1827
776.80 0.1826
776.90 0.1825
777.00 0.1824
777.10 0.1824
777.20 0.1823
777.30 0.1822
777.40 0.1821
777.50 0.182
777.60 0.1819
777.70 0.1818
777.80 0.1817
777.90 0.1816
778.00 0.1815
778.10 0.1814
778.20 0.1813
778.30 0.1813
778.40 0.1812
778.50 0.1811
778.60 0.181
778.70 0.1809
778.80 0.1808
778.90 0.1807
779.00 0.1806
779.10 0.1805
779.20 0.1804
779.30 0.1803
779.40 0.1803
779.50 0.1802
779.60 0.1801
779.70 0.18
779.80 0.1799
779.90 0.1798
780.00 0.1797
780.10 0.1796
780.20 0.1795
780.30 0.1794
780.40 0.1794
780.50 0.1793
780.60 0.1792
780.70 0.1791
780.80 0.179
780.90 0.1789
781.00 0.1788
781.10 0.1787
781.20 0.1786
781.30 0.1786
781.40 0.1785
781.50 0.1784
781.60 0.1783
781.70 0.1782
781.80 0.1781
781.90 0.178
782.00 0.1779
782.10 0.1778
782.20 0.1778
782.30 0.1777
782.40 0.1776
782.50 0.1775
782.60 0.1774
782.70 0.1773
782.80 0.1772
782.90 0.1771
783.00 0.1771
783.10 0.177
783.20 0.1769
783.30 0.1768
783.40 0.1767
783.50 0.1766
783.60 0.1765
783.70 0.1764
783.80 0.1764
783.90 0.1763
784.00 0.1762
784.10 0.1761
784.20 0.176
784.30 0.1759
784.40 0.1758
784.50 0.1757
784.60 0.1757
784.70 0.1756
784.80 0.1755
784.90 0.1754
785.00 0.1753
785.10 0.1752
785.20 0.1751
785.30 0.175
785.40 0.175
785.50 0.1749
785.60 0.1748
785.70 0.1747
785.80 0.1746
785.90 0.1745
786.00 0.1744
786.10 0.1743
786.20 0.1743
786.30 0.1742
786.40 0.1741
786.50 0.174
786.60 0.1739
786.70 0.1738
786.80 0.1737
786.90 0.1737
787.00 0.1736
787.10 0.1735
787.20 0.1734
787.30 0.1733
787.40 0.1732
787.50 0.1731
787.60 0.1731
787.70 0.173
787.80 0.1729
787.90 0.1728
788.00 0.1727
788.10 0.1726
788.20 0.1725
788.30 0.1724
788.40 0.1724
788.50 0.1723
788.60 0.1722
788.70 0.1721
788.80 0.172
788.90 0.1719
789.00 0.1718
789.10 0.1718
789.20 0.1717
789.30 0.1716
789.40 0.1715
789.50 0.1714
789.60 0.1713
789.70 0.1713
789.80 0.1712
789.90 0.1711
790.00 0.171
790.10 0.1709
790.20 0.1708
790.30 0.1707
790.40 0.1707
790.50 0.1706
790.60 0.1705
790.70 0.1704
790.80 0.1703
790.90 0.1702
791.00 0.1702
791.10 0.1701
791.20 0.17
791.30 0.1699
791.40 0.1698
791.50 0.1697
791.60 0.1697
791.70 0.1696
791.80 0.1695
791.90 0.1694
792.00 0.1693
792.10 0.1692
792.20 0.1692
792.30 0.1691
792.40 0.169
792.50 0.1689
792.60 0.1688
792.70 0.1687
792.80 0.1687
792.90 0.1686
793.00 0.1685
793.10 0.1684
793.20 0.1683
793.30 0.1683
793.40 0.1682
793.50 0.1681
793.60 0.168
793.70 0.1679
793.80 0.1678
793.90 0.1678
794.00 0.1677
794.10 0.1676
794.20 0.1675
794.30 0.1674
794.40 0.1673
794.50 0.1673
794.60 0.1672
794.70 0.1671
794.80 0.167
794.90 0.1669
795.00 0.1669
795.10 0.1668
795.20 0.1667
795.30 0.1666
795.40 0.1665
795.50 0.1664
795.60 0.1664
795.70 0.1663
795.80 0.1662
795.90 0.1661
796.00 0.166
796.10 0.166
796.20 0.1659
796.30 0.1658
796.40 0.1657
796.50 0.1656
796.60 0.1656
796.70 0.1655
796.80 0.1654
796.90 0.1653
797.00 0.1652
797.10 0.1651
797.20 0.1651
797.30 0.165
797.40 0.1649
797.50 0.1648
797.60 0.1647
797.70 0.1647
797.80 0.1646
797.90 0.1645
798.00 0.1644
798.10 0.1643
798.20 0.1643
798.30 0.1642
798.40 0.1641
798.50 0.164
798.60 0.1639
798.70 0.1639
798.80 0.1638
798.90 0.1637
799.00 0.1636
799.10 0.1635
799.20 0.1634
799.30 0.1634
799.40 0.1633
799.50 0.1632
799.60 0.1631
799.70 0.163
799.80 0.163
799.90 0.1629
800.00 0.1628
800.10 0.1627
800.20 0.1626
800.30 0.1626
800.40 0.1625
800.50 0.1624
800.60 0.1623
800.70 0.1623
800.80 0.1622
800.90 0.1621
801.00 0.162
801.10 0.1619
801.20 0.1619
801.30 0.1618
801.40 0.1617
801.50 0.1616
801.60 0.1616
801.70 0.1615
801.80 0.1614
801.90 0.1613
802.00 0.1612
802.10 0.1612
802.20 0.1611
802.30 0.161
802.40 0.1609
802.50 0.1608
802.60 0.1608
802.70 0.1607
802.80 0.1606
802.90 0.1605
803.00 0.1605
803.10 0.1604
803.20 0.1603
803.30 0.1602
803.40 0.1602
803.50 0.1601
803.60 0.16
803.70 0.1599
803.80 0.1598
803.90 0.1598
804.00 0.1597
804.10 0.1596
804.20 0.1595
804.30 0.1595
804.40 0.1594
804.50 0.1593
804.60 0.1592
804.70 0.1591
804.80 0.1591
804.90 0.159
805.00 0.1589
805.10 0.1588
805.20 0.1588
805.30 0.1587
805.40 0.1586
805.50 0.1585
805.60 0.1585
805.70 0.1584
805.80 0.1583
805.90 0.1582
806.00 0.1581
806.10 0.1581
806.20 0.158
806.30 0.1579
806.40 0.1578
806.50 0.1578
806.60 0.1577
806.70 0.1576
806.80 0.1575
806.90 0.1575
807.00 0.1574
807.10 0.1573
807.20 0.1572
807.30 0.1572
807.40 0.1571
807.50 0.157
807.60 0.1569
807.70 0.1568
807.80 0.1568
807.90 0.1567
808.00 0.1566
808.10 0.1565
808.20 0.1565
808.30 0.1564
808.40 0.1563
808.50 0.1562
808.60 0.1562
808.70 0.1561
808.80 0.156
808.90 0.1559
809.00 0.1559
809.10 0.1558
809.20 0.1557
809.30 0.1556
809.40 0.1556
809.50 0.1555
809.60 0.1554
809.70 0.1553
809.80 0.1553
809.90 0.1552
810.00 0.1551
810.10 0.155
810.20 0.155
810.30 0.1549
810.40 0.1548
810.50 0.1547
810.60 0.1547
810.70 0.1546
810.80 0.1545
810.90 0.1544
811.00 0.1544
811.10 0.1543
811.20 0.1542
811.30 0.1541
811.40 0.1541
811.50 0.154
811.60 0.1539
811.70 0.1538
811.80 0.1538
811.90 0.1537
812.00 0.1536
812.10 0.1536
812.20 0.1535
812.30 0.1534
812.40 0.1533
812.50 0.1533
812.60 0.1532
812.70 0.1531
812.80 0.153
812.90 0.153
813.00 0.1529
813.10 0.1528
813.20 0.1527
813.30 0.1527
813.40 0.1526
813.50 0.1525
813.60 0.1525
813.70 0.1524
813.80 0.1523
813.90 0.1522
814.00 0.1522
814.10 0.1521
814.20 0.152
814.30 0.1519
814.40 0.1519
814.50 0.1518
814.60 0.1517
814.70 0.1517
814.80 0.1516
814.90 0.1515
815.00 0.1514
815.10 0.1514
815.20 0.1513
815.30 0.1512
815.40 0.1511
815.50 0.1511
815.60 0.151
815.70 0.1509
815.80 0.1509
815.90 0.1508
816.00 0.1507
816.10 0.1506
816.20 0.1506
816.30 0.1505
816.40 0.1504
816.50 0.1504
816.60 0.1503
816.70 0.1502
816.80 0.1501
816.90 0.1501
817.00 0.15
817.10 0.1499
817.20 0.1499
817.30 0.1498
817.40 0.1497
817.50 0.1496
817.60 0.1496
817.70 0.1495
817.80 0.1494
817.90 0.1493
818.00 0.1493
818.10 0.1492
818.20 0.1491
818.30 0.1491
818.40 0.149
818.50 0.1489
818.60 0.1488
818.70 0.1488
818.80 0.1487
818.90 0.1486
819.00 0.1486
819.10 0.1485
819.20 0.1484
819.30 0.1483
819.40 0.1483
819.50 0.1482
819.60 0.1481
819.70 0.1481
819.80 0.148
819.90 0.1479
820.00 0.1479
820.10 0.1478
820.20 0.1477
820.30 0.1476
820.40 0.1476
820.50 0.1475
820.60 0.1474
820.70 0.1474
820.80 0.1473
820.90 0.1472
821.00 0.1472
821.10 0.1471
821.20 0.147
821.30 0.1469
821.40 0.1469
821.50 0.1468
821.60 0.1467
821.70 0.1467
821.80 0.1466
821.90 0.1465
822.00 0.1465
822.10 0.1464
822.20 0.1463
822.30 0.1462
822.40 0.1462
822.50 0.1461
822.60 0.146
822.70 0.146
822.80 0.1459
822.90 0.1458
823.00 0.1458
823.10 0.1457
823.20 0.1456
823.30 0.1456
823.40 0.1455
823.50 0.1454
823.60 0.1453
823.70 0.1453
823.80 0.1452
823.90 0.1451
824.00 0.1451
824.10 0.145
824.20 0.1449
824.30 0.1449
824.40 0.1448
824.50 0.1447
824.60 0.1447
824.70 0.1446
824.80 0.1445
824.90 0.1445
825.00 0.1444
825.10 0.1443
825.20 0.1443
825.30 0.1442
825.40 0.1441
825.50 0.144
825.60 0.144
825.70 0.1439
825.80 0.1438
825.90 0.1438
826.00 0.1437
826.10 0.1436
826.20 0.1436
826.30 0.1435
826.40 0.1434
826.50 0.1434
826.60 0.1433
826.70 0.1432
826.80 0.1432
826.90 0.1431
827.00 0.143
827.10 0.143
827.20 0.1429
827.30 0.1428
827.40 0.1428
827.50 0.1427
827.60 0.1426
827.70 0.1426
827.80 0.1425
827.90 0.1424
828.00 0.1424
828.10 0.1423
828.20 0.1422
828.30 0.1422
828.40 0.1421
828.50 0.142
828.60 0.142
828.70 0.1419
828.80 0.1418
828.90 0.1418
829.00 0.1417
829.10 0.1416
829.20 0.1416
829.30 0.1415
829.40 0.1414
829.50 0.1414
829.60 0.1413
829.70 0.1412
829.80 0.1412
829.90 0.1411
830.00 0.141
830.10 0.141
830.20 0.1409
830.30 0.1408
830.40 0.1408
830.50 0.1407
830.60 0.1406
830.70 0.1406
830.80 0.1405
830.90 0.1404
831.00 0.1404
831.10 0.1403
831.20 0.1402
831.30 0.1402
831.40 0.1401
831.50 0.14
831.60 0.14
831.70 0.1399
831.80 0.1398
831.90 0.1398
832.00 0.1397
832.10 0.1396
832.20 0.1396
832.30 0.1395
832.40 0.1394
832.50 0.1394
832.60 0.1393
832.70 0.1392
832.80 0.1392
832.90 0.1391
833.00 0.139
833.10 0.139
833.20 0.1389
833.30 0.1389
833.40 0.1388
833.50 0.1387
833.60 0.1387
833.70 0.1386
833.80 0.1385
833.90 0.1385
834.00 0.1384
834.10 0.1383
834.20 0.1383
834.30 0.1382
834.40 0.1381
834.50 0.1381
834.60 0.138
834.70 0.1379
834.80 0.1379
834.90 0.1378
835.00 0.1378
835.10 0.1377
835.20 0.1376
835.30 0.1376
835.40 0.1375
835.50 0.1374
835.60 0.1374
835.70 0.1373
835.80 0.1372
835.90 0.1372
836.00 0.1371
836.10 0.137
836.20 0.137
836.30 0.1369
836.40 0.1369
836.50 0.1368
836.60 0.1367
836.70 0.1367
836.80 0.1366
836.90 0.1365
837.00 0.1365
837.10 0.1364
837.20 0.1363
837.30 0.1363
837.40 0.1362
837.50 0.1361
837.60 0.1361
837.70 0.136
837.80 0.136
837.90 0.1359
838.00 0.1358
838.10 0.1358
838.20 0.1357
838.30 0.1356
838.40 0.1356
838.50 0.1355
838.60 0.1355
838.70 0.1354
838.80 0.1353
838.90 0.1353
839.00 0.1352
839.10 0.1351
839.20 0.1351
839.30 0.135
839.40 0.135
839.50 0.1349
839.60 0.1348
839.70 0.1348
839.80 0.1347
839.90 0.1346
840.00 0.1346
840.10 0.1345
840.20 0.1344
840.30 0.1344
840.40 0.1343
840.50 0.1343
840.60 0.1342
840.70 0.1341
840.80 0.1341
840.90 0.134
841.00 0.1339
841.10 0.1339
841.20 0.1338
841.30 0.1338
841.40 0.1337
841.50 0.1336
841.60 0.1336
841.70 0.1335
841.80 0.1334
841.90 0.1334
842.00 0.1333
842.10 0.1333
842.20 0.1332
842.30 0.1331
842.40 0.1331
842.50 0.133
842.60 0.133
842.70 0.1329
842.80 0.1328
842.90 0.1328
843.00 0.1327
843.10 0.1326
843.20 0.1326
843.30 0.1325
843.40 0.1325
843.50 0.1324
843.60 0.1323
843.70 0.1323
843.80 0.1322
843.90 0.1322
844.00 0.1321
844.10 0.132
844.20 0.132
844.30 0.1319
844.40 0.1319
844.50 0.1318
844.60 0.1317
844.70 0.1317
844.80 0.1316
844.90 0.1315
845.00 0.1315
845.10 0.1314
845.20 0.1314
845.30 0.1313
845.40 0.1312
845.50 0.1312
845.60 0.1311
845.70 0.1311
845.80 0.131
845.90 0.1309
846.00 0.1309
846.10 0.1308
846.20 0.1308
846.30 0.1307
846.40 0.1306
846.50 0.1306
846.60 0.1305
846.70 0.1305
846.80 0.1304
846.90 0.1303
847.00 0.1303
847.10 0.1302
847.20 0.1302
847.30 0.1301
847.40 0.13
847.50 0.13
847.60 0.1299
847.70 0.1299
847.80 0.1298
847.90 0.1297
848.00 0.1297
848.10 0.1296
848.20 0.1296
848.30 0.1295
848.40 0.1294
848.50 0.1294
848.60 0.1293
848.70 0.1293
848.80 0.1292
848.90 0.1291
849.00 0.1291
849.10 0.129
849.20 0.129
849.30 0.1289
849.40 0.1288
849.50 0.1288
849.60 0.1287
849.70 0.1287
849.80 0.1286
849.90 0.1285
850.00 0.1285
850.10 0.1284
850.20 0.1284
850.30 0.1283
850.40 0.1282
850.50 0.1282
850.60 0.1281
850.70 0.1281
850.80 0.128
850.90 0.1279
851.00 0.1279
851.10 0.1278
851.20 0.1278
851.30 0.1277
851.40 0.1277
851.50 0.1276
851.60 0.1275
851.70 0.1275
851.80 0.1274
851.90 0.1274
852.00 0.1273
852.10 0.1272
852.20 0.1272
852.30 0.1271
852.40 0.1271
852.50 0.127
852.60 0.1269
852.70 0.1269
852.80 0.1268
852.90 0.1268
853.00 0.1267
853.10 0.1267
853.20 0.1266
853.30 0.1265
853.40 0.1265
853.50 0.1264
853.60 0.1264
853.70 0.1263
853.80 0.1263
853.90 0.1262
854.00 0.1261
854.10 0.1261
854.20 0.126
854.30 0.126
854.40 0.1259
854.50 0.1258
854.60 0.1258
854.70 0.1257
854.80 0.1257
854.90 0.1256
855.00 0.1256
855.10 0.1255
855.20 0.1254
855.30 0.1254
855.40 0.1253
855.50 0.1253
855.60 0.1252
855.70 0.1252
855.80 0.1251
855.90 0.125
856.00 0.125
856.10 0.1249
856.20 0.1249
856.30 0.1248
856.40 0.1248
856.50 0.1247
856.60 0.1246
856.70 0.1246
856.80 0.1245
856.90 0.1245
857.00 0.1244
857.10 0.1244
857.20 0.1243
857.30 0.1242
857.40 0.1242
857.50 0.1241
857.60 0.1241
857.70 0.124
857.80 0.124
857.90 0.1239
858.00 0.1239
858.10 0.1238
858.20 0.1237
858.30 0.1237
858.40 0.1236
858.50 0.1236
858.60 0.1235
858.70 0.1235
858.80 0.1234
858.90 0.1233
859.00 0.1233
859.10 0.1232
859.20 0.1232
859.30 0.1231
859.40 0.1231
859.50 0.123
859.60 0.123
859.70 0.1229
859.80 0.1228
859.90 0.1228
860.00 0.1227
860.10 0.1227
860.20 0.1226
860.30 0.1226
860.40 0.1225
860.50 0.1225
860.60 0.1224
860.70 0.1223
860.80 0.1223
860.90 0.1222
861.00 0.1222
861.10 0.1221
861.20 0.1221
861.30 0.122
861.40 0.122
861.50 0.1219
861.60 0.1219
861.70 0.1218
861.80 0.1217
861.90 0.1217
862.00 0.1216
862.10 0.1216
862.20 0.1215
862.30 0.1215
862.40 0.1214
862.50 0.1214
862.60 0.1213
862.70 0.1212
862.80 0.1212
862.90 0.1211
863.00 0.1211
863.10 0.121
863.20 0.121
863.30 0.1209
863.40 0.1209
863.50 0.1208
863.60 0.1208
863.70 0.1207
863.80 0.1206
863.90 0.1206
864.00 0.1205
864.10 0.1205
864.20 0.1204
864.30 0.1204
864.40 0.1203
864.50 0.1203
864.60 0.1202
864.70 0.1202
864.80 0.1201
864.90 0.12
865.00 0.12
865.10 0.1199
865.20 0.1199
865.30 0.1198
865.40 0.1198
865.50 0.1197
865.60 0.1197
865.70 0.1196
865.80 0.1196
865.90 0.1195
866.00 0.1194
866.10 0.1194
866.20 0.1193
866.30 0.1193
866.40 0.1192
866.50 0.1192
866.60 0.1191
866.70 0.1191
866.80 0.119
866.90 0.119
867.00 0.1189
867.10 0.1188
867.20 0.1188
867.30 0.1187
867.40 0.1187
867.50 0.1186
867.60 0.1186
867.70 0.1185
867.80 0.1185
867.90 0.1184
868.00 0.1184
868.10 0.1183
868.20 0.1183
868.30 0.1182
868.40 0.1182
868.50 0.1181
868.60 0.118
868.70 0.118
868.80 0.1179
868.90 0.1179
869.00 0.1178
869.10 0.1178
869.20 0.1177
869.30 0.1177
869.40 0.1176
869.50 0.1176
869.60 0.1175
869.70 0.1175
869.80 0.1174
869.90 0.1174
870.00 0.1173
870.10 0.1173
870.20 0.1172
870.30 0.1172
870.40 0.1171
870.50 0.117
870.60 0.117
870.70 0.1169
870.80 0.1169
870.90 0.1168
871.00 0.1168
871.10 0.1167
871.20 0.1167
871.30 0.1166
871.40 0.1166
871.50 0.1165
871.60 0.1165
871.70 0.1164
871.80 0.1164
871.90 0.1163
872.00 0.1163
872.10 0.1162
872.20 0.1162
872.30 0.1161
872.40 0.116
872.50 0.116
872.60 0.1159
872.70 0.1159
872.80 0.1158
872.90 0.1158
873.00 0.1157
873.10 0.1157
873.20 0.1156
873.30 0.1156
873.40 0.1155
873.50 0.1155
873.60 0.1154
873.70 0.1154
873.80 0.1153
873.90 0.1153
874.00 0.1152
874.10 0.1152
874.20 0.1151
874.30 0.1151
874.40 0.115
874.50 0.115
874.60 0.1149
874.70 0.1149
874.80 0.1148
874.90 0.1148
875.00 0.1147
875.10 0.1147
875.20 0.1146
875.30 0.1145
875.40 0.1145
875.50 0.1144
875.60 0.1144
875.70 0.1143
875.80 0.1143
875.90 0.1142
876.00 0.1142
876.10 0.1141
876.20 0.1141
876.30 0.114
876.40 0.114
876.50 0.1139
876.60 0.1139
876.70 0.1138
876.80 0.1138
876.90 0.1137
877.00 0.1137
877.10 0.1136
877.20 0.1136
877.30 0.1135
877.40 0.1135
877.50 0.1134
877.60 0.1134
877.70 0.1133
877.80 0.1133
877.90 0.1132
878.00 0.1132
878.10 0.1131
878.20 0.1131
878.30 0.113
878.40 0.113
878.50 0.1129
878.60 0.1129
878.70 0.1128
878.80 0.1128
878.90 0.1127
879.00 0.1127
879.10 0.1126
879.20 0.1126
879.30 0.1125
879.40 0.1125
879.50 0.1124
879.60 0.1124
879.70 0.1123
879.80 0.1123
879.90 0.1122
880.00 0.1122
880.10 0.1121
880.20 0.1121
880.30 0.112
880.40 0.112
880.50 0.1119
880.60 0.1119
880.70 0.1118
880.80 0.1118
880.90 0.1117
881.00 0.1117
881.10 0.1116
881.20 0.1116
881.30 0.1115
881.40 0.1115
881.50 0.1114
881.60 0.1114
881.70 0.1113
881.80 0.1113
881.90 0.1112
882.00 0.1112
882.10 0.1111
882.20 0.1111
882.30 0.111
882.40 0.111
882.50 0.1109
882.60 0.1109
882.70 0.1108
882.80 0.1108
882.90 0.1107
883.00 0.1107
883.10 0.1106
883.20 0.1106
883.30 0.1105
883.40 0.1105
883.50 0.1104
883.60 0.1104
883.70 0.1103
883.80 0.1103
883.90 0.1102
884.00 0.1102
884.10 0.1101
884.20 0.1101
884.30 0.1101
884.40 0.11
884.50 0.11
884.60 0.1099
884.70 0.1099
884.80 0.1098
884.90 0.1098
885.00 0.1097
885.10 0.1097
885.20 0.1096
885.30 0.1096
885.40 0.1095
885.50 0.1095
885.60 0.1094
885.70 0.1094
885.80 0.1093
885.90 0.1093
886.00 0.1092
886.10 0.1092
886.20 0.1091
886.30 0.1091
886.40 0.109
886.50 0.109
886.60 0.1089
886.70 0.1089
886.80 0.1088
886.90 0.1088
887.00 0.1087
887.10 0.1087
887.20 0.1086
887.30 0.1086
887.40 0.1086
887.50 0.1085
887.60 0.1085
887.70 0.1084
887.80 0.1084
887.90 0.1083
888.00 0.1083
888.10 0.1082
888.20 0.1082
888.30 0.1081
888.40 0.1081
888.50 0.108
888.60 0.108
888.70 0.1079
888.80 0.1079
888.90 0.1078
889.00 0.1078
889.10 0.1077
889.20 0.1077
889.30 0.1076
889.40 0.1076
889.50 0.1076
889.60 0.1075
889.70 0.1075
889.80 0.1074
889.90 0.1074
890.00 0.1073
890.10 0.1073
890.20 0.1072
890.30 0.1072
890.40 0.1071
890.50 0.1071
890.60 0.107
890.70 0.107
890.80 0.1069
890.90 0.1069
891.00 0.1068
891.10 0.1068
891.20 0.1068
891.30 0.1067
891.40 0.1067
891.50 0.1066
891.60 0.1066
891.70 0.1065
891.80 0.1065
891.90 0.1064
892.00 0.1064
892.10 0.1063
892.20 0.1063
892.30 0.1062
892.40 0.1062
892.50 0.1061
892.60 0.1061
892.70 0.1061
892.80 0.106
892.90 0.106
893.00 0.1059
893.10 0.1059
893.20 0.1058
893.30 0.1058
893.40 0.1057
893.50 0.1057
893.60 0.1056
893.70 0.1056
893.80 0.1055
893.90 0.1055
894.00 0.1054
894.10 0.1054
894.20 0.1054
894.30 0.1053
894.40 0.1053
894.50 0.1052
894.60 0.1052
894.70 0.1051
894.80 0.1051
894.90 0.105
895.00 0.105
895.10 0.1049
895.20 0.1049
895.30 0.1049
895.40 0.1048
895.50 0.1048
895.60 0.1047
895.70 0.1047
895.80 0.1046
895.90 0.1046
896.00 0.1045
896.10 0.1045
896.20 0.1044
896.30 0.1044
896.40 0.1043
896.50 0.1043
896.60 0.1043
896.70 0.1042
896.80 0.1042
896.90 0.1041
897.00 0.1041
897.10 0.104
897.20 0.104
897.30 0.1039
897.40 0.1039
897.50 0.1038
897.60 0.1038
897.70 0.1038
897.80 0.1037
897.90 0.1037
898.00 0.1036
898.10 0.1036
898.20 0.1035
898.30 0.1035
898.40 0.1034
898.50 0.1034
898.60 0.1034
898.70 0.1033
898.80 0.1033
898.90 0.1032
899.00 0.1032
899.10 0.1031
899.20 0.1031
899.30 0.103
899.40 0.103
899.50 0.1029
899.60 0.1029
899.70 0.1029
899.80 0.1028
899.90 0.1028
900.00 0.1027
900.10 0.1027
900.20 0.1026
900.30 0.1026
900.40 0.1025
900.50 0.1025
900.60 0.1025
900.70 0.1024
900.80 0.1024
900.90 0.1023
901.00 0.1023
901.10 0.1022
901.20 0.1022
901.30 0.1021
901.40 0.1021
901.50 0.1021
901.60 0.102
901.70 0.102
901.80 0.1019
901.90 0.1019
902.00 0.1018
902.10 0.1018
902.20 0.1017
902.30 0.1017
902.40 0.1017
902.50 0.1016
902.60 0.1016
902.70 0.1015
902.80 0.1015
902.90 0.1014
903.00 0.1014
903.10 0.1014
903.20 0.1013
903.30 0.1013
903.40 0.1012
903.50 0.1012
903.60 0.1011
903.70 0.1011
903.80 0.101
903.90 0.101
904.00 0.101
904.10 0.1009
904.20 0.1009
904.30 0.1008
904.40 0.1008
904.50 0.1007
904.60 0.1007
904.70 0.1007
904.80 0.1006
904.90 0.1006
905.00 0.1005
905.10 0.1005
905.20 0.1004
905.30 0.1004
905.40 0.1003
905.50 0.1003
905.60 0.1003
905.70 0.1002
905.80 0.1002
905.90 0.1001
906.00 0.1001
906.10 0.1
906.20 0.1
906.30 0.09996
906.40 0.09991
906.50 0.09987
906.60 0.09983
906.70 0.09978
906.80 0.09974
906.90 0.0997
907.00 0.09966
907.10 0.09961
907.20 0.09957
907.30 0.09953
907.40 0.09948
907.50 0.09944
907.60 0.0994
907.70 0.09936
907.80 0.09931
907.90 0.09927
908.00 0.09923
908.10 0.09919
908.20 0.09914
908.30 0.0991
908.40 0.09906
908.50 0.09902
908.60 0.09897
908.70 0.09893
908.80 0.09889
908.90 0.09884
909.00 0.0988
909.10 0.09876
909.20 0.09872
909.30 0.09868
909.40 0.09863
909.50 0.09859
909.60 0.09855
909.70 0.09851
909.80 0.09846
909.90 0.09842
910.00 0.09838
910.10 0.09834
910.20 0.09829
910.30 0.09825
910.40 0.09821
910.50 0.09817
910.60 0.09813
910.70 0.09808
910.80 0.09804
910.90 0.098
911.00 0.09796
911.10 0.09791
911.20 0.09787
911.30 0.09783
911.40 0.09779
911.50 0.09775
911.60 0.0977
911.70 0.09766
911.80 0.09762
911.90 0.09758
912.00 0.09754
912.10 0.09749
912.20 0.09745
912.30 0.09741
912.40 0.09737
912.50 0.09733
912.60 0.09729
912.70 0.09724
912.80 0.0972
912.90 0.09716
913.00 0.09712
913.10 0.09708
913.20 0.09704
913.30 0.097
913.40 0.09695
913.50 0.09691
913.60 0.09687
913.70 0.09683
913.80 0.09679
913.90 0.09675
914.00 0.09671
914.10 0.09666
914.20 0.09662
914.30 0.09658
914.40 0.09654
914.50 0.0965
914.60 0.09646
914.70 0.09642
914.80 0.09638
914.90 0.09634
915.00 0.09629
915.10 0.09625
915.20 0.09621
915.30 0.09617
915.40 0.09613
915.50 0.09609
915.60 0.09605
915.70 0.09601
915.80 0.09597
915.90 0.09592
916.00 0.09588
916.10 0.09584
916.20 0.0958
916.30 0.09576
916.40 0.09572
916.50 0.09568
916.60 0.09564
916.70 0.0956
916.80 0.09556
916.90 0.09551
917.00 0.09547
917.10 0.09543
917.20 0.09539
917.30 0.09535
917.40 0.09531
917.50 0.09527
917.60 0.09523
917.70 0.09519
917.80 0.09515
917.90 0.09511
918.00 0.09507
918.10 0.09503
918.20 0.09499
918.30 0.09495
918.40 0.09491
918.50 0.09487
918.60 0.09483
918.70 0.09479
918.80 0.09475
918.90 0.09471
919.00 0.09467
919.10 0.09463
919.20 0.09459
919.30 0.09455
919.40 0.09451
919.50 0.09447
919.60 0.09443
919.70 0.09439
919.80 0.09435
919.90 0.09431
920.00 0.09427
920.10 0.09423
920.20 0.09419
920.30 0.09415
920.40 0.09411
920.50 0.09407
920.60 0.09403
920.70 0.09399
920.80 0.09395
920.90 0.09391
921.00 0.09387
921.10 0.09383
921.20 0.09379
921.30 0.09375
921.40 0.09371
921.50 0.09367
921.60 0.09363
921.70 0.09359
921.80 0.09355
921.90 0.09351
922.00 0.09347
922.10 0.09343
922.20 0.09339
922.30 0.09335
922.40 0.09331
922.50 0.09327
922.60 0.09323
922.70 0.09319
922.80 0.09315
922.90 0.09311
923.00 0.09308
923.10 0.09304
923.20 0.093
923.30 0.09296
923.40 0.09292
923.50 0.09288
923.60 0.09284
923.70 0.0928
923.80 0.09276
923.90 0.09272
924.00 0.09268
924.10 0.09264
924.20 0.0926
924.30 0.09257
924.40 0.09253
924.50 0.09249
924.60 0.09245
924.70 0.09241
924.80 0.09237
924.90 0.09233
925.00 0.09229
925.10 0.09225
925.20 0.09221
925.30 0.09217
925.40 0.09214
925.50 0.0921
925.60 0.09206
925.70 0.09202
925.80 0.09198
925.90 0.09194
926.00 0.0919
926.10 0.09186
926.20 0.09182
926.30 0.09179
926.40 0.09175
926.50 0.09171
926.60 0.09167
926.70 0.09163
926.80 0.09159
926.90 0.09155
927.00 0.09151
927.10 0.09148
927.20 0.09144
927.30 0.0914
927.40 0.09136
927.50 0.09132
927.60 0.09128
927.70 0.09124
927.80 0.09121
927.90 0.09117
928.00 0.09113
928.10 0.09109
928.20 0.09105
928.30 0.09102
928.40 0.09098
928.50 0.09094
928.60 0.0909
928.70 0.09086
928.80 0.09082
928.90 0.09079
929.00 0.09075
929.10 0.09071
929.20 0.09067
929.30 0.09063
929.40 0.0906
929.50 0.09056
929.60 0.09052
929.70 0.09048
929.80 0.09044
929.90 0.0904
930.00 0.09037
930.10 0.09033
930.20 0.09029
930.30 0.09025
930.40 0.09021
930.50 0.09018
930.60 0.09014
930.70 0.0901
930.80 0.09006
930.90 0.09003
931.00 0.08999
931.10 0.08995
931.20 0.08991
931.30 0.08987
931.40 0.08984
931.50 0.0898
931.60 0.08976
931.70 0.08972
931.80 0.08969
931.90 0.08965
932.00 0.08961
932.10 0.08957
932.20 0.08953
932.30 0.0895
932.40 0.08946
932.50 0.08942
932.60 0.08938
932.70 0.08935
932.80 0.08931
932.90 0.08927
933.00 0.08924
933.10 0.0892
933.20 0.08916
933.30 0.08912
933.40 0.08909
933.50 0.08905
933.60 0.08901
933.70 0.08897
933.80 0.08894
933.90 0.0889
934.00 0.08886
934.10 0.08883
934.20 0.08879
934.30 0.08875
934.40 0.08871
934.50 0.08868
934.60 0.08864
934.70 0.0886
934.80 0.08857
934.90 0.08853
935.00 0.08849
935.10 0.08846
935.20 0.08842
935.30 0.08838
935.40 0.08834
935.50 0.08831
935.60 0.08827
935.70 0.08823
935.80 0.0882
935.90 0.08816
936.00 0.08812
936.10 0.08809
936.20 0.08805
936.30 0.08801
936.40 0.08798
936.50 0.08794
936.60 0.0879
936.70 0.08787
936.80 0.08783
936.90 0.08779
937.00 0.08776
937.10 0.08772
937.20 0.08768
937.30 0.08765
937.40 0.08761
937.50 0.08757
937.60 0.08754
937.70 0.0875
937.80 0.08746
937.90 0.08743
938.00 0.08739
938.10 0.08735
938.20 0.08732
938.30 0.08728
938.40 0.08725
938.50 0.08721
938.60 0.08717
938.70 0.08714
938.80 0.0871
938.90 0.08706
939.00 0.08703
939.10 0.08699
939.20 0.08696
939.30 0.08692
939.40 0.08688
939.50 0.08685
939.60 0.08681
939.70 0.08678
939.80 0.08674
939.90 0.0867
940.00 0.08667
940.10 0.08663
940.20 0.0866
940.30 0.08656
940.40 0.08652
940.50 0.08649
940.60 0.08645
940.70 0.08642
940.80 0.08638
940.90 0.08634
941.00 0.08631
941.10 0.08627
941.20 0.08624
941.30 0.0862
941.40 0.08616
941.50 0.08613
941.60 0.08609
941.70 0.08606
941.80 0.08602
941.90 0.08599
942.00 0.08595
942.10 0.08591
942.20 0.08588
942.30 0.08584
942.40 0.08581
942.50 0.08577
942.60 0.08574
942.70 0.0857
942.80 0.08567
942.90 0.08563
943.00 0.08559
943.10 0.08556
943.20 0.08552
943.30 0.08549
943.40 0.08545
943.50 0.08542
943.60 0.08538
943.70 0.08535
943.80 0.08531
943.90 0.08528
944.00 0.08524
944.10 0.08521
944.20 0.08517
944.30 0.08514
944.40 0.0851
944.50 0.08506
944.60 0.08503
944.70 0.08499
944.80 0.08496
944.90 0.08492
945.00 0.08489
945.10 0.08485
945.20 0.08482
945.30 0.08478
945.40 0.08475
945.50 0.08471
945.60 0.08468
945.70 0.08464
945.80 0.08461
945.90 0.08457
946.00 0.08454
946.10 0.0845
946.20 0.08447
946.30 0.08444
946.40 0.0844
946.50 0.08437
946.60 0.08433
946.70 0.0843
946.80 0.08426
946.90 0.08423
947.00 0.08419
947.10 0.08416
947.20 0.08412
947.30 0.08409
947.40 0.08405
947.50 0.08402
947.60 0.08398
947.70 0.08395
947.80 0.08391
947.90 0.08388
948.00 0.08385
948.10 0.08381
948.20 0.08378
948.30 0.08374
948.40 0.08371
948.50 0.08367
948.60 0.08364
948.70 0.0836
948.80 0.08357
948.90 0.08354
949.00 0.0835
949.10 0.08347
949.20 0.08343
949.30 0.0834
949.40 0.08336
949.50 0.08333
949.60 0.0833
949.70 0.08326
949.80 0.08323
949.90 0.08319
950.00 0.08316
950.10 0.08313
950.20 0.08309
950.30 0.08306
950.40 0.08302
950.50 0.08299
950.60 0.08296
950.70 0.08292
950.80 0.08289
950.90 0.08285
951.00 0.08282
951.10 0.08279
951.20 0.08275
951.30 0.08272
951.40 0.08268
951.50 0.08265
951.60 0.08262
951.70 0.08258
951.80 0.08255
951.90 0.08251
952.00 0.08248
952.10 0.08245
952.20 0.08241
952.30 0.08238
952.40 0.08235
952.50 0.08231
952.60 0.08228
952.70 0.08224
952.80 0.08221
952.90 0.08218
953.00 0.08214
953.10 0.08211
953.20 0.08208
953.30 0.08204
953.40 0.08201
953.50 0.08198
953.60 0.08194
953.70 0.08191
953.80 0.08188
953.90 0.08184
954.00 0.08181
954.10 0.08178
954.20 0.08174
954.30 0.08171
954.40 0.08168
954.50 0.08164
954.60 0.08161
954.70 0.08158
954.80 0.08154
954.90 0.08151
955.00 0.08148
955.10 0.08144
955.20 0.08141
955.30 0.08138
955.40 0.08134
955.50 0.08131
955.60 0.08128
955.70 0.08124
955.80 0.08121
955.90 0.08118
956.00 0.08114
956.10 0.08111
956.20 0.08108
956.30 0.08104
956.40 0.08101
956.50 0.08098
956.60 0.08095
956.70 0.08091
956.80 0.08088
956.90 0.08085
957.00 0.08081
957.10 0.08078
957.20 0.08075
957.30 0.08071
957.40 0.08068
957.50 0.08065
957.60 0.08062
957.70 0.08058
957.80 0.08055
957.90 0.08052
958.00 0.08048
958.10 0.08045
958.20 0.08042
958.30 0.08039
958.40 0.08035
958.50 0.08032
958.60 0.08029
958.70 0.08026
958.80 0.08022
958.90 0.08019
959.00 0.08016
959.10 0.08012
959.20 0.08009
959.30 0.08006
959.40 0.08003
959.50 0.07999
959.60 0.07996
959.70 0.07993
959.80 0.0799
959.90 0.07986
960.00 0.07983
960.10 0.0798
960.20 0.07977
960.30 0.07973
960.40 0.0797
960.50 0.07967
960.60 0.07964
960.70 0.07961
960.80 0.07957
960.90 0.07954
961.00 0.07951
961.10 0.07948
961.20 0.07944
961.30 0.07941
961.40 0.07938
961.50 0.07935
961.60 0.07931
961.70 0.07928
961.80 0.07925
961.90 0.07922
962.00 0.07919
962.10 0.07915
962.20 0.07912
962.30 0.07909
962.40 0.07906
962.50 0.07903
962.60 0.07899
962.70 0.07896
962.80 0.07893
962.90 0.0789
963.00 0.07887
963.10 0.07883
963.20 0.0788
963.30 0.07877
963.40 0.07874
963.50 0.07871
963.60 0.07867
963.70 0.07864
963.80 0.07861
963.90 0.07858
964.00 0.07855
964.10 0.07852
964.20 0.07848
964.30 0.07845
964.40 0.07842
964.50 0.07839
964.60 0.07836
964.70 0.07833
964.80 0.07829
964.90 0.07826
965.00 0.07823
965.10 0.0782
965.20 0.07817
965.30 0.07814
965.40 0.0781
965.50 0.07807
965.60 0.07804
965.70 0.07801
965.80 0.07798
965.90 0.07795
966.00 0.07792
966.10 0.07788
966.20 0.07785
966.30 0.07782
966.40 0.07779
966.50 0.07776
966.60 0.07773
966.70 0.0777
966.80 0.07766
966.90 0.07763
967.00 0.0776
967.10 0.07757
967.20 0.07754
967.30 0.07751
967.40 0.07748
967.50 0.07745
967.60 0.07741
967.70 0.07738
967.80 0.07735
967.90 0.07732
968.00 0.07729
968.10 0.07726
968.20 0.07723
968.30 0.0772
968.40 0.07716
968.50 0.07713
968.60 0.0771
968.70 0.07707
968.80 0.07704
968.90 0.07701
969.00 0.07698
969.10 0.07695
969.20 0.07692
969.30 0.07689
969.40 0.07685
969.50 0.07682
969.60 0.07679
969.70 0.07676
969.80 0.07673
969.90 0.0767
970.00 0.07667
970.10 0.07664
970.20 0.07661
970.30 0.07658
970.40 0.07655
970.50 0.07651
970.60 0.07648
970.70 0.07645
970.80 0.07642
970.90 0.07639
971.00 0.07636
971.10 0.07633
971.20 0.0763
971.30 0.07627
971.40 0.07624
971.50 0.07621
971.60 0.07618
971.70 0.07615
971.80 0.07612
971.90 0.07609
972.00 0.07605
972.10 0.07602
972.20 0.07599
972.30 0.07596
972.40 0.07593
972.50 0.0759
972.60 0.07587
972.70 0.07584
972.80 0.07581
972.90 0.07578
973.00 0.07575
973.10 0.07572
973.20 0.07569
973.30 0.07566
973.40 0.07563
973.50 0.0756
973.60 0.07557
973.70 0.07554
973.80 0.07551
973.90 0.07548
974.00 0.07545
974.10 0.07542
974.20 0.07538
974.30 0.07535
974.40 0.07532
974.50 0.07529
974.60 0.07526
974.70 0.07523
974.80 0.0752
974.90 0.07517
975.00 0.07514
975.10 0.07511
975.20 0.07508
975.30 0.07505
975.40 0.07502
975.50 0.07499
975.60 0.07496
975.70 0.07493
975.80 0.0749
975.90 0.07487
976.00 0.07484
976.10 0.07481
976.20 0.07478
976.30 0.07475
976.40 0.07472
976.50 0.07469
976.60 0.07466
976.70 0.07463
976.80 0.0746
976.90 0.07457
977.00 0.07454
977.10 0.07451
977.20 0.07448
977.30 0.07445
977.40 0.07442
977.50 0.07439
977.60 0.07436
977.70 0.07433
977.80 0.0743
977.90 0.07427
978.00 0.07424
978.10 0.07421
978.20 0.07418
978.30 0.07416
978.40 0.07413
978.50 0.0741
978.60 0.07407
978.70 0.07404
978.80 0.07401
978.90 0.07398
979.00 0.07395
979.10 0.07392
979.20 0.07389
979.30 0.07386
979.40 0.07383
979.50 0.0738
979.60 0.07377
979.70 0.07374
979.80 0.07371
979.90 0.07368
980.00 0.07365
980.10 0.07362
980.20 0.07359
980.30 0.07356
980.40 0.07353
980.50 0.0735
980.60 0.07347
980.70 0.07345
980.80 0.07342
980.90 0.07339
981.00 0.07336
981.10 0.07333
981.20 0.0733
981.30 0.07327
981.40 0.07324
981.50 0.07321
981.60 0.07318
981.70 0.07315
981.80 0.07312
981.90 0.07309
982.00 0.07306
982.10 0.07303
982.20 0.073
982.30 0.07298
982.40 0.07295
982.50 0.07292
982.60 0.07289
982.70 0.07286
982.80 0.07283
982.90 0.0728
983.00 0.07277
983.10 0.07274
983.20 0.07271
983.30 0.07268
983.40 0.07265
983.50 0.07263
983.60 0.0726
983.70 0.07257
983.80 0.07254
983.90 0.07251
984.00 0.07248
984.10 0.07245
984.20 0.07242
984.30 0.07239
984.40 0.07236
984.50 0.07234
984.60 0.07231
984.70 0.07228
984.80 0.07225
984.90 0.07222
985.00 0.07219
985.10 0.07216
985.20 0.07213
985.30 0.0721
985.40 0.07208
985.50 0.07205
985.60 0.07202
985.70 0.07199
985.80 0.07196
985.90 0.07193
986.00 0.0719
986.10 0.07187
986.20 0.07185
986.30 0.07182
986.40 0.07179
986.50 0.07176
986.60 0.07173
986.70 0.0717
986.80 0.07167
986.90 0.07164
987.00 0.07162
987.10 0.07159
987.20 0.07156
987.30 0.07153
987.40 0.0715
987.50 0.07147
987.60 0.07144
987.70 0.07142
987.80 0.07139
987.90 0.07136
988.00 0.07133
988.10 0.0713
988.20 0.07127
988.30 0.07124
988.40 0.07122
988.50 0.07119
988.60 0.07116
988.70 0.07113
988.80 0.0711
988.90 0.07107
989.00 0.07105
989.10 0.07102
989.20 0.07099
989.30 0.07096
989.40 0.07093
989.50 0.0709
989.60 0.07088
989.70 0.07085
989.80 0.07082
989.90 0.07079
990.00 0.07076
990.10 0.07073
990.20 0.07071
990.30 0.07068
990.40 0.07065
990.50 0.07062
990.60 0.07059
990.70 0.07057
990.80 0.07054
990.90 0.07051
991.00 0.07048
991.10 0.07045
991.20 0.07043
991.30 0.0704
991.40 0.07037
991.50 0.07034
991.60 0.07031
991.70 0.07029
991.80 0.07026
991.90 0.07023
992.00 0.0702
992.10 0.07017
992.20 0.07015
992.30 0.07012
992.40 0.07009
992.50 0.07006
992.60 0.07003
992.70 0.07001
992.80 0.06998
992.90 0.06995
993.00 0.06992
993.10 0.06989
993.20 0.06987
993.30 0.06984
993.40 0.06981
993.50 0.06978
993.60 0.06976
993.70 0.06973
993.80 0.0697
993.90 0.06967
994.00 0.06964
994.10 0.06962
994.20 0.06959
994.30 0.06956
994.40 0.06953
994.50 0.06951
994.60 0.06948
994.70 0.06945
994.80 0.06942
994.90 0.0694
995.00 0.06937
995.10 0.06934
995.20 0.06931
995.30 0.06929
995.40 0.06926
995.50 0.06923
995.60 0.0692
995.70 0.06918
995.80 0.06915
995.90 0.06912
996.00 0.06909
996.10 0.06907
996.20 0.06904
996.30 0.06901
996.40 0.06898
996.50 0.06896
996.60 0.06893
996.70 0.0689
996.80 0.06888
996.90 0.06885
997.00 0.06882
997.10 0.06879
997.20 0.06877
997.30 0.06874
997.40 0.06871
997.50 0.06869
997.60 0.06866
997.70 0.06863
997.80 0.0686
997.90 0.06858
998.00 0.06855
998.10 0.06852
998.20 0.0685
998.30 0.06847
998.40 0.06844
998.50 0.06842
998.60 0.06839
998.70 0.06836
998.80 0.06833
998.90 0.06831
999.00 0.06828
999.10 0.06825
999.20 0.06823
999.30 0.0682
999.40 0.06817
999.50 0.06815
999.60 0.06812
999.70 0.06809
999.80 0.06806
999.90 0.06803
1000.00 0.06801
1000.10 0.06798
1000.20 0.06795
1000.30 0.06792
1000.40 0.06789
1000.50 0.06786
1000.60 0.06783
1000.70 0.06781
1000.80 0.06778
1000.90 0.06775
1001.00 0.06772
1001.10 0.06769
1001.20 0.06766
1001.30 0.06763
1001.40 0.0676
1001.50 0.06758
1001.60 0.06755
1001.70 0.06752
1001.80 0.0675
1001.90 0.06747
1002.00 0.06744
1002.10 0.06742
1002.20 0.06739
1002.30 0.06737
1002.40 0.06734
1002.50 0.06731
1002.60 0.06729
1002.70 0.06726
1002.80 0.06724
1002.90 0.06721
1003.00 0.06719
1003.10 0.06716
1003.20 0.06713
1003.30 0.06711
1003.40 0.06708
1003.50 0.06706
1003.60 0.06703
1003.70 0.06701
1003.80 0.06698
1003.90 0.06696
1004.00 0.06693
1004.10 0.0669
1004.20 0.06688
1004.30 0.06685
1004.40 0.06683
1004.50 0.0668
1004.60 0.06678
1004.70 0.06675
1004.80 0.06673
1004.90 0.0667
1005.00 0.06667
1005.10 0.06665
1005.20 0.06662
1005.30 0.0666
1005.40 0.06657
1005.50 0.06654
1005.60 0.06652
1005.70 0.06649
1005.80 0.06647
1005.90 0.06644
1006.00 0.06641
1006.10 0.06639
1006.20 0.06636
1006.30 0.06634
1006.40 0.06631
1006.50 0.06628
1006.60 0.06626
1006.70 0.06623
1006.80 0.0662
1006.90 0.06618
1007.00 0.06615
1007.10 0.06613
1007.20 0.0661
1007.30 0.06608
1007.40 0.06605
1007.50 0.06602
1007.60 0.066
1007.70 0.06597
1007.80 0.06595
1007.90 0.06592
1008.00 0.0659
1008.10 0.06587
1008.20 0.06584
1008.30 0.06582
1008.40 0.06579
1008.50 0.06577
1008.60 0.06574
1008.70 0.06572
1008.80 0.06569
1008.90 0.06567
1009.00 0.06564
1009.10 0.06562
1009.20 0.06559
1009.30 0.06556
1009.40 0.06554
1009.50 0.06551
1009.60 0.06549
1009.70 0.06546
1009.80 0.06544
1009.90 0.06541
1010.00 0.06539
1010.10 0.06536
1010.20 0.06534
1010.30 0.06531
1010.40 0.06529
1010.50 0.06526
1010.60 0.06524
1010.70 0.06521
1010.80 0.06519
1010.90 0.06516
1011.00 0.06514
1011.10 0.06511
1011.20 0.06509
1011.30 0.06506
1011.40 0.06504
1011.50 0.06501
1011.60 0.06499
1011.70 0.06497
1011.80 0.06494
1011.90 0.06492
1012.00 0.06489
1012.10 0.06487
1012.20 0.06484
1012.30 0.06482
1012.40 0.06479
1012.50 0.06477
1012.60 0.06474
1012.70 0.06472
1012.80 0.06469
1012.90 0.06467
1013.00 0.06465
1013.10 0.06462
1013.20 0.0646
1013.30 0.06457
1013.40 0.06455
1013.50 0.06452
1013.60 0.0645
1013.70 0.06447
1013.80 0.06445
1013.90 0.06442
1014.00 0.0644
1014.10 0.06438
1014.20 0.06435
1014.30 0.06433
1014.40 0.0643
1014.50 0.06428
1014.60 0.06425
1014.70 0.06423
1014.80 0.06421
1014.90 0.06418
1015.00 0.06416
1015.10 0.06413
1015.20 0.06411
1015.30 0.06408
1015.40 0.06406
1015.50 0.06404
1015.60 0.06401
1015.70 0.06399
1015.80 0.06396
1015.90 0.06394
1016.00 0.06392
1016.10 0.06389
1016.20 0.06387
1016.30 0.06384
1016.40 0.06382
1016.50 0.0638
1016.60 0.06377
1016.70 0.06375
1016.80 0.06372
1016.90 0.0637
1017.00 0.06367
1017.10 0.06365
1017.20 0.06363
1017.30 0.0636
1017.40 0.06358
1017.50 0.06355
1017.60 0.06353
1017.70 0.06351
1017.80 0.06348
1017.90 0.06346
1018.00 0.06344
1018.10 0.06341
1018.20 0.06339
1018.30 0.06336
1018.40 0.06334
1018.50 0.06332
1018.60 0.06329
1018.70 0.06327
1018.80 0.06324
1018.90 0.06322
1019.00 0.0632
1019.10 0.06317
1019.20 0.06315
1019.30 0.06313
1019.40 0.0631
1019.50 0.06308
1019.60 0.06305
1019.70 0.06303
1019.80 0.06301
1019.90 0.06298
1020.00 0.06296
1020.10 0.06294
1020.20 0.06291
1020.30 0.06289
1020.40 0.06286
1020.50 0.06284
1020.60 0.06282
1020.70 0.06279
1020.80 0.06277
1020.90 0.06275
1021.00 0.06272
1021.10 0.0627
1021.20 0.06268
1021.30 0.06265
1021.40 0.06263
1021.50 0.0626
1021.60 0.06258
1021.70 0.06256
1021.80 0.06253
1021.90 0.06251
1022.00 0.06249
1022.10 0.06246
1022.20 0.06244
1022.30 0.06242
1022.40 0.06239
1022.50 0.06237
1022.60 0.06235
1022.70 0.06232
1022.80 0.0623
1022.90 0.06228
1023.00 0.06225
1023.10 0.06223
1023.20 0.06221
1023.30 0.06218
1023.40 0.06216
1023.50 0.06214
1023.60 0.06211
1023.70 0.06209
1023.80 0.06207
1023.90 0.06204
1024.00 0.06202
1024.10 0.062
1024.20 0.06197
1024.30 0.06195
1024.40 0.06193
1024.50 0.0619
1024.60 0.06188
1024.70 0.06186
1024.80 0.06183
1024.90 0.06181
1025.00 0.06179
1025.10 0.06176
1025.20 0.06174
1025.30 0.06172
1025.40 0.06169
1025.50 0.06167
1025.60 0.06165
1025.70 0.06162
1025.80 0.0616
1025.90 0.06158
1026.00 0.06155
1026.10 0.06153
1026.20 0.06151
1026.30 0.06148
1026.40 0.06146
1026.50 0.06144
1026.60 0.06142
1026.70 0.06139
1026.80 0.06137
1026.90 0.06135
1027.00 0.06132
1027.10 0.0613
1027.20 0.06128
1027.30 0.06125
1027.40 0.06123
1027.50 0.06121
1027.60 0.06119
1027.70 0.06116
1027.80 0.06114
1027.90 0.06112
1028.00 0.06109
1028.10 0.06107
1028.20 0.06105
1028.30 0.06102
1028.40 0.061
1028.50 0.06098
1028.60 0.06096
1028.70 0.06093
1028.80 0.06091
1028.90 0.06089
1029.00 0.06086
1029.10 0.06084
1029.20 0.06082
1029.30 0.0608
1029.40 0.06077
1029.50 0.06075
1029.60 0.06073
1029.70 0.0607
1029.80 0.06068
1029.90 0.06066
1030.00 0.06064
1030.10 0.06061
1030.20 0.06059
1030.30 0.06057
1030.40 0.06055
1030.50 0.06052
1030.60 0.0605
1030.70 0.06048
1030.80 0.06045
1030.90 0.06043
1031.00 0.06041
1031.10 0.06039
1031.20 0.06036
1031.30 0.06034
1031.40 0.06032
1031.50 0.0603
1031.60 0.06027
1031.70 0.06025
1031.80 0.06023
1031.90 0.0602
1032.00 0.06018
1032.10 0.06016
1032.20 0.06014
1032.30 0.06011
1032.40 0.06009
1032.50 0.06007
1032.60 0.06005
1032.70 0.06002
1032.80 0.06
1032.90 0.05998
1033.00 0.05996
1033.10 0.05993
1033.20 0.05991
1033.30 0.05989
1033.40 0.05987
1033.50 0.05984
1033.60 0.05982
1033.70 0.0598
1033.80 0.05978
1033.90 0.05975
1034.00 0.05973
1034.10 0.05971
1034.20 0.05969
1034.30 0.05966
1034.40 0.05964
1034.50 0.05962
1034.60 0.0596
1034.70 0.05957
1034.80 0.05955
1034.90 0.05953
1035.00 0.05951
1035.10 0.05949
1035.20 0.05946
1035.30 0.05944
1035.40 0.05942
1035.50 0.0594
1035.60 0.05937
1035.70 0.05935
1035.80 0.05933
1035.90 0.05931
1036.00 0.05928
1036.10 0.05926
1036.20 0.05924
1036.30 0.05922
1036.40 0.0592
1036.50 0.05917
1036.60 0.05915
1036.70 0.05913
1036.80 0.05911
1036.90 0.05908
1037.00 0.05906
1037.10 0.05904
1037.20 0.05902
1037.30 0.059
1037.40 0.05897
1037.50 0.05895
1037.60 0.05893
1037.70 0.05891
1037.80 0.05888
1037.90 0.05886
1038.00 0.05884
1038.10 0.05882
1038.20 0.0588
1038.30 0.05877
1038.40 0.05875
1038.50 0.05873
1038.60 0.05871
1038.70 0.05869
1038.80 0.05866
1038.90 0.05864
1039.00 0.05862
1039.10 0.0586
1039.20 0.05858
1039.30 0.05855
1039.40 0.05853
1039.50 0.05851
1039.60 0.05849
1039.70 0.05847
1039.80 0.05844
1039.90 0.05842
1040.00 0.0584
1040.10 0.05838
1040.20 0.05836
1040.30 0.05833
1040.40 0.05831
1040.50 0.05829
1040.60 0.05827
1040.70 0.05825
1040.80 0.05823
1040.90 0.0582
1041.00 0.05818
1041.10 0.05816
1041.20 0.05814
1041.30 0.05812
1041.40 0.05809
1041.50 0.05807
1041.60 0.05805
1041.70 0.05803
1041.80 0.05801
1041.90 0.05798
1042.00 0.05796
1042.10 0.05794
1042.20 0.05792
1042.30 0.0579
1042.40 0.05788
1042.50 0.05785
1042.60 0.05783
1042.70 0.05781
1042.80 0.05779
1042.90 0.05777
1043.00 0.05775
1043.10 0.05772
1043.20 0.0577
1043.30 0.05768
1043.40 0.05766
1043.50 0.05764
1043.60 0.05762
1043.70 0.05759
1043.80 0.05757
1043.90 0.05755
1044.00 0.05753
1044.10 0.05751
1044.20 0.05749
1044.30 0.05746
1044.40 0.05744
1044.50 0.05742
1044.60 0.0574
1044.70 0.05738
1044.80 0.05736
1044.90 0.05734
1045.00 0.05731
1045.10 0.05729
1045.20 0.05727
1045.30 0.05725
1045.40 0.05723
1045.50 0.05721
1045.60 0.05718
1045.70 0.05716
1045.80 0.05714
1045.90 0.05712
1046.00 0.0571
1046.10 0.05708
1046.20 0.05706
1046.30 0.05703
1046.40 0.05701
1046.50 0.05699
1046.60 0.05697
1046.70 0.05695
1046.80 0.05693
1046.90 0.05691
1047.00 0.05688
1047.10 0.05686
1047.20 0.05684
1047.30 0.05682
1047.40 0.0568
1047.50 0.05678
1047.60 0.05676
1047.70 0.05674
1047.80 0.05671
1047.90 0.05669
1048.00 0.05667
1048.10 0.05665
1048.20 0.05663
1048.30 0.05661
1048.40 0.05659
1048.50 0.05657
1048.60 0.05654
1048.70 0.05652
1048.80 0.0565
1048.90 0.05648
1049.00 0.05646
1049.10 0.05644
1049.20 0.05642
1049.30 0.0564
1049.40 0.05637
1049.50 0.05635
1049.60 0.05633
1049.70 0.05631
1049.80 0.05629
1049.90 0.05627
1050.00 0.05625
1050.10 0.05623
1050.20 0.0562
1050.30 0.05618
1050.40 0.05616
1050.50 0.05614
1050.60 0.05612
1050.70 0.0561
1050.80 0.05608
1050.90 0.05606
1051.00 0.05604
1051.10 0.05601
1051.20 0.05599
1051.30 0.05597
1051.40 0.05595
1051.50 0.05593
1051.60 0.05591
1051.70 0.05589
1051.80 0.05587
1051.90 0.05585
1052.00 0.05583
1052.10 0.0558
1052.20 0.05578
1052.30 0.05576
1052.40 0.05574
1052.50 0.05572
1052.60 0.0557
1052.70 0.05568
1052.80 0.05566
1052.90 0.05564
1053.00 0.05562
1053.10 0.0556
1053.20 0.05557
1053.30 0.05555
1053.40 0.05553
1053.50 0.05551
1053.60 0.05549
1053.70 0.05547
1053.80 0.05545
1053.90 0.05543
1054.00 0.05541
1054.10 0.05539
1054.20 0.05537
1054.30 0.05535
1054.40 0.05532
1054.50 0.0553
1054.60 0.05528
1054.70 0.05526
1054.80 0.05524
1054.90 0.05522
1055.00 0.0552
1055.10 0.05518
1055.20 0.05516
1055.30 0.05514
1055.40 0.05512
1055.50 0.0551
1055.60 0.05508
1055.70 0.05505
1055.80 0.05503
1055.90 0.05501
1056.00 0.05499
1056.10 0.05497
1056.20 0.05495
1056.30 0.05493
1056.40 0.05491
1056.50 0.05489
1056.60 0.05487
1056.70 0.05485
1056.80 0.05483
1056.90 0.05481
1057.00 0.05479
1057.10 0.05476
1057.20 0.05474
1057.30 0.05472
1057.40 0.0547
1057.50 0.05468
1057.60 0.05466
1057.70 0.05464
1057.80 0.05462
1057.90 0.0546
1058.00 0.05458
1058.10 0.05456
1058.20 0.05454
1058.30 0.05452
1058.40 0.0545
1058.50 0.05448
1058.60 0.05446
1058.70 0.05444
1058.80 0.05442
1058.90 0.0544
1059.00 0.05437
1059.10 0.05435
1059.20 0.05433
1059.30 0.05431
1059.40 0.05429
1059.50 0.05427
1059.60 0.05425
1059.70 0.05423
1059.80 0.05421
1059.90 0.05419
1060.00 0.05417
1060.10 0.05415
1060.20 0.05413
1060.30 0.05411
1060.40 0.05409
1060.50 0.05407
1060.60 0.05405
1060.70 0.05403
1060.80 0.05401
1060.90 0.05399
1061.00 0.05397
1061.10 0.05395
1061.20 0.05393
1061.30 0.05391
1061.40 0.05388
1061.50 0.05386
1061.60 0.05384
1061.70 0.05382
1061.80 0.0538
1061.90 0.05378
1062.00 0.05376
1062.10 0.05374
1062.20 0.05372
1062.30 0.0537
1062.40 0.05368
1062.50 0.05366
1062.60 0.05364
1062.70 0.05362
1062.80 0.0536
1062.90 0.05358
1063.00 0.05356
1063.10 0.05354
1063.20 0.05352
1063.30 0.0535
1063.40 0.05348
1063.50 0.05346
1063.60 0.05344
1063.70 0.05342
1063.80 0.0534
1063.90 0.05338
1064.00 0.05336
1064.10 0.05334
1064.20 0.05332
1064.30 0.0533
1064.40 0.05328
1064.50 0.05326
1064.60 0.05324
1064.70 0.05322
1064.80 0.0532
1064.90 0.05318
1065.00 0.05316
1065.10 0.05314
1065.20 0.05312
1065.30 0.0531
1065.40 0.05308
1065.50 0.05306
1065.60 0.05304
1065.70 0.05302
1065.80 0.053
1065.90 0.05298
1066.00 0.05296
1066.10 0.05294
1066.20 0.05292
1066.30 0.0529
1066.40 0.05288
1066.50 0.05286
1066.60 0.05284
1066.70 0.05282
1066.80 0.0528
1066.90 0.05278
1067.00 0.05276
1067.10 0.05274
1067.20 0.05272
1067.30 0.0527
1067.40 0.05268
1067.50 0.05266
1067.60 0.05264
1067.70 0.05262
1067.80 0.0526
1067.90 0.05258
1068.00 0.05256
1068.10 0.05254
1068.20 0.05252
1068.30 0.0525
1068.40 0.05248
1068.50 0.05246
1068.60 0.05244
1068.70 0.05242
1068.80 0.0524
1068.90 0.05238
1069.00 0.05236
1069.10 0.05234
1069.20 0.05232
1069.30 0.0523
1069.40 0.05228
1069.50 0.05226
1069.60 0.05224
1069.70 0.05222
1069.80 0.0522
1069.90 0.05218
1070.00 0.05216
1070.10 0.05214
1070.20 0.05212
1070.30 0.0521
1070.40 0.05208
1070.50 0.05206
1070.60 0.05204
1070.70 0.05202
1070.80 0.052
1070.90 0.05198
1071.00 0.05196
1071.10 0.05194
1071.20 0.05192
1071.30 0.0519
1071.40 0.05188
1071.50 0.05186
1071.60 0.05184
1071.70 0.05182
1071.80 0.0518
1071.90 0.05178
1072.00 0.05177
1072.10 0.05175
1072.20 0.05173
1072.30 0.05171
1072.40 0.05169
1072.50 0.05167
1072.60 0.05165
1072.70 0.05163
1072.80 0.05161
1072.90 0.05159
1073.00 0.05157
1073.10 0.05155
1073.20 0.05153
1073.30 0.05151
1073.40 0.05149
1073.50 0.05147
1073.60 0.05145
1073.70 0.05143
1073.80 0.05141
1073.90 0.05139
1074.00 0.05137
1074.10 0.05135
1074.20 0.05133
1074.30 0.05131
1074.40 0.05129
1074.50 0.05127
1074.60 0.05126
1074.70 0.05124
1074.80 0.05122
1074.90 0.0512
1075.00 0.05118
1075.10 0.05116
1075.20 0.05114
1075.30 0.05112
1075.40 0.0511
1075.50 0.05108
1075.60 0.05106
1075.70 0.05104
1075.80 0.05102
1075.90 0.051
1076.00 0.05098
1076.10 0.05096
1076.20 0.05094
1076.30 0.05092
1076.40 0.0509
1076.50 0.05088
1076.60 0.05087
1076.70 0.05085
1076.80 0.05083
1076.90 0.05081
1077.00 0.05079
1077.10 0.05077
1077.20 0.05075
1077.30 0.05073
1077.40 0.05071
1077.50 0.05069
1077.60 0.05067
1077.70 0.05065
1077.80 0.05063
1077.90 0.05061
1078.00 0.05059
1078.10 0.05057
1078.20 0.05056
1078.30 0.05054
1078.40 0.05052
1078.50 0.0505
1078.60 0.05048
1078.70 0.05046
1078.80 0.05044
1078.90 0.05042
1079.00 0.0504
1079.10 0.05038
1079.20 0.05036
1079.30 0.05034
1079.40 0.05032
1079.50 0.0503
1079.60 0.05029
1079.70 0.05027
1079.80 0.05025
1079.90 0.05023
1080.00 0.05021
1080.10 0.05019
1080.20 0.05017
1080.30 0.05015
1080.40 0.05013
1080.50 0.05011
1080.60 0.05009
1080.70 0.05007
1080.80 0.05005
1080.90 0.05004
1081.00 0.05002
1081.10 0.05
1081.20 0.04998
1081.30 0.04996
1081.40 0.04994
1081.50 0.04992
1081.60 0.0499
1081.70 0.04988
1081.80 0.04986
1081.90 0.04984
1082.00 0.04983
1082.10 0.04981
1082.20 0.04979
1082.30 0.04977
1082.40 0.04975
1082.50 0.04973
1082.60 0.04971
1082.70 0.04969
1082.80 0.04967
1082.90 0.04965
1083.00 0.04963
1083.10 0.04962
1083.20 0.0496
1083.30 0.04958
1083.40 0.04956
1083.50 0.04954
1083.60 0.04952
1083.70 0.0495
1083.80 0.04948
1083.90 0.04946
1084.00 0.04944
1084.10 0.04943
1084.20 0.04941
1084.30 0.04939
1084.40 0.04937
1084.50 0.04935
1084.60 0.04933
1084.70 0.04931
1084.80 0.04929
1084.90 0.04927
1085.00 0.04926
1085.10 0.04924
1085.20 0.04922
1085.30 0.0492
1085.40 0.04918
1085.50 0.04916
1085.60 0.04914
1085.70 0.04912
1085.80 0.0491
1085.90 0.04909
1086.00 0.04907
1086.10 0.04905
1086.20 0.04903
1086.30 0.04901
1086.40 0.04899
1086.50 0.04897
1086.60 0.04895
1086.70 0.04894
1086.80 0.04892
1086.90 0.0489
1087.00 0.04888
1087.10 0.04886
1087.20 0.04884
1087.30 0.04882
1087.40 0.0488
1087.50 0.04879
1087.60 0.04877
1087.70 0.04875
1087.80 0.04873
1087.90 0.04871
1088.00 0.04869
1088.10 0.04867
1088.20 0.04866
1088.30 0.04864
1088.40 0.04862
1088.50 0.0486
1088.60 0.04858
1088.70 0.04856
1088.80 0.04854
1088.90 0.04853
1089.00 0.04851
1089.10 0.04849
1089.20 0.04847
1089.30 0.04845
1089.40 0.04843
1089.50 0.04841
1089.60 0.0484
1089.70 0.04838
1089.80 0.04836
1089.90 0.04834
1090.00 0.04832
1090.10 0.0483
1090.20 0.04829
1090.30 0.04827
1090.40 0.04825
1090.50 0.04823
1090.60 0.04821
1090.70 0.04819
1090.80 0.04817
1090.90 0.04816
1091.00 0.04814
1091.10 0.04812
1091.20 0.0481
1091.30 0.04808
1091.40 0.04806
1091.50 0.04805
1091.60 0.04803
1091.70 0.04801
1091.80 0.04799
1091.90 0.04797
1092.00 0.04795
1092.10 0.04794
1092.20 0.04792
1092.30 0.0479
1092.40 0.04788
1092.50 0.04786
1092.60 0.04785
1092.70 0.04783
1092.80 0.04781
1092.90 0.04779
1093.00 0.04778
1093.10 0.04776
1093.20 0.04774
1093.30 0.04773
1093.40 0.04771
1093.50 0.04769
1093.60 0.04768
1093.70 0.04767
1093.80 0.04765
1093.90 0.04764
1094.00 0.04762
1094.10 0.04761
1094.20 0.04759
1094.30 0.04758
1094.40 0.04756
1094.50 0.04754
1094.60 0.04753
1094.70 0.04751
1094.80 0.04749
1094.90 0.04748
1095.00 0.04746
1095.10 0.04744
1095.20 0.04743
1095.30 0.04741
1095.40 0.0474
1095.50 0.04738
1095.60 0.04736
1095.70 0.04735
1095.80 0.04733
1095.90 0.04732
1096.00 0.0473
1096.10 0.04729
1096.20 0.04727
1096.30 0.04725
1096.40 0.04724
1096.50 0.04722
1096.60 0.04721
1096.70 0.04719
1096.80 0.04718
1096.90 0.04716
1097.00 0.04715
1097.10 0.04713
1097.20 0.04711
1097.30 0.0471
1097.40 0.04708
1097.50 0.04707
1097.60 0.04705
1097.70 0.04704
1097.80 0.04702
1097.90 0.04701
1098.00 0.04699
1098.10 0.04697
1098.20 0.04696
1098.30 0.04694
1098.40 0.04693
1098.50 0.04691
1098.60 0.0469
1098.70 0.04688
1098.80 0.04687
1098.90 0.04685
1099.00 0.04684
1099.10 0.04682
1099.20 0.0468
1099.30 0.04679
1099.40 0.04677
1099.50 0.04676
1099.60 0.04674
1099.70 0.04673
1099.80 0.04671
1099.90 0.0467
1100.00 0.04668
1100.10 0.04667
1100.20 0.04665
1100.30 0.04664
1100.40 0.04662
1100.50 0.0466
1100.60 0.04659
1100.70 0.04657
1100.80 0.04656
1100.90 0.04654
1101.00 0.04653
1101.10 0.04651
1101.20 0.0465
1101.30 0.04648
1101.40 0.04647
1101.50 0.04645
1101.60 0.04644
1101.70 0.04642
1101.80 0.04641
1101.90 0.04639
1102.00 0.04637
1102.10 0.04636
1102.20 0.04634
1102.30 0.04633
1102.40 0.04631
1102.50 0.0463
1102.60 0.04628
1102.70 0.04627
1102.80 0.04625
1102.90 0.04624
1103.00 0.04622
1103.10 0.04621
1103.20 0.04619
1103.30 0.04618
1103.40 0.04616
1103.50 0.04615
1103.60 0.04613
1103.70 0.04612
1103.80 0.0461
1103.90 0.04608
1104.00 0.04607
1104.10 0.04605
1104.20 0.04604
1104.30 0.04602
1104.40 0.04601
1104.50 0.04599
1104.60 0.04598
1104.70 0.04596
1104.80 0.04595
1104.90 0.04593
1105.00 0.04592
1105.10 0.0459
1105.20 0.04589
1105.30 0.04587
1105.40 0.04586
1105.50 0.04584
1105.60 0.04583
1105.70 0.04581
1105.80 0.0458
1105.90 0.04578
1106.00 0.04577
1106.10 0.04575
1106.20 0.04574
1106.30 0.04572
1106.40 0.04571
1106.50 0.04569
1106.60 0.04568
1106.70 0.04566
1106.80 0.04564
1106.90 0.04563
1107.00 0.04561
1107.10 0.0456
1107.20 0.04558
1107.30 0.04557
1107.40 0.04555
1107.50 0.04554
1107.60 0.04552
1107.70 0.04551
1107.80 0.04549
1107.90 0.04548
1108.00 0.04546
1108.10 0.04545
1108.20 0.04543
1108.30 0.04542
1108.40 0.0454
1108.50 0.04539
1108.60 0.04537
1108.70 0.04536
1108.80 0.04534
1108.90 0.04533
1109.00 0.04531
1109.10 0.0453
1109.20 0.04528
1109.30 0.04527
1109.40 0.04525
1109.50 0.04524
1109.60 0.04522
1109.70 0.04521
1109.80 0.04519
1109.90 0.04518
1110.00 0.04516
1110.10 0.04515
1110.20 0.04513
1110.30 0.04512
1110.40 0.0451
1110.50 0.04509
1110.60 0.04507
1110.70 0.04506
1110.80 0.04504
1110.90 0.04503
1111.00 0.04501
1111.10 0.045
1111.20 0.04498
1111.30 0.04497
1111.40 0.04495
1111.50 0.04494
1111.60 0.04492
1111.70 0.04491
1111.80 0.04489
1111.90 0.04488
1112.00 0.04486
1112.10 0.04485
1112.20 0.04483
1112.30 0.04482
1112.40 0.0448
1112.50 0.04479
1112.60 0.04477
1112.70 0.04476
1112.80 0.04474
1112.90 0.04473
1113.00 0.04471
1113.10 0.0447
1113.20 0.04468
1113.30 0.04467
1113.40 0.04465
1113.50 0.04464
1113.60 0.04462
1113.70 0.04461
1113.80 0.04459
1113.90 0.04458
1114.00 0.04457
1114.10 0.04455
1114.20 0.04454
1114.30 0.04452
1114.40 0.04451
1114.50 0.04449
1114.60 0.04448
1114.70 0.04446
1114.80 0.04445
1114.90 0.04443
1115.00 0.04442
1115.10 0.0444
1115.20 0.04439
1115.30 0.04437
1115.40 0.04436
1115.50 0.04434
1115.60 0.04433
1115.70 0.04431
1115.80 0.0443
1115.90 0.04428
1116.00 0.04427
1116.10 0.04425
1116.20 0.04424
1116.30 0.04422
1116.40 0.04421
1116.50 0.04419
1116.60 0.04418
1116.70 0.04416
1116.80 0.04415
1116.90 0.04413
1117.00 0.04412
1117.10 0.0441
1117.20 0.04409
1117.30 0.04408
1117.40 0.04406
1117.50 0.04405
1117.60 0.04403
1117.70 0.04402
1117.80 0.044
1117.90 0.04399
1118.00 0.04397
1118.10 0.04396
1118.20 0.04394
1118.30 0.04393
1118.40 0.04391
1118.50 0.0439
1118.60 0.04388
1118.70 0.04387
1118.80 0.04385
1118.90 0.04384
1119.00 0.04382
1119.10 0.04381
1119.20 0.04379
1119.30 0.04378
1119.40 0.04376
1119.50 0.04375
1119.60 0.04374
1119.70 0.04372
1119.80 0.04371
1119.90 0.04369
1120.00 0.04368
1120.10 0.04366
1120.20 0.04365
1120.30 0.04363
1120.40 0.04362
1120.50 0.0436
1120.60 0.04359
1120.70 0.04357
1120.80 0.04356
1120.90 0.04354
1121.00 0.04353
1121.10 0.04352
1121.20 0.0435
1121.30 0.04349
1121.40 0.04347
1121.50 0.04346
1121.60 0.04344
1121.70 0.04343
1121.80 0.04341
1121.90 0.0434
1122.00 0.04338
1122.10 0.04337
1122.20 0.04335
1122.30 0.04334
1122.40 0.04332
1122.50 0.04331
1122.60 0.0433
1122.70 0.04328
1122.80 0.04327
1122.90 0.04325
1123.00 0.04324
1123.10 0.04322
1123.20 0.04321
1123.30 0.04319
1123.40 0.04318
1123.50 0.04316
1123.60 0.04315
1123.70 0.04313
1123.80 0.04312
1123.90 0.04311
1124.00 0.04309
1124.10 0.04308
1124.20 0.04306
1124.30 0.04305
1124.40 0.04303
1124.50 0.04302
1124.60 0.043
1124.70 0.04299
1124.80 0.04297
1124.90 0.04296
1125.00 0.04295
1125.10 0.04293
1125.20 0.04292
1125.30 0.0429
1125.40 0.04289
1125.50 0.04287
1125.60 0.04286
1125.70 0.04284
1125.80 0.04283
1125.90 0.04281
1126.00 0.0428
1126.10 0.04279
1126.20 0.04277
1126.30 0.04276
1126.40 0.04274
1126.50 0.04273
1126.60 0.04271
1126.70 0.0427
1126.80 0.04268
1126.90 0.04267
1127.00 0.04266
1127.10 0.04264
1127.20 0.04263
1127.30 0.04261
1127.40 0.0426
1127.50 0.04258
1127.60 0.04257
1127.70 0.04255
1127.80 0.04254
1127.90 0.04253
1128.00 0.04251
1128.10 0.0425
1128.20 0.04248
1128.30 0.04247
1128.40 0.04245
1128.50 0.04244
1128.60 0.04242
1128.70 0.04241
1128.80 0.0424
1128.90 0.04238
1129.00 0.04237
1129.10 0.04235
1129.20 0.04234
1129.30 0.04232
1129.40 0.04231
1129.50 0.0423
1129.60 0.04228
1129.70 0.04227
1129.80 0.04225
1129.90 0.04224
1130.00 0.04222
1130.10 0.04221
1130.20 0.0422
1130.30 0.04218
1130.40 0.04217
1130.50 0.04215
1130.60 0.04214
1130.70 0.04212
1130.80 0.04211
1130.90 0.04209
1131.00 0.04208
1131.10 0.04207
1131.20 0.04205
1131.30 0.04204
1131.40 0.04202
1131.50 0.04201
1131.60 0.04199
1131.70 0.04198
1131.80 0.04197
1131.90 0.04195
1132.00 0.04194
1132.10 0.04192
1132.20 0.04191
1132.30 0.0419
1132.40 0.04188
1132.50 0.04187
1132.60 0.04185
1132.70 0.04184
1132.80 0.04182
1132.90 0.04181
1133.00 0.0418
1133.10 0.04178
1133.20 0.04177
1133.30 0.04175
1133.40 0.04174
1133.50 0.04172
1133.60 0.04171
1133.70 0.0417
1133.80 0.04168
1133.90 0.04167
1134.00 0.04165
1134.10 0.04164
1134.20 0.04163
1134.30 0.04161
1134.40 0.0416
1134.50 0.04158
1134.60 0.04157
1134.70 0.04156
1134.80 0.04154
1134.90 0.04153
1135.00 0.04151
1135.10 0.0415
1135.20 0.04148
1135.30 0.04147
1135.40 0.04146
1135.50 0.04144
1135.60 0.04143
1135.70 0.04141
1135.80 0.0414
1135.90 0.04139
1136.00 0.04137
1136.10 0.04136
1136.20 0.04134
1136.30 0.04133
1136.40 0.04132
1136.50 0.0413
1136.60 0.04129
1136.70 0.04127
1136.80 0.04126
1136.90 0.04125
1137.00 0.04123
1137.10 0.04122
1137.20 0.0412
1137.30 0.04119
1137.40 0.04118
1137.50 0.04116
1137.60 0.04115
1137.70 0.04113
1137.80 0.04112
1137.90 0.04111
1138.00 0.04109
1138.10 0.04108
1138.20 0.04106
1138.30 0.04105
1138.40 0.04104
1138.50 0.04102
1138.60 0.04101
1138.70 0.04099
1138.80 0.04098
1138.90 0.04097
1139.00 0.04095
1139.10 0.04094
1139.20 0.04092
1139.30 0.04091
1139.40 0.0409
1139.50 0.04088
1139.60 0.04087
1139.70 0.04085
1139.80 0.04084
1139.90 0.04083
1140.00 0.04081
1140.10 0.0408
1140.20 0.04079
1140.30 0.04077
1140.40 0.04076
1140.50 0.04074
1140.60 0.04073
1140.70 0.04072
1140.80 0.0407
1140.90 0.04069
1141.00 0.04067
1141.10 0.04066
1141.20 0.04065
1141.30 0.04063
1141.40 0.04062
1141.50 0.04061
1141.60 0.04059
1141.70 0.04058
1141.80 0.04056
1141.90 0.04055
1142.00 0.04054
1142.10 0.04052
1142.20 0.04051
1142.30 0.0405
1142.40 0.04048
1142.50 0.04047
1142.60 0.04045
1142.70 0.04044
1142.80 0.04043
1142.90 0.04041
1143.00 0.0404
1143.10 0.04039
1143.20 0.04037
1143.30 0.04036
1143.40 0.04034
1143.50 0.04033
1143.60 0.04032
1143.70 0.0403
1143.80 0.04029
1143.90 0.04028
1144.00 0.04026
1144.10 0.04025
1144.20 0.04024
1144.30 0.04022
1144.40 0.04021
1144.50 0.04019
1144.60 0.04018
1144.70 0.04017
1144.80 0.04015
1144.90 0.04014
1145.00 0.04013
1145.10 0.04011
1145.20 0.0401
1145.30 0.04009
1145.40 0.04007
1145.50 0.04006
1145.60 0.04004
1145.70 0.04003
1145.80 0.04002
1145.90 0.04
1146.00 0.03999
1146.10 0.03998
1146.20 0.03996
1146.30 0.03995
1146.40 0.03994
1146.50 0.03992
1146.60 0.03991
1146.70 0.03989
1146.80 0.03988
1146.90 0.03987
1147.00 0.03985
1147.10 0.03984
1147.20 0.03983
1147.30 0.03981
1147.40 0.0398
1147.50 0.03979
1147.60 0.03977
1147.70 0.03976
1147.80 0.03975
1147.90 0.03973
1148.00 0.03972
1148.10 0.03971
1148.20 0.03969
1148.30 0.03968
1148.40 0.03967
1148.50 0.03965
1148.60 0.03964
1148.70 0.03963
1148.80 0.03961
1148.90 0.0396
1149.00 0.03959
1149.10 0.03957
1149.20 0.03956
1149.30 0.03954
1149.40 0.03953
1149.50 0.03952
1149.60 0.0395
1149.70 0.03949
1149.80 0.03948
1149.90 0.03946
1150.00 0.03945
1150.10 0.03944
1150.20 0.03942
1150.30 0.03941
1150.40 0.0394
1150.50 0.03938
1150.60 0.03937
1150.70 0.03936
1150.80 0.03934
1150.90 0.03933
1151.00 0.03932
1151.10 0.0393
1151.20 0.03929
1151.30 0.03928
1151.40 0.03926
1151.50 0.03925
1151.60 0.03924
1151.70 0.03922
1151.80 0.03921
1151.90 0.0392
1152.00 0.03918
1152.10 0.03917
1152.20 0.03916
1152.30 0.03914
1152.40 0.03913
1152.50 0.03912
1152.60 0.0391
1152.70 0.03909
1152.80 0.03908
1152.90 0.03907
1153.00 0.03905
1153.10 0.03904
1153.20 0.03903
1153.30 0.03901
1153.40 0.039
1153.50 0.03899
1153.60 0.03897
1153.70 0.03896
1153.80 0.03895
1153.90 0.03893
1154.00 0.03892
1154.10 0.03891
1154.20 0.03889
1154.30 0.03888
1154.40 0.03887
1154.50 0.03885
1154.60 0.03884
1154.70 0.03883
1154.80 0.03882
1154.90 0.0388
1155.00 0.03879
1155.10 0.03878
1155.20 0.03876
1155.30 0.03875
1155.40 0.03874
1155.50 0.03872
1155.60 0.03871
1155.70 0.0387
1155.80 0.03868
1155.90 0.03867
1156.00 0.03866
1156.10 0.03864
1156.20 0.03863
1156.30 0.03862
1156.40 0.03861
1156.50 0.03859
1156.60 0.03858
1156.70 0.03857
1156.80 0.03855
1156.90 0.03854
1157.00 0.03853
1157.10 0.03851
1157.20 0.0385
1157.30 0.03849
1157.40 0.03848
1157.50 0.03846
1157.60 0.03845
1157.70 0.03844
1157.80 0.03842
1157.90 0.03841
1158.00 0.0384
1158.10 0.03838
1158.20 0.03837
1158.30 0.03836
1158.40 0.03835
1158.50 0.03833
1158.60 0.03832
1158.70 0.03831
1158.80 0.03829
1158.90 0.03828
1159.00 0.03827
1159.10 0.03826
1159.20 0.03824
1159.30 0.03823
1159.40 0.03822
1159.50 0.0382
1159.60 0.03819
1159.70 0.03818
1159.80 0.03817
1159.90 0.03815
1160.00 0.03814
1160.10 0.03813
1160.20 0.03811
1160.30 0.0381
1160.40 0.03809
1160.50 0.03807
1160.60 0.03806
1160.70 0.03805
1160.80 0.03804
1160.90 0.03802
1161.00 0.03801
1161.10 0.038
1161.20 0.03799
1161.30 0.03797
1161.40 0.03796
1161.50 0.03795
1161.60 0.03793
1161.70 0.03792
1161.80 0.03791
1161.90 0.0379
1162.00 0.03788
1162.10 0.03787
1162.20 0.03786
1162.30 0.03784
1162.40 0.03783
1162.50 0.03782
1162.60 0.03781
1162.70 0.03779
1162.80 0.03778
1162.90 0.03777
1163.00 0.03776
1163.10 0.03774
1163.20 0.03773
1163.30 0.03772
1163.40 0.0377
1163.50 0.03769
1163.60 0.03768
1163.70 0.03767
1163.80 0.03765
1163.90 0.03764
1164.00 0.03763
1164.10 0.03762
1164.20 0.0376
1164.30 0.03759
1164.40 0.03758
1164.50 0.03757
1164.60 0.03755
1164.70 0.03754
1164.80 0.03753
1164.90 0.03752
1165.00 0.0375
1165.10 0.03749
1165.20 0.03748
1165.30 0.03746
1165.40 0.03745
1165.50 0.03744
1165.60 0.03743
1165.70 0.03741
1165.80 0.0374
1165.90 0.03739
1166.00 0.03738
1166.10 0.03736
1166.20 0.03735
1166.30 0.03734
1166.40 0.03733
1166.50 0.03731
1166.60 0.0373
1166.70 0.03729
1166.80 0.03728
1166.90 0.03726
1167.00 0.03725
1167.10 0.03724
1167.20 0.03723
1167.30 0.03721
1167.40 0.0372
1167.50 0.03719
1167.60 0.03718
1167.70 0.03716
1167.80 0.03715
1167.90 0.03714
1168.00 0.03713
1168.10 0.03711
1168.20 0.0371
1168.30 0.03709
1168.40 0.03708
1168.50 0.03706
1168.60 0.03705
1168.70 0.03704
1168.80 0.03703
1168.90 0.03701
1169.00 0.037
1169.10 0.03699
1169.20 0.03698
1169.30 0.03696
1169.40 0.03695
1169.50 0.03694
1169.60 0.03693
1169.70 0.03692
1169.80 0.0369
1169.90 0.03689
1170.00 0.03688
1170.10 0.03687
1170.20 0.03685
1170.30 0.03684
1170.40 0.03683
1170.50 0.03682
1170.60 0.0368
1170.70 0.03679
1170.80 0.03678
1170.90 0.03677
1171.00 0.03675
1171.10 0.03674
1171.20 0.03673
1171.30 0.03672
1171.40 0.03671
1171.50 0.03669
1171.60 0.03668
1171.70 0.03667
1171.80 0.03666
1171.90 0.03664
1172.00 0.03663
1172.10 0.03662
1172.20 0.03661
1172.30 0.03659
1172.40 0.03658
1172.50 0.03657
1172.60 0.03656
1172.70 0.03655
1172.80 0.03653
1172.90 0.03652
1173.00 0.03651
1173.10 0.0365
1173.20 0.03649
1173.30 0.03647
1173.40 0.03646
1173.50 0.03645
1173.60 0.03644
1173.70 0.03642
1173.80 0.03641
1173.90 0.0364
1174.00 0.03639
1174.10 0.03638
1174.20 0.03636
1174.30 0.03635
1174.40 0.03634
1174.50 0.03633
1174.60 0.03631
1174.70 0.0363
1174.80 0.03629
1174.90 0.03628
1175.00 0.03627
1175.10 0.03625
1175.20 0.03624
1175.30 0.03623
1175.40 0.03622
1175.50 0.03621
1175.60 0.03619
1175.70 0.03618
1175.80 0.03617
1175.90 0.03616
1176.00 0.03615
1176.10 0.03613
1176.20 0.03612
1176.30 0.03611
1176.40 0.0361
1176.50 0.03608
1176.60 0.03607
1176.70 0.03606
1176.80 0.03605
1176.90 0.03604
1177.00 0.03602
1177.10 0.03601
1177.20 0.036
1177.30 0.03599
1177.40 0.03598
1177.50 0.03596
1177.60 0.03595
1177.70 0.03594
1177.80 0.03593
1177.90 0.03592
1178.00 0.0359
1178.10 0.03589
1178.20 0.03588
1178.30 0.03587
1178.40 0.03586
1178.50 0.03584
1178.60 0.03583
1178.70 0.03582
1178.80 0.03581
1178.90 0.0358
1179.00 0.03579
1179.10 0.03577
1179.20 0.03576
1179.30 0.03575
1179.40 0.03574
1179.50 0.03573
1179.60 0.03571
1179.70 0.0357
1179.80 0.03569
1179.90 0.03568
1180.00 0.03567
1180.10 0.03565
1180.20 0.03564
1180.30 0.03563
1180.40 0.03562
1180.50 0.03561
1180.60 0.0356
1180.70 0.03558
1180.80 0.03557
1180.90 0.03556
1181.00 0.03555
1181.10 0.03554
1181.20 0.03552
1181.30 0.03551
1181.40 0.0355
1181.50 0.03549
1181.60 0.03548
1181.70 0.03546
1181.80 0.03545
1181.90 0.03544
1182.00 0.03543
1182.10 0.03542
1182.20 0.03541
1182.30 0.03539
1182.40 0.03538
1182.50 0.03537
1182.60 0.03536
1182.70 0.03535
1182.80 0.03534
1182.90 0.03532
1183.00 0.03531
1183.10 0.0353
1183.20 0.03529
1183.30 0.03528
1183.40 0.03527
1183.50 0.03525
1183.60 0.03524
1183.70 0.03523
1183.80 0.03522
1183.90 0.03521
1184.00 0.03519
1184.10 0.03518
1184.20 0.03517
1184.30 0.03516
1184.40 0.03515
1184.50 0.03514
1184.60 0.03512
1184.70 0.03511
1184.80 0.0351
1184.90 0.03509
1185.00 0.03508
1185.10 0.03507
1185.20 0.03505
1185.30 0.03504
1185.40 0.03503
1185.50 0.03502
1185.60 0.03501
1185.70 0.035
1185.80 0.03499
1185.90 0.03497
1186.00 0.03496
1186.10 0.03495
1186.20 0.03494
1186.30 0.03493
1186.40 0.03492
1186.50 0.0349
1186.60 0.03489
1186.70 0.03488
1186.80 0.03487
1186.90 0.03486
1187.00 0.03485
1187.10 0.03483
1187.20 0.03482
1187.30 0.03481
1187.40 0.0348
1187.50 0.03479
1187.60 0.03478
1187.70 0.03477
1187.80 0.03475
1187.90 0.03474
1188.00 0.03473
1188.10 0.03472
1188.20 0.03471
1188.30 0.0347
1188.40 0.03468
1188.50 0.03467
1188.60 0.03466
1188.70 0.03465
1188.80 0.03464
1188.90 0.03463
1189.00 0.03462
1189.10 0.0346
1189.20 0.03459
1189.30 0.03458
1189.40 0.03457
1189.50 0.03456
1189.60 0.03455
1189.70 0.03454
1189.80 0.03452
1189.90 0.03451
1190.00 0.0345
1190.10 0.03449
1190.20 0.03448
1190.30 0.03447
1190.40 0.03446
1190.50 0.03444
1190.60 0.03443
1190.70 0.03442
1190.80 0.03441
1190.90 0.0344
1191.00 0.03439
1191.10 0.03438
1191.20 0.03436
1191.30 0.03435
1191.40 0.03434
1191.50 0.03433
1191.60 0.03432
1191.70 0.03431
1191.80 0.0343
1191.90 0.03429
1192.00 0.03427
1192.10 0.03426
1192.20 0.03425
1192.30 0.03424
1192.40 0.03423
1192.50 0.03422
1192.60 0.03421
1192.70 0.03419
1192.80 0.03418
1192.90 0.03417
1193.00 0.03416
1193.10 0.03415
1193.20 0.03414
1193.30 0.03413
1193.40 0.03412
1193.50 0.0341
1193.60 0.03409
1193.70 0.03408
1193.80 0.03407
1193.90 0.03406
1194.00 0.03405
1194.10 0.03404
1194.20 0.03403
1194.30 0.03402
1194.40 0.034
1194.50 0.03399
1194.60 0.03398
1194.70 0.03397
1194.80 0.03396
1194.90 0.03395
1195.00 0.03394
1195.10 0.03393
1195.20 0.03391
1195.30 0.0339
1195.40 0.03389
1195.50 0.03388
1195.60 0.03387
1195.70 0.03386
1195.80 0.03385
1195.90 0.03384
1196.00 0.03382
1196.10 0.03381
1196.20 0.0338
1196.30 0.03379
1196.40 0.03378
1196.50 0.03377
1196.60 0.03376
1196.70 0.03375
1196.80 0.03374
1196.90 0.03372
1197.00 0.03371
1197.10 0.0337
1197.20 0.03369
1197.30 0.03368
1197.40 0.03367
1197.50 0.03366
1197.60 0.03365
1197.70 0.03364
1197.80 0.03362
1197.90 0.03361
1198.00 0.0336
1198.10 0.03359
1198.20 0.03358
1198.30 0.03357
1198.40 0.03356
1198.50 0.03355
1198.60 0.03354
1198.70 0.03353
1198.80 0.03351
1198.90 0.0335
1199.00 0.03349
1199.10 0.03348
1199.20 0.03347
1199.30 0.03346
1199.40 0.03345
1199.50 0.03344
1199.60 0.03343
1199.70 0.03342
1199.80 0.0334
1199.90 0.03339
1200.00 0
