# Version 2.1 - nm, norm@500 to 1, cut digits, bergeron_50000_95.dat_50000
# Wavelength(nm)  Flambda(ergs/cm^s/s/nm)
300.00 6.284
300.10 6.276
300.20 6.269
300.30 6.261
300.40 6.253
300.50 6.246
300.60 6.238
300.70 6.231
300.80 6.223
300.90 6.216
301.00 6.208
301.10 6.201
301.20 6.193
301.30 6.186
301.40 6.178
301.50 6.171
301.60 6.164
301.70 6.156
301.80 6.149
301.90 6.141
302.00 6.134
302.10 6.127
302.20 6.119
302.30 6.112
302.40 6.104
302.50 6.097
302.60 6.09
302.70 6.083
302.80 6.075
302.90 6.068
303.00 6.061
303.10 6.053
303.20 6.046
303.30 6.039
303.40 6.032
303.50 6.024
303.60 6.017
303.70 6.01
303.80 6.003
303.90 5.996
304.00 5.988
304.10 5.981
304.20 5.974
304.30 5.967
304.40 5.96
304.50 5.953
304.60 5.946
304.70 5.939
304.80 5.932
304.90 5.924
305.00 5.917
305.10 5.91
305.20 5.903
305.30 5.896
305.40 5.889
305.50 5.882
305.60 5.875
305.70 5.868
305.80 5.861
305.90 5.854
306.00 5.847
306.10 5.84
306.20 5.833
306.30 5.827
306.40 5.82
306.50 5.813
306.60 5.806
306.70 5.799
306.80 5.792
306.90 5.785
307.00 5.778
307.10 5.772
307.20 5.765
307.30 5.758
307.40 5.751
307.50 5.744
307.60 5.737
307.70 5.731
307.80 5.724
307.90 5.717
308.00 5.71
308.10 5.704
308.20 5.697
308.30 5.69
308.40 5.683
308.50 5.677
308.60 5.67
308.70 5.663
308.80 5.657
308.90 5.65
309.00 5.643
309.10 5.637
309.20 5.63
309.30 5.623
309.40 5.617
309.50 5.61
309.60 5.604
309.70 5.597
309.80 5.591
309.90 5.584
310.00 5.577
310.10 5.571
310.20 5.564
310.30 5.558
310.40 5.551
310.50 5.545
310.60 5.538
310.70 5.532
310.80 5.525
310.90 5.519
311.00 5.512
311.10 5.506
311.20 5.499
311.30 5.493
311.40 5.487
311.50 5.48
311.60 5.474
311.70 5.467
311.80 5.461
311.90 5.455
312.00 5.448
312.10 5.442
312.20 5.436
312.30 5.429
312.40 5.423
312.50 5.417
312.60 5.41
312.70 5.404
312.80 5.398
312.90 5.391
313.00 5.385
313.10 5.379
313.20 5.373
313.30 5.366
313.40 5.36
313.50 5.354
313.60 5.348
313.70 5.341
313.80 5.335
313.90 5.329
314.00 5.323
314.10 5.317
314.20 5.311
314.30 5.304
314.40 5.298
314.50 5.292
314.60 5.286
314.70 5.28
314.80 5.274
314.90 5.268
315.00 5.262
315.10 5.255
315.20 5.249
315.30 5.243
315.40 5.237
315.50 5.231
315.60 5.225
315.70 5.219
315.80 5.213
315.90 5.207
316.00 5.201
316.10 5.195
316.20 5.189
316.30 5.183
316.40 5.177
316.50 5.171
316.60 5.165
316.70 5.159
316.80 5.153
316.90 5.147
317.00 5.141
317.10 5.136
317.20 5.13
317.30 5.124
317.40 5.118
317.50 5.112
317.60 5.106
317.70 5.1
317.80 5.094
317.90 5.089
318.00 5.083
318.10 5.077
318.20 5.071
318.30 5.065
318.40 5.059
318.50 5.054
318.60 5.048
318.70 5.042
318.80 5.036
318.90 5.031
319.00 5.025
319.10 5.019
319.20 5.013
319.30 5.008
319.40 5.002
319.50 4.996
319.60 4.99
319.70 4.985
319.80 4.979
319.90 4.973
320.00 4.968
320.10 4.962
320.20 4.956
320.30 4.951
320.40 4.945
320.50 4.94
320.60 4.934
320.70 4.928
320.80 4.923
320.90 4.917
321.00 4.912
321.10 4.906
321.20 4.9
321.30 4.895
321.40 4.889
321.50 4.884
321.60 4.878
321.70 4.873
321.80 4.867
321.90 4.862
322.00 4.856
322.10 4.851
322.20 4.845
322.30 4.84
322.40 4.834
322.50 4.829
322.60 4.823
322.70 4.818
322.80 4.812
322.90 4.807
323.00 4.801
323.10 4.796
323.20 4.791
323.30 4.785
323.40 4.78
323.50 4.774
323.60 4.769
323.70 4.764
323.80 4.758
323.90 4.753
324.00 4.747
324.10 4.742
324.20 4.737
324.30 4.731
324.40 4.726
324.50 4.721
324.60 4.715
324.70 4.71
324.80 4.705
324.90 4.7
325.00 4.694
325.10 4.689
325.20 4.684
325.30 4.679
325.40 4.673
325.50 4.668
325.60 4.663
325.70 4.658
325.80 4.652
325.90 4.647
326.00 4.642
326.10 4.637
326.20 4.632
326.30 4.626
326.40 4.621
326.50 4.616
326.60 4.611
326.70 4.606
326.80 4.601
326.90 4.595
327.00 4.59
327.10 4.585
327.20 4.58
327.30 4.575
327.40 4.57
327.50 4.565
327.60 4.56
327.70 4.555
327.80 4.549
327.90 4.544
328.00 4.539
328.10 4.534
328.20 4.529
328.30 4.524
328.40 4.519
328.50 4.514
328.60 4.509
328.70 4.504
328.80 4.499
328.90 4.494
329.00 4.489
329.10 4.484
329.20 4.479
329.30 4.474
329.40 4.469
329.50 4.464
329.60 4.459
329.70 4.454
329.80 4.449
329.90 4.444
330.00 4.44
330.10 4.435
330.20 4.43
330.30 4.425
330.40 4.42
330.50 4.415
330.60 4.41
330.70 4.405
330.80 4.4
330.90 4.396
331.00 4.391
331.10 4.386
331.20 4.381
331.30 4.376
331.40 4.371
331.50 4.367
331.60 4.362
331.70 4.357
331.80 4.352
331.90 4.347
332.00 4.342
332.10 4.338
332.20 4.333
332.30 4.328
332.40 4.323
332.50 4.319
332.60 4.314
332.70 4.309
332.80 4.304
332.90 4.3
333.00 4.295
333.10 4.29
333.20 4.286
333.30 4.281
333.40 4.276
333.50 4.271
333.60 4.267
333.70 4.262
333.80 4.257
333.90 4.253
334.00 4.248
334.10 4.243
334.20 4.239
334.30 4.234
334.40 4.229
334.50 4.225
334.60 4.22
334.70 4.216
334.80 4.211
334.90 4.206
335.00 4.202
335.10 4.197
335.20 4.193
335.30 4.188
335.40 4.184
335.50 4.179
335.60 4.174
335.70 4.17
335.80 4.165
335.90 4.161
336.00 4.156
336.10 4.152
336.20 4.147
336.30 4.143
336.40 4.138
336.50 4.134
336.60 4.129
336.70 4.125
336.80 4.12
336.90 4.116
337.00 4.111
337.10 4.107
337.20 4.102
337.30 4.098
337.40 4.093
337.50 4.089
337.60 4.085
337.70 4.08
337.80 4.076
337.90 4.071
338.00 4.067
338.10 4.062
338.20 4.058
338.30 4.054
338.40 4.049
338.50 4.045
338.60 4.041
338.70 4.036
338.80 4.032
338.90 4.027
339.00 4.023
339.10 4.019
339.20 4.014
339.30 4.01
339.40 4.006
339.50 4.001
339.60 3.997
339.70 3.993
339.80 3.988
339.90 3.984
340.00 3.98
340.10 3.976
340.20 3.971
340.30 3.967
340.40 3.963
340.50 3.958
340.60 3.954
340.70 3.95
340.80 3.946
340.90 3.942
341.00 3.937
341.10 3.933
341.20 3.929
341.30 3.925
341.40 3.92
341.50 3.916
341.60 3.912
341.70 3.908
341.80 3.904
341.90 3.899
342.00 3.895
342.10 3.891
342.20 3.887
342.30 3.883
342.40 3.879
342.50 3.874
342.60 3.87
342.70 3.866
342.80 3.862
342.90 3.858
343.00 3.854
343.10 3.85
343.20 3.846
343.30 3.841
343.40 3.837
343.50 3.833
343.60 3.829
343.70 3.825
343.80 3.821
343.90 3.817
344.00 3.813
344.10 3.809
344.20 3.805
344.30 3.801
344.40 3.797
344.50 3.793
344.60 3.789
344.70 3.785
344.80 3.78
344.90 3.776
345.00 3.772
345.10 3.768
345.20 3.764
345.30 3.76
345.40 3.756
345.50 3.752
345.60 3.748
345.70 3.744
345.80 3.74
345.90 3.736
346.00 3.733
346.10 3.729
346.20 3.725
346.30 3.721
346.40 3.717
346.50 3.713
346.60 3.709
346.70 3.705
346.80 3.701
346.90 3.697
347.00 3.693
347.10 3.689
347.20 3.685
347.30 3.682
347.40 3.678
347.50 3.674
347.60 3.67
347.70 3.666
347.80 3.662
347.90 3.658
348.00 3.654
348.10 3.651
348.20 3.647
348.30 3.643
348.40 3.639
348.50 3.635
348.60 3.631
348.70 3.628
348.80 3.624
348.90 3.62
349.00 3.616
349.10 3.612
349.20 3.609
349.30 3.605
349.40 3.601
349.50 3.597
349.60 3.593
349.70 3.59
349.80 3.586
349.90 3.582
350.00 3.578
350.10 3.575
350.20 3.571
350.30 3.567
350.40 3.563
350.50 3.56
350.60 3.556
350.70 3.552
350.80 3.548
350.90 3.545
351.00 3.541
351.10 3.537
351.20 3.534
351.30 3.53
351.40 3.526
351.50 3.523
351.60 3.519
351.70 3.515
351.80 3.512
351.90 3.508
352.00 3.504
352.10 3.501
352.20 3.497
352.30 3.493
352.40 3.49
352.50 3.486
352.60 3.482
352.70 3.479
352.80 3.475
352.90 3.472
353.00 3.468
353.10 3.464
353.20 3.461
353.30 3.457
353.40 3.454
353.50 3.45
353.60 3.446
353.70 3.443
353.80 3.439
353.90 3.436
354.00 3.432
354.10 3.428
354.20 3.425
354.30 3.421
354.40 3.418
354.50 3.414
354.60 3.411
354.70 3.407
354.80 3.404
354.90 3.4
355.00 3.397
355.10 3.393
355.20 3.39
355.30 3.386
355.40 3.383
355.50 3.379
355.60 3.376
355.70 3.372
355.80 3.369
355.90 3.365
356.00 3.362
356.10 3.358
356.20 3.355
356.30 3.351
356.40 3.348
356.50 3.344
356.60 3.341
356.70 3.338
356.80 3.334
356.90 3.331
357.00 3.327
357.10 3.324
357.20 3.32
357.30 3.317
357.40 3.314
357.50 3.31
357.60 3.307
357.70 3.303
357.80 3.3
357.90 3.297
358.00 3.293
358.10 3.29
358.20 3.286
358.30 3.283
358.40 3.28
358.50 3.276
358.60 3.273
358.70 3.27
358.80 3.266
358.90 3.263
359.00 3.26
359.10 3.256
359.20 3.253
359.30 3.25
359.40 3.246
359.50 3.243
359.60 3.24
359.70 3.236
359.80 3.233
359.90 3.23
360.00 3.226
360.10 3.223
360.20 3.22
360.30 3.216
360.40 3.213
360.50 3.21
360.60 3.207
360.70 3.203
360.80 3.2
360.90 3.197
361.00 3.194
361.10 3.19
361.20 3.187
361.30 3.184
361.40 3.181
361.50 3.177
361.60 3.174
361.70 3.171
361.80 3.168
361.90 3.164
362.00 3.161
362.10 3.158
362.20 3.155
362.30 3.152
362.40 3.148
362.50 3.145
362.60 3.142
362.70 3.139
362.80 3.136
362.90 3.132
363.00 3.129
363.10 3.126
363.20 3.123
363.30 3.12
363.40 3.117
363.50 3.113
363.60 3.11
363.70 3.107
363.80 3.104
363.90 3.101
364.00 3.098
364.10 3.095
364.20 3.092
364.30 3.088
364.40 3.085
364.50 3.082
364.60 3.079
364.70 3.076
364.80 3.073
364.90 3.07
365.00 3.067
365.10 3.064
365.20 3.06
365.30 3.057
365.40 3.054
365.50 3.051
365.60 3.048
365.70 3.045
365.80 3.042
365.90 3.039
366.00 3.036
366.10 3.033
366.20 3.03
366.30 3.027
366.40 3.024
366.50 3.021
366.60 3.018
366.70 3.014
366.80 3.011
366.90 3.008
367.00 3.005
367.10 3.002
367.20 2.999
367.30 2.996
367.40 2.993
367.50 2.99
367.60 2.987
367.70 2.984
367.80 2.981
367.90 2.978
368.00 2.975
368.10 2.972
368.20 2.969
368.30 2.966
368.40 2.963
368.50 2.959
368.60 2.956
368.70 2.953
368.80 2.95
368.90 2.947
369.00 2.944
369.10 2.941
369.20 2.938
369.30 2.935
369.40 2.932
369.50 2.929
369.60 2.926
369.70 2.923
369.80 2.919
369.90 2.916
370.00 2.913
370.10 2.91
370.20 2.907
370.30 2.904
370.40 2.901
370.50 2.898
370.60 2.895
370.70 2.892
370.80 2.889
370.90 2.886
371.00 2.883
371.10 2.88
371.20 2.877
371.30 2.874
371.40 2.871
371.50 2.868
371.60 2.865
371.70 2.862
371.80 2.859
371.90 2.856
372.00 2.853
372.10 2.85
372.20 2.847
372.30 2.845
372.40 2.842
372.50 2.839
372.60 2.836
372.70 2.834
372.80 2.831
372.90 2.828
373.00 2.826
373.10 2.823
373.20 2.82
373.30 2.817
373.40 2.815
373.50 2.812
373.60 2.809
373.70 2.807
373.80 2.804
373.90 2.801
374.00 2.798
374.10 2.796
374.20 2.793
374.30 2.79
374.40 2.787
374.50 2.784
374.60 2.781
374.70 2.778
374.80 2.775
374.90 2.773
375.00 2.77
375.10 2.767
375.20 2.764
375.30 2.761
375.40 2.758
375.50 2.755
375.60 2.752
375.70 2.75
375.80 2.747
375.90 2.744
376.00 2.741
376.10 2.738
376.20 2.735
376.30 2.733
376.40 2.73
376.50 2.727
376.60 2.724
376.70 2.721
376.80 2.719
376.90 2.716
377.00 2.713
377.10 2.71
377.20 2.708
377.30 2.705
377.40 2.702
377.50 2.699
377.60 2.697
377.70 2.694
377.80 2.691
377.90 2.689
378.00 2.686
378.10 2.683
378.20 2.681
378.30 2.678
378.40 2.675
378.50 2.673
378.60 2.67
378.70 2.667
378.80 2.665
378.90 2.662
379.00 2.66
379.10 2.657
379.20 2.654
379.30 2.652
379.40 2.649
379.50 2.646
379.60 2.644
379.70 2.641
379.80 2.638
379.90 2.636
380.00 2.633
380.10 2.631
380.20 2.628
380.30 2.625
380.40 2.623
380.50 2.62
380.60 2.618
380.70 2.615
380.80 2.613
380.90 2.61
381.00 2.607
381.10 2.605
381.20 2.602
381.30 2.6
381.40 2.597
381.50 2.595
381.60 2.592
381.70 2.59
381.80 2.587
381.90 2.585
382.00 2.582
382.10 2.58
382.20 2.577
382.30 2.575
382.40 2.572
382.50 2.57
382.60 2.567
382.70 2.565
382.80 2.562
382.90 2.56
383.00 2.557
383.10 2.555
383.20 2.553
383.30 2.55
383.40 2.548
383.50 2.545
383.60 2.543
383.70 2.54
383.80 2.538
383.90 2.536
384.00 2.533
384.10 2.531
384.20 2.529
384.30 2.526
384.40 2.524
384.50 2.521
384.60 2.519
384.70 2.517
384.80 2.514
384.90 2.512
385.00 2.51
385.10 2.507
385.20 2.505
385.30 2.503
385.40 2.5
385.50 2.498
385.60 2.496
385.70 2.493
385.80 2.491
385.90 2.489
386.00 2.486
386.10 2.484
386.20 2.482
386.30 2.48
386.40 2.477
386.50 2.475
386.60 2.473
386.70 2.47
386.80 2.468
386.90 2.466
387.00 2.463
387.10 2.461
387.20 2.459
387.30 2.456
387.40 2.454
387.50 2.452
387.60 2.45
387.70 2.447
387.80 2.445
387.90 2.443
388.00 2.441
388.10 2.438
388.20 2.436
388.30 2.434
388.40 2.432
388.50 2.429
388.60 2.427
388.70 2.425
388.80 2.423
388.90 2.421
389.00 2.419
389.10 2.416
389.20 2.414
389.30 2.412
389.40 2.41
389.50 2.408
389.60 2.406
389.70 2.404
389.80 2.402
389.90 2.4
390.00 2.398
390.10 2.396
390.20 2.394
390.30 2.392
390.40 2.39
390.50 2.388
390.60 2.386
390.70 2.384
390.80 2.382
390.90 2.38
391.00 2.378
391.10 2.375
391.20 2.373
391.30 2.371
391.40 2.369
391.50 2.367
391.60 2.365
391.70 2.363
391.80 2.361
391.90 2.359
392.00 2.357
392.10 2.355
392.20 2.353
392.30 2.35
392.40 2.348
392.50 2.346
392.60 2.344
392.70 2.342
392.80 2.34
392.90 2.338
393.00 2.335
393.10 2.333
393.20 2.331
393.30 2.329
393.40 2.327
393.50 2.324
393.60 2.322
393.70 2.32
393.80 2.318
393.90 2.315
394.00 2.313
394.10 2.311
394.20 2.309
394.30 2.306
394.40 2.304
394.50 2.302
394.60 2.299
394.70 2.297
394.80 2.295
394.90 2.292
395.00 2.29
395.10 2.288
395.20 2.285
395.30 2.283
395.40 2.281
395.50 2.278
395.60 2.276
395.70 2.274
395.80 2.271
395.90 2.269
396.00 2.266
396.10 2.264
396.20 2.262
396.30 2.259
396.40 2.257
396.50 2.255
396.60 2.253
396.70 2.25
396.80 2.248
396.90 2.246
397.00 2.244
397.10 2.242
397.20 2.241
397.30 2.239
397.40 2.238
397.50 2.237
397.60 2.235
397.70 2.234
397.80 2.233
397.90 2.231
398.00 2.23
398.10 2.229
398.20 2.227
398.30 2.226
398.40 2.225
398.50 2.223
398.60 2.222
398.70 2.221
398.80 2.219
398.90 2.218
399.00 2.216
399.10 2.215
399.20 2.214
399.30 2.212
399.40 2.211
399.50 2.209
399.60 2.208
399.70 2.207
399.80 2.205
399.90 2.204
400.00 2.202
400.10 2.201
400.20 2.199
400.30 2.197
400.40 2.196
400.50 2.194
400.60 2.193
400.70 2.191
400.80 2.189
400.90 2.188
401.00 2.186
401.10 2.184
401.20 2.183
401.30 2.181
401.40 2.179
401.50 2.177
401.60 2.176
401.70 2.174
401.80 2.172
401.90 2.17
402.00 2.168
402.10 2.166
402.20 2.164
402.30 2.162
402.40 2.161
402.50 2.159
402.60 2.157
402.70 2.155
402.80 2.152
402.90 2.15
403.00 2.148
403.10 2.146
403.20 2.144
403.30 2.142
403.40 2.14
403.50 2.137
403.60 2.135
403.70 2.133
403.80 2.131
403.90 2.128
404.00 2.126
404.10 2.124
404.20 2.121
404.30 2.119
404.40 2.116
404.50 2.114
404.60 2.112
404.70 2.109
404.80 2.106
404.90 2.104
405.00 2.101
405.10 2.099
405.20 2.096
405.30 2.093
405.40 2.091
405.50 2.088
405.60 2.085
405.70 2.083
405.80 2.08
405.90 2.077
406.00 2.074
406.10 2.071
406.20 2.068
406.30 2.065
406.40 2.062
406.50 2.059
406.60 2.056
406.70 2.053
406.80 2.05
406.90 2.047
407.00 2.044
407.10 2.041
407.20 2.038
407.30 2.035
407.40 2.032
407.50 2.028
407.60 2.025
407.70 2.022
407.80 2.019
407.90 2.016
408.00 2.012
408.10 2.009
408.20 2.006
408.30 2.002
408.40 1.999
408.50 1.996
408.60 1.993
408.70 1.99
408.80 1.986
408.90 1.983
409.00 1.98
409.10 1.977
409.20 1.974
409.30 1.971
409.40 1.969
409.50 1.966
409.60 1.964
409.70 1.962
409.80 1.96
409.90 1.958
410.00 1.957
410.10 1.956
410.20 1.954
410.30 1.952
410.40 1.951
410.50 1.949
410.60 1.947
410.70 1.946
410.80 1.946
410.90 1.945
411.00 1.945
411.10 1.944
411.20 1.944
411.30 1.944
411.40 1.944
411.50 1.944
411.60 1.944
411.70 1.944
411.80 1.944
411.90 1.944
412.00 1.944
412.10 1.944
412.20 1.944
412.30 1.944
412.40 1.944
412.50 1.944
412.60 1.945
412.70 1.945
412.80 1.945
412.90 1.945
413.00 1.945
413.10 1.945
413.20 1.945
413.30 1.945
413.40 1.944
413.50 1.944
413.60 1.944
413.70 1.944
413.80 1.944
413.90 1.944
414.00 1.944
414.10 1.943
414.20 1.943
414.30 1.943
414.40 1.942
414.50 1.942
414.60 1.942
414.70 1.941
414.80 1.941
414.90 1.94
415.00 1.94
415.10 1.939
415.20 1.939
415.30 1.938
415.40 1.938
415.50 1.937
415.60 1.937
415.70 1.936
415.80 1.935
415.90 1.935
416.00 1.934
416.10 1.933
416.20 1.932
416.30 1.932
416.40 1.931
416.50 1.93
416.60 1.929
416.70 1.928
416.80 1.927
416.90 1.927
417.00 1.926
417.10 1.925
417.20 1.924
417.30 1.923
417.40 1.922
417.50 1.921
417.60 1.92
417.70 1.919
417.80 1.917
417.90 1.916
418.00 1.915
418.10 1.914
418.20 1.913
418.30 1.912
418.40 1.911
418.50 1.909
418.60 1.908
418.70 1.907
418.80 1.906
418.90 1.904
419.00 1.903
419.10 1.902
419.20 1.901
419.30 1.899
419.40 1.898
419.50 1.896
419.60 1.895
419.70 1.894
419.80 1.892
419.90 1.891
420.00 1.889
420.10 1.888
420.20 1.886
420.30 1.885
420.40 1.883
420.50 1.882
420.60 1.88
420.70 1.879
420.80 1.877
420.90 1.876
421.00 1.874
421.10 1.872
421.20 1.871
421.30 1.869
421.40 1.867
421.50 1.866
421.60 1.864
421.70 1.862
421.80 1.861
421.90 1.859
422.00 1.857
422.10 1.855
422.20 1.853
422.30 1.852
422.40 1.85
422.50 1.848
422.60 1.846
422.70 1.844
422.80 1.842
422.90 1.84
423.00 1.838
423.10 1.837
423.20 1.835
423.30 1.833
423.40 1.831
423.50 1.829
423.60 1.827
423.70 1.825
423.80 1.822
423.90 1.82
424.00 1.818
424.10 1.816
424.20 1.814
424.30 1.812
424.40 1.81
424.50 1.807
424.60 1.805
424.70 1.803
424.80 1.801
424.90 1.798
425.00 1.796
425.10 1.794
425.20 1.791
425.30 1.789
425.40 1.787
425.50 1.784
425.60 1.782
425.70 1.779
425.80 1.777
425.90 1.774
426.00 1.772
426.10 1.769
426.20 1.767
426.30 1.764
426.40 1.761
426.50 1.759
426.60 1.756
426.70 1.753
426.80 1.751
426.90 1.748
427.00 1.745
427.10 1.742
427.20 1.739
427.30 1.736
427.40 1.734
427.50 1.731
427.60 1.728
427.70 1.725
427.80 1.722
427.90 1.718
428.00 1.715
428.10 1.712
428.20 1.709
428.30 1.706
428.40 1.703
428.50 1.699
428.60 1.696
428.70 1.693
428.80 1.689
428.90 1.686
429.00 1.682
429.10 1.679
429.20 1.675
429.30 1.672
429.40 1.668
429.50 1.665
429.60 1.661
429.70 1.657
429.80 1.653
429.90 1.65
430.00 1.646
430.10 1.642
430.20 1.638
430.30 1.634
430.40 1.63
430.50 1.626
430.60 1.622
430.70 1.618
430.80 1.613
430.90 1.609
431.00 1.605
431.10 1.601
431.20 1.596
431.30 1.592
431.40 1.588
431.50 1.583
431.60 1.579
431.70 1.574
431.80 1.57
431.90 1.565
432.00 1.561
432.10 1.556
432.20 1.552
432.30 1.547
432.40 1.542
432.50 1.537
432.60 1.533
432.70 1.528
432.80 1.523
432.90 1.518
433.00 1.513
433.10 1.508
433.20 1.503
433.30 1.498
433.40 1.492
433.50 1.486
433.60 1.48
433.70 1.474
433.80 1.467
433.90 1.46
434.00 1.454
434.10 1.453
434.20 1.457
434.30 1.462
434.40 1.467
434.50 1.471
434.60 1.475
434.70 1.478
434.80 1.481
434.90 1.484
435.00 1.487
435.10 1.489
435.20 1.492
435.30 1.494
435.40 1.497
435.50 1.499
435.60 1.501
435.70 1.504
435.80 1.506
435.90 1.508
436.00 1.51
436.10 1.512
436.20 1.514
436.30 1.516
436.40 1.518
436.50 1.52
436.60 1.522
436.70 1.524
436.80 1.526
436.90 1.527
437.00 1.529
437.10 1.531
437.20 1.532
437.30 1.534
437.40 1.535
437.50 1.537
437.60 1.538
437.70 1.539
437.80 1.541
437.90 1.542
438.00 1.543
438.10 1.544
438.20 1.546
438.30 1.547
438.40 1.548
438.50 1.549
438.60 1.55
438.70 1.551
438.80 1.551
438.90 1.552
439.00 1.553
439.10 1.554
439.20 1.555
439.30 1.555
439.40 1.556
439.50 1.556
439.60 1.557
439.70 1.558
439.80 1.558
439.90 1.558
440.00 1.559
440.10 1.559
440.20 1.56
440.30 1.56
440.40 1.56
440.50 1.56
440.60 1.561
440.70 1.561
440.80 1.561
440.90 1.561
441.00 1.561
441.10 1.561
441.20 1.561
441.30 1.561
441.40 1.561
441.50 1.561
441.60 1.561
441.70 1.561
441.80 1.561
441.90 1.561
442.00 1.56
442.10 1.56
442.20 1.56
442.30 1.56
442.40 1.559
442.50 1.559
442.60 1.559
442.70 1.558
442.80 1.558
442.90 1.558
443.00 1.557
443.10 1.557
443.20 1.556
443.30 1.556
443.40 1.555
443.50 1.555
443.60 1.554
443.70 1.554
443.80 1.553
443.90 1.553
444.00 1.552
444.10 1.552
444.20 1.551
444.30 1.55
444.40 1.55
444.50 1.549
444.60 1.548
444.70 1.548
444.80 1.547
444.90 1.546
445.00 1.546
445.10 1.545
445.20 1.544
445.30 1.543
445.40 1.543
445.50 1.542
445.60 1.541
445.70 1.54
445.80 1.539
445.90 1.539
446.00 1.538
446.10 1.537
446.20 1.536
446.30 1.535
446.40 1.534
446.50 1.534
446.60 1.533
446.70 1.532
446.80 1.531
446.90 1.53
447.00 1.529
447.10 1.528
447.20 1.527
447.30 1.526
447.40 1.525
447.50 1.524
447.60 1.523
447.70 1.523
447.80 1.522
447.90 1.521
448.00 1.52
448.10 1.519
448.20 1.518
448.30 1.517
448.40 1.516
448.50 1.515
448.60 1.514
448.70 1.513
448.80 1.512
448.90 1.511
449.00 1.51
449.10 1.509
449.20 1.508
449.30 1.507
449.40 1.505
449.50 1.504
449.60 1.503
449.70 1.502
449.80 1.501
449.90 1.5
450.00 1.499
450.10 1.498
450.20 1.497
450.30 1.496
450.40 1.495
450.50 1.494
450.60 1.493
450.70 1.492
450.80 1.491
450.90 1.489
451.00 1.488
451.10 1.487
451.20 1.486
451.30 1.485
451.40 1.484
451.50 1.483
451.60 1.482
451.70 1.481
451.80 1.48
451.90 1.478
452.00 1.477
452.10 1.476
452.20 1.475
452.30 1.474
452.40 1.473
452.50 1.472
452.60 1.471
452.70 1.469
452.80 1.468
452.90 1.467
453.00 1.466
453.10 1.465
453.20 1.464
453.30 1.463
453.40 1.462
453.50 1.46
453.60 1.459
453.70 1.458
453.80 1.457
453.90 1.456
454.00 1.455
454.10 1.454
454.20 1.452
454.30 1.451
454.40 1.45
454.50 1.449
454.60 1.448
454.70 1.447
454.80 1.446
454.90 1.444
455.00 1.443
455.10 1.442
455.20 1.441
455.30 1.44
455.40 1.439
455.50 1.438
455.60 1.436
455.70 1.435
455.80 1.434
455.90 1.433
456.00 1.432
456.10 1.431
456.20 1.429
456.30 1.428
456.40 1.427
456.50 1.426
456.60 1.425
456.70 1.424
456.80 1.422
456.90 1.421
457.00 1.42
457.10 1.419
457.20 1.418
457.30 1.417
457.40 1.416
457.50 1.414
457.60 1.413
457.70 1.412
457.80 1.411
457.90 1.41
458.00 1.409
458.10 1.407
458.20 1.406
458.30 1.405
458.40 1.404
458.50 1.403
458.60 1.402
458.70 1.4
458.80 1.399
458.90 1.398
459.00 1.397
459.10 1.396
459.20 1.395
459.30 1.393
459.40 1.392
459.50 1.391
459.60 1.39
459.70 1.389
459.80 1.388
459.90 1.386
460.00 1.385
460.10 1.384
460.20 1.383
460.30 1.382
460.40 1.381
460.50 1.379
460.60 1.378
460.70 1.377
460.80 1.376
460.90 1.375
461.00 1.374
461.10 1.372
461.20 1.371
461.30 1.37
461.40 1.369
461.50 1.368
461.60 1.367
461.70 1.365
461.80 1.364
461.90 1.363
462.00 1.362
462.10 1.361
462.20 1.36
462.30 1.358
462.40 1.357
462.50 1.356
462.60 1.355
462.70 1.354
462.80 1.353
462.90 1.351
463.00 1.35
463.10 1.349
463.20 1.348
463.30 1.347
463.40 1.346
463.50 1.344
463.60 1.343
463.70 1.342
463.80 1.341
463.90 1.34
464.00 1.339
464.10 1.337
464.20 1.336
464.30 1.335
464.40 1.334
464.50 1.333
464.60 1.331
464.70 1.33
464.80 1.329
464.90 1.328
465.00 1.327
465.10 1.326
465.20 1.324
465.30 1.323
465.40 1.322
465.50 1.321
465.60 1.32
465.70 1.318
465.80 1.317
465.90 1.316
466.00 1.315
466.10 1.314
466.20 1.313
466.30 1.311
466.40 1.31
466.50 1.309
466.60 1.308
466.70 1.307
466.80 1.305
466.90 1.304
467.00 1.303
467.10 1.302
467.20 1.301
467.30 1.299
467.40 1.298
467.50 1.297
467.60 1.296
467.70 1.295
467.80 1.293
467.90 1.292
468.00 1.291
468.10 1.29
468.20 1.289
468.30 1.287
468.40 1.286
468.50 1.285
468.60 1.284
468.70 1.282
468.80 1.281
468.90 1.28
469.00 1.279
469.10 1.278
469.20 1.276
469.30 1.275
469.40 1.274
469.50 1.273
469.60 1.271
469.70 1.27
469.80 1.269
469.90 1.268
470.00 1.266
470.10 1.265
470.20 1.264
470.30 1.263
470.40 1.261
470.50 1.26
470.60 1.259
470.70 1.257
470.80 1.256
470.90 1.255
471.00 1.254
471.10 1.252
471.20 1.251
471.30 1.25
471.40 1.248
471.50 1.247
471.60 1.246
471.70 1.245
471.80 1.243
471.90 1.242
472.00 1.241
472.10 1.239
472.20 1.238
472.30 1.237
472.40 1.235
472.50 1.234
472.60 1.233
472.70 1.231
472.80 1.23
472.90 1.229
473.00 1.227
473.10 1.226
473.20 1.224
473.30 1.223
473.40 1.222
473.50 1.22
473.60 1.219
473.70 1.217
473.80 1.216
473.90 1.215
474.00 1.213
474.10 1.212
474.20 1.21
474.30 1.209
474.40 1.207
474.50 1.206
474.60 1.204
474.70 1.203
474.80 1.201
474.90 1.2
475.00 1.199
475.10 1.197
475.20 1.196
475.30 1.194
475.40 1.192
475.50 1.191
475.60 1.189
475.70 1.188
475.80 1.186
475.90 1.185
476.00 1.183
476.10 1.181
476.20 1.18
476.30 1.178
476.40 1.176
476.50 1.175
476.60 1.173
476.70 1.171
476.80 1.17
476.90 1.168
477.00 1.166
477.10 1.165
477.20 1.163
477.30 1.161
477.40 1.159
477.50 1.157
477.60 1.155
477.70 1.154
477.80 1.152
477.90 1.15
478.00 1.148
478.10 1.146
478.20 1.144
478.30 1.142
478.40 1.14
478.50 1.138
478.60 1.136
478.70 1.134
478.80 1.132
478.90 1.13
479.00 1.128
479.10 1.126
479.20 1.124
479.30 1.122
479.40 1.12
479.50 1.117
479.60 1.115
479.70 1.113
479.80 1.111
479.90 1.109
480.00 1.106
480.10 1.104
480.20 1.102
480.30 1.099
480.40 1.097
480.50 1.094
480.60 1.092
480.70 1.089
480.80 1.087
480.90 1.084
481.00 1.082
481.10 1.079
481.20 1.077
481.30 1.074
481.40 1.071
481.50 1.068
481.60 1.065
481.70 1.063
481.80 1.06
481.90 1.057
482.00 1.054
482.10 1.051
482.20 1.048
482.30 1.045
482.40 1.042
482.50 1.039
482.60 1.036
482.70 1.032
482.80 1.029
482.90 1.026
483.00 1.023
483.10 1.02
483.20 1.016
483.30 1.013
483.40 1.009
483.50 1.005
483.60 1.002
483.70 0.9981
483.80 0.9945
483.90 0.991
484.00 0.9874
484.10 0.9838
484.20 0.98
484.30 0.976
484.40 0.9721
484.50 0.9682
484.60 0.9643
484.70 0.9603
484.80 0.9563
484.90 0.9522
485.00 0.9482
485.10 0.9442
485.20 0.9401
485.30 0.9361
485.40 0.9323
485.50 0.9286
485.60 0.9254
485.70 0.9225
485.80 0.9218
485.90 0.9221
486.00 0.927
486.10 0.9387
486.20 0.9339
486.30 0.9219
486.40 0.9186
486.50 0.9168
486.60 0.9173
486.70 0.9189
486.80 0.921
486.90 0.9233
487.00 0.9259
487.10 0.9285
487.20 0.9311
487.30 0.9337
487.40 0.9363
487.50 0.9389
487.60 0.9415
487.70 0.944
487.80 0.9465
487.90 0.9489
488.00 0.9513
488.10 0.9538
488.20 0.9559
488.30 0.958
488.40 0.96
488.50 0.9621
488.60 0.9641
488.70 0.9662
488.80 0.9682
488.90 0.9703
489.00 0.9723
489.10 0.9744
489.20 0.9761
489.30 0.9777
489.40 0.9792
489.50 0.9808
489.60 0.9823
489.70 0.9839
489.80 0.9854
489.90 0.987
490.00 0.9886
490.10 0.9901
490.20 0.9914
490.30 0.9925
490.40 0.9936
490.50 0.9947
490.60 0.9959
490.70 0.997
490.80 0.9981
490.90 0.9992
491.00 1
491.10 1.001
491.20 1.002
491.30 1.003
491.40 1.004
491.50 1.005
491.60 1.005
491.70 1.006
491.80 1.007
491.90 1.008
492.00 1.008
492.10 1.009
492.20 1.01
492.30 1.01
492.40 1.011
492.50 1.011
492.60 1.012
492.70 1.012
492.80 1.012
492.90 1.013
493.00 1.013
493.10 1.014
493.20 1.014
493.30 1.014
493.40 1.014
493.50 1.015
493.60 1.015
493.70 1.015
493.80 1.015
493.90 1.016
494.00 1.016
494.10 1.016
494.20 1.016
494.30 1.016
494.40 1.016
494.50 1.016
494.60 1.016
494.70 1.016
494.80 1.016
494.90 1.016
495.00 1.016
495.10 1.016
495.20 1.016
495.30 1.016
495.40 1.016
495.50 1.016
495.60 1.015
495.70 1.015
495.80 1.015
495.90 1.015
496.00 1.015
496.10 1.015
496.20 1.015
496.30 1.014
496.40 1.014
496.50 1.014
496.60 1.014
496.70 1.013
496.80 1.013
496.90 1.013
497.00 1.012
497.10 1.012
497.20 1.012
497.30 1.012
497.40 1.011
497.50 1.011
497.60 1.01
497.70 1.01
497.80 1.01
497.90 1.009
498.00 1.009
498.10 1.009
498.20 1.008
498.30 1.008
498.40 1.007
498.50 1.007
498.60 1.007
498.70 1.006
498.80 1.006
498.90 1.005
499.00 1.005
499.10 1.004
499.20 1.004
499.30 1.003
499.40 1.003
499.50 1.002
499.60 1.002
499.70 1.001
499.80 1.001
499.90 1
500.00 1
500.10 0.9995
500.20 0.999
500.30 0.9985
500.40 0.9979
500.50 0.9974
500.60 0.9969
500.70 0.9963
500.80 0.9958
500.90 0.9953
501.00 0.9947
501.10 0.9942
501.20 0.9936
501.30 0.9931
501.40 0.9925
501.50 0.9919
501.60 0.9914
501.70 0.9908
501.80 0.9902
501.90 0.9897
502.00 0.9891
502.10 0.9885
502.20 0.988
502.30 0.9874
502.40 0.9868
502.50 0.9862
502.60 0.9856
502.70 0.985
502.80 0.9844
502.90 0.9838
503.00 0.9832
503.10 0.9826
503.20 0.982
503.30 0.9814
503.40 0.9808
503.50 0.9802
503.60 0.9796
503.70 0.9789
503.80 0.9783
503.90 0.9777
504.00 0.9771
504.10 0.9765
504.20 0.9759
504.30 0.9752
504.40 0.9746
504.50 0.974
504.60 0.9734
504.70 0.9727
504.80 0.9721
504.90 0.9715
505.00 0.9708
505.10 0.9702
505.20 0.9696
505.30 0.9689
505.40 0.9683
505.50 0.9677
505.60 0.967
505.70 0.9664
505.80 0.9658
505.90 0.9651
506.00 0.9645
506.10 0.9638
506.20 0.9632
506.30 0.9625
506.40 0.9619
506.50 0.9613
506.60 0.9606
506.70 0.96
506.80 0.9593
506.90 0.9587
507.00 0.958
507.10 0.9574
507.20 0.9567
507.30 0.9561
507.40 0.9554
507.50 0.9548
507.60 0.9541
507.70 0.9535
507.80 0.9528
507.90 0.9522
508.00 0.9515
508.10 0.9509
508.20 0.9502
508.30 0.9496
508.40 0.9489
508.50 0.9482
508.60 0.9476
508.70 0.9469
508.80 0.9463
508.90 0.9456
509.00 0.945
509.10 0.9443
509.20 0.9437
509.30 0.943
509.40 0.9423
509.50 0.9417
509.60 0.941
509.70 0.9404
509.80 0.9397
509.90 0.9391
510.00 0.9384
510.10 0.9378
510.20 0.9371
510.30 0.9364
510.40 0.9358
510.50 0.9351
510.60 0.9345
510.70 0.9338
510.80 0.9331
510.90 0.9325
511.00 0.9318
511.10 0.9312
511.20 0.9305
511.30 0.9299
511.40 0.9292
511.50 0.9285
511.60 0.9279
511.70 0.9272
511.80 0.9266
511.90 0.9259
512.00 0.9253
512.10 0.9246
512.20 0.924
512.30 0.9233
512.40 0.9226
512.50 0.922
512.60 0.9213
512.70 0.9207
512.80 0.92
512.90 0.9194
513.00 0.9187
513.10 0.9181
513.20 0.9174
513.30 0.9168
513.40 0.9161
513.50 0.9154
513.60 0.9148
513.70 0.9141
513.80 0.9135
513.90 0.9128
514.00 0.9122
514.10 0.9115
514.20 0.9109
514.30 0.9102
514.40 0.9096
514.50 0.9089
514.60 0.9083
514.70 0.9076
514.80 0.907
514.90 0.9063
515.00 0.9057
515.10 0.905
515.20 0.9044
515.30 0.9037
515.40 0.9031
515.50 0.9024
515.60 0.9018
515.70 0.9011
515.80 0.9005
515.90 0.8998
516.00 0.8992
516.10 0.8986
516.20 0.8979
516.30 0.8973
516.40 0.8966
516.50 0.896
516.60 0.8953
516.70 0.8947
516.80 0.894
516.90 0.8934
517.00 0.8928
517.10 0.8921
517.20 0.8915
517.30 0.8908
517.40 0.8902
517.50 0.8896
517.60 0.8889
517.70 0.8883
517.80 0.8876
517.90 0.887
518.00 0.8864
518.10 0.8857
518.20 0.8851
518.30 0.8844
518.40 0.8838
518.50 0.8832
518.60 0.8825
518.70 0.8819
518.80 0.8813
518.90 0.8806
519.00 0.88
519.10 0.8794
519.20 0.8787
519.30 0.8781
519.40 0.8775
519.50 0.8768
519.60 0.8762
519.70 0.8756
519.80 0.8749
519.90 0.8743
520.00 0.8737
520.10 0.873
520.20 0.8724
520.30 0.8718
520.40 0.8712
520.50 0.8705
520.60 0.8699
520.70 0.8693
520.80 0.8686
520.90 0.868
521.00 0.8674
521.10 0.8668
521.20 0.8661
521.30 0.8655
521.40 0.8649
521.50 0.8643
521.60 0.8637
521.70 0.863
521.80 0.8624
521.90 0.8618
522.00 0.8612
522.10 0.8605
522.20 0.8599
522.30 0.8593
522.40 0.8587
522.50 0.8581
522.60 0.8574
522.70 0.8568
522.80 0.8562
522.90 0.8556
523.00 0.855
523.10 0.8544
523.20 0.8537
523.30 0.8531
523.40 0.8525
523.50 0.8519
523.60 0.8513
523.70 0.8507
523.80 0.8501
523.90 0.8494
524.00 0.8488
524.10 0.8482
524.20 0.8476
524.30 0.847
524.40 0.8464
524.50 0.8458
524.60 0.8452
524.70 0.8446
524.80 0.844
524.90 0.8434
525.00 0.8427
525.10 0.8421
525.20 0.8415
525.30 0.8409
525.40 0.8403
525.50 0.8397
525.60 0.8391
525.70 0.8385
525.80 0.8379
525.90 0.8373
526.00 0.8367
526.10 0.8361
526.20 0.8355
526.30 0.8349
526.40 0.8343
526.50 0.8337
526.60 0.8331
526.70 0.8325
526.80 0.8319
526.90 0.8313
527.00 0.8307
527.10 0.8301
527.20 0.8295
527.30 0.8289
527.40 0.8283
527.50 0.8277
527.60 0.8271
527.70 0.8265
527.80 0.8259
527.90 0.8253
528.00 0.8248
528.10 0.8242
528.20 0.8236
528.30 0.823
528.40 0.8224
528.50 0.8218
528.60 0.8212
528.70 0.8206
528.80 0.82
528.90 0.8194
529.00 0.8189
529.10 0.8183
529.20 0.8177
529.30 0.8171
529.40 0.8165
529.50 0.8159
529.60 0.8153
529.70 0.8148
529.80 0.8142
529.90 0.8136
530.00 0.813
530.10 0.8124
530.20 0.8118
530.30 0.8113
530.40 0.8107
530.50 0.8101
530.60 0.8095
530.70 0.8089
530.80 0.8084
530.90 0.8078
531.00 0.8072
531.10 0.8066
531.20 0.806
531.30 0.8055
531.40 0.8049
531.50 0.8043
531.60 0.8037
531.70 0.8032
531.80 0.8026
531.90 0.802
532.00 0.8014
532.10 0.8009
532.20 0.8003
532.30 0.7997
532.40 0.7992
532.50 0.7986
532.60 0.798
532.70 0.7974
532.80 0.7969
532.90 0.7963
533.00 0.7957
533.10 0.7952
533.20 0.7946
533.30 0.794
533.40 0.7935
533.50 0.7929
533.60 0.7923
533.70 0.7918
533.80 0.7912
533.90 0.7906
534.00 0.7901
534.10 0.7895
534.20 0.789
534.30 0.7884
534.40 0.7878
534.50 0.7873
534.60 0.7867
534.70 0.7862
534.80 0.7856
534.90 0.785
535.00 0.7845
535.10 0.7839
535.20 0.7834
535.30 0.7828
535.40 0.7822
535.50 0.7817
535.60 0.7811
535.70 0.7806
535.80 0.78
535.90 0.7795
536.00 0.7789
536.10 0.7784
536.20 0.7778
536.30 0.7772
536.40 0.7767
536.50 0.7761
536.60 0.7756
536.70 0.775
536.80 0.7745
536.90 0.7739
537.00 0.7734
537.10 0.7728
537.20 0.7723
537.30 0.7717
537.40 0.7712
537.50 0.7707
537.60 0.7701
537.70 0.7696
537.80 0.769
537.90 0.7685
538.00 0.7679
538.10 0.7674
538.20 0.7668
538.30 0.7663
538.40 0.7658
538.50 0.7652
538.60 0.7647
538.70 0.7641
538.80 0.7636
538.90 0.763
539.00 0.7625
539.10 0.762
539.20 0.7614
539.30 0.7609
539.40 0.7603
539.50 0.7598
539.60 0.7593
539.70 0.7587
539.80 0.7582
539.90 0.7577
540.00 0.7571
540.10 0.7566
540.20 0.7561
540.30 0.7555
540.40 0.755
540.50 0.7545
540.60 0.7539
540.70 0.7534
540.80 0.7529
540.90 0.7523
541.00 0.7518
541.10 0.7513
541.20 0.7507
541.30 0.7502
541.40 0.7497
541.50 0.7492
541.60 0.7486
541.70 0.7481
541.80 0.7476
541.90 0.747
542.00 0.7465
542.10 0.746
542.20 0.7455
542.30 0.7449
542.40 0.7444
542.50 0.7439
542.60 0.7434
542.70 0.7428
542.80 0.7423
542.90 0.7418
543.00 0.7413
543.10 0.7408
543.20 0.7402
543.30 0.7397
543.40 0.7392
543.50 0.7387
543.60 0.7382
543.70 0.7376
543.80 0.7371
543.90 0.7366
544.00 0.7361
544.10 0.7356
544.20 0.735
544.30 0.7345
544.40 0.734
544.50 0.7335
544.60 0.733
544.70 0.7325
544.80 0.732
544.90 0.7314
545.00 0.7309
545.10 0.7304
545.20 0.7299
545.30 0.7294
545.40 0.7289
545.50 0.7284
545.60 0.7279
545.70 0.7274
545.80 0.7268
545.90 0.7263
546.00 0.7258
546.10 0.7253
546.20 0.7248
546.30 0.7243
546.40 0.7238
546.50 0.7233
546.60 0.7228
546.70 0.7223
546.80 0.7218
546.90 0.7213
547.00 0.7208
547.10 0.7203
547.20 0.7198
547.30 0.7193
547.40 0.7188
547.50 0.7182
547.60 0.7177
547.70 0.7172
547.80 0.7167
547.90 0.7162
548.00 0.7157
548.10 0.7152
548.20 0.7147
548.30 0.7142
548.40 0.7137
548.50 0.7133
548.60 0.7128
548.70 0.7123
548.80 0.7118
548.90 0.7113
549.00 0.7108
549.10 0.7103
549.20 0.7098
549.30 0.7093
549.40 0.7088
549.50 0.7083
549.60 0.7078
549.70 0.7073
549.80 0.7068
549.90 0.7063
550.00 0.7058
550.10 0.7053
550.20 0.7049
550.30 0.7044
550.40 0.7039
550.50 0.7034
550.60 0.7029
550.70 0.7024
550.80 0.7019
550.90 0.7014
551.00 0.7009
551.10 0.7005
551.20 0.7
551.30 0.6995
551.40 0.699
551.50 0.6985
551.60 0.698
551.70 0.6975
551.80 0.6971
551.90 0.6966
552.00 0.6961
552.10 0.6956
552.20 0.6951
552.30 0.6946
552.40 0.6942
552.50 0.6937
552.60 0.6932
552.70 0.6927
552.80 0.6922
552.90 0.6918
553.00 0.6913
553.10 0.6908
553.20 0.6903
553.30 0.6899
553.40 0.6894
553.50 0.6889
553.60 0.6884
553.70 0.6879
553.80 0.6875
553.90 0.687
554.00 0.6865
554.10 0.686
554.20 0.6856
554.30 0.6851
554.40 0.6846
554.50 0.6842
554.60 0.6837
554.70 0.6832
554.80 0.6827
554.90 0.6823
555.00 0.6818
555.10 0.6813
555.20 0.6809
555.30 0.6804
555.40 0.6799
555.50 0.6794
555.60 0.679
555.70 0.6785
555.80 0.678
555.90 0.6776
556.00 0.6771
556.10 0.6766
556.20 0.6762
556.30 0.6757
556.40 0.6752
556.50 0.6748
556.60 0.6743
556.70 0.6738
556.80 0.6734
556.90 0.6729
557.00 0.6725
557.10 0.672
557.20 0.6715
557.30 0.6711
557.40 0.6706
557.50 0.6702
557.60 0.6697
557.70 0.6692
557.80 0.6688
557.90 0.6683
558.00 0.6679
558.10 0.6674
558.20 0.6669
558.30 0.6665
558.40 0.666
558.50 0.6656
558.60 0.6651
558.70 0.6646
558.80 0.6642
558.90 0.6637
559.00 0.6633
559.10 0.6628
559.20 0.6624
559.30 0.6619
559.40 0.6615
559.50 0.661
559.60 0.6606
559.70 0.6601
559.80 0.6597
559.90 0.6592
560.00 0.6588
560.10 0.6583
560.20 0.6579
560.30 0.6574
560.40 0.657
560.50 0.6565
560.60 0.6561
560.70 0.6556
560.80 0.6552
560.90 0.6547
561.00 0.6543
561.10 0.6538
561.20 0.6534
561.30 0.6529
561.40 0.6525
561.50 0.652
561.60 0.6516
561.70 0.6511
561.80 0.6507
561.90 0.6503
562.00 0.6498
562.10 0.6494
562.20 0.6489
562.30 0.6485
562.40 0.648
562.50 0.6476
562.60 0.6472
562.70 0.6467
562.80 0.6463
562.90 0.6458
563.00 0.6454
563.10 0.645
563.20 0.6445
563.30 0.6441
563.40 0.6436
563.50 0.6432
563.60 0.6428
563.70 0.6423
563.80 0.6419
563.90 0.6415
564.00 0.641
564.10 0.6406
564.20 0.6401
564.30 0.6397
564.40 0.6393
564.50 0.6388
564.60 0.6384
564.70 0.638
564.80 0.6375
564.90 0.6371
565.00 0.6367
565.10 0.6362
565.20 0.6358
565.30 0.6354
565.40 0.6349
565.50 0.6345
565.60 0.6341
565.70 0.6337
565.80 0.6332
565.90 0.6328
566.00 0.6324
566.10 0.6319
566.20 0.6315
566.30 0.6311
566.40 0.6307
566.50 0.6302
566.60 0.6298
566.70 0.6294
566.80 0.6289
566.90 0.6285
567.00 0.6281
567.10 0.6277
567.20 0.6272
567.30 0.6268
567.40 0.6264
567.50 0.626
567.60 0.6256
567.70 0.6251
567.80 0.6247
567.90 0.6243
568.00 0.6239
568.10 0.6234
568.20 0.623
568.30 0.6226
568.40 0.6222
568.50 0.6218
568.60 0.6213
568.70 0.6209
568.80 0.6205
568.90 0.6201
569.00 0.6197
569.10 0.6192
569.20 0.6188
569.30 0.6184
569.40 0.618
569.50 0.6176
569.60 0.6172
569.70 0.6167
569.80 0.6163
569.90 0.6159
570.00 0.6155
570.10 0.6151
570.20 0.6147
570.30 0.6143
570.40 0.6138
570.50 0.6134
570.60 0.613
570.70 0.6126
570.80 0.6122
570.90 0.6118
571.00 0.6114
571.10 0.611
571.20 0.6106
571.30 0.6101
571.40 0.6097
571.50 0.6093
571.60 0.6089
571.70 0.6085
571.80 0.6081
571.90 0.6077
572.00 0.6073
572.10 0.6069
572.20 0.6065
572.30 0.6061
572.40 0.6056
572.50 0.6052
572.60 0.6048
572.70 0.6044
572.80 0.604
572.90 0.6036
573.00 0.6032
573.10 0.6028
573.20 0.6024
573.30 0.602
573.40 0.6016
573.50 0.6012
573.60 0.6008
573.70 0.6004
573.80 0.6
573.90 0.5996
574.00 0.5992
574.10 0.5988
574.20 0.5984
574.30 0.598
574.40 0.5976
574.50 0.5972
574.60 0.5968
574.70 0.5964
574.80 0.596
574.90 0.5956
575.00 0.5952
575.10 0.5948
575.20 0.5944
575.30 0.594
575.40 0.5936
575.50 0.5932
575.60 0.5928
575.70 0.5924
575.80 0.592
575.90 0.5916
576.00 0.5912
576.10 0.5908
576.20 0.5904
576.30 0.5901
576.40 0.5897
576.50 0.5893
576.60 0.5889
576.70 0.5885
576.80 0.5881
576.90 0.5877
577.00 0.5873
577.10 0.5869
577.20 0.5865
577.30 0.5861
577.40 0.5857
577.50 0.5854
577.60 0.585
577.70 0.5846
577.80 0.5842
577.90 0.5838
578.00 0.5834
578.10 0.583
578.20 0.5826
578.30 0.5822
578.40 0.5819
578.50 0.5815
578.60 0.5811
578.70 0.5807
578.80 0.5803
578.90 0.5799
579.00 0.5795
579.10 0.5792
579.20 0.5788
579.30 0.5784
579.40 0.578
579.50 0.5776
579.60 0.5772
579.70 0.5769
579.80 0.5765
579.90 0.5761
580.00 0.5757
580.10 0.5753
580.20 0.5749
580.30 0.5746
580.40 0.5742
580.50 0.5738
580.60 0.5734
580.70 0.573
580.80 0.5727
580.90 0.5723
581.00 0.5719
581.10 0.5715
581.20 0.5712
581.30 0.5708
581.40 0.5704
581.50 0.57
581.60 0.5696
581.70 0.5693
581.80 0.5689
581.90 0.5685
582.00 0.5681
582.10 0.5678
582.20 0.5674
582.30 0.567
582.40 0.5666
582.50 0.5663
582.60 0.5659
582.70 0.5655
582.80 0.5651
582.90 0.5648
583.00 0.5644
583.10 0.564
583.20 0.5637
583.30 0.5633
583.40 0.5629
583.50 0.5625
583.60 0.5622
583.70 0.5618
583.80 0.5614
583.90 0.5611
584.00 0.5607
584.10 0.5603
584.20 0.56
584.30 0.5596
584.40 0.5592
584.50 0.5588
584.60 0.5585
584.70 0.5581
584.80 0.5577
584.90 0.5574
585.00 0.557
585.10 0.5566
585.20 0.5563
585.30 0.5559
585.40 0.5556
585.50 0.5552
585.60 0.5548
585.70 0.5545
585.80 0.5541
585.90 0.5537
586.00 0.5534
586.10 0.553
586.20 0.5526
586.30 0.5523
586.40 0.5519
586.50 0.5516
586.60 0.5512
586.70 0.5508
586.80 0.5505
586.90 0.5501
587.00 0.5497
587.10 0.5494
587.20 0.549
587.30 0.5487
587.40 0.5483
587.50 0.5479
587.60 0.5476
587.70 0.5472
587.80 0.5469
587.90 0.5465
588.00 0.5462
588.10 0.5458
588.20 0.5454
588.30 0.5451
588.40 0.5447
588.50 0.5444
588.60 0.544
588.70 0.5437
588.80 0.5433
588.90 0.5429
589.00 0.5426
589.10 0.5422
589.20 0.5419
589.30 0.5415
589.40 0.5412
589.50 0.5408
589.60 0.5405
589.70 0.5401
589.80 0.5398
589.90 0.5394
590.00 0.5391
590.10 0.5387
590.20 0.5384
590.30 0.538
590.40 0.5377
590.50 0.5373
590.60 0.5369
590.70 0.5366
590.80 0.5363
590.90 0.5359
591.00 0.5356
591.10 0.5352
591.20 0.5349
591.30 0.5345
591.40 0.5342
591.50 0.5338
591.60 0.5335
591.70 0.5331
591.80 0.5328
591.90 0.5324
592.00 0.5321
592.10 0.5317
592.20 0.5314
592.30 0.531
592.40 0.5307
592.50 0.5303
592.60 0.53
592.70 0.5297
592.80 0.5293
592.90 0.529
593.00 0.5286
593.10 0.5283
593.20 0.5279
593.30 0.5276
593.40 0.5273
593.50 0.5269
593.60 0.5266
593.70 0.5262
593.80 0.5259
593.90 0.5255
594.00 0.5252
594.10 0.5249
594.20 0.5245
594.30 0.5242
594.40 0.5238
594.50 0.5235
594.60 0.5232
594.70 0.5228
594.80 0.5225
594.90 0.5221
595.00 0.5218
595.10 0.5215
595.20 0.5211
595.30 0.5208
595.40 0.5205
595.50 0.5201
595.60 0.5198
595.70 0.5194
595.80 0.5191
595.90 0.5188
596.00 0.5184
596.10 0.5181
596.20 0.5178
596.30 0.5174
596.40 0.5171
596.50 0.5168
596.60 0.5164
596.70 0.5161
596.80 0.5158
596.90 0.5154
597.00 0.5151
597.10 0.5148
597.20 0.5144
597.30 0.5141
597.40 0.5138
597.50 0.5134
597.60 0.5131
597.70 0.5128
597.80 0.5124
597.90 0.5121
598.00 0.5118
598.10 0.5114
598.20 0.5111
598.30 0.5108
598.40 0.5105
598.50 0.5101
598.60 0.5098
598.70 0.5095
598.80 0.5091
598.90 0.5088
599.00 0.5085
599.10 0.5082
599.20 0.5078
599.30 0.5075
599.40 0.5072
599.50 0.5069
599.60 0.5065
599.70 0.5062
599.80 0.5059
599.90 0.5055
600.00 0.5052
600.10 0.5049
600.20 0.5046
600.30 0.5042
600.40 0.5039
600.50 0.5036
600.60 0.5033
600.70 0.503
600.80 0.5026
600.90 0.5023
601.00 0.502
601.10 0.5017
601.20 0.5013
601.30 0.501
601.40 0.5007
601.50 0.5004
601.60 0.5001
601.70 0.4997
601.80 0.4994
601.90 0.4991
602.00 0.4988
602.10 0.4984
602.20 0.4981
602.30 0.4978
602.40 0.4975
602.50 0.4972
602.60 0.4969
602.70 0.4965
602.80 0.4962
602.90 0.4959
603.00 0.4956
603.10 0.4953
603.20 0.4949
603.30 0.4946
603.40 0.4943
603.50 0.494
603.60 0.4937
603.70 0.4934
603.80 0.493
603.90 0.4927
604.00 0.4924
604.10 0.4921
604.20 0.4918
604.30 0.4915
604.40 0.4912
604.50 0.4908
604.60 0.4905
604.70 0.4902
604.80 0.4899
604.90 0.4896
605.00 0.4893
605.10 0.489
605.20 0.4886
605.30 0.4883
605.40 0.488
605.50 0.4877
605.60 0.4874
605.70 0.4871
605.80 0.4868
605.90 0.4865
606.00 0.4862
606.10 0.4858
606.20 0.4855
606.30 0.4852
606.40 0.4849
606.50 0.4846
606.60 0.4843
606.70 0.484
606.80 0.4837
606.90 0.4834
607.00 0.4831
607.10 0.4828
607.20 0.4824
607.30 0.4821
607.40 0.4818
607.50 0.4815
607.60 0.4812
607.70 0.4809
607.80 0.4806
607.90 0.4803
608.00 0.48
608.10 0.4797
608.20 0.4794
608.30 0.4791
608.40 0.4788
608.50 0.4785
608.60 0.4782
608.70 0.4779
608.80 0.4775
608.90 0.4772
609.00 0.4769
609.10 0.4766
609.20 0.4763
609.30 0.476
609.40 0.4757
609.50 0.4754
609.60 0.4751
609.70 0.4748
609.80 0.4745
609.90 0.4742
610.00 0.4739
610.10 0.4736
610.20 0.4733
610.30 0.473
610.40 0.4727
610.50 0.4724
610.60 0.4721
610.70 0.4718
610.80 0.4715
610.90 0.4712
611.00 0.4709
611.10 0.4706
611.20 0.4703
611.30 0.47
611.40 0.4697
611.50 0.4694
611.60 0.4691
611.70 0.4688
611.80 0.4685
611.90 0.4682
612.00 0.4679
612.10 0.4676
612.20 0.4673
612.30 0.467
612.40 0.4667
612.50 0.4664
612.60 0.4661
612.70 0.4659
612.80 0.4656
612.90 0.4653
613.00 0.465
613.10 0.4647
613.20 0.4644
613.30 0.4641
613.40 0.4638
613.50 0.4635
613.60 0.4632
613.70 0.4629
613.80 0.4626
613.90 0.4623
614.00 0.462
614.10 0.4617
614.20 0.4614
614.30 0.4611
614.40 0.4609
614.50 0.4606
614.60 0.4603
614.70 0.46
614.80 0.4597
614.90 0.4594
615.00 0.4591
615.10 0.4588
615.20 0.4585
615.30 0.4582
615.40 0.4579
615.50 0.4577
615.60 0.4574
615.70 0.4571
615.80 0.4568
615.90 0.4565
616.00 0.4562
616.10 0.4559
616.20 0.4556
616.30 0.4553
616.40 0.4551
616.50 0.4548
616.60 0.4545
616.70 0.4542
616.80 0.4539
616.90 0.4536
617.00 0.4533
617.10 0.453
617.20 0.4528
617.30 0.4525
617.40 0.4522
617.50 0.4519
617.60 0.4516
617.70 0.4513
617.80 0.451
617.90 0.4508
618.00 0.4505
618.10 0.4502
618.20 0.4499
618.30 0.4496
618.40 0.4493
618.50 0.449
618.60 0.4488
618.70 0.4485
618.80 0.4482
618.90 0.4479
619.00 0.4476
619.10 0.4473
619.20 0.4471
619.30 0.4468
619.40 0.4465
619.50 0.4462
619.60 0.4459
619.70 0.4456
619.80 0.4454
619.90 0.4451
620.00 0.4448
620.10 0.4445
620.20 0.4442
620.30 0.444
620.40 0.4437
620.50 0.4434
620.60 0.4431
620.70 0.4428
620.80 0.4426
620.90 0.4423
621.00 0.442
621.10 0.4417
621.20 0.4414
621.30 0.4412
621.40 0.4409
621.50 0.4406
621.60 0.4403
621.70 0.44
621.80 0.4398
621.90 0.4395
622.00 0.4392
622.10 0.4389
622.20 0.4387
622.30 0.4384
622.40 0.4381
622.50 0.4378
622.60 0.4375
622.70 0.4373
622.80 0.437
622.90 0.4367
623.00 0.4364
623.10 0.4362
623.20 0.4359
623.30 0.4356
623.40 0.4353
623.50 0.4351
623.60 0.4348
623.70 0.4345
623.80 0.4342
623.90 0.4339
624.00 0.4337
624.10 0.4334
624.20 0.4331
624.30 0.4328
624.40 0.4326
624.50 0.4323
624.60 0.432
624.70 0.4318
624.80 0.4315
624.90 0.4312
625.00 0.4309
625.10 0.4307
625.20 0.4304
625.30 0.4301
625.40 0.4298
625.50 0.4296
625.60 0.4293
625.70 0.429
625.80 0.4287
625.90 0.4285
626.00 0.4282
626.10 0.4279
626.20 0.4277
626.30 0.4274
626.40 0.4271
626.50 0.4268
626.60 0.4266
626.70 0.4263
626.80 0.426
626.90 0.4258
627.00 0.4255
627.10 0.4252
627.20 0.4249
627.30 0.4247
627.40 0.4244
627.50 0.4241
627.60 0.4239
627.70 0.4236
627.80 0.4233
627.90 0.423
628.00 0.4228
628.10 0.4225
628.20 0.4222
628.30 0.422
628.40 0.4217
628.50 0.4214
628.60 0.4212
628.70 0.4209
628.80 0.4206
628.90 0.4203
629.00 0.4201
629.10 0.4198
629.20 0.4195
629.30 0.4193
629.40 0.419
629.50 0.4187
629.60 0.4185
629.70 0.4182
629.80 0.4179
629.90 0.4177
630.00 0.4174
630.10 0.4171
630.20 0.4168
630.30 0.4166
630.40 0.4163
630.50 0.416
630.60 0.4158
630.70 0.4155
630.80 0.4152
630.90 0.415
631.00 0.4147
631.10 0.4144
631.20 0.4142
631.30 0.4139
631.40 0.4136
631.50 0.4134
631.60 0.4131
631.70 0.4128
631.80 0.4125
631.90 0.4123
632.00 0.412
632.10 0.4117
632.20 0.4115
632.30 0.4112
632.40 0.4109
632.50 0.4107
632.60 0.4104
632.70 0.4101
632.80 0.4099
632.90 0.4096
633.00 0.4093
633.10 0.4091
633.20 0.4088
633.30 0.4085
633.40 0.4083
633.50 0.408
633.60 0.4077
633.70 0.4074
633.80 0.4072
633.90 0.4069
634.00 0.4066
634.10 0.4064
634.20 0.4061
634.30 0.4058
634.40 0.4056
634.50 0.4053
634.60 0.405
634.70 0.4048
634.80 0.4045
634.90 0.4042
635.00 0.4039
635.10 0.4037
635.20 0.4034
635.30 0.4031
635.40 0.4029
635.50 0.4026
635.60 0.4023
635.70 0.4021
635.80 0.4018
635.90 0.4015
636.00 0.4012
636.10 0.401
636.20 0.4007
636.30 0.4004
636.40 0.4002
636.50 0.3999
636.60 0.3996
636.70 0.3993
636.80 0.3991
636.90 0.3988
637.00 0.3985
637.10 0.3982
637.20 0.398
637.30 0.3977
637.40 0.3974
637.50 0.3971
637.60 0.3969
637.70 0.3966
637.80 0.3963
637.90 0.396
638.00 0.3958
638.10 0.3955
638.20 0.3952
638.30 0.3949
638.40 0.3947
638.50 0.3944
638.60 0.3941
638.70 0.3938
638.80 0.3935
638.90 0.3933
639.00 0.393
639.10 0.3927
639.20 0.3924
639.30 0.3921
639.40 0.3918
639.50 0.3916
639.60 0.3913
639.70 0.391
639.80 0.3907
639.90 0.3904
640.00 0.3901
640.10 0.3899
640.20 0.3896
640.30 0.3893
640.40 0.389
640.50 0.3887
640.60 0.3884
640.70 0.3881
640.80 0.3878
640.90 0.3875
641.00 0.3872
641.10 0.387
641.20 0.3867
641.30 0.3864
641.40 0.3861
641.50 0.3858
641.60 0.3855
641.70 0.3852
641.80 0.3849
641.90 0.3846
642.00 0.3843
642.10 0.384
642.20 0.3837
642.30 0.3834
642.40 0.3831
642.50 0.3828
642.60 0.3824
642.70 0.3821
642.80 0.3818
642.90 0.3815
643.00 0.3812
643.10 0.3809
643.20 0.3806
643.30 0.3803
643.40 0.3799
643.50 0.3796
643.60 0.3793
643.70 0.379
643.80 0.3786
643.90 0.3783
644.00 0.378
644.10 0.3777
644.20 0.3773
644.30 0.377
644.40 0.3767
644.50 0.3763
644.60 0.376
644.70 0.3757
644.80 0.3753
644.90 0.375
645.00 0.3746
645.10 0.3743
645.20 0.3739
645.30 0.3736
645.40 0.3732
645.50 0.3729
645.60 0.3725
645.70 0.3721
645.80 0.3718
645.90 0.3714
646.00 0.3711
646.10 0.3707
646.20 0.3703
646.30 0.37
646.40 0.3696
646.50 0.3692
646.60 0.3688
646.70 0.3684
646.80 0.368
646.90 0.3676
647.00 0.3672
647.10 0.3668
647.20 0.3664
647.30 0.366
647.40 0.3656
647.50 0.3652
647.60 0.3648
647.70 0.3643
647.80 0.3639
647.90 0.3635
648.00 0.363
648.10 0.3626
648.20 0.3622
648.30 0.3618
648.40 0.3613
648.50 0.3608
648.60 0.3603
648.70 0.3599
648.80 0.3594
648.90 0.3589
649.00 0.3584
649.10 0.358
649.20 0.3575
649.30 0.357
649.40 0.3565
649.50 0.356
649.60 0.3554
649.70 0.3549
649.80 0.3544
649.90 0.3538
650.00 0.3533
650.10 0.3528
650.20 0.3523
650.30 0.3517
650.40 0.3511
650.50 0.3505
650.60 0.3499
650.70 0.3493
650.80 0.3487
650.90 0.3481
651.00 0.3475
651.10 0.3469
651.20 0.3463
651.30 0.3457
651.40 0.345
651.50 0.3444
651.60 0.3437
651.70 0.343
651.80 0.3423
651.90 0.3416
652.00 0.3409
652.10 0.3403
652.20 0.3396
652.30 0.3389
652.40 0.3381
652.50 0.3373
652.60 0.3365
652.70 0.3358
652.80 0.335
652.90 0.3342
653.00 0.3334
653.10 0.3326
653.20 0.3319
653.30 0.3311
653.40 0.3302
653.50 0.3293
653.60 0.3284
653.70 0.3275
653.80 0.3266
653.90 0.3257
654.00 0.3248
654.10 0.3239
654.20 0.323
654.30 0.3221
654.40 0.3211
654.50 0.3202
654.60 0.3192
654.70 0.3182
654.80 0.3172
654.90 0.3162
655.00 0.3152
655.10 0.3142
655.20 0.3132
655.30 0.3122
655.40 0.3111
655.50 0.3101
655.60 0.3091
655.70 0.3081
655.80 0.3073
655.90 0.3065
656.00 0.3063
656.10 0.3064
656.20 0.3116
656.30 0.3217
656.40 0.308
656.50 0.3055
656.60 0.3053
656.70 0.3053
656.80 0.3058
656.90 0.3064
657.00 0.307
657.10 0.3077
657.20 0.3084
657.30 0.309
657.40 0.3097
657.50 0.3103
657.60 0.311
657.70 0.3116
657.80 0.3123
657.90 0.3129
658.00 0.3135
658.10 0.3141
658.20 0.3147
658.30 0.3153
658.40 0.3158
658.50 0.3163
658.60 0.3168
658.70 0.3174
658.80 0.3179
658.90 0.3184
659.00 0.3189
659.10 0.3194
659.20 0.3199
659.30 0.3204
659.40 0.3208
659.50 0.3212
659.60 0.3216
659.70 0.3219
659.80 0.3223
659.90 0.3227
660.00 0.3231
660.10 0.3235
660.20 0.3239
660.30 0.3242
660.40 0.3245
660.50 0.3248
660.60 0.3251
660.70 0.3253
660.80 0.3256
660.90 0.3259
661.00 0.3262
661.10 0.3264
661.20 0.3267
661.30 0.327
661.40 0.3272
661.50 0.3273
661.60 0.3275
661.70 0.3277
661.80 0.3279
661.90 0.3281
662.00 0.3283
662.10 0.3284
662.20 0.3286
662.30 0.3288
662.40 0.3289
662.50 0.329
662.60 0.3291
662.70 0.3292
662.80 0.3293
662.90 0.3294
663.00 0.3295
663.10 0.3297
663.20 0.3298
663.30 0.3299
663.40 0.3299
663.50 0.33
663.60 0.33
663.70 0.33
663.80 0.3301
663.90 0.3301
664.00 0.3302
664.10 0.3302
664.20 0.3303
664.30 0.3303
664.40 0.3303
664.50 0.3303
664.60 0.3303
664.70 0.3303
664.80 0.3303
664.90 0.3303
665.00 0.3303
665.10 0.3303
665.20 0.3303
665.30 0.3303
665.40 0.3303
665.50 0.3302
665.60 0.3302
665.70 0.3301
665.80 0.3301
665.90 0.3301
666.00 0.33
666.10 0.33
666.20 0.33
666.30 0.3299
666.40 0.3298
666.50 0.3298
666.60 0.3297
666.70 0.3296
666.80 0.3296
666.90 0.3295
667.00 0.3294
667.10 0.3294
667.20 0.3293
667.30 0.3292
667.40 0.3291
667.50 0.329
667.60 0.329
667.70 0.3289
667.80 0.3288
667.90 0.3287
668.00 0.3286
668.10 0.3285
668.20 0.3284
668.30 0.3283
668.40 0.3282
668.50 0.3281
668.60 0.328
668.70 0.3279
668.80 0.3278
668.90 0.3277
669.00 0.3276
669.10 0.3274
669.20 0.3273
669.30 0.3272
669.40 0.3271
669.50 0.327
669.60 0.3269
669.70 0.3267
669.80 0.3266
669.90 0.3265
670.00 0.3264
670.10 0.3262
670.20 0.3261
670.30 0.326
670.40 0.3259
670.50 0.3257
670.60 0.3256
670.70 0.3255
670.80 0.3253
670.90 0.3252
671.00 0.3251
671.10 0.3249
671.20 0.3248
671.30 0.3247
671.40 0.3245
671.50 0.3244
671.60 0.3242
671.70 0.3241
671.80 0.324
671.90 0.3238
672.00 0.3237
672.10 0.3235
672.20 0.3234
672.30 0.3233
672.40 0.3231
672.50 0.323
672.60 0.3228
672.70 0.3227
672.80 0.3225
672.90 0.3224
673.00 0.3222
673.10 0.3221
673.20 0.3219
673.30 0.3218
673.40 0.3216
673.50 0.3215
673.60 0.3213
673.70 0.3212
673.80 0.321
673.90 0.3209
674.00 0.3207
674.10 0.3206
674.20 0.3204
674.30 0.3202
674.40 0.3201
674.50 0.3199
674.60 0.3198
674.70 0.3196
674.80 0.3195
674.90 0.3193
675.00 0.3192
675.10 0.319
675.20 0.3188
675.30 0.3187
675.40 0.3185
675.50 0.3184
675.60 0.3182
675.70 0.318
675.80 0.3179
675.90 0.3177
676.00 0.3176
676.10 0.3174
676.20 0.3172
676.30 0.3171
676.40 0.3169
676.50 0.3168
676.60 0.3166
676.70 0.3164
676.80 0.3163
676.90 0.3161
677.00 0.316
677.10 0.3158
677.20 0.3156
677.30 0.3155
677.40 0.3153
677.50 0.3152
677.60 0.315
677.70 0.3148
677.80 0.3147
677.90 0.3145
678.00 0.3143
678.10 0.3142
678.20 0.314
678.30 0.3138
678.40 0.3137
678.50 0.3135
678.60 0.3134
678.70 0.3132
678.80 0.313
678.90 0.3129
679.00 0.3127
679.10 0.3125
679.20 0.3124
679.30 0.3122
679.40 0.312
679.50 0.3119
679.60 0.3117
679.70 0.3115
679.80 0.3114
679.90 0.3112
680.00 0.3111
680.10 0.3109
680.20 0.3107
680.30 0.3106
680.40 0.3104
680.50 0.3102
680.60 0.3101
680.70 0.3099
680.80 0.3097
680.90 0.3096
681.00 0.3094
681.10 0.3092
681.20 0.3091
681.30 0.3089
681.40 0.3087
681.50 0.3086
681.60 0.3084
681.70 0.3082
681.80 0.3081
681.90 0.3079
682.00 0.3078
682.10 0.3076
682.20 0.3074
682.30 0.3073
682.40 0.3071
682.50 0.3069
682.60 0.3068
682.70 0.3066
682.80 0.3064
682.90 0.3063
683.00 0.3061
683.10 0.3059
683.20 0.3058
683.30 0.3056
683.40 0.3054
683.50 0.3053
683.60 0.3051
683.70 0.3049
683.80 0.3048
683.90 0.3046
684.00 0.3044
684.10 0.3043
684.20 0.3041
684.30 0.304
684.40 0.3038
684.50 0.3036
684.60 0.3035
684.70 0.3033
684.80 0.3031
684.90 0.303
685.00 0.3028
685.10 0.3026
685.20 0.3025
685.30 0.3023
685.40 0.3021
685.50 0.302
685.60 0.3018
685.70 0.3017
685.80 0.3015
685.90 0.3013
686.00 0.3012
686.10 0.301
686.20 0.3008
686.30 0.3007
686.40 0.3005
686.50 0.3003
686.60 0.3002
686.70 0.3
686.80 0.2998
686.90 0.2997
687.00 0.2995
687.10 0.2994
687.20 0.2992
687.30 0.299
687.40 0.2989
687.50 0.2987
687.60 0.2985
687.70 0.2984
687.80 0.2982
687.90 0.2981
688.00 0.2979
688.10 0.2977
688.20 0.2976
688.30 0.2974
688.40 0.2972
688.50 0.2971
688.60 0.2969
688.70 0.2967
688.80 0.2966
688.90 0.2964
689.00 0.2963
689.10 0.2961
689.20 0.2959
689.30 0.2958
689.40 0.2956
689.50 0.2955
689.60 0.2953
689.70 0.2951
689.80 0.295
689.90 0.2948
690.00 0.2946
690.10 0.2945
690.20 0.2943
690.30 0.2942
690.40 0.294
690.50 0.2938
690.60 0.2937
690.70 0.2935
690.80 0.2934
690.90 0.2932
691.00 0.293
691.10 0.2929
691.20 0.2927
691.30 0.2926
691.40 0.2924
691.50 0.2922
691.60 0.2921
691.70 0.2919
691.80 0.2918
691.90 0.2916
692.00 0.2914
692.10 0.2913
692.20 0.2911
692.30 0.291
692.40 0.2908
692.50 0.2906
692.60 0.2905
692.70 0.2903
692.80 0.2902
692.90 0.29
693.00 0.2898
693.10 0.2897
693.20 0.2895
693.30 0.2894
693.40 0.2892
693.50 0.289
693.60 0.2889
693.70 0.2887
693.80 0.2886
693.90 0.2884
694.00 0.2883
694.10 0.2881
694.20 0.2879
694.30 0.2878
694.40 0.2876
694.50 0.2875
694.60 0.2873
694.70 0.2871
694.80 0.287
694.90 0.2868
695.00 0.2867
695.10 0.2865
695.20 0.2864
695.30 0.2862
695.40 0.286
695.50 0.2859
695.60 0.2857
695.70 0.2856
695.80 0.2854
695.90 0.2853
696.00 0.2851
696.10 0.285
696.20 0.2848
696.30 0.2846
696.40 0.2845
696.50 0.2843
696.60 0.2842
696.70 0.284
696.80 0.2839
696.90 0.2837
697.00 0.2835
697.10 0.2834
697.20 0.2832
697.30 0.2831
697.40 0.2829
697.50 0.2828
697.60 0.2826
697.70 0.2825
697.80 0.2823
697.90 0.2822
698.00 0.282
698.10 0.2818
698.20 0.2817
698.30 0.2815
698.40 0.2814
698.50 0.2812
698.60 0.2811
698.70 0.2809
698.80 0.2808
698.90 0.2806
699.00 0.2805
699.10 0.2803
699.20 0.2802
699.30 0.28
699.40 0.2798
699.50 0.2797
699.60 0.2795
699.70 0.2794
699.80 0.2792
699.90 0.2791
700.00 0.2789
700.10 0.2788
700.20 0.2786
700.30 0.2785
700.40 0.2783
700.50 0.2782
700.60 0.278
700.70 0.2779
700.80 0.2777
700.90 0.2776
701.00 0.2774
701.10 0.2773
701.20 0.2771
701.30 0.277
701.40 0.2768
701.50 0.2766
701.60 0.2765
701.70 0.2763
701.80 0.2762
701.90 0.276
702.00 0.2759
702.10 0.2757
702.20 0.2756
702.30 0.2754
702.40 0.2753
702.50 0.2751
702.60 0.275
702.70 0.2748
702.80 0.2747
702.90 0.2745
703.00 0.2744
703.10 0.2742
703.20 0.2741
703.30 0.2739
703.40 0.2738
703.50 0.2736
703.60 0.2735
703.70 0.2733
703.80 0.2732
703.90 0.273
704.00 0.2729
704.10 0.2727
704.20 0.2726
704.30 0.2724
704.40 0.2723
704.50 0.2722
704.60 0.272
704.70 0.2719
704.80 0.2717
704.90 0.2716
705.00 0.2714
705.10 0.2713
705.20 0.2711
705.30 0.271
705.40 0.2708
705.50 0.2707
705.60 0.2705
705.70 0.2704
705.80 0.2702
705.90 0.2701
706.00 0.2699
706.10 0.2698
706.20 0.2696
706.30 0.2695
706.40 0.2694
706.50 0.2692
706.60 0.2691
706.70 0.2689
706.80 0.2688
706.90 0.2686
707.00 0.2685
707.10 0.2683
707.20 0.2682
707.30 0.268
707.40 0.2679
707.50 0.2677
707.60 0.2676
707.70 0.2675
707.80 0.2673
707.90 0.2672
708.00 0.267
708.10 0.2669
708.20 0.2667
708.30 0.2666
708.40 0.2664
708.50 0.2663
708.60 0.2662
708.70 0.266
708.80 0.2659
708.90 0.2657
709.00 0.2656
709.10 0.2654
709.20 0.2653
709.30 0.2651
709.40 0.265
709.50 0.2649
709.60 0.2647
709.70 0.2646
709.80 0.2644
709.90 0.2643
710.00 0.2641
710.10 0.264
710.20 0.2638
710.30 0.2637
710.40 0.2636
710.50 0.2634
710.60 0.2633
710.70 0.2631
710.80 0.263
710.90 0.2628
711.00 0.2627
711.10 0.2626
711.20 0.2624
711.30 0.2623
711.40 0.2621
711.50 0.262
711.60 0.2619
711.70 0.2617
711.80 0.2616
711.90 0.2614
712.00 0.2613
712.10 0.2612
712.20 0.261
712.30 0.2609
712.40 0.2607
712.50 0.2606
712.60 0.2604
712.70 0.2603
712.80 0.2602
712.90 0.26
713.00 0.2599
713.10 0.2597
713.20 0.2596
713.30 0.2595
713.40 0.2593
713.50 0.2592
713.60 0.259
713.70 0.2589
713.80 0.2588
713.90 0.2586
714.00 0.2585
714.10 0.2583
714.20 0.2582
714.30 0.2581
714.40 0.2579
714.50 0.2578
714.60 0.2576
714.70 0.2575
714.80 0.2574
714.90 0.2572
715.00 0.2571
715.10 0.2569
715.20 0.2568
715.30 0.2567
715.40 0.2565
715.50 0.2564
715.60 0.2563
715.70 0.2561
715.80 0.256
715.90 0.2558
716.00 0.2557
716.10 0.2556
716.20 0.2554
716.30 0.2553
716.40 0.2552
716.50 0.255
716.60 0.2549
716.70 0.2547
716.80 0.2546
716.90 0.2545
717.00 0.2543
717.10 0.2542
717.20 0.2541
717.30 0.2539
717.40 0.2538
717.50 0.2537
717.60 0.2535
717.70 0.2534
717.80 0.2532
717.90 0.2531
718.00 0.253
718.10 0.2528
718.20 0.2527
718.30 0.2526
718.40 0.2524
718.50 0.2523
718.60 0.2522
718.70 0.252
718.80 0.2519
718.90 0.2518
719.00 0.2516
719.10 0.2515
719.20 0.2513
719.30 0.2512
719.40 0.2511
719.50 0.2509
719.60 0.2508
719.70 0.2507
719.80 0.2505
719.90 0.2504
720.00 0.2503
720.10 0.2501
720.20 0.25
720.30 0.2499
720.40 0.2497
720.50 0.2496
720.60 0.2495
720.70 0.2493
720.80 0.2492
720.90 0.2491
721.00 0.2489
721.10 0.2488
721.20 0.2487
721.30 0.2485
721.40 0.2484
721.50 0.2483
721.60 0.2481
721.70 0.248
721.80 0.2479
721.90 0.2477
722.00 0.2476
722.10 0.2475
722.20 0.2473
722.30 0.2472
722.40 0.2471
722.50 0.2469
722.60 0.2468
722.70 0.2467
722.80 0.2466
722.90 0.2464
723.00 0.2463
723.10 0.2462
723.20 0.246
723.30 0.2459
723.40 0.2458
723.50 0.2456
723.60 0.2455
723.70 0.2454
723.80 0.2452
723.90 0.2451
724.00 0.245
724.10 0.2448
724.20 0.2447
724.30 0.2446
724.40 0.2445
724.50 0.2443
724.60 0.2442
724.70 0.2441
724.80 0.2439
724.90 0.2438
725.00 0.2437
725.10 0.2435
725.20 0.2434
725.30 0.2433
725.40 0.2432
725.50 0.243
725.60 0.2429
725.70 0.2428
725.80 0.2426
725.90 0.2425
726.00 0.2424
726.10 0.2423
726.20 0.2421
726.30 0.242
726.40 0.2419
726.50 0.2417
726.60 0.2416
726.70 0.2415
726.80 0.2414
726.90 0.2412
727.00 0.2411
727.10 0.241
727.20 0.2408
727.30 0.2407
727.40 0.2406
727.50 0.2405
727.60 0.2403
727.70 0.2402
727.80 0.2401
727.90 0.2399
728.00 0.2398
728.10 0.2397
728.20 0.2396
728.30 0.2394
728.40 0.2393
728.50 0.2392
728.60 0.2391
728.70 0.2389
728.80 0.2388
728.90 0.2387
729.00 0.2386
729.10 0.2384
729.20 0.2383
729.30 0.2382
729.40 0.238
729.50 0.2379
729.60 0.2378
729.70 0.2377
729.80 0.2375
729.90 0.2374
730.00 0.2373
730.10 0.2372
730.20 0.237
730.30 0.2369
730.40 0.2368
730.50 0.2367
730.60 0.2365
730.70 0.2364
730.80 0.2363
730.90 0.2362
731.00 0.236
731.10 0.2359
731.20 0.2358
731.30 0.2357
731.40 0.2355
731.50 0.2354
731.60 0.2353
731.70 0.2352
731.80 0.2351
731.90 0.2349
732.00 0.2348
732.10 0.2347
732.20 0.2346
732.30 0.2344
732.40 0.2343
732.50 0.2342
732.60 0.2341
732.70 0.2339
732.80 0.2338
732.90 0.2337
733.00 0.2336
733.10 0.2335
733.20 0.2333
733.30 0.2332
733.40 0.2331
733.50 0.233
733.60 0.2328
733.70 0.2327
733.80 0.2326
733.90 0.2325
734.00 0.2324
734.10 0.2322
734.20 0.2321
734.30 0.232
734.40 0.2319
734.50 0.2317
734.60 0.2316
734.70 0.2315
734.80 0.2314
734.90 0.2313
735.00 0.2311
735.10 0.231
735.20 0.2309
735.30 0.2308
735.40 0.2307
735.50 0.2305
735.60 0.2304
735.70 0.2303
735.80 0.2302
735.90 0.23
736.00 0.2299
736.10 0.2298
736.20 0.2297
736.30 0.2296
736.40 0.2294
736.50 0.2293
736.60 0.2292
736.70 0.2291
736.80 0.229
736.90 0.2288
737.00 0.2287
737.10 0.2286
737.20 0.2285
737.30 0.2284
737.40 0.2282
737.50 0.2281
737.60 0.228
737.70 0.2279
737.80 0.2278
737.90 0.2276
738.00 0.2275
738.10 0.2274
738.20 0.2273
738.30 0.2272
738.40 0.227
738.50 0.2269
738.60 0.2268
738.70 0.2267
738.80 0.2266
738.90 0.2264
739.00 0.2263
739.10 0.2262
739.20 0.2261
739.30 0.226
739.40 0.2258
739.50 0.2257
739.60 0.2256
739.70 0.2255
739.80 0.2254
739.90 0.2252
740.00 0.2251
740.10 0.225
740.20 0.2249
740.30 0.2248
740.40 0.2247
740.50 0.2245
740.60 0.2244
740.70 0.2243
740.80 0.2242
740.90 0.2241
741.00 0.224
741.10 0.2239
741.20 0.2237
741.30 0.2236
741.40 0.2235
741.50 0.2234
741.60 0.2233
741.70 0.2232
741.80 0.223
741.90 0.2229
742.00 0.2228
742.10 0.2227
742.20 0.2226
742.30 0.2225
742.40 0.2223
742.50 0.2222
742.60 0.2221
742.70 0.222
742.80 0.2219
742.90 0.2218
743.00 0.2217
743.10 0.2215
743.20 0.2214
743.30 0.2213
743.40 0.2212
743.50 0.2211
743.60 0.221
743.70 0.2209
743.80 0.2207
743.90 0.2206
744.00 0.2205
744.10 0.2204
744.20 0.2203
744.30 0.2202
744.40 0.2201
744.50 0.2199
744.60 0.2198
744.70 0.2197
744.80 0.2196
744.90 0.2195
745.00 0.2194
745.10 0.2193
745.20 0.2191
745.30 0.219
745.40 0.2189
745.50 0.2188
745.60 0.2187
745.70 0.2186
745.80 0.2185
745.90 0.2183
746.00 0.2182
746.10 0.2181
746.20 0.218
746.30 0.2179
746.40 0.2178
746.50 0.2177
746.60 0.2176
746.70 0.2174
746.80 0.2173
746.90 0.2172
747.00 0.2171
747.10 0.217
747.20 0.2169
747.30 0.2168
747.40 0.2166
747.50 0.2165
747.60 0.2164
747.70 0.2163
747.80 0.2162
747.90 0.2161
748.00 0.216
748.10 0.2159
748.20 0.2157
748.30 0.2156
748.40 0.2155
748.50 0.2154
748.60 0.2153
748.70 0.2152
748.80 0.2151
748.90 0.215
749.00 0.2149
749.10 0.2147
749.20 0.2146
749.30 0.2145
749.40 0.2144
749.50 0.2143
749.60 0.2142
749.70 0.2141
749.80 0.214
749.90 0.2138
750.00 0.2137
750.10 0.2136
750.20 0.2135
750.30 0.2134
750.40 0.2133
750.50 0.2132
750.60 0.2131
750.70 0.213
750.80 0.2129
750.90 0.2128
751.00 0.2126
751.10 0.2125
751.20 0.2124
751.30 0.2123
751.40 0.2122
751.50 0.2121
751.60 0.212
751.70 0.2119
751.80 0.2118
751.90 0.2117
752.00 0.2116
752.10 0.2115
752.20 0.2113
752.30 0.2112
752.40 0.2111
752.50 0.211
752.60 0.2109
752.70 0.2108
752.80 0.2107
752.90 0.2106
753.00 0.2105
753.10 0.2104
753.20 0.2103
753.30 0.2102
753.40 0.2101
753.50 0.2099
753.60 0.2098
753.70 0.2097
753.80 0.2096
753.90 0.2095
754.00 0.2094
754.10 0.2093
754.20 0.2092
754.30 0.2091
754.40 0.209
754.50 0.2089
754.60 0.2088
754.70 0.2087
754.80 0.2085
754.90 0.2084
755.00 0.2083
755.10 0.2082
755.20 0.2081
755.30 0.208
755.40 0.2079
755.50 0.2078
755.60 0.2077
755.70 0.2076
755.80 0.2075
755.90 0.2074
756.00 0.2073
756.10 0.2072
756.20 0.2071
756.30 0.207
756.40 0.2068
756.50 0.2067
756.60 0.2066
756.70 0.2065
756.80 0.2064
756.90 0.2063
757.00 0.2062
757.10 0.2061
757.20 0.206
757.30 0.2059
757.40 0.2058
757.50 0.2057
757.60 0.2056
757.70 0.2055
757.80 0.2054
757.90 0.2053
758.00 0.2052
758.10 0.205
758.20 0.2049
758.30 0.2048
758.40 0.2047
758.50 0.2046
758.60 0.2045
758.70 0.2044
758.80 0.2043
758.90 0.2042
759.00 0.2041
759.10 0.204
759.20 0.2039
759.30 0.2038
759.40 0.2037
759.50 0.2036
759.60 0.2035
759.70 0.2034
759.80 0.2033
759.90 0.2032
760.00 0.2031
760.10 0.203
760.20 0.2029
760.30 0.2027
760.40 0.2026
760.50 0.2025
760.60 0.2024
760.70 0.2023
760.80 0.2022
760.90 0.2021
761.00 0.202
761.10 0.2019
761.20 0.2018
761.30 0.2017
761.40 0.2016
761.50 0.2015
761.60 0.2014
761.70 0.2013
761.80 0.2012
761.90 0.2011
762.00 0.201
762.10 0.2009
762.20 0.2008
762.30 0.2007
762.40 0.2006
762.50 0.2005
762.60 0.2004
762.70 0.2003
762.80 0.2002
762.90 0.2001
763.00 0.2
763.10 0.1999
763.20 0.1998
763.30 0.1997
763.40 0.1996
763.50 0.1995
763.60 0.1994
763.70 0.1993
763.80 0.1992
763.90 0.1991
764.00 0.199
764.10 0.1989
764.20 0.1988
764.30 0.1987
764.40 0.1986
764.50 0.1985
764.60 0.1984
764.70 0.1983
764.80 0.1982
764.90 0.1981
765.00 0.198
765.10 0.1979
765.20 0.1978
765.30 0.1977
765.40 0.1976
765.50 0.1975
765.60 0.1974
765.70 0.1973
765.80 0.1972
765.90 0.1971
766.00 0.197
766.10 0.1969
766.20 0.1968
766.30 0.1967
766.40 0.1966
766.50 0.1965
766.60 0.1964
766.70 0.1963
766.80 0.1962
766.90 0.1961
767.00 0.196
767.10 0.1959
767.20 0.1958
767.30 0.1957
767.40 0.1956
767.50 0.1955
767.60 0.1954
767.70 0.1953
767.80 0.1952
767.90 0.1951
768.00 0.195
768.10 0.1949
768.20 0.1948
768.30 0.1947
768.40 0.1946
768.50 0.1945
768.60 0.1944
768.70 0.1943
768.80 0.1942
768.90 0.1941
769.00 0.194
769.10 0.1939
769.20 0.1938
769.30 0.1937
769.40 0.1936
769.50 0.1935
769.60 0.1934
769.70 0.1933
769.80 0.1932
769.90 0.1931
770.00 0.193
770.10 0.1929
770.20 0.1928
770.30 0.1927
770.40 0.1926
770.50 0.1926
770.60 0.1925
770.70 0.1924
770.80 0.1923
770.90 0.1922
771.00 0.1921
771.10 0.192
771.20 0.1919
771.30 0.1918
771.40 0.1917
771.50 0.1916
771.60 0.1915
771.70 0.1914
771.80 0.1913
771.90 0.1912
772.00 0.1911
772.10 0.191
772.20 0.1909
772.30 0.1908
772.40 0.1907
772.50 0.1906
772.60 0.1905
772.70 0.1904
772.80 0.1904
772.90 0.1903
773.00 0.1902
773.10 0.1901
773.20 0.19
773.30 0.1899
773.40 0.1898
773.50 0.1897
773.60 0.1896
773.70 0.1895
773.80 0.1894
773.90 0.1893
774.00 0.1892
774.10 0.1891
774.20 0.189
774.30 0.1889
774.40 0.1888
774.50 0.1887
774.60 0.1886
774.70 0.1886
774.80 0.1885
774.90 0.1884
775.00 0.1883
775.10 0.1882
775.20 0.1881
775.30 0.188
775.40 0.1879
775.50 0.1878
775.60 0.1877
775.70 0.1876
775.80 0.1875
775.90 0.1874
776.00 0.1873
776.10 0.1872
776.20 0.1871
776.30 0.1871
776.40 0.187
776.50 0.1869
776.60 0.1868
776.70 0.1867
776.80 0.1866
776.90 0.1865
777.00 0.1864
777.10 0.1863
777.20 0.1862
777.30 0.1861
777.40 0.186
777.50 0.1859
777.60 0.1858
777.70 0.1857
777.80 0.1857
777.90 0.1856
778.00 0.1855
778.10 0.1854
778.20 0.1853
778.30 0.1852
778.40 0.1851
778.50 0.185
778.60 0.1849
778.70 0.1848
778.80 0.1847
778.90 0.1846
779.00 0.1845
779.10 0.1844
779.20 0.1844
779.30 0.1843
779.40 0.1842
779.50 0.1841
779.60 0.184
779.70 0.1839
779.80 0.1838
779.90 0.1837
780.00 0.1836
780.10 0.1835
780.20 0.1834
780.30 0.1833
780.40 0.1833
780.50 0.1832
780.60 0.1831
780.70 0.183
780.80 0.1829
780.90 0.1828
781.00 0.1827
781.10 0.1826
781.20 0.1825
781.30 0.1824
781.40 0.1824
781.50 0.1823
781.60 0.1822
781.70 0.1821
781.80 0.182
781.90 0.1819
782.00 0.1818
782.10 0.1817
782.20 0.1816
782.30 0.1815
782.40 0.1815
782.50 0.1814
782.60 0.1813
782.70 0.1812
782.80 0.1811
782.90 0.181
783.00 0.1809
783.10 0.1808
783.20 0.1807
783.30 0.1807
783.40 0.1806
783.50 0.1805
783.60 0.1804
783.70 0.1803
783.80 0.1802
783.90 0.1801
784.00 0.18
784.10 0.1799
784.20 0.1799
784.30 0.1798
784.40 0.1797
784.50 0.1796
784.60 0.1795
784.70 0.1794
784.80 0.1793
784.90 0.1792
785.00 0.1791
785.10 0.1791
785.20 0.179
785.30 0.1789
785.40 0.1788
785.50 0.1787
785.60 0.1786
785.70 0.1785
785.80 0.1784
785.90 0.1784
786.00 0.1783
786.10 0.1782
786.20 0.1781
786.30 0.178
786.40 0.1779
786.50 0.1778
786.60 0.1777
786.70 0.1776
786.80 0.1776
786.90 0.1775
787.00 0.1774
787.10 0.1773
787.20 0.1772
787.30 0.1771
787.40 0.177
787.50 0.1769
787.60 0.1769
787.70 0.1768
787.80 0.1767
787.90 0.1766
788.00 0.1765
788.10 0.1764
788.20 0.1763
788.30 0.1762
788.40 0.1762
788.50 0.1761
788.60 0.176
788.70 0.1759
788.80 0.1758
788.90 0.1757
789.00 0.1756
789.10 0.1756
789.20 0.1755
789.30 0.1754
789.40 0.1753
789.50 0.1752
789.60 0.1751
789.70 0.175
789.80 0.1749
789.90 0.1749
790.00 0.1748
790.10 0.1747
790.20 0.1746
790.30 0.1745
790.40 0.1744
790.50 0.1743
790.60 0.1743
790.70 0.1742
790.80 0.1741
790.90 0.174
791.00 0.1739
791.10 0.1738
791.20 0.1738
791.30 0.1737
791.40 0.1736
791.50 0.1735
791.60 0.1734
791.70 0.1733
791.80 0.1732
791.90 0.1732
792.00 0.1731
792.10 0.173
792.20 0.1729
792.30 0.1728
792.40 0.1727
792.50 0.1727
792.60 0.1726
792.70 0.1725
792.80 0.1724
792.90 0.1723
793.00 0.1722
793.10 0.1722
793.20 0.1721
793.30 0.172
793.40 0.1719
793.50 0.1718
793.60 0.1717
793.70 0.1717
793.80 0.1716
793.90 0.1715
794.00 0.1714
794.10 0.1713
794.20 0.1712
794.30 0.1711
794.40 0.1711
794.50 0.171
794.60 0.1709
794.70 0.1708
794.80 0.1707
794.90 0.1706
795.00 0.1706
795.10 0.1705
795.20 0.1704
795.30 0.1703
795.40 0.1702
795.50 0.1702
795.60 0.1701
795.70 0.17
795.80 0.1699
795.90 0.1698
796.00 0.1697
796.10 0.1697
796.20 0.1696
796.30 0.1695
796.40 0.1694
796.50 0.1693
796.60 0.1692
796.70 0.1692
796.80 0.1691
796.90 0.169
797.00 0.1689
797.10 0.1688
797.20 0.1687
797.30 0.1687
797.40 0.1686
797.50 0.1685
797.60 0.1684
797.70 0.1683
797.80 0.1683
797.90 0.1682
798.00 0.1681
798.10 0.168
798.20 0.1679
798.30 0.1678
798.40 0.1678
798.50 0.1677
798.60 0.1676
798.70 0.1675
798.80 0.1674
798.90 0.1673
799.00 0.1673
799.10 0.1672
799.20 0.1671
799.30 0.167
799.40 0.1669
799.50 0.1669
799.60 0.1668
799.70 0.1667
799.80 0.1666
799.90 0.1665
800.00 0.1665
800.10 0.1664
800.20 0.1663
800.30 0.1662
800.40 0.1661
800.50 0.1661
800.60 0.166
800.70 0.1659
800.80 0.1658
800.90 0.1657
801.00 0.1657
801.10 0.1656
801.20 0.1655
801.30 0.1654
801.40 0.1653
801.50 0.1653
801.60 0.1652
801.70 0.1651
801.80 0.165
801.90 0.1649
802.00 0.1649
802.10 0.1648
802.20 0.1647
802.30 0.1646
802.40 0.1645
802.50 0.1645
802.60 0.1644
802.70 0.1643
802.80 0.1642
802.90 0.1641
803.00 0.1641
803.10 0.164
803.20 0.1639
803.30 0.1638
803.40 0.1638
803.50 0.1637
803.60 0.1636
803.70 0.1635
803.80 0.1634
803.90 0.1634
804.00 0.1633
804.10 0.1632
804.20 0.1631
804.30 0.163
804.40 0.163
804.50 0.1629
804.60 0.1628
804.70 0.1627
804.80 0.1627
804.90 0.1626
805.00 0.1625
805.10 0.1624
805.20 0.1623
805.30 0.1623
805.40 0.1622
805.50 0.1621
805.60 0.162
805.70 0.1619
805.80 0.1619
805.90 0.1618
806.00 0.1617
806.10 0.1616
806.20 0.1616
806.30 0.1615
806.40 0.1614
806.50 0.1613
806.60 0.1612
806.70 0.1612
806.80 0.1611
806.90 0.161
807.00 0.1609
807.10 0.1609
807.20 0.1608
807.30 0.1607
807.40 0.1606
807.50 0.1605
807.60 0.1605
807.70 0.1604
807.80 0.1603
807.90 0.1602
808.00 0.1602
808.10 0.1601
808.20 0.16
808.30 0.1599
808.40 0.1599
808.50 0.1598
808.60 0.1597
808.70 0.1596
808.80 0.1595
808.90 0.1595
809.00 0.1594
809.10 0.1593
809.20 0.1592
809.30 0.1592
809.40 0.1591
809.50 0.159
809.60 0.1589
809.70 0.1589
809.80 0.1588
809.90 0.1587
810.00 0.1586
810.10 0.1585
810.20 0.1585
810.30 0.1584
810.40 0.1583
810.50 0.1582
810.60 0.1582
810.70 0.1581
810.80 0.158
810.90 0.1579
811.00 0.1579
811.10 0.1578
811.20 0.1577
811.30 0.1576
811.40 0.1576
811.50 0.1575
811.60 0.1574
811.70 0.1573
811.80 0.1573
811.90 0.1572
812.00 0.1571
812.10 0.157
812.20 0.157
812.30 0.1569
812.40 0.1568
812.50 0.1567
812.60 0.1567
812.70 0.1566
812.80 0.1565
812.90 0.1565
813.00 0.1564
813.10 0.1563
813.20 0.1562
813.30 0.1562
813.40 0.1561
813.50 0.156
813.60 0.1559
813.70 0.1559
813.80 0.1558
813.90 0.1557
814.00 0.1556
814.10 0.1556
814.20 0.1555
814.30 0.1554
814.40 0.1553
814.50 0.1553
814.60 0.1552
814.70 0.1551
814.80 0.155
814.90 0.155
815.00 0.1549
815.10 0.1548
815.20 0.1547
815.30 0.1547
815.40 0.1546
815.50 0.1545
815.60 0.1545
815.70 0.1544
815.80 0.1543
815.90 0.1542
816.00 0.1542
816.10 0.1541
816.20 0.154
816.30 0.1539
816.40 0.1539
816.50 0.1538
816.60 0.1537
816.70 0.1536
816.80 0.1536
816.90 0.1535
817.00 0.1534
817.10 0.1534
817.20 0.1533
817.30 0.1532
817.40 0.1531
817.50 0.1531
817.60 0.153
817.70 0.1529
817.80 0.1528
817.90 0.1528
818.00 0.1527
818.10 0.1526
818.20 0.1526
818.30 0.1525
818.40 0.1524
818.50 0.1523
818.60 0.1523
818.70 0.1522
818.80 0.1521
818.90 0.152
819.00 0.152
819.10 0.1519
819.20 0.1518
819.30 0.1518
819.40 0.1517
819.50 0.1516
819.60 0.1515
819.70 0.1515
819.80 0.1514
819.90 0.1513
820.00 0.1512
820.10 0.1512
820.20 0.1511
820.30 0.151
820.40 0.151
820.50 0.1509
820.60 0.1508
820.70 0.1507
820.80 0.1507
820.90 0.1506
821.00 0.1505
821.10 0.1505
821.20 0.1504
821.30 0.1503
821.40 0.1503
821.50 0.1502
821.60 0.1501
821.70 0.15
821.80 0.15
821.90 0.1499
822.00 0.1498
822.10 0.1498
822.20 0.1497
822.30 0.1496
822.40 0.1495
822.50 0.1495
822.60 0.1494
822.70 0.1493
822.80 0.1493
822.90 0.1492
823.00 0.1491
823.10 0.1491
823.20 0.149
823.30 0.1489
823.40 0.1488
823.50 0.1488
823.60 0.1487
823.70 0.1486
823.80 0.1486
823.90 0.1485
824.00 0.1484
824.10 0.1484
824.20 0.1483
824.30 0.1482
824.40 0.1481
824.50 0.1481
824.60 0.148
824.70 0.1479
824.80 0.1479
824.90 0.1478
825.00 0.1477
825.10 0.1477
825.20 0.1476
825.30 0.1475
825.40 0.1474
825.50 0.1474
825.60 0.1473
825.70 0.1472
825.80 0.1472
825.90 0.1471
826.00 0.147
826.10 0.147
826.20 0.1469
826.30 0.1468
826.40 0.1468
826.50 0.1467
826.60 0.1466
826.70 0.1465
826.80 0.1465
826.90 0.1464
827.00 0.1463
827.10 0.1463
827.20 0.1462
827.30 0.1461
827.40 0.1461
827.50 0.146
827.60 0.1459
827.70 0.1459
827.80 0.1458
827.90 0.1457
828.00 0.1457
828.10 0.1456
828.20 0.1455
828.30 0.1455
828.40 0.1454
828.50 0.1453
828.60 0.1452
828.70 0.1452
828.80 0.1451
828.90 0.145
829.00 0.145
829.10 0.1449
829.20 0.1448
829.30 0.1448
829.40 0.1447
829.50 0.1446
829.60 0.1446
829.70 0.1445
829.80 0.1444
829.90 0.1444
830.00 0.1443
830.10 0.1442
830.20 0.1442
830.30 0.1441
830.40 0.144
830.50 0.144
830.60 0.1439
830.70 0.1438
830.80 0.1438
830.90 0.1437
831.00 0.1436
831.10 0.1436
831.20 0.1435
831.30 0.1434
831.40 0.1434
831.50 0.1433
831.60 0.1432
831.70 0.1432
831.80 0.1431
831.90 0.143
832.00 0.143
832.10 0.1429
832.20 0.1428
832.30 0.1428
832.40 0.1427
832.50 0.1426
832.60 0.1426
832.70 0.1425
832.80 0.1424
832.90 0.1424
833.00 0.1423
833.10 0.1422
833.20 0.1422
833.30 0.1421
833.40 0.142
833.50 0.142
833.60 0.1419
833.70 0.1418
833.80 0.1418
833.90 0.1417
834.00 0.1416
834.10 0.1416
834.20 0.1415
834.30 0.1414
834.40 0.1414
834.50 0.1413
834.60 0.1412
834.70 0.1412
834.80 0.1411
834.90 0.141
835.00 0.141
835.10 0.1409
835.20 0.1408
835.30 0.1408
835.40 0.1407
835.50 0.1406
835.60 0.1406
835.70 0.1405
835.80 0.1404
835.90 0.1404
836.00 0.1403
836.10 0.1402
836.20 0.1402
836.30 0.1401
836.40 0.1401
836.50 0.14
836.60 0.1399
836.70 0.1399
836.80 0.1398
836.90 0.1397
837.00 0.1397
837.10 0.1396
837.20 0.1395
837.30 0.1395
837.40 0.1394
837.50 0.1393
837.60 0.1393
837.70 0.1392
837.80 0.1391
837.90 0.1391
838.00 0.139
838.10 0.139
838.20 0.1389
838.30 0.1388
838.40 0.1388
838.50 0.1387
838.60 0.1386
838.70 0.1386
838.80 0.1385
838.90 0.1384
839.00 0.1384
839.10 0.1383
839.20 0.1382
839.30 0.1382
839.40 0.1381
839.50 0.1381
839.60 0.138
839.70 0.1379
839.80 0.1379
839.90 0.1378
840.00 0.1377
840.10 0.1377
840.20 0.1376
840.30 0.1375
840.40 0.1375
840.50 0.1374
840.60 0.1373
840.70 0.1373
840.80 0.1372
840.90 0.1372
841.00 0.1371
841.10 0.137
841.20 0.137
841.30 0.1369
841.40 0.1368
841.50 0.1368
841.60 0.1367
841.70 0.1366
841.80 0.1366
841.90 0.1365
842.00 0.1365
842.10 0.1364
842.20 0.1363
842.30 0.1363
842.40 0.1362
842.50 0.1361
842.60 0.1361
842.70 0.136
842.80 0.136
842.90 0.1359
843.00 0.1358
843.10 0.1358
843.20 0.1357
843.30 0.1356
843.40 0.1356
843.50 0.1355
843.60 0.1355
843.70 0.1354
843.80 0.1353
843.90 0.1353
844.00 0.1352
844.10 0.1351
844.20 0.1351
844.30 0.135
844.40 0.135
844.50 0.1349
844.60 0.1348
844.70 0.1348
844.80 0.1347
844.90 0.1346
845.00 0.1346
845.10 0.1345
845.20 0.1345
845.30 0.1344
845.40 0.1343
845.50 0.1343
845.60 0.1342
845.70 0.1341
845.80 0.1341
845.90 0.134
846.00 0.134
846.10 0.1339
846.20 0.1338
846.30 0.1338
846.40 0.1337
846.50 0.1336
846.60 0.1336
846.70 0.1335
846.80 0.1335
846.90 0.1334
847.00 0.1333
847.10 0.1333
847.20 0.1332
847.30 0.1332
847.40 0.1331
847.50 0.133
847.60 0.133
847.70 0.1329
847.80 0.1328
847.90 0.1328
848.00 0.1327
848.10 0.1327
848.20 0.1326
848.30 0.1325
848.40 0.1325
848.50 0.1324
848.60 0.1324
848.70 0.1323
848.80 0.1322
848.90 0.1322
849.00 0.1321
849.10 0.1321
849.20 0.132
849.30 0.1319
849.40 0.1319
849.50 0.1318
849.60 0.1318
849.70 0.1317
849.80 0.1316
849.90 0.1316
850.00 0.1315
850.10 0.1314
850.20 0.1314
850.30 0.1313
850.40 0.1313
850.50 0.1312
850.60 0.1311
850.70 0.1311
850.80 0.131
850.90 0.131
851.00 0.1309
851.10 0.1308
851.20 0.1308
851.30 0.1307
851.40 0.1307
851.50 0.1306
851.60 0.1305
851.70 0.1305
851.80 0.1304
851.90 0.1304
852.00 0.1303
852.10 0.1302
852.20 0.1302
852.30 0.1301
852.40 0.1301
852.50 0.13
852.60 0.1299
852.70 0.1299
852.80 0.1298
852.90 0.1298
853.00 0.1297
853.10 0.1296
853.20 0.1296
853.30 0.1295
853.40 0.1295
853.50 0.1294
853.60 0.1294
853.70 0.1293
853.80 0.1292
853.90 0.1292
854.00 0.1291
854.10 0.1291
854.20 0.129
854.30 0.1289
854.40 0.1289
854.50 0.1288
854.60 0.1288
854.70 0.1287
854.80 0.1286
854.90 0.1286
855.00 0.1285
855.10 0.1285
855.20 0.1284
855.30 0.1283
855.40 0.1283
855.50 0.1282
855.60 0.1282
855.70 0.1281
855.80 0.1281
855.90 0.128
856.00 0.1279
856.10 0.1279
856.20 0.1278
856.30 0.1278
856.40 0.1277
856.50 0.1276
856.60 0.1276
856.70 0.1275
856.80 0.1275
856.90 0.1274
857.00 0.1274
857.10 0.1273
857.20 0.1272
857.30 0.1272
857.40 0.1271
857.50 0.1271
857.60 0.127
857.70 0.127
857.80 0.1269
857.90 0.1268
858.00 0.1268
858.10 0.1267
858.20 0.1267
858.30 0.1266
858.40 0.1266
858.50 0.1265
858.60 0.1264
858.70 0.1264
858.80 0.1263
858.90 0.1263
859.00 0.1262
859.10 0.1262
859.20 0.1261
859.30 0.1261
859.40 0.126
859.50 0.1259
859.60 0.1259
859.70 0.1258
859.80 0.1258
859.90 0.1257
860.00 0.1257
860.10 0.1256
860.20 0.1255
860.30 0.1255
860.40 0.1254
860.50 0.1254
860.60 0.1253
860.70 0.1253
860.80 0.1252
860.90 0.1252
861.00 0.1251
861.10 0.125
861.20 0.125
861.30 0.1249
861.40 0.1249
861.50 0.1248
861.60 0.1248
861.70 0.1247
861.80 0.1246
861.90 0.1246
862.00 0.1245
862.10 0.1245
862.20 0.1244
862.30 0.1244
862.40 0.1243
862.50 0.1243
862.60 0.1242
862.70 0.1241
862.80 0.1241
862.90 0.124
863.00 0.124
863.10 0.1239
863.20 0.1239
863.30 0.1238
863.40 0.1237
863.50 0.1237
863.60 0.1236
863.70 0.1236
863.80 0.1235
863.90 0.1235
864.00 0.1234
864.10 0.1234
864.20 0.1233
864.30 0.1232
864.40 0.1232
864.50 0.1231
864.60 0.1231
864.70 0.123
864.80 0.123
864.90 0.1229
865.00 0.1229
865.10 0.1228
865.20 0.1227
865.30 0.1227
865.40 0.1226
865.50 0.1226
865.60 0.1225
865.70 0.1225
865.80 0.1224
865.90 0.1224
866.00 0.1223
866.10 0.1222
866.20 0.1222
866.30 0.1221
866.40 0.1221
866.50 0.122
866.60 0.122
866.70 0.1219
866.80 0.1219
866.90 0.1218
867.00 0.1217
867.10 0.1217
867.20 0.1216
867.30 0.1216
867.40 0.1215
867.50 0.1215
867.60 0.1214
867.70 0.1214
867.80 0.1213
867.90 0.1213
868.00 0.1212
868.10 0.1211
868.20 0.1211
868.30 0.121
868.40 0.121
868.50 0.1209
868.60 0.1209
868.70 0.1208
868.80 0.1208
868.90 0.1207
869.00 0.1207
869.10 0.1206
869.20 0.1205
869.30 0.1205
869.40 0.1204
869.50 0.1204
869.60 0.1203
869.70 0.1203
869.80 0.1202
869.90 0.1202
870.00 0.1201
870.10 0.1201
870.20 0.12
870.30 0.12
870.40 0.1199
870.50 0.1198
870.60 0.1198
870.70 0.1197
870.80 0.1197
870.90 0.1196
871.00 0.1196
871.10 0.1195
871.20 0.1195
871.30 0.1194
871.40 0.1194
871.50 0.1193
871.60 0.1193
871.70 0.1192
871.80 0.1192
871.90 0.1191
872.00 0.119
872.10 0.119
872.20 0.1189
872.30 0.1189
872.40 0.1188
872.50 0.1188
872.60 0.1187
872.70 0.1187
872.80 0.1186
872.90 0.1186
873.00 0.1185
873.10 0.1185
873.20 0.1184
873.30 0.1184
873.40 0.1183
873.50 0.1182
873.60 0.1182
873.70 0.1181
873.80 0.1181
873.90 0.118
874.00 0.118
874.10 0.1179
874.20 0.1179
874.30 0.1178
874.40 0.1178
874.50 0.1177
874.60 0.1177
874.70 0.1176
874.80 0.1176
874.90 0.1175
875.00 0.1175
875.10 0.1174
875.20 0.1174
875.30 0.1173
875.40 0.1172
875.50 0.1172
875.60 0.1171
875.70 0.1171
875.80 0.117
875.90 0.117
876.00 0.1169
876.10 0.1169
876.20 0.1168
876.30 0.1168
876.40 0.1167
876.50 0.1167
876.60 0.1166
876.70 0.1166
876.80 0.1165
876.90 0.1165
877.00 0.1164
877.10 0.1164
877.20 0.1163
877.30 0.1163
877.40 0.1162
877.50 0.1162
877.60 0.1161
877.70 0.116
877.80 0.116
877.90 0.1159
878.00 0.1159
878.10 0.1158
878.20 0.1158
878.30 0.1157
878.40 0.1157
878.50 0.1156
878.60 0.1156
878.70 0.1155
878.80 0.1155
878.90 0.1154
879.00 0.1154
879.10 0.1153
879.20 0.1153
879.30 0.1152
879.40 0.1152
879.50 0.1151
879.60 0.1151
879.70 0.115
879.80 0.115
879.90 0.1149
880.00 0.1149
880.10 0.1148
880.20 0.1148
880.30 0.1147
880.40 0.1147
880.50 0.1146
880.60 0.1146
880.70 0.1145
880.80 0.1145
880.90 0.1144
881.00 0.1144
881.10 0.1143
881.20 0.1143
881.30 0.1142
881.40 0.1142
881.50 0.1141
881.60 0.1141
881.70 0.114
881.80 0.114
881.90 0.1139
882.00 0.1139
882.10 0.1138
882.20 0.1138
882.30 0.1137
882.40 0.1137
882.50 0.1136
882.60 0.1136
882.70 0.1135
882.80 0.1135
882.90 0.1134
883.00 0.1134
883.10 0.1133
883.20 0.1133
883.30 0.1132
883.40 0.1132
883.50 0.1131
883.60 0.1131
883.70 0.113
883.80 0.113
883.90 0.1129
884.00 0.1129
884.10 0.1128
884.20 0.1128
884.30 0.1127
884.40 0.1127
884.50 0.1126
884.60 0.1126
884.70 0.1125
884.80 0.1125
884.90 0.1124
885.00 0.1124
885.10 0.1123
885.20 0.1123
885.30 0.1122
885.40 0.1122
885.50 0.1121
885.60 0.1121
885.70 0.112
885.80 0.112
885.90 0.1119
886.00 0.1119
886.10 0.1118
886.20 0.1118
886.30 0.1117
886.40 0.1117
886.50 0.1116
886.60 0.1116
886.70 0.1115
886.80 0.1115
886.90 0.1114
887.00 0.1114
887.10 0.1113
887.20 0.1113
887.30 0.1112
887.40 0.1112
887.50 0.1111
887.60 0.1111
887.70 0.111
887.80 0.111
887.90 0.1109
888.00 0.1109
888.10 0.1108
888.20 0.1108
888.30 0.1107
888.40 0.1107
888.50 0.1106
888.60 0.1106
888.70 0.1105
888.80 0.1105
888.90 0.1104
889.00 0.1104
889.10 0.1104
889.20 0.1103
889.30 0.1103
889.40 0.1102
889.50 0.1102
889.60 0.1101
889.70 0.1101
889.80 0.11
889.90 0.11
890.00 0.1099
890.10 0.1099
890.20 0.1098
890.30 0.1098
890.40 0.1097
890.50 0.1097
890.60 0.1096
890.70 0.1096
890.80 0.1095
890.90 0.1095
891.00 0.1094
891.10 0.1094
891.20 0.1093
891.30 0.1093
891.40 0.1092
891.50 0.1092
891.60 0.1091
891.70 0.1091
891.80 0.1091
891.90 0.109
892.00 0.109
892.10 0.1089
892.20 0.1089
892.30 0.1088
892.40 0.1088
892.50 0.1087
892.60 0.1087
892.70 0.1086
892.80 0.1086
892.90 0.1085
893.00 0.1085
893.10 0.1084
893.20 0.1084
893.30 0.1083
893.40 0.1083
893.50 0.1082
893.60 0.1082
893.70 0.1082
893.80 0.1081
893.90 0.1081
894.00 0.108
894.10 0.108
894.20 0.1079
894.30 0.1079
894.40 0.1078
894.50 0.1078
894.60 0.1077
894.70 0.1077
894.80 0.1076
894.90 0.1076
895.00 0.1075
895.10 0.1075
895.20 0.1075
895.30 0.1074
895.40 0.1074
895.50 0.1073
895.60 0.1073
895.70 0.1072
895.80 0.1072
895.90 0.1071
896.00 0.1071
896.10 0.107
896.20 0.107
896.30 0.1069
896.40 0.1069
896.50 0.1068
896.60 0.1068
896.70 0.1068
896.80 0.1067
896.90 0.1067
897.00 0.1066
897.10 0.1066
897.20 0.1065
897.30 0.1065
897.40 0.1064
897.50 0.1064
897.60 0.1063
897.70 0.1063
897.80 0.1062
897.90 0.1062
898.00 0.1062
898.10 0.1061
898.20 0.1061
898.30 0.106
898.40 0.106
898.50 0.1059
898.60 0.1059
898.70 0.1058
898.80 0.1058
898.90 0.1057
899.00 0.1057
899.10 0.1056
899.20 0.1056
899.30 0.1056
899.40 0.1055
899.50 0.1055
899.60 0.1054
899.70 0.1054
899.80 0.1053
899.90 0.1053
900.00 0.1052
900.10 0.1052
900.20 0.1051
900.30 0.1051
900.40 0.1051
900.50 0.105
900.60 0.105
900.70 0.1049
900.80 0.1049
900.90 0.1048
901.00 0.1048
901.10 0.1047
901.20 0.1047
901.30 0.1046
901.40 0.1046
901.50 0.1046
901.60 0.1045
901.70 0.1045
901.80 0.1044
901.90 0.1044
902.00 0.1043
902.10 0.1043
902.20 0.1042
902.30 0.1042
902.40 0.1041
902.50 0.1041
902.60 0.1041
902.70 0.104
902.80 0.104
902.90 0.1039
903.00 0.1039
903.10 0.1038
903.20 0.1038
903.30 0.1037
903.40 0.1037
903.50 0.1037
903.60 0.1036
903.70 0.1036
903.80 0.1035
903.90 0.1035
904.00 0.1034
904.10 0.1034
904.20 0.1033
904.30 0.1033
904.40 0.1033
904.50 0.1032
904.60 0.1032
904.70 0.1031
904.80 0.1031
904.90 0.103
905.00 0.103
905.10 0.1029
905.20 0.1029
905.30 0.1029
905.40 0.1028
905.50 0.1028
905.60 0.1027
905.70 0.1027
905.80 0.1026
905.90 0.1026
906.00 0.1025
906.10 0.1025
906.20 0.1025
906.30 0.1024
906.40 0.1024
906.50 0.1023
906.60 0.1023
906.70 0.1022
906.80 0.1022
906.90 0.1022
907.00 0.1021
907.10 0.1021
907.20 0.102
907.30 0.102
907.40 0.1019
907.50 0.1019
907.60 0.1018
907.70 0.1018
907.80 0.1018
907.90 0.1017
908.00 0.1017
908.10 0.1016
908.20 0.1016
908.30 0.1015
908.40 0.1015
908.50 0.1015
908.60 0.1014
908.70 0.1014
908.80 0.1013
908.90 0.1013
909.00 0.1012
909.10 0.1012
909.20 0.1012
909.30 0.1011
909.40 0.1011
909.50 0.101
909.60 0.101
909.70 0.1009
909.80 0.1009
909.90 0.1009
910.00 0.1008
910.10 0.1008
910.20 0.1007
910.30 0.1007
910.40 0.1006
910.50 0.1006
910.60 0.1006
910.70 0.1005
910.80 0.1005
910.90 0.1004
911.00 0.1004
911.10 0.1003
911.20 0.1003
911.30 0.1002
911.40 0.1002
911.50 0.1002
911.60 0.1001
911.70 0.1001
911.80 0.1
911.90 0.09999
912.00 0.09995
912.10 0.09991
912.20 0.09987
912.30 0.09982
912.40 0.09978
912.50 0.09974
912.60 0.0997
912.70 0.09965
912.80 0.09961
912.90 0.09957
913.00 0.09953
913.10 0.09948
913.20 0.09944
913.30 0.0994
913.40 0.09936
913.50 0.09932
913.60 0.09927
913.70 0.09923
913.80 0.09919
913.90 0.09915
914.00 0.09911
914.10 0.09906
914.20 0.09902
914.30 0.09898
914.40 0.09894
914.50 0.09889
914.60 0.09885
914.70 0.09881
914.80 0.09877
914.90 0.09873
915.00 0.09869
915.10 0.09864
915.20 0.0986
915.30 0.09856
915.40 0.09852
915.50 0.09848
915.60 0.09843
915.70 0.09839
915.80 0.09835
915.90 0.09831
916.00 0.09827
916.10 0.09822
916.20 0.09818
916.30 0.09814
916.40 0.0981
916.50 0.09806
916.60 0.09802
916.70 0.09797
916.80 0.09793
916.90 0.09789
917.00 0.09785
917.10 0.09781
917.20 0.09777
917.30 0.09773
917.40 0.09769
917.50 0.09764
917.60 0.0976
917.70 0.09756
917.80 0.09752
917.90 0.09748
918.00 0.09744
918.10 0.0974
918.20 0.09736
918.30 0.09732
918.40 0.09727
918.50 0.09723
918.60 0.09719
918.70 0.09715
918.80 0.09711
918.90 0.09707
919.00 0.09703
919.10 0.09699
919.20 0.09695
919.30 0.09691
919.40 0.09687
919.50 0.09682
919.60 0.09678
919.70 0.09674
919.80 0.0967
919.90 0.09666
920.00 0.09662
920.10 0.09658
920.20 0.09654
920.30 0.0965
920.40 0.09646
920.50 0.09642
920.60 0.09638
920.70 0.09634
920.80 0.0963
920.90 0.09625
921.00 0.09621
921.10 0.09617
921.20 0.09613
921.30 0.09609
921.40 0.09605
921.50 0.09601
921.60 0.09597
921.70 0.09593
921.80 0.09589
921.90 0.09585
922.00 0.09581
922.10 0.09577
922.20 0.09573
922.30 0.09569
922.40 0.09565
922.50 0.09561
922.60 0.09557
922.70 0.09553
922.80 0.09549
922.90 0.09545
923.00 0.09541
923.10 0.09537
923.20 0.09533
923.30 0.09529
923.40 0.09525
923.50 0.09521
923.60 0.09517
923.70 0.09513
923.80 0.09509
923.90 0.09505
924.00 0.09501
924.10 0.09497
924.20 0.09493
924.30 0.09489
924.40 0.09485
924.50 0.09481
924.60 0.09477
924.70 0.09473
924.80 0.09469
924.90 0.09465
925.00 0.09461
925.10 0.09457
925.20 0.09453
925.30 0.09449
925.40 0.09445
925.50 0.09441
925.60 0.09437
925.70 0.09433
925.80 0.09429
925.90 0.09426
926.00 0.09422
926.10 0.09418
926.20 0.09414
926.30 0.0941
926.40 0.09406
926.50 0.09402
926.60 0.09398
926.70 0.09394
926.80 0.0939
926.90 0.09386
927.00 0.09382
927.10 0.09378
927.20 0.09374
927.30 0.0937
927.40 0.09366
927.50 0.09363
927.60 0.09359
927.70 0.09355
927.80 0.09351
927.90 0.09347
928.00 0.09343
928.10 0.09339
928.20 0.09335
928.30 0.09331
928.40 0.09328
928.50 0.09324
928.60 0.0932
928.70 0.09316
928.80 0.09312
928.90 0.09308
929.00 0.09304
929.10 0.093
929.20 0.09297
929.30 0.09293
929.40 0.09289
929.50 0.09285
929.60 0.09281
929.70 0.09277
929.80 0.09273
929.90 0.09269
930.00 0.09266
930.10 0.09262
930.20 0.09258
930.30 0.09254
930.40 0.0925
930.50 0.09246
930.60 0.09242
930.70 0.09239
930.80 0.09235
930.90 0.09231
931.00 0.09227
931.10 0.09223
931.20 0.09219
931.30 0.09216
931.40 0.09212
931.50 0.09208
931.60 0.09204
931.70 0.092
931.80 0.09196
931.90 0.09193
932.00 0.09189
932.10 0.09185
932.20 0.09181
932.30 0.09177
932.40 0.09173
932.50 0.0917
932.60 0.09166
932.70 0.09162
932.80 0.09158
932.90 0.09154
933.00 0.09151
933.10 0.09147
933.20 0.09143
933.30 0.09139
933.40 0.09135
933.50 0.09132
933.60 0.09128
933.70 0.09124
933.80 0.0912
933.90 0.09117
934.00 0.09113
934.10 0.09109
934.20 0.09105
934.30 0.09101
934.40 0.09098
934.50 0.09094
934.60 0.0909
934.70 0.09086
934.80 0.09083
934.90 0.09079
935.00 0.09075
935.10 0.09071
935.20 0.09068
935.30 0.09064
935.40 0.0906
935.50 0.09056
935.60 0.09052
935.70 0.09049
935.80 0.09045
935.90 0.09041
936.00 0.09037
936.10 0.09034
936.20 0.0903
936.30 0.09026
936.40 0.09023
936.50 0.09019
936.60 0.09015
936.70 0.09011
936.80 0.09008
936.90 0.09004
937.00 0.09
937.10 0.08996
937.20 0.08993
937.30 0.08989
937.40 0.08985
937.50 0.08981
937.60 0.08978
937.70 0.08974
937.80 0.0897
937.90 0.08967
938.00 0.08963
938.10 0.08959
938.20 0.08956
938.30 0.08952
938.40 0.08948
938.50 0.08944
938.60 0.08941
938.70 0.08937
938.80 0.08933
938.90 0.0893
939.00 0.08926
939.10 0.08922
939.20 0.08919
939.30 0.08915
939.40 0.08911
939.50 0.08908
939.60 0.08904
939.70 0.089
939.80 0.08896
939.90 0.08893
940.00 0.08889
940.10 0.08885
940.20 0.08882
940.30 0.08878
940.40 0.08874
940.50 0.08871
940.60 0.08867
940.70 0.08863
940.80 0.0886
940.90 0.08856
941.00 0.08852
941.10 0.08849
941.20 0.08845
941.30 0.08841
941.40 0.08838
941.50 0.08834
941.60 0.08831
941.70 0.08827
941.80 0.08823
941.90 0.0882
942.00 0.08816
942.10 0.08812
942.20 0.08809
942.30 0.08805
942.40 0.08801
942.50 0.08798
942.60 0.08794
942.70 0.08791
942.80 0.08787
942.90 0.08783
943.00 0.0878
943.10 0.08776
943.20 0.08772
943.30 0.08769
943.40 0.08765
943.50 0.08762
943.60 0.08758
943.70 0.08754
943.80 0.08751
943.90 0.08747
944.00 0.08743
944.10 0.0874
944.20 0.08736
944.30 0.08733
944.40 0.08729
944.50 0.08725
944.60 0.08722
944.70 0.08718
944.80 0.08715
944.90 0.08711
945.00 0.08708
945.10 0.08704
945.20 0.087
945.30 0.08697
945.40 0.08693
945.50 0.0869
945.60 0.08686
945.70 0.08682
945.80 0.08679
945.90 0.08675
946.00 0.08672
946.10 0.08668
946.20 0.08665
946.30 0.08661
946.40 0.08657
946.50 0.08654
946.60 0.0865
946.70 0.08647
946.80 0.08643
946.90 0.0864
947.00 0.08636
947.10 0.08633
947.20 0.08629
947.30 0.08625
947.40 0.08622
947.50 0.08618
947.60 0.08615
947.70 0.08611
947.80 0.08608
947.90 0.08604
948.00 0.08601
948.10 0.08597
948.20 0.08594
948.30 0.0859
948.40 0.08587
948.50 0.08583
948.60 0.0858
948.70 0.08576
948.80 0.08572
948.90 0.08569
949.00 0.08565
949.10 0.08562
949.20 0.08558
949.30 0.08555
949.40 0.08551
949.50 0.08548
949.60 0.08544
949.70 0.08541
949.80 0.08537
949.90 0.08534
950.00 0.0853
950.10 0.08527
950.20 0.08523
950.30 0.0852
950.40 0.08517
950.50 0.08513
950.60 0.0851
950.70 0.08506
950.80 0.08503
950.90 0.08499
951.00 0.08496
951.10 0.08492
951.20 0.08489
951.30 0.08485
951.40 0.08482
951.50 0.08478
951.60 0.08475
951.70 0.08471
951.80 0.08468
951.90 0.08464
952.00 0.08461
952.10 0.08458
952.20 0.08454
952.30 0.08451
952.40 0.08447
952.50 0.08444
952.60 0.0844
952.70 0.08437
952.80 0.08434
952.90 0.0843
953.00 0.08427
953.10 0.08423
953.20 0.0842
953.30 0.08416
953.40 0.08413
953.50 0.0841
953.60 0.08406
953.70 0.08403
953.80 0.08399
953.90 0.08396
954.00 0.08393
954.10 0.08389
954.20 0.08386
954.30 0.08383
954.40 0.08379
954.50 0.08376
954.60 0.08372
954.70 0.08369
954.80 0.08366
954.90 0.08362
955.00 0.08359
955.10 0.08355
955.20 0.08352
955.30 0.08349
955.40 0.08345
955.50 0.08342
955.60 0.08339
955.70 0.08335
955.80 0.08332
955.90 0.08329
956.00 0.08325
956.10 0.08322
956.20 0.08318
956.30 0.08315
956.40 0.08312
956.50 0.08308
956.60 0.08305
956.70 0.08302
956.80 0.08298
956.90 0.08295
957.00 0.08292
957.10 0.08288
957.20 0.08285
957.30 0.08282
957.40 0.08278
957.50 0.08275
957.60 0.08272
957.70 0.08269
957.80 0.08265
957.90 0.08262
958.00 0.08259
958.10 0.08255
958.20 0.08252
958.30 0.08249
958.40 0.08245
958.50 0.08242
958.60 0.08239
958.70 0.08236
958.80 0.08232
958.90 0.08229
959.00 0.08226
959.10 0.08222
959.20 0.08219
959.30 0.08216
959.40 0.08213
959.50 0.08209
959.60 0.08206
959.70 0.08203
959.80 0.08199
959.90 0.08196
960.00 0.08193
960.10 0.0819
960.20 0.08186
960.30 0.08183
960.40 0.0818
960.50 0.08177
960.60 0.08173
960.70 0.0817
960.80 0.08167
960.90 0.08164
961.00 0.0816
961.10 0.08157
961.20 0.08154
961.30 0.08151
961.40 0.08147
961.50 0.08144
961.60 0.08141
961.70 0.08138
961.80 0.08134
961.90 0.08131
962.00 0.08128
962.10 0.08125
962.20 0.08121
962.30 0.08118
962.40 0.08115
962.50 0.08112
962.60 0.08109
962.70 0.08105
962.80 0.08102
962.90 0.08099
963.00 0.08096
963.10 0.08092
963.20 0.08089
963.30 0.08086
963.40 0.08083
963.50 0.0808
963.60 0.08076
963.70 0.08073
963.80 0.0807
963.90 0.08067
964.00 0.08063
964.10 0.0806
964.20 0.08057
964.30 0.08054
964.40 0.08051
964.50 0.08047
964.60 0.08044
964.70 0.08041
964.80 0.08038
964.90 0.08035
965.00 0.08031
965.10 0.08028
965.20 0.08025
965.30 0.08022
965.40 0.08019
965.50 0.08016
965.60 0.08012
965.70 0.08009
965.80 0.08006
965.90 0.08003
966.00 0.08
966.10 0.07996
966.20 0.07993
966.30 0.0799
966.40 0.07987
966.50 0.07984
966.60 0.07981
966.70 0.07977
966.80 0.07974
966.90 0.07971
967.00 0.07968
967.10 0.07965
967.20 0.07961
967.30 0.07958
967.40 0.07955
967.50 0.07952
967.60 0.07949
967.70 0.07946
967.80 0.07943
967.90 0.07939
968.00 0.07936
968.10 0.07933
968.20 0.0793
968.30 0.07927
968.40 0.07924
968.50 0.0792
968.60 0.07917
968.70 0.07914
968.80 0.07911
968.90 0.07908
969.00 0.07905
969.10 0.07902
969.20 0.07898
969.30 0.07895
969.40 0.07892
969.50 0.07889
969.60 0.07886
969.70 0.07883
969.80 0.0788
969.90 0.07876
970.00 0.07873
970.10 0.0787
970.20 0.07867
970.30 0.07864
970.40 0.07861
970.50 0.07858
970.60 0.07854
970.70 0.07851
970.80 0.07848
970.90 0.07845
971.00 0.07842
971.10 0.07839
971.20 0.07836
971.30 0.07833
971.40 0.07829
971.50 0.07826
971.60 0.07823
971.70 0.0782
971.80 0.07817
971.90 0.07814
972.00 0.07811
972.10 0.07808
972.20 0.07805
972.30 0.07801
972.40 0.07798
972.50 0.07795
972.60 0.07792
972.70 0.07789
972.80 0.07786
972.90 0.07783
973.00 0.0778
973.10 0.07777
973.20 0.07773
973.30 0.0777
973.40 0.07767
973.50 0.07764
973.60 0.07761
973.70 0.07758
973.80 0.07755
973.90 0.07752
974.00 0.07749
974.10 0.07746
974.20 0.07742
974.30 0.07739
974.40 0.07736
974.50 0.07733
974.60 0.0773
974.70 0.07727
974.80 0.07724
974.90 0.07721
975.00 0.07718
975.10 0.07715
975.20 0.07712
975.30 0.07709
975.40 0.07705
975.50 0.07702
975.60 0.07699
975.70 0.07696
975.80 0.07693
975.90 0.0769
976.00 0.07687
976.10 0.07684
976.20 0.07681
976.30 0.07678
976.40 0.07675
976.50 0.07672
976.60 0.07669
976.70 0.07665
976.80 0.07662
976.90 0.07659
977.00 0.07656
977.10 0.07653
977.20 0.0765
977.30 0.07647
977.40 0.07644
977.50 0.07641
977.60 0.07638
977.70 0.07635
977.80 0.07632
977.90 0.07629
978.00 0.07626
978.10 0.07623
978.20 0.07619
978.30 0.07616
978.40 0.07613
978.50 0.0761
978.60 0.07607
978.70 0.07604
978.80 0.07601
978.90 0.07598
979.00 0.07595
979.10 0.07592
979.20 0.07589
979.30 0.07586
979.40 0.07583
979.50 0.0758
979.60 0.07577
979.70 0.07574
979.80 0.07571
979.90 0.07568
980.00 0.07565
980.10 0.07562
980.20 0.07559
980.30 0.07556
980.40 0.07552
980.50 0.07549
980.60 0.07546
980.70 0.07543
980.80 0.0754
980.90 0.07537
981.00 0.07534
981.10 0.07531
981.20 0.07528
981.30 0.07525
981.40 0.07522
981.50 0.07519
981.60 0.07516
981.70 0.07513
981.80 0.0751
981.90 0.07507
982.00 0.07504
982.10 0.07501
982.20 0.07498
982.30 0.07495
982.40 0.07492
982.50 0.07489
982.60 0.07486
982.70 0.07483
982.80 0.0748
982.90 0.07477
983.00 0.07474
983.10 0.07471
983.20 0.07468
983.30 0.07465
983.40 0.07462
983.50 0.07459
983.60 0.07456
983.70 0.07453
983.80 0.0745
983.90 0.07447
984.00 0.07444
984.10 0.07441
984.20 0.07438
984.30 0.07435
984.40 0.07432
984.50 0.07429
984.60 0.07426
984.70 0.07423
984.80 0.0742
984.90 0.07417
985.00 0.07414
985.10 0.07411
985.20 0.07408
985.30 0.07405
985.40 0.07402
985.50 0.07399
985.60 0.07396
985.70 0.07393
985.80 0.0739
985.90 0.07387
986.00 0.07384
986.10 0.07381
986.20 0.07378
986.30 0.07375
986.40 0.07372
986.50 0.07369
986.60 0.07366
986.70 0.07363
986.80 0.0736
986.90 0.07357
987.00 0.07354
987.10 0.07351
987.20 0.07348
987.30 0.07345
987.40 0.07342
987.50 0.07339
987.60 0.07336
987.70 0.07333
987.80 0.0733
987.90 0.07327
988.00 0.07324
988.10 0.07321
988.20 0.07318
988.30 0.07315
988.40 0.07312
988.50 0.07309
988.60 0.07306
988.70 0.07303
988.80 0.073
988.90 0.07298
989.00 0.07295
989.10 0.07292
989.20 0.07289
989.30 0.07286
989.40 0.07283
989.50 0.0728
989.60 0.07277
989.70 0.07274
989.80 0.07271
989.90 0.07268
990.00 0.07265
990.10 0.07262
990.20 0.07259
990.30 0.07256
990.40 0.07253
990.50 0.0725
990.60 0.07247
990.70 0.07244
990.80 0.07241
990.90 0.07238
991.00 0.07235
991.10 0.07233
991.20 0.0723
991.30 0.07227
991.40 0.07224
991.50 0.07221
991.60 0.07218
991.70 0.07215
991.80 0.07212
991.90 0.07209
992.00 0.07206
992.10 0.07203
992.20 0.072
992.30 0.07197
992.40 0.07194
992.50 0.07191
992.60 0.07188
992.70 0.07186
992.80 0.07183
992.90 0.0718
993.00 0.07177
993.10 0.07174
993.20 0.07171
993.30 0.07168
993.40 0.07165
993.50 0.07162
993.60 0.07159
993.70 0.07156
993.80 0.07153
993.90 0.07151
994.00 0.07148
994.10 0.07145
994.20 0.07142
994.30 0.07139
994.40 0.07136
994.50 0.07133
994.60 0.0713
994.70 0.07127
994.80 0.07124
994.90 0.07121
995.00 0.07119
995.10 0.07116
995.20 0.07113
995.30 0.0711
995.40 0.07107
995.50 0.07104
995.60 0.07101
995.70 0.07098
995.80 0.07095
995.90 0.07093
996.00 0.0709
996.10 0.07087
996.20 0.07084
996.30 0.07081
996.40 0.07078
996.50 0.07075
996.60 0.07072
996.70 0.07069
996.80 0.07067
996.90 0.07064
997.00 0.07061
997.10 0.07058
997.20 0.07055
997.30 0.07052
997.40 0.07049
997.50 0.07047
997.60 0.07044
997.70 0.07041
997.80 0.07038
997.90 0.07035
998.00 0.07032
998.10 0.07029
998.20 0.07027
998.30 0.07024
998.40 0.07021
998.50 0.07018
998.60 0.07015
998.70 0.07012
998.80 0.0701
998.90 0.07007
999.00 0.07004
999.10 0.07001
999.20 0.06998
999.30 0.06996
999.40 0.06993
999.50 0.0699
999.60 0.06987
999.70 0.06984
999.80 0.06981
999.90 0.06978
1000.00 0.06975
1000.10 0.06973
1000.20 0.0697
1000.30 0.06967
1000.40 0.06964
1000.50 0.06961
1000.60 0.06958
1000.70 0.06955
1000.80 0.06952
1000.90 0.06949
1001.00 0.06946
1001.10 0.06943
1001.20 0.06941
1001.30 0.06938
1001.40 0.06935
1001.50 0.06932
1001.60 0.06929
1001.70 0.06926
1001.80 0.06924
1001.90 0.06921
1002.00 0.06918
1002.10 0.06915
1002.20 0.06913
1002.30 0.0691
1002.40 0.06908
1002.50 0.06905
1002.60 0.06902
1002.70 0.069
1002.80 0.06897
1002.90 0.06894
1003.00 0.06892
1003.10 0.06889
1003.20 0.06886
1003.30 0.06884
1003.40 0.06881
1003.50 0.06879
1003.60 0.06876
1003.70 0.06873
1003.80 0.06871
1003.90 0.06868
1004.00 0.06866
1004.10 0.06863
1004.20 0.06861
1004.30 0.06858
1004.40 0.06856
1004.50 0.06853
1004.60 0.06851
1004.70 0.06848
1004.80 0.06845
1004.90 0.06843
1005.00 0.0684
1005.10 0.06838
1005.20 0.06835
1005.30 0.06832
1005.40 0.0683
1005.50 0.06827
1005.60 0.06824
1005.70 0.06821
1005.80 0.06819
1005.90 0.06816
1006.00 0.06813
1006.10 0.06811
1006.20 0.06808
1006.30 0.06805
1006.40 0.06803
1006.50 0.068
1006.60 0.06798
1006.70 0.06795
1006.80 0.06792
1006.90 0.0679
1007.00 0.06787
1007.10 0.06784
1007.20 0.06782
1007.30 0.06779
1007.40 0.06777
1007.50 0.06774
1007.60 0.06772
1007.70 0.06769
1007.80 0.06767
1007.90 0.06764
1008.00 0.06762
1008.10 0.06759
1008.20 0.06757
1008.30 0.06754
1008.40 0.06752
1008.50 0.06749
1008.60 0.06747
1008.70 0.06744
1008.80 0.06742
1008.90 0.06739
1009.00 0.06737
1009.10 0.06734
1009.20 0.06732
1009.30 0.06729
1009.40 0.06727
1009.50 0.06724
1009.60 0.06722
1009.70 0.06719
1009.80 0.06717
1009.90 0.06714
1010.00 0.06712
1010.10 0.06709
1010.20 0.06707
1010.30 0.06705
1010.40 0.06702
1010.50 0.067
1010.60 0.06697
1010.70 0.06695
1010.80 0.06692
1010.90 0.0669
1011.00 0.06688
1011.10 0.06685
1011.20 0.06683
1011.30 0.0668
1011.40 0.06678
1011.50 0.06675
1011.60 0.06673
1011.70 0.06671
1011.80 0.06668
1011.90 0.06666
1012.00 0.06663
1012.10 0.06661
1012.20 0.06659
1012.30 0.06656
1012.40 0.06654
1012.50 0.06651
1012.60 0.06649
1012.70 0.06647
1012.80 0.06644
1012.90 0.06642
1013.00 0.06639
1013.10 0.06637
1013.20 0.06635
1013.30 0.06632
1013.40 0.0663
1013.50 0.06628
1013.60 0.06625
1013.70 0.06623
1013.80 0.0662
1013.90 0.06618
1014.00 0.06616
1014.10 0.06613
1014.20 0.06611
1014.30 0.06609
1014.40 0.06606
1014.50 0.06604
1014.60 0.06601
1014.70 0.06599
1014.80 0.06597
1014.90 0.06594
1015.00 0.06592
1015.10 0.0659
1015.20 0.06587
1015.30 0.06585
1015.40 0.06583
1015.50 0.0658
1015.60 0.06578
1015.70 0.06576
1015.80 0.06573
1015.90 0.06571
1016.00 0.06568
1016.10 0.06566
1016.20 0.06564
1016.30 0.06561
1016.40 0.06559
1016.50 0.06557
1016.60 0.06554
1016.70 0.06552
1016.80 0.0655
1016.90 0.06547
1017.00 0.06545
1017.10 0.06543
1017.20 0.0654
1017.30 0.06538
1017.40 0.06536
1017.50 0.06533
1017.60 0.06531
1017.70 0.06529
1017.80 0.06526
1017.90 0.06524
1018.00 0.06521
1018.10 0.06519
1018.20 0.06517
1018.30 0.06514
1018.40 0.06512
1018.50 0.0651
1018.60 0.06507
1018.70 0.06505
1018.80 0.06503
1018.90 0.065
1019.00 0.06498
1019.10 0.06496
1019.20 0.06493
1019.30 0.06491
1019.40 0.06489
1019.50 0.06486
1019.60 0.06484
1019.70 0.06482
1019.80 0.06479
1019.90 0.06477
1020.00 0.06475
1020.10 0.06472
1020.20 0.0647
1020.30 0.06468
1020.40 0.06465
1020.50 0.06463
1020.60 0.06461
1020.70 0.06458
1020.80 0.06456
1020.90 0.06454
1021.00 0.06451
1021.10 0.06449
1021.20 0.06447
1021.30 0.06444
1021.40 0.06442
1021.50 0.0644
1021.60 0.06437
1021.70 0.06435
1021.80 0.06433
1021.90 0.06431
1022.00 0.06428
1022.10 0.06426
1022.20 0.06424
1022.30 0.06421
1022.40 0.06419
1022.50 0.06417
1022.60 0.06414
1022.70 0.06412
1022.80 0.0641
1022.90 0.06407
1023.00 0.06405
1023.10 0.06403
1023.20 0.064
1023.30 0.06398
1023.40 0.06396
1023.50 0.06393
1023.60 0.06391
1023.70 0.06389
1023.80 0.06386
1023.90 0.06384
1024.00 0.06382
1024.10 0.0638
1024.20 0.06377
1024.30 0.06375
1024.40 0.06373
1024.50 0.0637
1024.60 0.06368
1024.70 0.06366
1024.80 0.06363
1024.90 0.06361
1025.00 0.06359
1025.10 0.06356
1025.20 0.06354
1025.30 0.06352
1025.40 0.06349
1025.50 0.06347
1025.60 0.06345
1025.70 0.06343
1025.80 0.0634
1025.90 0.06338
1026.00 0.06336
1026.10 0.06333
1026.20 0.06331
1026.30 0.06329
1026.40 0.06326
1026.50 0.06324
1026.60 0.06322
1026.70 0.0632
1026.80 0.06317
1026.90 0.06315
1027.00 0.06313
1027.10 0.0631
1027.20 0.06308
1027.30 0.06306
1027.40 0.06303
1027.50 0.06301
1027.60 0.06299
1027.70 0.06296
1027.80 0.06294
1027.90 0.06292
1028.00 0.0629
1028.10 0.06287
1028.20 0.06285
1028.30 0.06283
1028.40 0.0628
1028.50 0.06278
1028.60 0.06276
1028.70 0.06273
1028.80 0.06271
1028.90 0.06269
1029.00 0.06267
1029.10 0.06264
1029.20 0.06262
1029.30 0.0626
1029.40 0.06257
1029.50 0.06255
1029.60 0.06253
1029.70 0.06251
1029.80 0.06248
1029.90 0.06246
1030.00 0.06244
1030.10 0.06241
1030.20 0.06239
1030.30 0.06237
1030.40 0.06235
1030.50 0.06232
1030.60 0.0623
1030.70 0.06228
1030.80 0.06225
1030.90 0.06223
1031.00 0.06221
1031.10 0.06219
1031.20 0.06216
1031.30 0.06214
1031.40 0.06212
1031.50 0.06209
1031.60 0.06207
1031.70 0.06205
1031.80 0.06203
1031.90 0.062
1032.00 0.06198
1032.10 0.06196
1032.20 0.06194
1032.30 0.06191
1032.40 0.06189
1032.50 0.06187
1032.60 0.06184
1032.70 0.06182
1032.80 0.0618
1032.90 0.06178
1033.00 0.06175
1033.10 0.06173
1033.20 0.06171
1033.30 0.06168
1033.40 0.06166
1033.50 0.06164
1033.60 0.06162
1033.70 0.06159
1033.80 0.06157
1033.90 0.06155
1034.00 0.06153
1034.10 0.0615
1034.20 0.06148
1034.30 0.06146
1034.40 0.06144
1034.50 0.06141
1034.60 0.06139
1034.70 0.06137
1034.80 0.06134
1034.90 0.06132
1035.00 0.0613
1035.10 0.06128
1035.20 0.06125
1035.30 0.06123
1035.40 0.06121
1035.50 0.06119
1035.60 0.06116
1035.70 0.06114
1035.80 0.06112
1035.90 0.0611
1036.00 0.06107
1036.10 0.06105
1036.20 0.06103
1036.30 0.06101
1036.40 0.06098
1036.50 0.06096
1036.60 0.06094
1036.70 0.06092
1036.80 0.06089
1036.90 0.06087
1037.00 0.06085
1037.10 0.06083
1037.20 0.0608
1037.30 0.06078
1037.40 0.06076
1037.50 0.06074
1037.60 0.06071
1037.70 0.06069
1037.80 0.06067
1037.90 0.06065
1038.00 0.06062
1038.10 0.0606
1038.20 0.06058
1038.30 0.06056
1038.40 0.06053
1038.50 0.06051
1038.60 0.06049
1038.70 0.06047
1038.80 0.06044
1038.90 0.06042
1039.00 0.0604
1039.10 0.06038
1039.20 0.06035
1039.30 0.06033
1039.40 0.06031
1039.50 0.06029
1039.60 0.06026
1039.70 0.06024
1039.80 0.06022
1039.90 0.0602
1040.00 0.06017
1040.10 0.06015
1040.20 0.06013
1040.30 0.06011
1040.40 0.06008
1040.50 0.06006
1040.60 0.06004
1040.70 0.06002
1040.80 0.06
1040.90 0.05997
1041.00 0.05995
1041.10 0.05993
1041.20 0.05991
1041.30 0.05988
1041.40 0.05986
1041.50 0.05984
1041.60 0.05982
1041.70 0.05979
1041.80 0.05977
1041.90 0.05975
1042.00 0.05973
1042.10 0.05971
1042.20 0.05968
1042.30 0.05966
1042.40 0.05964
1042.50 0.05962
1042.60 0.05959
1042.70 0.05957
1042.80 0.05955
1042.90 0.05953
1043.00 0.05951
1043.10 0.05948
1043.20 0.05946
1043.30 0.05944
1043.40 0.05942
1043.50 0.05939
1043.60 0.05937
1043.70 0.05935
1043.80 0.05933
1043.90 0.05931
1044.00 0.05928
1044.10 0.05926
1044.20 0.05924
1044.30 0.05922
1044.40 0.05919
1044.50 0.05917
1044.60 0.05915
1044.70 0.05913
1044.80 0.05911
1044.90 0.05908
1045.00 0.05906
1045.10 0.05904
1045.20 0.05902
1045.30 0.059
1045.40 0.05897
1045.50 0.05895
1045.60 0.05893
1045.70 0.05891
1045.80 0.05888
1045.90 0.05886
1046.00 0.05884
1046.10 0.05882
1046.20 0.0588
1046.30 0.05877
1046.40 0.05875
1046.50 0.05873
1046.60 0.05871
1046.70 0.05869
1046.80 0.05866
1046.90 0.05864
1047.00 0.05862
1047.10 0.0586
1047.20 0.05858
1047.30 0.05855
1047.40 0.05853
1047.50 0.05851
1047.60 0.05849
1047.70 0.05847
1047.80 0.05844
1047.90 0.05842
1048.00 0.0584
1048.10 0.05838
1048.20 0.05836
1048.30 0.05833
1048.40 0.05831
1048.50 0.05829
1048.60 0.05827
1048.70 0.05825
1048.80 0.05822
1048.90 0.0582
1049.00 0.05818
1049.10 0.05816
1049.20 0.05814
1049.30 0.05811
1049.40 0.05809
1049.50 0.05807
1049.60 0.05805
1049.70 0.05803
1049.80 0.058
1049.90 0.05798
1050.00 0.05796
1050.10 0.05794
1050.20 0.05792
1050.30 0.0579
1050.40 0.05787
1050.50 0.05785
1050.60 0.05783
1050.70 0.05781
1050.80 0.05779
1050.90 0.05776
1051.00 0.05774
1051.10 0.05772
1051.20 0.0577
1051.30 0.05768
1051.40 0.05766
1051.50 0.05763
1051.60 0.05761
1051.70 0.05759
1051.80 0.05757
1051.90 0.05755
1052.00 0.05753
1052.10 0.0575
1052.20 0.05748
1052.30 0.05746
1052.40 0.05744
1052.50 0.05742
1052.60 0.05739
1052.70 0.05737
1052.80 0.05735
1052.90 0.05733
1053.00 0.05731
1053.10 0.05728
1053.20 0.05726
1053.30 0.05724
1053.40 0.05722
1053.50 0.0572
1053.60 0.05718
1053.70 0.05715
1053.80 0.05713
1053.90 0.05711
1054.00 0.05709
1054.10 0.05707
1054.20 0.05705
1054.30 0.05702
1054.40 0.057
1054.50 0.05698
1054.60 0.05696
1054.70 0.05694
1054.80 0.05692
1054.90 0.05689
1055.00 0.05687
1055.10 0.05685
1055.20 0.05683
1055.30 0.05681
1055.40 0.05679
1055.50 0.05676
1055.60 0.05674
1055.70 0.05672
1055.80 0.0567
1055.90 0.05668
1056.00 0.05666
1056.10 0.05663
1056.20 0.05661
1056.30 0.05659
1056.40 0.05657
1056.50 0.05655
1056.60 0.05653
1056.70 0.0565
1056.80 0.05648
1056.90 0.05646
1057.00 0.05644
1057.10 0.05642
1057.20 0.0564
1057.30 0.05638
1057.40 0.05635
1057.50 0.05633
1057.60 0.05631
1057.70 0.05629
1057.80 0.05627
1057.90 0.05625
1058.00 0.05622
1058.10 0.0562
1058.20 0.05618
1058.30 0.05616
1058.40 0.05614
1058.50 0.05612
1058.60 0.05609
1058.70 0.05607
1058.80 0.05605
1058.90 0.05603
1059.00 0.05601
1059.10 0.05599
1059.20 0.05596
1059.30 0.05594
1059.40 0.05592
1059.50 0.0559
1059.60 0.05588
1059.70 0.05586
1059.80 0.05584
1059.90 0.05581
1060.00 0.05579
1060.10 0.05577
1060.20 0.05575
1060.30 0.05573
1060.40 0.05571
1060.50 0.05568
1060.60 0.05566
1060.70 0.05564
1060.80 0.05562
1060.90 0.0556
1061.00 0.05558
1061.10 0.05556
1061.20 0.05553
1061.30 0.05551
1061.40 0.05549
1061.50 0.05547
1061.60 0.05545
1061.70 0.05543
1061.80 0.05541
1061.90 0.05538
1062.00 0.05536
1062.10 0.05534
1062.20 0.05532
1062.30 0.0553
1062.40 0.05528
1062.50 0.05526
1062.60 0.05523
1062.70 0.05521
1062.80 0.05519
1062.90 0.05517
1063.00 0.05515
1063.10 0.05513
1063.20 0.0551
1063.30 0.05508
1063.40 0.05506
1063.50 0.05504
1063.60 0.05502
1063.70 0.055
1063.80 0.05498
1063.90 0.05495
1064.00 0.05493
1064.10 0.05491
1064.20 0.05489
1064.30 0.05487
1064.40 0.05485
1064.50 0.05483
1064.60 0.0548
1064.70 0.05478
1064.80 0.05476
1064.90 0.05474
1065.00 0.05472
1065.10 0.0547
1065.20 0.05468
1065.30 0.05465
1065.40 0.05463
1065.50 0.05461
1065.60 0.05459
1065.70 0.05457
1065.80 0.05455
1065.90 0.05453
1066.00 0.0545
1066.10 0.05448
1066.20 0.05446
1066.30 0.05444
1066.40 0.05442
1066.50 0.0544
1066.60 0.05438
1066.70 0.05436
1066.80 0.05433
1066.90 0.05431
1067.00 0.05429
1067.10 0.05427
1067.20 0.05425
1067.30 0.05423
1067.40 0.05421
1067.50 0.05418
1067.60 0.05416
1067.70 0.05414
1067.80 0.05412
1067.90 0.0541
1068.00 0.05408
1068.10 0.05406
1068.20 0.05403
1068.30 0.05401
1068.40 0.05399
1068.50 0.05397
1068.60 0.05395
1068.70 0.05393
1068.80 0.0539
1068.90 0.05388
1069.00 0.05386
1069.10 0.05384
1069.20 0.05382
1069.30 0.0538
1069.40 0.05378
1069.50 0.05375
1069.60 0.05373
1069.70 0.05371
1069.80 0.05369
1069.90 0.05367
1070.00 0.05365
1070.10 0.05363
1070.20 0.05361
1070.30 0.05358
1070.40 0.05356
1070.50 0.05354
1070.60 0.05352
1070.70 0.0535
1070.80 0.05348
1070.90 0.05346
1071.00 0.05343
1071.10 0.05341
1071.20 0.05339
1071.30 0.05337
1071.40 0.05335
1071.50 0.05333
1071.60 0.05331
1071.70 0.05329
1071.80 0.05326
1071.90 0.05324
1072.00 0.05322
1072.10 0.0532
1072.20 0.05318
1072.30 0.05316
1072.40 0.05314
1072.50 0.05311
1072.60 0.05309
1072.70 0.05307
1072.80 0.05305
1072.90 0.05303
1073.00 0.05301
1073.10 0.05299
1073.20 0.05297
1073.30 0.05294
1073.40 0.05292
1073.50 0.0529
1073.60 0.05288
1073.70 0.05286
1073.80 0.05284
1073.90 0.05281
1074.00 0.05279
1074.10 0.05277
1074.20 0.05275
1074.30 0.05273
1074.40 0.05271
1074.50 0.05269
1074.60 0.05266
1074.70 0.05264
1074.80 0.05262
1074.90 0.0526
1075.00 0.05258
1075.10 0.05256
1075.20 0.05254
1075.30 0.05251
1075.40 0.05249
1075.50 0.05247
1075.60 0.05245
1075.70 0.05243
1075.80 0.05241
1075.90 0.05239
1076.00 0.05236
1076.10 0.05234
1076.20 0.05232
1076.30 0.0523
1076.40 0.05228
1076.50 0.05226
1076.60 0.05224
1076.70 0.05221
1076.80 0.05219
1076.90 0.05217
1077.00 0.05215
1077.10 0.05213
1077.20 0.05211
1077.30 0.05209
1077.40 0.05206
1077.50 0.05204
1077.60 0.05202
1077.70 0.052
1077.80 0.05198
1077.90 0.05196
1078.00 0.05194
1078.10 0.05191
1078.20 0.05189
1078.30 0.05187
1078.40 0.05185
1078.50 0.05183
1078.60 0.05181
1078.70 0.05178
1078.80 0.05176
1078.90 0.05174
1079.00 0.05172
1079.10 0.0517
1079.20 0.05168
1079.30 0.05166
1079.40 0.05163
1079.50 0.05161
1079.60 0.05159
1079.70 0.05157
1079.80 0.05155
1079.90 0.05153
1080.00 0.05151
1080.10 0.05148
1080.20 0.05146
1080.30 0.05144
1080.40 0.05142
1080.50 0.0514
1080.60 0.05138
1080.70 0.05135
1080.80 0.05133
1080.90 0.05131
1081.00 0.05129
1081.10 0.05127
1081.20 0.05125
1081.30 0.05123
1081.40 0.0512
1081.50 0.05118
1081.60 0.05116
1081.70 0.05114
1081.80 0.05112
1081.90 0.0511
1082.00 0.05107
1082.10 0.05105
1082.20 0.05103
1082.30 0.05101
1082.40 0.05099
1082.50 0.05097
1082.60 0.05095
1082.70 0.05092
1082.80 0.0509
1082.90 0.05088
1083.00 0.05086
1083.10 0.05084
1083.20 0.05082
1083.30 0.05079
1083.40 0.05077
1083.50 0.05075
1083.60 0.05073
1083.70 0.05071
1083.80 0.05069
1083.90 0.05067
1084.00 0.05064
1084.10 0.05062
1084.20 0.0506
1084.30 0.05058
1084.40 0.05056
1084.50 0.05054
1084.60 0.05051
1084.70 0.05049
1084.80 0.05047
1084.90 0.05045
1085.00 0.05043
1085.10 0.05041
1085.20 0.05038
1085.30 0.05036
1085.40 0.05034
1085.50 0.05032
1085.60 0.0503
1085.70 0.05028
1085.80 0.05025
1085.90 0.05023
1086.00 0.05021
1086.10 0.05019
1086.20 0.05017
1086.30 0.05015
1086.40 0.05013
1086.50 0.0501
1086.60 0.05008
1086.70 0.05006
1086.80 0.05004
1086.90 0.05002
1087.00 0.05
1087.10 0.04997
1087.20 0.04995
1087.30 0.04993
1087.40 0.04991
1087.50 0.04989
1087.60 0.04987
1087.70 0.04984
1087.80 0.04982
1087.90 0.0498
1088.00 0.04978
1088.10 0.04976
1088.20 0.04973
1088.30 0.04971
1088.40 0.04969
1088.50 0.04967
1088.60 0.04965
1088.70 0.04963
1088.80 0.0496
1088.90 0.04958
1089.00 0.04956
1089.10 0.04954
1089.20 0.04952
1089.30 0.04949
1089.40 0.04947
1089.50 0.04945
1089.60 0.04943
1089.70 0.04941
1089.80 0.04938
1089.90 0.04936
1090.00 0.04934
1090.10 0.04932
1090.20 0.0493
1090.30 0.04928
1090.40 0.04925
1090.50 0.04923
1090.60 0.04921
1090.70 0.04919
1090.80 0.04916
1090.90 0.04914
1091.00 0.04912
1091.10 0.0491
1091.20 0.04908
1091.30 0.04905
1091.40 0.04903
1091.50 0.04901
1091.60 0.04899
1091.70 0.04896
1091.80 0.04894
1091.90 0.04892
1092.00 0.0489
1092.10 0.04887
1092.20 0.04885
1092.30 0.04883
1092.40 0.04881
1092.50 0.04878
1092.60 0.04876
1092.70 0.04874
1092.80 0.04872
1092.90 0.0487
1093.00 0.04867
1093.10 0.04865
1093.20 0.04863
1093.30 0.04861
1093.40 0.04859
1093.50 0.04857
1093.60 0.04855
1093.70 0.04854
1093.80 0.04852
1093.90 0.04851
1094.00 0.0485
1094.10 0.04849
1094.20 0.04848
1094.30 0.04847
1094.40 0.04846
1094.50 0.04844
1094.60 0.04843
1094.70 0.04842
1094.80 0.04841
1094.90 0.0484
1095.00 0.04838
1095.10 0.04837
1095.20 0.04836
1095.30 0.04835
1095.40 0.04834
1095.50 0.04833
1095.60 0.04831
1095.70 0.0483
1095.80 0.04829
1095.90 0.04828
1096.00 0.04827
1096.10 0.04825
1096.20 0.04824
1096.30 0.04823
1096.40 0.04822
1096.50 0.04821
1096.60 0.0482
1096.70 0.04818
1096.80 0.04817
1096.90 0.04816
1097.00 0.04815
1097.10 0.04814
1097.20 0.04812
1097.30 0.04811
1097.40 0.0481
1097.50 0.04809
1097.60 0.04807
1097.70 0.04806
1097.80 0.04805
1097.90 0.04804
1098.00 0.04802
1098.10 0.04801
1098.20 0.048
1098.30 0.04799
1098.40 0.04797
1098.50 0.04796
1098.60 0.04795
1098.70 0.04794
1098.80 0.04792
1098.90 0.04791
1099.00 0.0479
1099.10 0.04788
1099.20 0.04787
1099.30 0.04786
1099.40 0.04785
1099.50 0.04783
1099.60 0.04782
1099.70 0.04781
1099.80 0.0478
1099.90 0.04778
1100.00 0.04777
1100.10 0.04776
1100.20 0.04774
1100.30 0.04773
1100.40 0.04772
1100.50 0.04771
1100.60 0.04769
1100.70 0.04768
1100.80 0.04767
1100.90 0.04765
1101.00 0.04764
1101.10 0.04763
1101.20 0.04761
1101.30 0.0476
1101.40 0.04759
1101.50 0.04758
1101.60 0.04756
1101.70 0.04755
1101.80 0.04754
1101.90 0.04752
1102.00 0.04751
1102.10 0.0475
1102.20 0.04748
1102.30 0.04747
1102.40 0.04746
1102.50 0.04744
1102.60 0.04743
1102.70 0.04742
1102.80 0.0474
1102.90 0.04739
1103.00 0.04738
1103.10 0.04737
1103.20 0.04735
1103.30 0.04734
1103.40 0.04733
1103.50 0.04731
1103.60 0.0473
1103.70 0.04729
1103.80 0.04727
1103.90 0.04726
1104.00 0.04725
1104.10 0.04723
1104.20 0.04722
1104.30 0.04721
1104.40 0.04719
1104.50 0.04718
1104.60 0.04717
1104.70 0.04715
1104.80 0.04714
1104.90 0.04713
1105.00 0.04711
1105.10 0.0471
1105.20 0.04709
1105.30 0.04707
1105.40 0.04706
1105.50 0.04705
1105.60 0.04703
1105.70 0.04702
1105.80 0.04701
1105.90 0.04699
1106.00 0.04698
1106.10 0.04696
1106.20 0.04695
1106.30 0.04694
1106.40 0.04692
1106.50 0.04691
1106.60 0.0469
1106.70 0.04688
1106.80 0.04687
1106.90 0.04686
1107.00 0.04684
1107.10 0.04683
1107.20 0.04682
1107.30 0.0468
1107.40 0.04679
1107.50 0.04678
1107.60 0.04676
1107.70 0.04675
1107.80 0.04673
1107.90 0.04672
1108.00 0.04671
1108.10 0.04669
1108.20 0.04668
1108.30 0.04667
1108.40 0.04665
1108.50 0.04664
1108.60 0.04663
1108.70 0.04661
1108.80 0.0466
1108.90 0.04658
1109.00 0.04657
1109.10 0.04656
1109.20 0.04654
1109.30 0.04653
1109.40 0.04652
1109.50 0.0465
1109.60 0.04649
1109.70 0.04648
1109.80 0.04646
1109.90 0.04645
1110.00 0.04643
1110.10 0.04642
1110.20 0.04641
1110.30 0.04639
1110.40 0.04638
1110.50 0.04637
1110.60 0.04635
1110.70 0.04634
1110.80 0.04632
1110.90 0.04631
1111.00 0.0463
1111.10 0.04628
1111.20 0.04627
1111.30 0.04625
1111.40 0.04624
1111.50 0.04623
1111.60 0.04621
1111.70 0.0462
1111.80 0.04619
1111.90 0.04617
1112.00 0.04616
1112.10 0.04614
1112.20 0.04613
1112.30 0.04612
1112.40 0.0461
1112.50 0.04609
1112.60 0.04607
1112.70 0.04606
1112.80 0.04605
1112.90 0.04603
1113.00 0.04602
1113.10 0.04601
1113.20 0.04599
1113.30 0.04598
1113.40 0.04596
1113.50 0.04595
1113.60 0.04594
1113.70 0.04592
1113.80 0.04591
1113.90 0.04589
1114.00 0.04588
1114.10 0.04586
1114.20 0.04585
1114.30 0.04584
1114.40 0.04582
1114.50 0.04581
1114.60 0.04579
1114.70 0.04578
1114.80 0.04577
1114.90 0.04575
1115.00 0.04574
1115.10 0.04572
1115.20 0.04571
1115.30 0.0457
1115.40 0.04568
1115.50 0.04567
1115.60 0.04565
1115.70 0.04564
1115.80 0.04563
1115.90 0.04561
1116.00 0.0456
1116.10 0.04558
1116.20 0.04557
1116.30 0.04556
1116.40 0.04554
1116.50 0.04553
1116.60 0.04551
1116.70 0.0455
1116.80 0.04549
1116.90 0.04547
1117.00 0.04546
1117.10 0.04544
1117.20 0.04543
1117.30 0.04541
1117.40 0.0454
1117.50 0.04539
1117.60 0.04537
1117.70 0.04536
1117.80 0.04534
1117.90 0.04533
1118.00 0.04531
1118.10 0.0453
1118.20 0.04529
1118.30 0.04527
1118.40 0.04526
1118.50 0.04524
1118.60 0.04523
1118.70 0.04522
1118.80 0.0452
1118.90 0.04519
1119.00 0.04517
1119.10 0.04516
1119.20 0.04514
1119.30 0.04513
1119.40 0.04512
1119.50 0.0451
1119.60 0.04509
1119.70 0.04507
1119.80 0.04506
1119.90 0.04504
1120.00 0.04503
1120.10 0.04502
1120.20 0.045
1120.30 0.04499
1120.40 0.04497
1120.50 0.04496
1120.60 0.04495
1120.70 0.04493
1120.80 0.04492
1120.90 0.0449
1121.00 0.04489
1121.10 0.04487
1121.20 0.04486
1121.30 0.04485
1121.40 0.04483
1121.50 0.04482
1121.60 0.0448
1121.70 0.04479
1121.80 0.04478
1121.90 0.04476
1122.00 0.04475
1122.10 0.04473
1122.20 0.04472
1122.30 0.0447
1122.40 0.04469
1122.50 0.04468
1122.60 0.04466
1122.70 0.04465
1122.80 0.04463
1122.90 0.04462
1123.00 0.0446
1123.10 0.04459
1123.20 0.04457
1123.30 0.04456
1123.40 0.04455
1123.50 0.04453
1123.60 0.04452
1123.70 0.0445
1123.80 0.04449
1123.90 0.04447
1124.00 0.04446
1124.10 0.04445
1124.20 0.04443
1124.30 0.04442
1124.40 0.0444
1124.50 0.04439
1124.60 0.04437
1124.70 0.04436
1124.80 0.04435
1124.90 0.04433
1125.00 0.04432
1125.10 0.0443
1125.20 0.04429
1125.30 0.04427
1125.40 0.04426
1125.50 0.04425
1125.60 0.04423
1125.70 0.04422
1125.80 0.0442
1125.90 0.04419
1126.00 0.04417
1126.10 0.04416
1126.20 0.04415
1126.30 0.04413
1126.40 0.04412
1126.50 0.0441
1126.60 0.04409
1126.70 0.04407
1126.80 0.04406
1126.90 0.04405
1127.00 0.04403
1127.10 0.04402
1127.20 0.044
1127.30 0.04399
1127.40 0.04397
1127.50 0.04396
1127.60 0.04395
1127.70 0.04393
1127.80 0.04392
1127.90 0.0439
1128.00 0.04389
1128.10 0.04387
1128.20 0.04386
1128.30 0.04385
1128.40 0.04383
1128.50 0.04382
1128.60 0.0438
1128.70 0.04379
1128.80 0.04377
1128.90 0.04376
1129.00 0.04374
1129.10 0.04373
1129.20 0.04372
1129.30 0.0437
1129.40 0.04369
1129.50 0.04367
1129.60 0.04366
1129.70 0.04364
1129.80 0.04363
1129.90 0.04362
1130.00 0.0436
1130.10 0.04359
1130.20 0.04357
1130.30 0.04356
1130.40 0.04354
1130.50 0.04353
1130.60 0.04352
1130.70 0.0435
1130.80 0.04349
1130.90 0.04347
1131.00 0.04346
1131.10 0.04345
1131.20 0.04343
1131.30 0.04342
1131.40 0.0434
1131.50 0.04339
1131.60 0.04337
1131.70 0.04336
1131.80 0.04335
1131.90 0.04333
1132.00 0.04332
1132.10 0.0433
1132.20 0.04329
1132.30 0.04327
1132.40 0.04326
1132.50 0.04325
1132.60 0.04323
1132.70 0.04322
1132.80 0.0432
1132.90 0.04319
1133.00 0.04317
1133.10 0.04316
1133.20 0.04315
1133.30 0.04313
1133.40 0.04312
1133.50 0.0431
1133.60 0.04309
1133.70 0.04307
1133.80 0.04306
1133.90 0.04305
1134.00 0.04303
1134.10 0.04302
1134.20 0.043
1134.30 0.04299
1134.40 0.04297
1134.50 0.04296
1134.60 0.04295
1134.70 0.04293
1134.80 0.04292
1134.90 0.0429
1135.00 0.04289
1135.10 0.04288
1135.20 0.04286
1135.30 0.04285
1135.40 0.04283
1135.50 0.04282
1135.60 0.0428
1135.70 0.04279
1135.80 0.04278
1135.90 0.04276
1136.00 0.04275
1136.10 0.04273
1136.20 0.04272
1136.30 0.04271
1136.40 0.04269
1136.50 0.04268
1136.60 0.04266
1136.70 0.04265
1136.80 0.04264
1136.90 0.04262
1137.00 0.04261
1137.10 0.04259
1137.20 0.04258
1137.30 0.04256
1137.40 0.04255
1137.50 0.04254
1137.60 0.04252
1137.70 0.04251
1137.80 0.04249
1137.90 0.04248
1138.00 0.04247
1138.10 0.04245
1138.20 0.04244
1138.30 0.04242
1138.40 0.04241
1138.50 0.04239
1138.60 0.04238
1138.70 0.04237
1138.80 0.04235
1138.90 0.04234
1139.00 0.04232
1139.10 0.04231
1139.20 0.0423
1139.30 0.04228
1139.40 0.04227
1139.50 0.04225
1139.60 0.04224
1139.70 0.04223
1139.80 0.04221
1139.90 0.0422
1140.00 0.04218
1140.10 0.04217
1140.20 0.04216
1140.30 0.04214
1140.40 0.04213
1140.50 0.04211
1140.60 0.0421
1140.70 0.04209
1140.80 0.04207
1140.90 0.04206
1141.00 0.04204
1141.10 0.04203
1141.20 0.04202
1141.30 0.042
1141.40 0.04199
1141.50 0.04197
1141.60 0.04196
1141.70 0.04195
1141.80 0.04193
1141.90 0.04192
1142.00 0.0419
1142.10 0.04189
1142.20 0.04188
1142.30 0.04186
1142.40 0.04185
1142.50 0.04183
1142.60 0.04182
1142.70 0.04181
1142.80 0.04179
1142.90 0.04178
1143.00 0.04176
1143.10 0.04175
1143.20 0.04174
1143.30 0.04172
1143.40 0.04171
1143.50 0.04169
1143.60 0.04168
1143.70 0.04167
1143.80 0.04165
1143.90 0.04164
1144.00 0.04162
1144.10 0.04161
1144.20 0.0416
1144.30 0.04158
1144.40 0.04157
1144.50 0.04155
1144.60 0.04154
1144.70 0.04153
1144.80 0.04151
1144.90 0.0415
1145.00 0.04149
1145.10 0.04147
1145.20 0.04146
1145.30 0.04144
1145.40 0.04143
1145.50 0.04142
1145.60 0.0414
1145.70 0.04139
1145.80 0.04137
1145.90 0.04136
1146.00 0.04135
1146.10 0.04133
1146.20 0.04132
1146.30 0.04131
1146.40 0.04129
1146.50 0.04128
1146.60 0.04126
1146.70 0.04125
1146.80 0.04124
1146.90 0.04122
1147.00 0.04121
1147.10 0.0412
1147.20 0.04118
1147.30 0.04117
1147.40 0.04115
1147.50 0.04114
1147.60 0.04113
1147.70 0.04111
1147.80 0.0411
1147.90 0.04108
1148.00 0.04107
1148.10 0.04106
1148.20 0.04104
1148.30 0.04103
1148.40 0.04102
1148.50 0.041
1148.60 0.04099
1148.70 0.04098
1148.80 0.04096
1148.90 0.04095
1149.00 0.04093
1149.10 0.04092
1149.20 0.04091
1149.30 0.04089
1149.40 0.04088
1149.50 0.04087
1149.60 0.04085
1149.70 0.04084
1149.80 0.04082
1149.90 0.04081
1150.00 0.0408
1150.10 0.04078
1150.20 0.04077
1150.30 0.04076
1150.40 0.04074
1150.50 0.04073
1150.60 0.04072
1150.70 0.0407
1150.80 0.04069
1150.90 0.04067
1151.00 0.04066
1151.10 0.04065
1151.20 0.04063
1151.30 0.04062
1151.40 0.04061
1151.50 0.04059
1151.60 0.04058
1151.70 0.04057
1151.80 0.04055
1151.90 0.04054
1152.00 0.04052
1152.10 0.04051
1152.20 0.0405
1152.30 0.04048
1152.40 0.04047
1152.50 0.04046
1152.60 0.04044
1152.70 0.04043
1152.80 0.04042
1152.90 0.0404
1153.00 0.04039
1153.10 0.04038
1153.20 0.04036
1153.30 0.04035
1153.40 0.04033
1153.50 0.04032
1153.60 0.04031
1153.70 0.04029
1153.80 0.04028
1153.90 0.04027
1154.00 0.04025
1154.10 0.04024
1154.20 0.04023
1154.30 0.04021
1154.40 0.0402
1154.50 0.04019
1154.60 0.04017
1154.70 0.04016
1154.80 0.04015
1154.90 0.04013
1155.00 0.04012
1155.10 0.04011
1155.20 0.04009
1155.30 0.04008
1155.40 0.04007
1155.50 0.04005
1155.60 0.04004
1155.70 0.04003
1155.80 0.04001
1155.90 0.04
1156.00 0.03999
1156.10 0.03997
1156.20 0.03996
1156.30 0.03994
1156.40 0.03993
1156.50 0.03992
1156.60 0.0399
1156.70 0.03989
1156.80 0.03988
1156.90 0.03986
1157.00 0.03985
1157.10 0.03984
1157.20 0.03982
1157.30 0.03981
1157.40 0.0398
1157.50 0.03978
1157.60 0.03977
1157.70 0.03976
1157.80 0.03974
1157.90 0.03973
1158.00 0.03972
1158.10 0.0397
1158.20 0.03969
1158.30 0.03968
1158.40 0.03966
1158.50 0.03965
1158.60 0.03964
1158.70 0.03962
1158.80 0.03961
1158.90 0.0396
1159.00 0.03959
1159.10 0.03957
1159.20 0.03956
1159.30 0.03955
1159.40 0.03953
1159.50 0.03952
1159.60 0.03951
1159.70 0.03949
1159.80 0.03948
1159.90 0.03947
1160.00 0.03945
1160.10 0.03944
1160.20 0.03943
1160.30 0.03941
1160.40 0.0394
1160.50 0.03939
1160.60 0.03937
1160.70 0.03936
1160.80 0.03935
1160.90 0.03933
1161.00 0.03932
1161.10 0.03931
1161.20 0.03929
1161.30 0.03928
1161.40 0.03927
1161.50 0.03925
1161.60 0.03924
1161.70 0.03923
1161.80 0.03922
1161.90 0.0392
1162.00 0.03919
1162.10 0.03918
1162.20 0.03916
1162.30 0.03915
1162.40 0.03914
1162.50 0.03912
1162.60 0.03911
1162.70 0.0391
1162.80 0.03908
1162.90 0.03907
1163.00 0.03906
1163.10 0.03905
1163.20 0.03903
1163.30 0.03902
1163.40 0.03901
1163.50 0.03899
1163.60 0.03898
1163.70 0.03897
1163.80 0.03895
1163.90 0.03894
1164.00 0.03893
1164.10 0.03892
1164.20 0.0389
1164.30 0.03889
1164.40 0.03888
1164.50 0.03886
1164.60 0.03885
1164.70 0.03884
1164.80 0.03882
1164.90 0.03881
1165.00 0.0388
1165.10 0.03879
1165.20 0.03877
1165.30 0.03876
1165.40 0.03875
1165.50 0.03873
1165.60 0.03872
1165.70 0.03871
1165.80 0.03869
1165.90 0.03868
1166.00 0.03867
1166.10 0.03866
1166.20 0.03864
1166.30 0.03863
1166.40 0.03862
1166.50 0.0386
1166.60 0.03859
1166.70 0.03858
1166.80 0.03857
1166.90 0.03855
1167.00 0.03854
1167.10 0.03853
1167.20 0.03851
1167.30 0.0385
1167.40 0.03849
1167.50 0.03848
1167.60 0.03846
1167.70 0.03845
1167.80 0.03844
1167.90 0.03842
1168.00 0.03841
1168.10 0.0384
1168.20 0.03839
1168.30 0.03837
1168.40 0.03836
1168.50 0.03835
1168.60 0.03833
1168.70 0.03832
1168.80 0.03831
1168.90 0.0383
1169.00 0.03828
1169.10 0.03827
1169.20 0.03826
1169.30 0.03824
1169.40 0.03823
1169.50 0.03822
1169.60 0.03821
1169.70 0.03819
1169.80 0.03818
1169.90 0.03817
1170.00 0.03816
1170.10 0.03814
1170.20 0.03813
1170.30 0.03812
1170.40 0.0381
1170.50 0.03809
1170.60 0.03808
1170.70 0.03807
1170.80 0.03805
1170.90 0.03804
1171.00 0.03803
1171.10 0.03802
1171.20 0.038
1171.30 0.03799
1171.40 0.03798
1171.50 0.03796
1171.60 0.03795
1171.70 0.03794
1171.80 0.03793
1171.90 0.03791
1172.00 0.0379
1172.10 0.03789
1172.20 0.03788
1172.30 0.03786
1172.40 0.03785
1172.50 0.03784
1172.60 0.03783
1172.70 0.03781
1172.80 0.0378
1172.90 0.03779
1173.00 0.03778
1173.10 0.03776
1173.20 0.03775
1173.30 0.03774
1173.40 0.03772
1173.50 0.03771
1173.60 0.0377
1173.70 0.03769
1173.80 0.03767
1173.90 0.03766
1174.00 0.03765
1174.10 0.03764
1174.20 0.03762
1174.30 0.03761
1174.40 0.0376
1174.50 0.03759
1174.60 0.03757
1174.70 0.03756
1174.80 0.03755
1174.90 0.03754
1175.00 0.03752
1175.10 0.03751
1175.20 0.0375
1175.30 0.03749
1175.40 0.03747
1175.50 0.03746
1175.60 0.03745
1175.70 0.03744
1175.80 0.03742
1175.90 0.03741
1176.00 0.0374
1176.10 0.03739
1176.20 0.03737
1176.30 0.03736
1176.40 0.03735
1176.50 0.03734
1176.60 0.03732
1176.70 0.03731
1176.80 0.0373
1176.90 0.03729
1177.00 0.03727
1177.10 0.03726
1177.20 0.03725
1177.30 0.03724
1177.40 0.03723
1177.50 0.03721
1177.60 0.0372
1177.70 0.03719
1177.80 0.03718
1177.90 0.03716
1178.00 0.03715
1178.10 0.03714
1178.20 0.03713
1178.30 0.03711
1178.40 0.0371
1178.50 0.03709
1178.60 0.03708
1178.70 0.03706
1178.80 0.03705
1178.90 0.03704
1179.00 0.03703
1179.10 0.03702
1179.20 0.037
1179.30 0.03699
1179.40 0.03698
1179.50 0.03697
1179.60 0.03695
1179.70 0.03694
1179.80 0.03693
1179.90 0.03692
1180.00 0.0369
1180.10 0.03689
1180.20 0.03688
1180.30 0.03687
1180.40 0.03686
1180.50 0.03684
1180.60 0.03683
1180.70 0.03682
1180.80 0.03681
1180.90 0.03679
1181.00 0.03678
1181.10 0.03677
1181.20 0.03676
1181.30 0.03675
1181.40 0.03673
1181.50 0.03672
1181.60 0.03671
1181.70 0.0367
1181.80 0.03668
1181.90 0.03667
1182.00 0.03666
1182.10 0.03665
1182.20 0.03664
1182.30 0.03662
1182.40 0.03661
1182.50 0.0366
1182.60 0.03659
1182.70 0.03658
1182.80 0.03656
1182.90 0.03655
1183.00 0.03654
1183.10 0.03653
1183.20 0.03651
1183.30 0.0365
1183.40 0.03649
1183.50 0.03648
1183.60 0.03647
1183.70 0.03645
1183.80 0.03644
1183.90 0.03643
1184.00 0.03642
1184.10 0.03641
1184.20 0.03639
1184.30 0.03638
1184.40 0.03637
1184.50 0.03636
1184.60 0.03635
1184.70 0.03633
1184.80 0.03632
1184.90 0.03631
1185.00 0.0363
1185.10 0.03629
1185.20 0.03627
1185.30 0.03626
1185.40 0.03625
1185.50 0.03624
1185.60 0.03622
1185.70 0.03621
1185.80 0.0362
1185.90 0.03619
1186.00 0.03618
1186.10 0.03616
1186.20 0.03615
1186.30 0.03614
1186.40 0.03613
1186.50 0.03612
1186.60 0.0361
1186.70 0.03609
1186.80 0.03608
1186.90 0.03607
1187.00 0.03606
1187.10 0.03605
1187.20 0.03603
1187.30 0.03602
1187.40 0.03601
1187.50 0.036
1187.60 0.03599
1187.70 0.03597
1187.80 0.03596
1187.90 0.03595
1188.00 0.03594
1188.10 0.03593
1188.20 0.03591
1188.30 0.0359
1188.40 0.03589
1188.50 0.03588
1188.60 0.03587
1188.70 0.03585
1188.80 0.03584
1188.90 0.03583
1189.00 0.03582
1189.10 0.03581
1189.20 0.0358
1189.30 0.03578
1189.40 0.03577
1189.50 0.03576
1189.60 0.03575
1189.70 0.03574
1189.80 0.03572
1189.90 0.03571
1190.00 0.0357
1190.10 0.03569
1190.20 0.03568
1190.30 0.03567
1190.40 0.03565
1190.50 0.03564
1190.60 0.03563
1190.70 0.03562
1190.80 0.03561
1190.90 0.03559
1191.00 0.03558
1191.10 0.03557
1191.20 0.03556
1191.30 0.03555
1191.40 0.03554
1191.50 0.03552
1191.60 0.03551
1191.70 0.0355
1191.80 0.03549
1191.90 0.03548
1192.00 0.03547
1192.10 0.03545
1192.20 0.03544
1192.30 0.03543
1192.40 0.03542
1192.50 0.03541
1192.60 0.0354
1192.70 0.03538
1192.80 0.03537
1192.90 0.03536
1193.00 0.03535
1193.10 0.03534
1193.20 0.03532
1193.30 0.03531
1193.40 0.0353
1193.50 0.03529
1193.60 0.03528
1193.70 0.03527
1193.80 0.03526
1193.90 0.03524
1194.00 0.03523
1194.10 0.03522
1194.20 0.03521
1194.30 0.0352
1194.40 0.03519
1194.50 0.03517
1194.60 0.03516
1194.70 0.03515
1194.80 0.03514
1194.90 0.03513
1195.00 0.03512
1195.10 0.0351
1195.20 0.03509
1195.30 0.03508
1195.40 0.03507
1195.50 0.03506
1195.60 0.03505
1195.70 0.03503
1195.80 0.03502
1195.90 0.03501
1196.00 0.035
1196.10 0.03499
1196.20 0.03498
1196.30 0.03497
1196.40 0.03495
1196.50 0.03494
1196.60 0.03493
1196.70 0.03492
1196.80 0.03491
1196.90 0.0349
1197.00 0.03488
1197.10 0.03487
1197.20 0.03486
1197.30 0.03485
1197.40 0.03484
1197.50 0.03483
1197.60 0.03482
1197.70 0.0348
1197.80 0.03479
1197.90 0.03478
1198.00 0.03477
1198.10 0.03476
1198.20 0.03475
1198.30 0.03474
1198.40 0.03472
1198.50 0.03471
1198.60 0.0347
1198.70 0.03469
1198.80 0.03468
1198.90 0.03467
1199.00 0.03465
1199.10 0.03464
1199.20 0.03463
1199.30 0.03462
1199.40 0.03461
1199.50 0.0346
1199.60 0.03459
1199.70 0.03458
1199.80 0.03456
1199.90 0.03455
1200.00 0
