# Version 2.1 - nm, norm@500 to 1, cut digits, bergeron_17000_95.dat_17000
# Wavelength(nm)  Flambda(ergs/cm^s/s/nm)
300.00 3.131
300.10 3.128
300.20 3.126
300.30 3.123
300.40 3.12
300.50 3.117
300.60 3.115
300.70 3.112
300.80 3.109
300.90 3.106
301.00 3.104
301.10 3.101
301.20 3.098
301.30 3.096
301.40 3.093
301.50 3.09
301.60 3.087
301.70 3.085
301.80 3.082
301.90 3.079
302.00 3.077
302.10 3.074
302.20 3.071
302.30 3.069
302.40 3.066
302.50 3.063
302.60 3.061
302.70 3.058
302.80 3.055
302.90 3.053
303.00 3.05
303.10 3.047
303.20 3.045
303.30 3.042
303.40 3.039
303.50 3.037
303.60 3.034
303.70 3.031
303.80 3.029
303.90 3.026
304.00 3.023
304.10 3.021
304.20 3.018
304.30 3.016
304.40 3.013
304.50 3.01
304.60 3.008
304.70 3.005
304.80 3.003
304.90 3
305.00 2.997
305.10 2.995
305.20 2.992
305.30 2.99
305.40 2.987
305.50 2.984
305.60 2.982
305.70 2.979
305.80 2.977
305.90 2.974
306.00 2.971
306.10 2.969
306.20 2.966
306.30 2.964
306.40 2.961
306.50 2.959
306.60 2.956
306.70 2.953
306.80 2.951
306.90 2.948
307.00 2.946
307.10 2.943
307.20 2.941
307.30 2.938
307.40 2.936
307.50 2.933
307.60 2.931
307.70 2.928
307.80 2.926
307.90 2.923
308.00 2.921
308.10 2.918
308.20 2.916
308.30 2.913
308.40 2.911
308.50 2.908
308.60 2.906
308.70 2.903
308.80 2.901
308.90 2.898
309.00 2.896
309.10 2.893
309.20 2.891
309.30 2.888
309.40 2.886
309.50 2.883
309.60 2.881
309.70 2.878
309.80 2.876
309.90 2.873
310.00 2.871
310.10 2.868
310.20 2.866
310.30 2.864
310.40 2.861
310.50 2.859
310.60 2.856
310.70 2.854
310.80 2.851
310.90 2.849
311.00 2.846
311.10 2.844
311.20 2.842
311.30 2.839
311.40 2.837
311.50 2.834
311.60 2.832
311.70 2.83
311.80 2.827
311.90 2.825
312.00 2.822
312.10 2.82
312.20 2.818
312.30 2.815
312.40 2.813
312.50 2.81
312.60 2.808
312.70 2.806
312.80 2.803
312.90 2.801
313.00 2.798
313.10 2.796
313.20 2.794
313.30 2.791
313.40 2.789
313.50 2.787
313.60 2.784
313.70 2.782
313.80 2.779
313.90 2.777
314.00 2.775
314.10 2.772
314.20 2.77
314.30 2.768
314.40 2.765
314.50 2.763
314.60 2.761
314.70 2.758
314.80 2.756
314.90 2.754
315.00 2.751
315.10 2.749
315.20 2.747
315.30 2.745
315.40 2.742
315.50 2.74
315.60 2.738
315.70 2.735
315.80 2.733
315.90 2.731
316.00 2.728
316.10 2.726
316.20 2.724
316.30 2.722
316.40 2.719
316.50 2.717
316.60 2.715
316.70 2.712
316.80 2.71
316.90 2.708
317.00 2.705
317.10 2.703
317.20 2.701
317.30 2.699
317.40 2.696
317.50 2.694
317.60 2.692
317.70 2.69
317.80 2.687
317.90 2.685
318.00 2.683
318.10 2.681
318.20 2.678
318.30 2.676
318.40 2.674
318.50 2.672
318.60 2.669
318.70 2.667
318.80 2.665
318.90 2.663
319.00 2.661
319.10 2.658
319.20 2.656
319.30 2.654
319.40 2.652
319.50 2.649
319.60 2.647
319.70 2.645
319.80 2.643
319.90 2.641
320.00 2.638
320.10 2.636
320.20 2.634
320.30 2.632
320.40 2.63
320.50 2.627
320.60 2.625
320.70 2.623
320.80 2.621
320.90 2.619
321.00 2.617
321.10 2.614
321.20 2.612
321.30 2.61
321.40 2.608
321.50 2.606
321.60 2.603
321.70 2.601
321.80 2.599
321.90 2.597
322.00 2.595
322.10 2.593
322.20 2.591
322.30 2.588
322.40 2.586
322.50 2.584
322.60 2.582
322.70 2.58
322.80 2.578
322.90 2.576
323.00 2.573
323.10 2.571
323.20 2.569
323.30 2.567
323.40 2.565
323.50 2.563
323.60 2.561
323.70 2.559
323.80 2.556
323.90 2.554
324.00 2.552
324.10 2.55
324.20 2.548
324.30 2.546
324.40 2.544
324.50 2.542
324.60 2.54
324.70 2.538
324.80 2.536
324.90 2.533
325.00 2.531
325.10 2.529
325.20 2.527
325.30 2.525
325.40 2.523
325.50 2.521
325.60 2.519
325.70 2.517
325.80 2.515
325.90 2.513
326.00 2.511
326.10 2.509
326.20 2.507
326.30 2.505
326.40 2.502
326.50 2.5
326.60 2.498
326.70 2.496
326.80 2.494
326.90 2.492
327.00 2.49
327.10 2.488
327.20 2.486
327.30 2.484
327.40 2.482
327.50 2.48
327.60 2.478
327.70 2.476
327.80 2.474
327.90 2.472
328.00 2.47
328.10 2.468
328.20 2.466
328.30 2.464
328.40 2.462
328.50 2.46
328.60 2.458
328.70 2.456
328.80 2.454
328.90 2.452
329.00 2.45
329.10 2.448
329.20 2.446
329.30 2.444
329.40 2.442
329.50 2.44
329.60 2.438
329.70 2.436
329.80 2.434
329.90 2.432
330.00 2.43
330.10 2.428
330.20 2.426
330.30 2.424
330.40 2.422
330.50 2.42
330.60 2.418
330.70 2.416
330.80 2.414
330.90 2.412
331.00 2.41
331.10 2.408
331.20 2.406
331.30 2.404
331.40 2.402
331.50 2.401
331.60 2.399
331.70 2.397
331.80 2.395
331.90 2.393
332.00 2.391
332.10 2.389
332.20 2.387
332.30 2.385
332.40 2.383
332.50 2.381
332.60 2.379
332.70 2.377
332.80 2.375
332.90 2.373
333.00 2.372
333.10 2.37
333.20 2.368
333.30 2.366
333.40 2.364
333.50 2.362
333.60 2.36
333.70 2.358
333.80 2.356
333.90 2.354
334.00 2.352
334.10 2.351
334.20 2.349
334.30 2.347
334.40 2.345
334.50 2.343
334.60 2.341
334.70 2.339
334.80 2.337
334.90 2.335
335.00 2.334
335.10 2.332
335.20 2.33
335.30 2.328
335.40 2.326
335.50 2.324
335.60 2.322
335.70 2.321
335.80 2.319
335.90 2.317
336.00 2.315
336.10 2.313
336.20 2.311
336.30 2.309
336.40 2.308
336.50 2.306
336.60 2.304
336.70 2.302
336.80 2.3
336.90 2.298
337.00 2.296
337.10 2.295
337.20 2.293
337.30 2.291
337.40 2.289
337.50 2.287
337.60 2.285
337.70 2.284
337.80 2.282
337.90 2.28
338.00 2.278
338.10 2.276
338.20 2.275
338.30 2.273
338.40 2.271
338.50 2.269
338.60 2.267
338.70 2.266
338.80 2.264
338.90 2.262
339.00 2.26
339.10 2.258
339.20 2.257
339.30 2.255
339.40 2.253
339.50 2.251
339.60 2.249
339.70 2.248
339.80 2.246
339.90 2.244
340.00 2.242
340.10 2.24
340.20 2.239
340.30 2.237
340.40 2.235
340.50 2.233
340.60 2.232
340.70 2.23
340.80 2.228
340.90 2.226
341.00 2.225
341.10 2.223
341.20 2.221
341.30 2.219
341.40 2.217
341.50 2.216
341.60 2.214
341.70 2.212
341.80 2.21
341.90 2.209
342.00 2.207
342.10 2.205
342.20 2.204
342.30 2.202
342.40 2.2
342.50 2.198
342.60 2.197
342.70 2.195
342.80 2.193
342.90 2.191
343.00 2.19
343.10 2.188
343.20 2.186
343.30 2.184
343.40 2.183
343.50 2.181
343.60 2.179
343.70 2.178
343.80 2.176
343.90 2.174
344.00 2.172
344.10 2.171
344.20 2.169
344.30 2.167
344.40 2.166
344.50 2.164
344.60 2.162
344.70 2.161
344.80 2.159
344.90 2.157
345.00 2.155
345.10 2.154
345.20 2.152
345.30 2.15
345.40 2.149
345.50 2.147
345.60 2.145
345.70 2.144
345.80 2.142
345.90 2.14
346.00 2.139
346.10 2.137
346.20 2.135
346.30 2.134
346.40 2.132
346.50 2.13
346.60 2.129
346.70 2.127
346.80 2.125
346.90 2.124
347.00 2.122
347.10 2.12
347.20 2.119
347.30 2.117
347.40 2.115
347.50 2.114
347.60 2.112
347.70 2.11
347.80 2.109
347.90 2.107
348.00 2.105
348.10 2.104
348.20 2.102
348.30 2.1
348.40 2.099
348.50 2.097
348.60 2.096
348.70 2.094
348.80 2.092
348.90 2.091
349.00 2.089
349.10 2.087
349.20 2.086
349.30 2.084
349.40 2.083
349.50 2.081
349.60 2.079
349.70 2.078
349.80 2.076
349.90 2.075
350.00 2.073
350.10 2.071
350.20 2.07
350.30 2.068
350.40 2.067
350.50 2.065
350.60 2.063
350.70 2.062
350.80 2.06
350.90 2.058
351.00 2.057
351.10 2.055
351.20 2.054
351.30 2.052
351.40 2.051
351.50 2.049
351.60 2.047
351.70 2.046
351.80 2.044
351.90 2.043
352.00 2.041
352.10 2.039
352.20 2.038
352.30 2.036
352.40 2.035
352.50 2.033
352.60 2.032
352.70 2.03
352.80 2.028
352.90 2.027
353.00 2.025
353.10 2.024
353.20 2.022
353.30 2.021
353.40 2.019
353.50 2.018
353.60 2.016
353.70 2.014
353.80 2.013
353.90 2.011
354.00 2.01
354.10 2.008
354.20 2.007
354.30 2.005
354.40 2.004
354.50 2.002
354.60 2.001
354.70 1.999
354.80 1.997
354.90 1.996
355.00 1.994
355.10 1.993
355.20 1.991
355.30 1.99
355.40 1.988
355.50 1.987
355.60 1.985
355.70 1.984
355.80 1.982
355.90 1.981
356.00 1.979
356.10 1.978
356.20 1.976
356.30 1.975
356.40 1.973
356.50 1.972
356.60 1.97
356.70 1.969
356.80 1.967
356.90 1.966
357.00 1.964
357.10 1.963
357.20 1.961
357.30 1.96
357.40 1.958
357.50 1.957
357.60 1.955
357.70 1.954
357.80 1.952
357.90 1.951
358.00 1.949
358.10 1.948
358.20 1.946
358.30 1.945
358.40 1.943
358.50 1.942
358.60 1.94
358.70 1.939
358.80 1.937
358.90 1.936
359.00 1.934
359.10 1.933
359.20 1.931
359.30 1.93
359.40 1.928
359.50 1.927
359.60 1.925
359.70 1.924
359.80 1.922
359.90 1.921
360.00 1.92
360.10 1.918
360.20 1.917
360.30 1.915
360.40 1.914
360.50 1.912
360.60 1.911
360.70 1.909
360.80 1.908
360.90 1.907
361.00 1.905
361.10 1.904
361.20 1.902
361.30 1.901
361.40 1.899
361.50 1.898
361.60 1.896
361.70 1.895
361.80 1.894
361.90 1.892
362.00 1.891
362.10 1.889
362.20 1.888
362.30 1.886
362.40 1.885
362.50 1.884
362.60 1.882
362.70 1.881
362.80 1.879
362.90 1.878
363.00 1.877
363.10 1.875
363.20 1.873
363.30 1.872
363.40 1.87
363.50 1.868
363.60 1.867
363.70 1.865
363.80 1.863
363.90 1.862
364.00 1.86
364.10 1.858
364.20 1.857
364.30 1.855
364.40 1.853
364.50 1.852
364.60 1.85
364.70 1.848
364.80 1.846
364.90 1.845
365.00 1.843
365.10 1.841
365.20 1.84
365.30 1.838
365.40 1.836
365.50 1.835
365.60 1.833
365.70 1.831
365.80 1.83
365.90 1.828
366.00 1.826
366.10 1.825
366.20 1.823
366.30 1.822
366.40 1.82
366.50 1.819
366.60 1.818
366.70 1.816
366.80 1.815
366.90 1.813
367.00 1.812
367.10 1.81
367.20 1.809
367.30 1.807
367.40 1.806
367.50 1.805
367.60 1.803
367.70 1.802
367.80 1.8
367.90 1.799
368.00 1.797
368.10 1.796
368.20 1.795
368.30 1.793
368.40 1.792
368.50 1.79
368.60 1.789
368.70 1.787
368.80 1.786
368.90 1.784
369.00 1.783
369.10 1.782
369.20 1.78
369.30 1.779
369.40 1.777
369.50 1.776
369.60 1.774
369.70 1.773
369.80 1.772
369.90 1.77
370.00 1.769
370.10 1.767
370.20 1.766
370.30 1.765
370.40 1.763
370.50 1.762
370.60 1.76
370.70 1.759
370.80 1.757
370.90 1.756
371.00 1.755
371.10 1.753
371.20 1.752
371.30 1.75
371.40 1.749
371.50 1.748
371.60 1.746
371.70 1.745
371.80 1.743
371.90 1.742
372.00 1.741
372.10 1.739
372.20 1.738
372.30 1.737
372.40 1.735
372.50 1.734
372.60 1.733
372.70 1.731
372.80 1.73
372.90 1.729
373.00 1.727
373.10 1.726
373.20 1.725
373.30 1.723
373.40 1.722
373.50 1.721
373.60 1.719
373.70 1.718
373.80 1.717
373.90 1.715
374.00 1.714
374.10 1.713
374.20 1.712
374.30 1.71
374.40 1.709
374.50 1.708
374.60 1.706
374.70 1.705
374.80 1.704
374.90 1.703
375.00 1.701
375.10 1.7
375.20 1.699
375.30 1.698
375.40 1.696
375.50 1.695
375.60 1.694
375.70 1.693
375.80 1.691
375.90 1.69
376.00 1.689
376.10 1.688
376.20 1.686
376.30 1.685
376.40 1.684
376.50 1.683
376.60 1.682
376.70 1.681
376.80 1.679
376.90 1.678
377.00 1.677
377.10 1.676
377.20 1.675
377.30 1.674
377.40 1.672
377.50 1.671
377.60 1.67
377.70 1.669
377.80 1.668
377.90 1.666
378.00 1.665
378.10 1.664
378.20 1.662
378.30 1.661
378.40 1.66
378.50 1.658
378.60 1.657
378.70 1.655
378.80 1.654
378.90 1.653
379.00 1.651
379.10 1.65
379.20 1.649
379.30 1.648
379.40 1.647
379.50 1.645
379.60 1.644
379.70 1.643
379.80 1.642
379.90 1.641
380.00 1.64
380.10 1.639
380.20 1.638
380.30 1.638
380.40 1.637
380.50 1.637
380.60 1.636
380.70 1.636
380.80 1.635
380.90 1.634
381.00 1.634
381.10 1.633
381.20 1.632
381.30 1.631
381.40 1.631
381.50 1.63
381.60 1.629
381.70 1.628
381.80 1.627
381.90 1.626
382.00 1.625
382.10 1.623
382.20 1.622
382.30 1.62
382.40 1.618
382.50 1.617
382.60 1.615
382.70 1.613
382.80 1.612
382.90 1.61
383.00 1.608
383.10 1.606
383.20 1.605
383.30 1.603
383.40 1.602
383.50 1.601
383.60 1.6
383.70 1.601
383.80 1.601
383.90 1.601
384.00 1.601
384.10 1.602
384.20 1.603
384.30 1.603
384.40 1.604
384.50 1.604
384.60 1.605
384.70 1.605
384.80 1.605
384.90 1.605
385.00 1.605
385.10 1.605
385.20 1.605
385.30 1.604
385.40 1.604
385.50 1.603
385.60 1.602
385.70 1.602
385.80 1.601
385.90 1.6
386.00 1.599
386.10 1.598
386.20 1.596
386.30 1.595
386.40 1.594
386.50 1.592
386.60 1.591
386.70 1.589
386.80 1.587
386.90 1.586
387.00 1.584
387.10 1.582
387.20 1.58
387.30 1.578
387.40 1.576
387.50 1.573
387.60 1.57
387.70 1.568
387.80 1.565
387.90 1.562
388.00 1.56
388.10 1.556
388.20 1.553
388.30 1.549
388.40 1.545
388.50 1.542
388.60 1.539
388.70 1.537
388.80 1.535
388.90 1.534
389.00 1.534
389.10 1.535
389.20 1.536
389.30 1.539
389.40 1.542
389.50 1.545
389.60 1.548
389.70 1.551
389.80 1.553
389.90 1.555
390.00 1.557
390.10 1.559
390.20 1.561
390.30 1.563
390.40 1.565
390.50 1.566
390.60 1.568
390.70 1.569
390.80 1.57
390.90 1.571
391.00 1.571
391.10 1.572
391.20 1.573
391.30 1.573
391.40 1.574
391.50 1.574
391.60 1.574
391.70 1.574
391.80 1.574
391.90 1.574
392.00 1.574
392.10 1.573
392.20 1.572
392.30 1.571
392.40 1.57
392.50 1.569
392.60 1.568
392.70 1.567
392.80 1.565
392.90 1.563
393.00 1.561
393.10 1.559
393.20 1.557
393.30 1.554
393.40 1.552
393.50 1.549
393.60 1.546
393.70 1.543
393.80 1.54
393.90 1.536
394.00 1.533
394.10 1.529
394.20 1.525
394.30 1.52
394.40 1.516
394.50 1.511
394.60 1.507
394.70 1.502
394.80 1.497
394.90 1.492
395.00 1.487
395.10 1.481
395.20 1.476
395.30 1.47
395.40 1.464
395.50 1.458
395.60 1.451
395.70 1.445
395.80 1.438
395.90 1.431
396.00 1.424
396.10 1.418
396.20 1.41
396.30 1.403
396.40 1.394
396.50 1.384
396.60 1.374
396.70 1.363
396.80 1.356
396.90 1.349
397.00 1.343
397.10 1.348
397.20 1.354
397.30 1.36
397.40 1.37
397.50 1.38
397.60 1.389
397.70 1.397
397.80 1.405
397.90 1.412
398.00 1.418
398.10 1.424
398.20 1.43
398.30 1.437
398.40 1.443
398.50 1.449
398.60 1.455
398.70 1.461
398.80 1.466
398.90 1.471
399.00 1.476
399.10 1.481
399.20 1.486
399.30 1.491
399.40 1.495
399.50 1.5
399.60 1.504
399.70 1.508
399.80 1.512
399.90 1.516
400.00 1.52
400.10 1.523
400.20 1.527
400.30 1.53
400.40 1.533
400.50 1.536
400.60 1.538
400.70 1.541
400.80 1.543
400.90 1.546
401.00 1.548
401.10 1.549
401.20 1.551
401.30 1.553
401.40 1.554
401.50 1.555
401.60 1.556
401.70 1.557
401.80 1.558
401.90 1.559
402.00 1.559
402.10 1.56
402.20 1.56
402.30 1.56
402.40 1.56
402.50 1.559
402.60 1.559
402.70 1.558
402.80 1.558
402.90 1.557
403.00 1.556
403.10 1.554
403.20 1.553
403.30 1.552
403.40 1.55
403.50 1.548
403.60 1.546
403.70 1.544
403.80 1.541
403.90 1.539
404.00 1.536
404.10 1.533
404.20 1.53
404.30 1.527
404.40 1.524
404.50 1.52
404.60 1.517
404.70 1.513
404.80 1.509
404.90 1.504
405.00 1.5
405.10 1.496
405.20 1.491
405.30 1.486
405.40 1.481
405.50 1.476
405.60 1.47
405.70 1.465
405.80 1.459
405.90 1.453
406.00 1.447
406.10 1.44
406.20 1.434
406.30 1.427
406.40 1.42
406.50 1.413
406.60 1.406
406.70 1.398
406.80 1.391
406.90 1.383
407.00 1.375
407.10 1.366
407.20 1.358
407.30 1.349
407.40 1.34
407.50 1.331
407.60 1.321
407.70 1.312
407.80 1.302
407.90 1.292
408.00 1.282
408.10 1.271
408.20 1.261
408.30 1.25
408.40 1.239
408.50 1.228
408.60 1.217
408.70 1.205
408.80 1.193
408.90 1.181
409.00 1.169
409.10 1.157
409.20 1.145
409.30 1.134
409.40 1.122
409.50 1.11
409.60 1.098
409.70 1.084
409.80 1.071
409.90 1.058
410.00 1.048
410.10 1.042
410.20 1.041
410.30 1.044
410.40 1.051
410.50 1.062
410.60 1.074
410.70 1.086
410.80 1.098
410.90 1.109
411.00 1.12
411.10 1.131
411.20 1.141
411.30 1.152
411.40 1.163
411.50 1.174
411.60 1.185
411.70 1.195
411.80 1.206
411.90 1.216
412.00 1.226
412.10 1.235
412.20 1.245
412.30 1.254
412.40 1.264
412.50 1.273
412.60 1.282
412.70 1.29
412.80 1.299
412.90 1.307
413.00 1.315
413.10 1.323
413.20 1.331
413.30 1.339
413.40 1.346
413.50 1.353
413.60 1.361
413.70 1.367
413.80 1.374
413.90 1.381
414.00 1.387
414.10 1.394
414.20 1.4
414.30 1.406
414.40 1.412
414.50 1.417
414.60 1.423
414.70 1.428
414.80 1.434
414.90 1.439
415.00 1.444
415.10 1.449
415.20 1.454
415.30 1.458
415.40 1.463
415.50 1.467
415.60 1.472
415.70 1.476
415.80 1.48
415.90 1.484
416.00 1.488
416.10 1.492
416.20 1.496
416.30 1.499
416.40 1.503
416.50 1.506
416.60 1.509
416.70 1.512
416.80 1.516
416.90 1.518
417.00 1.521
417.10 1.524
417.20 1.527
417.30 1.529
417.40 1.532
417.50 1.534
417.60 1.537
417.70 1.539
417.80 1.541
417.90 1.543
418.00 1.545
418.10 1.547
418.20 1.549
418.30 1.55
418.40 1.552
418.50 1.553
418.60 1.555
418.70 1.556
418.80 1.557
418.90 1.559
419.00 1.56
419.10 1.561
419.20 1.562
419.30 1.563
419.40 1.563
419.50 1.564
419.60 1.565
419.70 1.565
419.80 1.566
419.90 1.566
420.00 1.567
420.10 1.567
420.20 1.567
420.30 1.567
420.40 1.567
420.50 1.567
420.60 1.567
420.70 1.567
420.80 1.566
420.90 1.566
421.00 1.565
421.10 1.565
421.20 1.564
421.30 1.563
421.40 1.563
421.50 1.562
421.60 1.561
421.70 1.56
421.80 1.559
421.90 1.558
422.00 1.557
422.10 1.555
422.20 1.554
422.30 1.552
422.40 1.551
422.50 1.549
422.60 1.548
422.70 1.546
422.80 1.544
422.90 1.542
423.00 1.54
423.10 1.538
423.20 1.536
423.30 1.534
423.40 1.531
423.50 1.529
423.60 1.527
423.70 1.524
423.80 1.522
423.90 1.519
424.00 1.516
424.10 1.513
424.20 1.51
424.30 1.507
424.40 1.504
424.50 1.501
424.60 1.498
424.70 1.495
424.80 1.491
424.90 1.488
425.00 1.484
425.10 1.481
425.20 1.477
425.30 1.473
425.40 1.47
425.50 1.466
425.60 1.462
425.70 1.458
425.80 1.453
425.90 1.449
426.00 1.445
426.10 1.441
426.20 1.435
426.30 1.43
426.40 1.425
426.50 1.421
426.60 1.416
426.70 1.411
426.80 1.406
426.90 1.401
427.00 1.396
427.10 1.391
427.20 1.385
427.30 1.38
427.40 1.374
427.50 1.369
427.60 1.363
427.70 1.357
427.80 1.352
427.90 1.346
428.00 1.34
428.10 1.334
428.20 1.327
428.30 1.321
428.40 1.315
428.50 1.308
428.60 1.302
428.70 1.295
428.80 1.288
428.90 1.282
429.00 1.275
429.10 1.268
429.20 1.26
429.30 1.253
429.40 1.246
429.50 1.238
429.60 1.231
429.70 1.223
429.80 1.215
429.90 1.208
430.00 1.2
430.10 1.191
430.20 1.183
430.30 1.175
430.40 1.166
430.50 1.158
430.60 1.149
430.70 1.14
430.80 1.131
430.90 1.122
431.00 1.112
431.10 1.103
431.20 1.093
431.30 1.083
431.40 1.073
431.50 1.063
431.60 1.053
431.70 1.042
431.80 1.032
431.90 1.021
432.00 1.01
432.10 0.9991
432.20 0.9878
432.30 0.9763
432.40 0.9646
432.50 0.9526
432.60 0.9403
432.70 0.9277
432.80 0.9149
432.90 0.9021
433.00 0.8893
433.10 0.8767
433.20 0.8641
433.30 0.8515
433.40 0.8385
433.50 0.825
433.60 0.8111
433.70 0.7931
433.80 0.77
433.90 0.7417
434.00 0.7132
434.10 0.7137
434.20 0.7432
434.30 0.7701
434.40 0.792
434.50 0.8088
434.60 0.8218
434.70 0.8343
434.80 0.8463
434.90 0.8579
435.00 0.8696
435.10 0.8811
435.20 0.8929
435.30 0.9046
435.40 0.9162
435.50 0.9276
435.60 0.9387
435.70 0.9495
435.80 0.96
435.90 0.9702
436.00 0.9802
436.10 0.9899
436.20 0.9995
436.30 1.009
436.40 1.018
436.50 1.027
436.60 1.036
436.70 1.045
436.80 1.053
436.90 1.062
437.00 1.07
437.10 1.078
437.20 1.086
437.30 1.093
437.40 1.101
437.50 1.108
437.60 1.115
437.70 1.122
437.80 1.129
437.90 1.136
438.00 1.143
438.10 1.149
438.20 1.156
438.30 1.162
438.40 1.168
438.50 1.174
438.60 1.18
438.70 1.186
438.80 1.192
438.90 1.197
439.00 1.203
439.10 1.208
439.20 1.213
439.30 1.219
439.40 1.224
439.50 1.229
439.60 1.234
439.70 1.239
439.80 1.243
439.90 1.248
440.00 1.253
440.10 1.257
440.20 1.261
440.30 1.266
440.40 1.27
440.50 1.274
440.60 1.278
440.70 1.282
440.80 1.286
440.90 1.29
441.00 1.294
441.10 1.298
441.20 1.301
441.30 1.305
441.40 1.308
441.50 1.312
441.60 1.315
441.70 1.318
441.80 1.322
441.90 1.325
442.00 1.328
442.10 1.331
442.20 1.334
442.30 1.337
442.40 1.34
442.50 1.342
442.60 1.345
442.70 1.348
442.80 1.351
442.90 1.353
443.00 1.356
443.10 1.358
443.20 1.36
443.30 1.363
443.40 1.365
443.50 1.367
443.60 1.37
443.70 1.372
443.80 1.374
443.90 1.376
444.00 1.378
444.10 1.38
444.20 1.382
444.30 1.384
444.40 1.385
444.50 1.387
444.60 1.389
444.70 1.391
444.80 1.392
444.90 1.394
445.00 1.395
445.10 1.397
445.20 1.398
445.30 1.4
445.40 1.401
445.50 1.402
445.60 1.404
445.70 1.405
445.80 1.406
445.90 1.407
446.00 1.409
446.10 1.41
446.20 1.411
446.30 1.412
446.40 1.413
446.50 1.414
446.60 1.415
446.70 1.416
446.80 1.417
446.90 1.417
447.00 1.418
447.10 1.419
447.20 1.42
447.30 1.421
447.40 1.421
447.50 1.422
447.60 1.423
447.70 1.423
447.80 1.424
447.90 1.424
448.00 1.425
448.10 1.425
448.20 1.426
448.30 1.426
448.40 1.427
448.50 1.427
448.60 1.428
448.70 1.428
448.80 1.428
448.90 1.429
449.00 1.429
449.10 1.429
449.20 1.43
449.30 1.43
449.40 1.43
449.50 1.43
449.60 1.43
449.70 1.431
449.80 1.431
449.90 1.431
450.00 1.431
450.10 1.431
450.20 1.431
450.30 1.431
450.40 1.431
450.50 1.431
450.60 1.431
450.70 1.431
450.80 1.431
450.90 1.431
451.00 1.431
451.10 1.43
451.20 1.43
451.30 1.43
451.40 1.43
451.50 1.43
451.60 1.43
451.70 1.429
451.80 1.429
451.90 1.429
452.00 1.429
452.10 1.428
452.20 1.428
452.30 1.428
452.40 1.427
452.50 1.427
452.60 1.426
452.70 1.426
452.80 1.426
452.90 1.425
453.00 1.425
453.10 1.424
453.20 1.424
453.30 1.424
453.40 1.423
453.50 1.423
453.60 1.422
453.70 1.422
453.80 1.421
453.90 1.421
454.00 1.42
454.10 1.42
454.20 1.419
454.30 1.419
454.40 1.418
454.50 1.417
454.60 1.417
454.70 1.416
454.80 1.415
454.90 1.415
455.00 1.414
455.10 1.414
455.20 1.413
455.30 1.412
455.40 1.412
455.50 1.411
455.60 1.41
455.70 1.409
455.80 1.409
455.90 1.408
456.00 1.407
456.10 1.407
456.20 1.406
456.30 1.405
456.40 1.404
456.50 1.404
456.60 1.403
456.70 1.402
456.80 1.401
456.90 1.401
457.00 1.4
457.10 1.399
457.20 1.398
457.30 1.398
457.40 1.397
457.50 1.396
457.60 1.395
457.70 1.394
457.80 1.393
457.90 1.392
458.00 1.392
458.10 1.391
458.20 1.39
458.30 1.389
458.40 1.388
458.50 1.387
458.60 1.386
458.70 1.385
458.80 1.384
458.90 1.383
459.00 1.382
459.10 1.381
459.20 1.38
459.30 1.379
459.40 1.378
459.50 1.377
459.60 1.376
459.70 1.375
459.80 1.374
459.90 1.373
460.00 1.372
460.10 1.371
460.20 1.37
460.30 1.369
460.40 1.368
460.50 1.367
460.60 1.366
460.70 1.364
460.80 1.363
460.90 1.362
461.00 1.361
461.10 1.36
461.20 1.359
461.30 1.358
461.40 1.356
461.50 1.355
461.60 1.354
461.70 1.353
461.80 1.352
461.90 1.351
462.00 1.349
462.10 1.348
462.20 1.347
462.30 1.346
462.40 1.345
462.50 1.343
462.60 1.342
462.70 1.341
462.80 1.34
462.90 1.338
463.00 1.337
463.10 1.336
463.20 1.335
463.30 1.333
463.40 1.332
463.50 1.331
463.60 1.329
463.70 1.328
463.80 1.327
463.90 1.325
464.00 1.324
464.10 1.323
464.20 1.321
464.30 1.32
464.40 1.318
464.50 1.317
464.60 1.316
464.70 1.314
464.80 1.313
464.90 1.311
465.00 1.31
465.10 1.309
465.20 1.307
465.30 1.306
465.40 1.304
465.50 1.303
465.60 1.301
465.70 1.3
465.80 1.298
465.90 1.297
466.00 1.295
466.10 1.294
466.20 1.292
466.30 1.291
466.40 1.289
466.50 1.288
466.60 1.286
466.70 1.284
466.80 1.283
466.90 1.281
467.00 1.28
467.10 1.278
467.20 1.276
467.30 1.275
467.40 1.273
467.50 1.271
467.60 1.27
467.70 1.268
467.80 1.266
467.90 1.265
468.00 1.263
468.10 1.261
468.20 1.26
468.30 1.258
468.40 1.256
468.50 1.254
468.60 1.252
468.70 1.251
468.80 1.249
468.90 1.247
469.00 1.245
469.10 1.243
469.20 1.242
469.30 1.24
469.40 1.238
469.50 1.236
469.60 1.234
469.70 1.232
469.80 1.23
469.90 1.228
470.00 1.226
470.10 1.224
470.20 1.223
470.30 1.221
470.40 1.219
470.50 1.217
470.60 1.215
470.70 1.213
470.80 1.211
470.90 1.209
471.00 1.207
471.10 1.205
471.20 1.203
471.30 1.201
471.40 1.199
471.50 1.196
471.60 1.194
471.70 1.192
471.80 1.19
471.90 1.188
472.00 1.186
472.10 1.183
472.20 1.181
472.30 1.179
472.40 1.177
472.50 1.174
472.60 1.172
472.70 1.17
472.80 1.167
472.90 1.165
473.00 1.163
473.10 1.16
473.20 1.158
473.30 1.155
473.40 1.153
473.50 1.15
473.60 1.148
473.70 1.145
473.80 1.143
473.90 1.14
474.00 1.138
474.10 1.135
474.20 1.133
474.30 1.13
474.40 1.127
474.50 1.124
474.60 1.122
474.70 1.119
474.80 1.116
474.90 1.114
475.00 1.111
475.10 1.108
475.20 1.105
475.30 1.102
475.40 1.099
475.50 1.097
475.60 1.094
475.70 1.091
475.80 1.088
475.90 1.085
476.00 1.082
476.10 1.079
476.20 1.076
476.30 1.073
476.40 1.07
476.50 1.067
476.60 1.063
476.70 1.06
476.80 1.057
476.90 1.054
477.00 1.051
477.10 1.048
477.20 1.044
477.30 1.041
477.40 1.038
477.50 1.034
477.60 1.031
477.70 1.027
477.80 1.024
477.90 1.02
478.00 1.017
478.10 1.014
478.20 1.01
478.30 1.006
478.40 1.003
478.50 0.9988
478.60 0.9951
478.70 0.9914
478.80 0.9877
478.90 0.984
479.00 0.9802
479.10 0.9765
479.20 0.9726
479.30 0.9685
479.40 0.9645
479.50 0.9604
479.60 0.9564
479.70 0.9523
479.80 0.9483
479.90 0.9443
480.00 0.9402
480.10 0.9362
480.20 0.9319
480.30 0.9275
480.40 0.923
480.50 0.9186
480.60 0.9142
480.70 0.9098
480.80 0.9054
480.90 0.9009
481.00 0.8965
481.10 0.8921
481.20 0.8874
481.30 0.8824
481.40 0.8775
481.50 0.8726
481.60 0.8676
481.70 0.8627
481.80 0.8578
481.90 0.8529
482.00 0.848
482.10 0.8431
482.20 0.8377
482.30 0.8321
482.40 0.8265
482.50 0.8209
482.60 0.8153
482.70 0.8097
482.80 0.8042
482.90 0.7986
483.00 0.793
483.10 0.7874
483.20 0.7811
483.30 0.7744
483.40 0.7677
483.50 0.761
483.60 0.7543
483.70 0.7477
483.80 0.741
483.90 0.7343
484.00 0.7277
484.10 0.721
484.20 0.7134
484.30 0.7054
484.40 0.6974
484.50 0.6894
484.60 0.6815
484.70 0.6725
484.80 0.6632
484.90 0.6538
485.00 0.6445
485.10 0.6351
485.20 0.6252
485.30 0.6149
485.40 0.6041
485.50 0.593
485.60 0.5809
485.70 0.5685
485.80 0.5527
485.90 0.5353
486.00 0.5101
486.10 0.4804
486.20 0.4854
486.30 0.5199
486.40 0.5397
486.50 0.5567
486.60 0.5702
486.70 0.5821
486.80 0.593
486.90 0.6035
487.00 0.6133
487.10 0.6229
487.20 0.6318
487.30 0.6404
487.40 0.649
487.50 0.6575
487.60 0.6661
487.70 0.6737
487.80 0.6809
487.90 0.688
488.00 0.6951
488.10 0.7023
488.20 0.7085
488.30 0.7142
488.40 0.7199
488.50 0.7257
488.60 0.7314
488.70 0.7371
488.80 0.7428
488.90 0.7485
489.00 0.7542
489.10 0.7599
489.20 0.7648
489.30 0.7694
489.40 0.7739
489.50 0.7784
489.60 0.7829
489.70 0.7874
489.80 0.7919
489.90 0.7964
490.00 0.8009
490.10 0.8054
490.20 0.8094
490.30 0.8132
490.40 0.8169
490.50 0.8207
490.60 0.8244
490.70 0.8281
490.80 0.8319
490.90 0.8356
491.00 0.8393
491.10 0.843
491.20 0.8464
491.30 0.8496
491.40 0.8527
491.50 0.8559
491.60 0.859
491.70 0.8622
491.80 0.8653
491.90 0.8685
492.00 0.8716
492.10 0.8747
492.20 0.8776
492.30 0.8803
492.40 0.883
492.50 0.8857
492.60 0.8884
492.70 0.8911
492.80 0.8938
492.90 0.8964
493.00 0.8991
493.10 0.9018
493.20 0.9043
493.30 0.9066
493.40 0.9089
493.50 0.9112
493.60 0.9135
493.70 0.9158
493.80 0.9181
493.90 0.9204
494.00 0.9227
494.10 0.925
494.20 0.9271
494.30 0.929
494.40 0.931
494.50 0.9329
494.60 0.9348
494.70 0.9368
494.80 0.9387
494.90 0.9406
495.00 0.9425
495.10 0.9445
495.20 0.9462
495.30 0.9478
495.40 0.9494
495.50 0.9511
495.60 0.9527
495.70 0.9543
495.80 0.9559
495.90 0.9575
496.00 0.9591
496.10 0.9607
496.20 0.9622
496.30 0.9635
496.40 0.9648
496.50 0.9662
496.60 0.9675
496.70 0.9688
496.80 0.9702
496.90 0.9715
497.00 0.9728
497.10 0.9742
497.20 0.9753
497.30 0.9764
497.40 0.9775
497.50 0.9786
497.60 0.9797
497.70 0.9808
497.80 0.9819
497.90 0.983
498.00 0.9841
498.10 0.9851
498.20 0.9861
498.30 0.987
498.40 0.9878
498.50 0.9887
498.60 0.9896
498.70 0.9905
498.80 0.9913
498.90 0.9922
499.00 0.9931
499.10 0.9939
499.20 0.9947
499.30 0.9953
499.40 0.996
499.50 0.9967
499.60 0.9973
499.70 0.998
499.80 0.9987
499.90 0.9993
500.00 1
500.10 1.001
500.20 1.001
500.30 1.002
500.40 1.002
500.50 1.003
500.60 1.003
500.70 1.004
500.80 1.004
500.90 1.005
501.00 1.005
501.10 1.006
501.20 1.006
501.30 1.007
501.40 1.007
501.50 1.007
501.60 1.008
501.70 1.008
501.80 1.008
501.90 1.009
502.00 1.009
502.10 1.009
502.20 1.01
502.30 1.01
502.40 1.01
502.50 1.01
502.60 1.011
502.70 1.011
502.80 1.011
502.90 1.011
503.00 1.012
503.10 1.012
503.20 1.012
503.30 1.012
503.40 1.012
503.50 1.012
503.60 1.013
503.70 1.013
503.80 1.013
503.90 1.013
504.00 1.013
504.10 1.013
504.20 1.013
504.30 1.013
504.40 1.013
504.50 1.013
504.60 1.013
504.70 1.013
504.80 1.013
504.90 1.013
505.00 1.013
505.10 1.013
505.20 1.013
505.30 1.013
505.40 1.013
505.50 1.013
505.60 1.013
505.70 1.013
505.80 1.013
505.90 1.013
506.00 1.013
506.10 1.013
506.20 1.013
506.30 1.013
506.40 1.013
506.50 1.012
506.60 1.012
506.70 1.012
506.80 1.012
506.90 1.012
507.00 1.012
507.10 1.012
507.20 1.011
507.30 1.011
507.40 1.011
507.50 1.011
507.60 1.011
507.70 1.01
507.80 1.01
507.90 1.01
508.00 1.01
508.10 1.01
508.20 1.009
508.30 1.009
508.40 1.009
508.50 1.009
508.60 1.008
508.70 1.008
508.80 1.008
508.90 1.008
509.00 1.007
509.10 1.007
509.20 1.007
509.30 1.007
509.40 1.006
509.50 1.006
509.60 1.006
509.70 1.005
509.80 1.005
509.90 1.005
510.00 1.005
510.10 1.004
510.20 1.004
510.30 1.004
510.40 1.003
510.50 1.003
510.60 1.003
510.70 1.002
510.80 1.002
510.90 1.002
511.00 1.001
511.10 1.001
511.20 1
511.30 1
511.40 0.9997
511.50 0.9994
511.60 0.999
511.70 0.9986
511.80 0.9982
511.90 0.9979
512.00 0.9975
512.10 0.9971
512.20 0.9967
512.30 0.9963
512.40 0.9959
512.50 0.9955
512.60 0.9951
512.70 0.9947
512.80 0.9943
512.90 0.9939
513.00 0.9935
513.10 0.9931
513.20 0.9927
513.30 0.9922
513.40 0.9918
513.50 0.9914
513.60 0.991
513.70 0.9905
513.80 0.9901
513.90 0.9897
514.00 0.9893
514.10 0.9888
514.20 0.9884
514.30 0.988
514.40 0.9875
514.50 0.9871
514.60 0.9866
514.70 0.9862
514.80 0.9857
514.90 0.9853
515.00 0.9849
515.10 0.9844
515.20 0.984
515.30 0.9835
515.40 0.983
515.50 0.9825
515.60 0.9821
515.70 0.9816
515.80 0.9811
515.90 0.9807
516.00 0.9802
516.10 0.9797
516.20 0.9793
516.30 0.9788
516.40 0.9783
516.50 0.9779
516.60 0.9774
516.70 0.9769
516.80 0.9764
516.90 0.976
517.00 0.9755
517.10 0.975
517.20 0.9745
517.30 0.9741
517.40 0.9736
517.50 0.9731
517.60 0.9726
517.70 0.9721
517.80 0.9716
517.90 0.9711
518.00 0.9706
518.10 0.9702
518.20 0.9697
518.30 0.9692
518.40 0.9687
518.50 0.9682
518.60 0.9677
518.70 0.9672
518.80 0.9667
518.90 0.9662
519.00 0.9657
519.10 0.9652
519.20 0.9647
519.30 0.9642
519.40 0.9636
519.50 0.9631
519.60 0.9626
519.70 0.9621
519.80 0.9616
519.90 0.9611
520.00 0.9606
520.10 0.9601
520.20 0.9596
520.30 0.9591
520.40 0.9585
520.50 0.958
520.60 0.9575
520.70 0.957
520.80 0.9565
520.90 0.9559
521.00 0.9554
521.10 0.9549
521.20 0.9544
521.30 0.9539
521.40 0.9533
521.50 0.9528
521.60 0.9523
521.70 0.9518
521.80 0.9513
521.90 0.9507
522.00 0.9502
522.10 0.9497
522.20 0.9492
522.30 0.9486
522.40 0.9481
522.50 0.9476
522.60 0.9471
522.70 0.9465
522.80 0.946
522.90 0.9455
523.00 0.945
523.10 0.9445
523.20 0.9439
523.30 0.9434
523.40 0.9429
523.50 0.9423
523.60 0.9418
523.70 0.9413
523.80 0.9408
523.90 0.9402
524.00 0.9397
524.10 0.9392
524.20 0.9386
524.30 0.9381
524.40 0.9376
524.50 0.937
524.60 0.9365
524.70 0.936
524.80 0.9354
524.90 0.9349
525.00 0.9343
525.10 0.9338
525.20 0.9333
525.30 0.9327
525.40 0.9322
525.50 0.9317
525.60 0.9311
525.70 0.9306
525.80 0.9301
525.90 0.9295
526.00 0.929
526.10 0.9285
526.20 0.9279
526.30 0.9274
526.40 0.9269
526.50 0.9263
526.60 0.9258
526.70 0.9252
526.80 0.9247
526.90 0.9242
527.00 0.9236
527.10 0.9231
527.20 0.9226
527.30 0.922
527.40 0.9215
527.50 0.9209
527.60 0.9204
527.70 0.9199
527.80 0.9193
527.90 0.9188
528.00 0.9182
528.10 0.9177
528.20 0.9172
528.30 0.9166
528.40 0.9161
528.50 0.9155
528.60 0.915
528.70 0.9144
528.80 0.9139
528.90 0.9134
529.00 0.9128
529.10 0.9123
529.20 0.9117
529.30 0.9112
529.40 0.9106
529.50 0.9101
529.60 0.9096
529.70 0.909
529.80 0.9085
529.90 0.908
530.00 0.9074
530.10 0.9069
530.20 0.9063
530.30 0.9058
530.40 0.9052
530.50 0.9047
530.60 0.9042
530.70 0.9036
530.80 0.9031
530.90 0.9025
531.00 0.902
531.10 0.9015
531.20 0.9009
531.30 0.9004
531.40 0.8998
531.50 0.8993
531.60 0.8988
531.70 0.8983
531.80 0.8977
531.90 0.8972
532.00 0.8967
532.10 0.8961
532.20 0.8956
532.30 0.895
532.40 0.8945
532.50 0.894
532.60 0.8934
532.70 0.8929
532.80 0.8923
532.90 0.8918
533.00 0.8913
533.10 0.8907
533.20 0.8902
533.30 0.8896
533.40 0.8891
533.50 0.8886
533.60 0.888
533.70 0.8875
533.80 0.887
533.90 0.8864
534.00 0.8859
534.10 0.8854
534.20 0.8849
534.30 0.8843
534.40 0.8838
534.50 0.8832
534.60 0.8827
534.70 0.8822
534.80 0.8816
534.90 0.8811
535.00 0.8806
535.10 0.88
535.20 0.8795
535.30 0.879
535.40 0.8784
535.50 0.8779
535.60 0.8774
535.70 0.8768
535.80 0.8763
535.90 0.8758
536.00 0.8753
536.10 0.8747
536.20 0.8742
536.30 0.8737
536.40 0.8731
536.50 0.8726
536.60 0.872
536.70 0.8715
536.80 0.871
536.90 0.8704
537.00 0.8699
537.10 0.8694
537.20 0.8689
537.30 0.8683
537.40 0.8678
537.50 0.8673
537.60 0.8668
537.70 0.8662
537.80 0.8657
537.90 0.8652
538.00 0.8647
538.10 0.8641
538.20 0.8636
538.30 0.8631
538.40 0.8626
538.50 0.862
538.60 0.8615
538.70 0.861
538.80 0.8605
538.90 0.86
539.00 0.8594
539.10 0.8589
539.20 0.8584
539.30 0.8579
539.40 0.8573
539.50 0.8568
539.60 0.8563
539.70 0.8558
539.80 0.8552
539.90 0.8547
540.00 0.8542
540.10 0.8537
540.20 0.8531
540.30 0.8526
540.40 0.8521
540.50 0.8516
540.60 0.8511
540.70 0.8505
540.80 0.85
540.90 0.8495
541.00 0.849
541.10 0.8485
541.20 0.8479
541.30 0.8474
541.40 0.8469
541.50 0.8464
541.60 0.8459
541.70 0.8454
541.80 0.8449
541.90 0.8444
542.00 0.8438
542.10 0.8433
542.20 0.8428
542.30 0.8423
542.40 0.8418
542.50 0.8413
542.60 0.8408
542.70 0.8402
542.80 0.8397
542.90 0.8392
543.00 0.8387
543.10 0.8382
543.20 0.8377
543.30 0.8372
543.40 0.8367
543.50 0.8361
543.60 0.8356
543.70 0.8351
543.80 0.8346
543.90 0.8341
544.00 0.8336
544.10 0.8331
544.20 0.8326
544.30 0.8321
544.40 0.8316
544.50 0.831
544.60 0.8305
544.70 0.83
544.80 0.8295
544.90 0.829
545.00 0.8285
545.10 0.828
545.20 0.8275
545.30 0.827
545.40 0.8265
545.50 0.826
545.60 0.8255
545.70 0.825
545.80 0.8245
545.90 0.824
546.00 0.8234
546.10 0.8229
546.20 0.8226
546.30 0.8223
546.40 0.8221
546.50 0.8218
546.60 0.8215
546.70 0.8213
546.80 0.821
546.90 0.8207
547.00 0.8205
547.10 0.8202
547.20 0.8198
547.30 0.8193
547.40 0.8188
547.50 0.8182
547.60 0.8177
547.70 0.8172
547.80 0.8167
547.90 0.8162
548.00 0.8157
548.10 0.8152
548.20 0.8147
548.30 0.8142
548.40 0.8137
548.50 0.8131
548.60 0.8126
548.70 0.8121
548.80 0.8116
548.90 0.8111
549.00 0.8106
549.10 0.8101
549.20 0.8096
549.30 0.8091
549.40 0.8086
549.50 0.8081
549.60 0.8076
549.70 0.8071
549.80 0.8066
549.90 0.8061
550.00 0.8055
550.10 0.805
550.20 0.8045
550.30 0.804
550.40 0.8036
550.50 0.8031
550.60 0.8026
550.70 0.8021
550.80 0.8016
550.90 0.8011
551.00 0.8006
551.10 0.8001
551.20 0.7996
551.30 0.7991
551.40 0.7986
551.50 0.7981
551.60 0.7976
551.70 0.7971
551.80 0.7966
551.90 0.7961
552.00 0.7956
552.10 0.7951
552.20 0.7946
552.30 0.7941
552.40 0.7936
552.50 0.7931
552.60 0.7926
552.70 0.7921
552.80 0.7917
552.90 0.7912
553.00 0.7907
553.10 0.7902
553.20 0.7897
553.30 0.7892
553.40 0.7887
553.50 0.7882
553.60 0.7878
553.70 0.7873
553.80 0.7868
553.90 0.7863
554.00 0.7858
554.10 0.7853
554.20 0.7848
554.30 0.7843
554.40 0.7839
554.50 0.7834
554.60 0.7829
554.70 0.7824
554.80 0.7819
554.90 0.7814
555.00 0.781
555.10 0.7805
555.20 0.78
555.30 0.7795
555.40 0.779
555.50 0.7785
555.60 0.7781
555.70 0.7776
555.80 0.7771
555.90 0.7766
556.00 0.7761
556.10 0.7757
556.20 0.7752
556.30 0.7747
556.40 0.7742
556.50 0.7737
556.60 0.7733
556.70 0.7728
556.80 0.7723
556.90 0.7718
557.00 0.7714
557.10 0.7709
557.20 0.7704
557.30 0.7699
557.40 0.7695
557.50 0.769
557.60 0.7685
557.70 0.7681
557.80 0.7676
557.90 0.7671
558.00 0.7667
558.10 0.7662
558.20 0.7657
558.30 0.7652
558.40 0.7648
558.50 0.7643
558.60 0.7638
558.70 0.7633
558.80 0.7629
558.90 0.7624
559.00 0.7619
559.10 0.7615
559.20 0.761
559.30 0.7605
559.40 0.7601
559.50 0.7596
559.60 0.7591
559.70 0.7587
559.80 0.7582
559.90 0.7577
560.00 0.7573
560.10 0.7568
560.20 0.7564
560.30 0.7559
560.40 0.7554
560.50 0.755
560.60 0.7545
560.70 0.7541
560.80 0.7536
560.90 0.7531
561.00 0.7527
561.10 0.7522
561.20 0.7518
561.30 0.7513
561.40 0.7508
561.50 0.7504
561.60 0.7499
561.70 0.7495
561.80 0.749
561.90 0.7485
562.00 0.7481
562.10 0.7476
562.20 0.7472
562.30 0.7467
562.40 0.7463
562.50 0.7458
562.60 0.7453
562.70 0.7449
562.80 0.7444
562.90 0.744
563.00 0.7435
563.10 0.7431
563.20 0.7426
563.30 0.7422
563.40 0.7417
563.50 0.7413
563.60 0.7408
563.70 0.7404
563.80 0.7399
563.90 0.7395
564.00 0.739
564.10 0.7385
564.20 0.7381
564.30 0.7376
564.40 0.7372
564.50 0.7367
564.60 0.7363
564.70 0.7358
564.80 0.7354
564.90 0.7349
565.00 0.7345
565.10 0.734
565.20 0.7336
565.30 0.7332
565.40 0.7327
565.50 0.7323
565.60 0.7318
565.70 0.7314
565.80 0.7309
565.90 0.7305
566.00 0.73
566.10 0.7296
566.20 0.7291
566.30 0.7287
566.40 0.7283
566.50 0.7278
566.60 0.7274
566.70 0.7269
566.80 0.7265
566.90 0.7261
567.00 0.7256
567.10 0.7252
567.20 0.7247
567.30 0.7243
567.40 0.7239
567.50 0.7234
567.60 0.723
567.70 0.7225
567.80 0.7221
567.90 0.7216
568.00 0.7212
568.10 0.7208
568.20 0.7203
568.30 0.7199
568.40 0.7195
568.50 0.719
568.60 0.7186
568.70 0.7182
568.80 0.7177
568.90 0.7173
569.00 0.7169
569.10 0.7164
569.20 0.716
569.30 0.7156
569.40 0.7151
569.50 0.7147
569.60 0.7143
569.70 0.7138
569.80 0.7134
569.90 0.713
570.00 0.7125
570.10 0.7121
570.20 0.7117
570.30 0.7113
570.40 0.7108
570.50 0.7104
570.60 0.71
570.70 0.7095
570.80 0.7091
570.90 0.7087
571.00 0.7083
571.10 0.7078
571.20 0.7074
571.30 0.707
571.40 0.7065
571.50 0.7061
571.60 0.7057
571.70 0.7053
571.80 0.7048
571.90 0.7044
572.00 0.704
572.10 0.7036
572.20 0.7031
572.30 0.7027
572.40 0.7023
572.50 0.7019
572.60 0.7014
572.70 0.701
572.80 0.7006
572.90 0.7002
573.00 0.6998
573.10 0.6993
573.20 0.6989
573.30 0.6985
573.40 0.6981
573.50 0.6977
573.60 0.6973
573.70 0.6968
573.80 0.6964
573.90 0.696
574.00 0.6956
574.10 0.6952
574.20 0.6948
574.30 0.6943
574.40 0.6939
574.50 0.6935
574.60 0.6931
574.70 0.6927
574.80 0.6922
574.90 0.6918
575.00 0.6914
575.10 0.691
575.20 0.6906
575.30 0.6902
575.40 0.6898
575.50 0.6893
575.60 0.6889
575.70 0.6885
575.80 0.6881
575.90 0.6877
576.00 0.6873
576.10 0.6869
576.20 0.6865
576.30 0.6861
576.40 0.6857
576.50 0.6852
576.60 0.6848
576.70 0.6844
576.80 0.684
576.90 0.6836
577.00 0.6832
577.10 0.6828
577.20 0.6824
577.30 0.682
577.40 0.6816
577.50 0.6812
577.60 0.6807
577.70 0.6803
577.80 0.6799
577.90 0.6795
578.00 0.6791
578.10 0.6787
578.20 0.6783
578.30 0.6779
578.40 0.6775
578.50 0.6771
578.60 0.6767
578.70 0.6763
578.80 0.6759
578.90 0.6755
579.00 0.6751
579.10 0.6747
579.20 0.6743
579.30 0.6739
579.40 0.6735
579.50 0.6731
579.60 0.6726
579.70 0.6722
579.80 0.6718
579.90 0.6714
580.00 0.671
580.10 0.6706
580.20 0.6703
580.30 0.6699
580.40 0.6695
580.50 0.6691
580.60 0.6687
580.70 0.6683
580.80 0.6679
580.90 0.6675
581.00 0.6671
581.10 0.6667
581.20 0.6663
581.30 0.6659
581.40 0.6655
581.50 0.6651
581.60 0.6647
581.70 0.6643
581.80 0.6639
581.90 0.6635
582.00 0.6631
582.10 0.6627
582.20 0.6624
582.30 0.662
582.40 0.6616
582.50 0.6612
582.60 0.6608
582.70 0.6604
582.80 0.66
582.90 0.6596
583.00 0.6592
583.10 0.6588
583.20 0.6584
583.30 0.658
583.40 0.6576
583.50 0.6573
583.60 0.6569
583.70 0.6565
583.80 0.6561
583.90 0.6557
584.00 0.6553
584.10 0.6549
584.20 0.6546
584.30 0.6542
584.40 0.6538
584.50 0.6534
584.60 0.653
584.70 0.6526
584.80 0.6522
584.90 0.6518
585.00 0.6514
585.10 0.651
585.20 0.6507
585.30 0.6503
585.40 0.6499
585.50 0.6495
585.60 0.6491
585.70 0.6488
585.80 0.6484
585.90 0.648
586.00 0.6476
586.10 0.6472
586.20 0.6468
586.30 0.6465
586.40 0.6461
586.50 0.6457
586.60 0.6453
586.70 0.6449
586.80 0.6446
586.90 0.6442
587.00 0.6438
587.10 0.6434
587.20 0.6431
587.30 0.6427
587.40 0.6423
587.50 0.6419
587.60 0.6415
587.70 0.6412
587.80 0.6408
587.90 0.6404
588.00 0.64
588.10 0.6397
588.20 0.6393
588.30 0.6389
588.40 0.6385
588.50 0.6381
588.60 0.6378
588.70 0.6374
588.80 0.637
588.90 0.6366
589.00 0.6363
589.10 0.6359
589.20 0.6355
589.30 0.6352
589.40 0.6348
589.50 0.6344
589.60 0.634
589.70 0.6337
589.80 0.6333
589.90 0.6329
590.00 0.6325
590.10 0.6322
590.20 0.6318
590.30 0.6314
590.40 0.6311
590.50 0.6307
590.60 0.6303
590.70 0.63
590.80 0.6296
590.90 0.6292
591.00 0.6289
591.10 0.6285
591.20 0.6281
591.30 0.6278
591.40 0.6274
591.50 0.627
591.60 0.6267
591.70 0.6263
591.80 0.6259
591.90 0.6256
592.00 0.6252
592.10 0.6248
592.20 0.6245
592.30 0.6241
592.40 0.6237
592.50 0.6234
592.60 0.623
592.70 0.6226
592.80 0.6223
592.90 0.6219
593.00 0.6216
593.10 0.6212
593.20 0.6208
593.30 0.6205
593.40 0.6201
593.50 0.6197
593.60 0.6194
593.70 0.619
593.80 0.6186
593.90 0.6183
594.00 0.6179
594.10 0.6176
594.20 0.6172
594.30 0.6168
594.40 0.6165
594.50 0.6161
594.60 0.6158
594.70 0.6154
594.80 0.615
594.90 0.6147
595.00 0.6143
595.10 0.614
595.20 0.6136
595.30 0.6133
595.40 0.6129
595.50 0.6126
595.60 0.6122
595.70 0.6118
595.80 0.6115
595.90 0.6111
596.00 0.6108
596.10 0.6104
596.20 0.6098
596.30 0.609
596.40 0.6082
596.50 0.6075
596.60 0.6067
596.70 0.6059
596.80 0.6052
596.90 0.6044
597.00 0.6036
597.10 0.6028
597.20 0.6023
597.30 0.602
597.40 0.6016
597.50 0.6012
597.60 0.6009
597.70 0.6005
597.80 0.6002
597.90 0.5998
598.00 0.5994
598.10 0.5991
598.20 0.5987
598.30 0.5983
598.40 0.598
598.50 0.5976
598.60 0.5973
598.70 0.5969
598.80 0.5966
598.90 0.5962
599.00 0.5958
599.10 0.5955
599.20 0.5951
599.30 0.5948
599.40 0.5944
599.50 0.594
599.60 0.5937
599.70 0.5933
599.80 0.593
599.90 0.5926
600.00 0.5922
600.10 0.5919
600.20 0.5915
600.30 0.5912
600.40 0.5908
600.50 0.5905
600.60 0.5901
600.70 0.5897
600.80 0.5894
600.90 0.589
601.00 0.5887
601.10 0.5883
601.20 0.588
601.30 0.5876
601.40 0.5873
601.50 0.5869
601.60 0.5865
601.70 0.5862
601.80 0.5858
601.90 0.5855
602.00 0.5851
602.10 0.5848
602.20 0.5844
602.30 0.5841
602.40 0.5837
602.50 0.5833
602.60 0.583
602.70 0.5826
602.80 0.5823
602.90 0.5819
603.00 0.5816
603.10 0.5812
603.20 0.5809
603.30 0.5805
603.40 0.5802
603.50 0.5798
603.60 0.5795
603.70 0.5791
603.80 0.5788
603.90 0.5784
604.00 0.578
604.10 0.5777
604.20 0.5773
604.30 0.577
604.40 0.5766
604.50 0.5763
604.60 0.5759
604.70 0.5756
604.80 0.5752
604.90 0.5749
605.00 0.5745
605.10 0.5742
605.20 0.5738
605.30 0.5735
605.40 0.5731
605.50 0.5728
605.60 0.5724
605.70 0.5721
605.80 0.5717
605.90 0.5714
606.00 0.5711
606.10 0.5707
606.20 0.5704
606.30 0.57
606.40 0.5697
606.50 0.5693
606.60 0.569
606.70 0.5686
606.80 0.5683
606.90 0.5679
607.00 0.5676
607.10 0.5672
607.20 0.5669
607.30 0.5665
607.40 0.5662
607.50 0.5659
607.60 0.5655
607.70 0.5652
607.80 0.5648
607.90 0.5645
608.00 0.5641
608.10 0.5638
608.20 0.5634
608.30 0.5631
608.40 0.5627
608.50 0.5624
608.60 0.5621
608.70 0.5617
608.80 0.5614
608.90 0.561
609.00 0.5607
609.10 0.5603
609.20 0.56
609.30 0.5596
609.40 0.5593
609.50 0.5589
609.60 0.5586
609.70 0.5582
609.80 0.5579
609.90 0.5576
610.00 0.5572
610.10 0.5569
610.20 0.5565
610.30 0.5562
610.40 0.5558
610.50 0.5555
610.60 0.5551
610.70 0.5548
610.80 0.5545
610.90 0.5541
611.00 0.5538
611.10 0.5534
611.20 0.5531
611.30 0.5527
611.40 0.5524
611.50 0.5521
611.60 0.5517
611.70 0.5514
611.80 0.551
611.90 0.5507
612.00 0.5503
612.10 0.55
612.20 0.5497
612.30 0.5493
612.40 0.549
612.50 0.5486
612.60 0.5483
612.70 0.5479
612.80 0.5476
612.90 0.5473
613.00 0.5469
613.10 0.5466
613.20 0.5462
613.30 0.5459
613.40 0.5455
613.50 0.5452
613.60 0.5449
613.70 0.5445
613.80 0.5442
613.90 0.5438
614.00 0.5435
614.10 0.5431
614.20 0.5428
614.30 0.5425
614.40 0.5421
614.50 0.5418
614.60 0.5414
614.70 0.5411
614.80 0.5408
614.90 0.5404
615.00 0.5401
615.10 0.5397
615.20 0.5394
615.30 0.5391
615.40 0.5387
615.50 0.5384
615.60 0.538
615.70 0.5377
615.80 0.5373
615.90 0.537
616.00 0.5367
616.10 0.5363
616.20 0.536
616.30 0.5356
616.40 0.5353
616.50 0.5349
616.60 0.5346
616.70 0.5343
616.80 0.5339
616.90 0.5336
617.00 0.5332
617.10 0.5329
617.20 0.5326
617.30 0.5322
617.40 0.5319
617.50 0.5315
617.60 0.5312
617.70 0.5308
617.80 0.5305
617.90 0.5301
618.00 0.5298
618.10 0.5295
618.20 0.5291
618.30 0.5288
618.40 0.5284
618.50 0.5281
618.60 0.5277
618.70 0.5274
618.80 0.5271
618.90 0.5267
619.00 0.5264
619.10 0.526
619.20 0.5257
619.30 0.5253
619.40 0.525
619.50 0.5246
619.60 0.5243
619.70 0.5239
619.80 0.5236
619.90 0.5232
620.00 0.5229
620.10 0.5225
620.20 0.5222
620.30 0.5218
620.40 0.5215
620.50 0.5212
620.60 0.5208
620.70 0.5205
620.80 0.5201
620.90 0.5198
621.00 0.5194
621.10 0.5191
621.20 0.5187
621.30 0.5184
621.40 0.518
621.50 0.5177
621.60 0.5173
621.70 0.517
621.80 0.5166
621.90 0.5163
622.00 0.516
622.10 0.5156
622.20 0.5153
622.30 0.5149
622.40 0.5146
622.50 0.5142
622.60 0.5139
622.70 0.5135
622.80 0.5131
622.90 0.5128
623.00 0.5124
623.10 0.5121
623.20 0.5117
623.30 0.5114
623.40 0.511
623.50 0.5107
623.60 0.5103
623.70 0.51
623.80 0.5096
623.90 0.5093
624.00 0.5089
624.10 0.5085
624.20 0.5082
624.30 0.5078
624.40 0.5075
624.50 0.5071
624.60 0.5068
624.70 0.5064
624.80 0.506
624.90 0.5057
625.00 0.5053
625.10 0.505
625.20 0.5046
625.30 0.5042
625.40 0.5039
625.50 0.5035
625.60 0.5032
625.70 0.5028
625.80 0.5024
625.90 0.5021
626.00 0.5017
626.10 0.5014
626.20 0.501
626.30 0.5006
626.40 0.5003
626.50 0.4999
626.60 0.4996
626.70 0.4992
626.80 0.4988
626.90 0.4985
627.00 0.4981
627.10 0.4977
627.20 0.4974
627.30 0.497
627.40 0.4966
627.50 0.4963
627.60 0.4959
627.70 0.4955
627.80 0.4952
627.90 0.4948
628.00 0.4945
628.10 0.4941
628.20 0.4937
628.30 0.4933
628.40 0.493
628.50 0.4926
628.60 0.4922
628.70 0.4918
628.80 0.4915
628.90 0.4911
629.00 0.4907
629.10 0.4903
629.20 0.4899
629.30 0.4896
629.40 0.4892
629.50 0.4888
629.60 0.4884
629.70 0.4881
629.80 0.4877
629.90 0.4873
630.00 0.4869
630.10 0.4865
630.20 0.4862
630.30 0.4858
630.40 0.4854
630.50 0.485
630.60 0.4846
630.70 0.4842
630.80 0.4838
630.90 0.4834
631.00 0.483
631.10 0.4826
631.20 0.4823
631.30 0.4819
631.40 0.4815
631.50 0.4811
631.60 0.4807
631.70 0.4803
631.80 0.4799
631.90 0.4795
632.00 0.4791
632.10 0.4787
632.20 0.4783
632.30 0.4779
632.40 0.4775
632.50 0.4771
632.60 0.4767
632.70 0.4762
632.80 0.4758
632.90 0.4754
633.00 0.475
633.10 0.4746
633.20 0.4742
633.30 0.4738
633.40 0.4733
633.50 0.4729
633.60 0.4725
633.70 0.4721
633.80 0.4717
633.90 0.4712
634.00 0.4708
634.10 0.4704
634.20 0.47
634.30 0.4695
634.40 0.4691
634.50 0.4687
634.60 0.4682
634.70 0.4678
634.80 0.4674
634.90 0.4669
635.00 0.4665
635.10 0.4661
635.20 0.4656
635.30 0.4652
635.40 0.4648
635.50 0.4643
635.60 0.4638
635.70 0.4634
635.80 0.4629
635.90 0.4625
636.00 0.462
636.10 0.4616
636.20 0.4611
636.30 0.4607
636.40 0.4602
636.50 0.4597
636.60 0.4593
636.70 0.4588
636.80 0.4583
636.90 0.4578
637.00 0.4574
637.10 0.4569
637.20 0.4564
637.30 0.456
637.40 0.4555
637.50 0.455
637.60 0.4545
637.70 0.454
637.80 0.4535
637.90 0.453
638.00 0.4525
638.10 0.452
638.20 0.4515
638.30 0.451
638.40 0.4505
638.50 0.45
638.60 0.4495
638.70 0.449
638.80 0.4485
638.90 0.448
639.00 0.4475
639.10 0.447
639.20 0.4464
639.30 0.4459
639.40 0.4454
639.50 0.4448
639.60 0.4443
639.70 0.4438
639.80 0.4432
639.90 0.4427
640.00 0.4421
640.10 0.4416
640.20 0.4411
640.30 0.4405
640.40 0.4399
640.50 0.4394
640.60 0.4388
640.70 0.4383
640.80 0.4377
640.90 0.4371
641.00 0.4366
641.10 0.436
641.20 0.4354
641.30 0.4349
641.40 0.4343
641.50 0.4337
641.60 0.4331
641.70 0.4325
641.80 0.4319
641.90 0.4313
642.00 0.4307
642.10 0.4301
642.20 0.4295
642.30 0.4289
642.40 0.4282
642.50 0.4276
642.60 0.427
642.70 0.4263
642.80 0.4257
642.90 0.4251
643.00 0.4244
643.10 0.4238
643.20 0.4232
643.30 0.4225
643.40 0.4218
643.50 0.4212
643.60 0.4205
643.70 0.4198
643.80 0.4191
643.90 0.4185
644.00 0.4178
644.10 0.4171
644.20 0.4164
644.30 0.4158
644.40 0.415
644.50 0.4143
644.60 0.4136
644.70 0.4129
644.80 0.4122
644.90 0.4114
645.00 0.4107
645.10 0.41
645.20 0.4093
645.30 0.4086
645.40 0.4078
645.50 0.407
645.60 0.4063
645.70 0.4055
645.80 0.4047
645.90 0.404
646.00 0.4032
646.10 0.4024
646.20 0.4017
646.30 0.4009
646.40 0.4001
646.50 0.3992
646.60 0.3984
646.70 0.3976
646.80 0.3968
646.90 0.396
647.00 0.3951
647.10 0.3943
647.20 0.3935
647.30 0.3927
647.40 0.3918
647.50 0.3909
647.60 0.39
647.70 0.3891
647.80 0.3882
647.90 0.3873
648.00 0.3864
648.10 0.3855
648.20 0.3846
648.30 0.3836
648.40 0.3826
648.50 0.3816
648.60 0.3806
648.70 0.3796
648.80 0.3786
648.90 0.3775
649.00 0.3765
649.10 0.3755
649.20 0.3745
649.30 0.3735
649.40 0.3723
649.50 0.3712
649.60 0.37
649.70 0.3689
649.80 0.3677
649.90 0.3666
650.00 0.3655
650.10 0.3643
650.20 0.3632
650.30 0.362
650.40 0.3607
650.50 0.3594
650.60 0.3581
650.70 0.3568
650.80 0.3555
650.90 0.3542
651.00 0.3529
651.10 0.3516
651.20 0.3503
651.30 0.3489
651.40 0.3475
651.50 0.346
651.60 0.3446
651.70 0.3431
651.80 0.3416
651.90 0.3402
652.00 0.3387
652.10 0.3373
652.20 0.3358
652.30 0.3343
652.40 0.3327
652.50 0.331
652.60 0.3293
652.70 0.3277
652.80 0.326
652.90 0.3244
653.00 0.3227
653.10 0.3211
653.20 0.3194
653.30 0.3177
653.40 0.3158
653.50 0.3138
653.60 0.3119
653.70 0.3099
653.80 0.308
653.90 0.306
654.00 0.3041
654.10 0.3022
654.20 0.3002
654.30 0.2982
654.40 0.296
654.50 0.2938
654.60 0.2916
654.70 0.2894
654.80 0.2871
654.90 0.2845
655.00 0.2819
655.10 0.2793
655.20 0.2767
655.30 0.2741
655.40 0.271
655.50 0.2679
655.60 0.2642
655.70 0.2604
655.80 0.2558
655.90 0.2506
656.00 0.2426
656.10 0.2335
656.20 0.2126
656.30 0.195
656.40 0.2223
656.50 0.2371
656.60 0.245
656.70 0.2521
656.80 0.2564
656.90 0.2606
657.00 0.264
657.10 0.2673
657.20 0.2701
657.30 0.2728
657.40 0.2751
657.50 0.2774
657.60 0.2797
657.70 0.282
657.80 0.2843
657.90 0.2862
658.00 0.2881
658.10 0.29
658.20 0.292
658.30 0.2938
658.40 0.2954
658.50 0.2971
658.60 0.2987
658.70 0.3003
658.80 0.302
658.90 0.3036
659.00 0.3052
659.10 0.3069
659.20 0.3085
659.30 0.31
659.40 0.3114
659.50 0.3127
659.60 0.314
659.70 0.3153
659.80 0.3166
659.90 0.3179
660.00 0.3192
660.10 0.3205
660.20 0.3218
660.30 0.3231
660.40 0.3242
660.50 0.3253
660.60 0.3264
660.70 0.3275
660.80 0.3286
660.90 0.3296
661.00 0.3307
661.10 0.3318
661.20 0.3329
661.30 0.334
661.40 0.3349
661.50 0.3358
661.60 0.3367
661.70 0.3376
661.80 0.3385
661.90 0.3394
662.00 0.3403
662.10 0.3413
662.20 0.3422
662.30 0.343
662.40 0.3438
662.50 0.3445
662.60 0.3453
662.70 0.346
662.80 0.3467
662.90 0.3475
663.00 0.3482
663.10 0.3489
663.20 0.3497
663.30 0.3504
663.40 0.351
663.50 0.3516
663.60 0.3522
663.70 0.3528
663.80 0.3534
663.90 0.354
664.00 0.3546
664.10 0.3551
664.20 0.3557
664.30 0.3563
664.40 0.3568
664.50 0.3573
664.60 0.3577
664.70 0.3582
664.80 0.3587
664.90 0.3591
665.00 0.3596
665.10 0.3601
665.20 0.3605
665.30 0.361
665.40 0.3614
665.50 0.3618
665.60 0.3621
665.70 0.3625
665.80 0.3629
665.90 0.3633
666.00 0.3637
666.10 0.364
666.20 0.3644
666.30 0.3648
666.40 0.3651
666.50 0.3654
666.60 0.3657
666.70 0.366
666.80 0.3663
666.90 0.3667
667.00 0.367
667.10 0.3673
667.20 0.3676
667.30 0.3679
667.40 0.3682
667.50 0.3684
667.60 0.3687
667.70 0.3689
667.80 0.3692
667.90 0.3695
668.00 0.3697
668.10 0.37
668.20 0.3702
668.30 0.3705
668.40 0.3707
668.50 0.3709
668.60 0.3711
668.70 0.3713
668.80 0.3715
668.90 0.3717
669.00 0.3719
669.10 0.3721
669.20 0.3723
669.30 0.3725
669.40 0.3727
669.50 0.3728
669.60 0.373
669.70 0.3732
669.80 0.3733
669.90 0.3735
670.00 0.3736
670.10 0.3738
670.20 0.3739
670.30 0.3741
670.40 0.3742
670.50 0.3743
670.60 0.3744
670.70 0.3746
670.80 0.3747
670.90 0.3748
671.00 0.3749
671.10 0.375
671.20 0.3751
671.30 0.3753
671.40 0.3753
671.50 0.3754
671.60 0.3755
671.70 0.3756
671.80 0.3757
671.90 0.3757
672.00 0.3758
672.10 0.3759
672.20 0.376
672.30 0.3761
672.40 0.3761
672.50 0.3762
672.60 0.3762
672.70 0.3763
672.80 0.3763
672.90 0.3764
673.00 0.3764
673.10 0.3765
673.20 0.3765
673.30 0.3766
673.40 0.3766
673.50 0.3766
673.60 0.3766
673.70 0.3766
673.80 0.3767
673.90 0.3767
674.00 0.3767
674.10 0.3767
674.20 0.3767
674.30 0.3768
674.40 0.3768
674.50 0.3768
674.60 0.3767
674.70 0.3767
674.80 0.3767
674.90 0.3767
675.00 0.3767
675.10 0.3767
675.20 0.3767
675.30 0.3767
675.40 0.3767
675.50 0.3767
675.60 0.3766
675.70 0.3766
675.80 0.3766
675.90 0.3766
676.00 0.3765
676.10 0.3765
676.20 0.3765
676.30 0.3765
676.40 0.3764
676.50 0.3764
676.60 0.3763
676.70 0.3763
676.80 0.3762
676.90 0.3762
677.00 0.3761
677.10 0.3761
677.20 0.3761
677.30 0.376
677.40 0.3759
677.50 0.3759
677.60 0.3758
677.70 0.3758
677.80 0.3757
677.90 0.3756
678.00 0.3756
678.10 0.3755
678.20 0.3754
678.30 0.3754
678.40 0.3753
678.50 0.3752
678.60 0.3752
678.70 0.3751
678.80 0.375
678.90 0.3749
679.00 0.3748
679.10 0.3748
679.20 0.3747
679.30 0.3746
679.40 0.3745
679.50 0.3744
679.60 0.3743
679.70 0.3743
679.80 0.3742
679.90 0.3741
680.00 0.374
680.10 0.3739
680.20 0.3738
680.30 0.3737
680.40 0.3736
680.50 0.3735
680.60 0.3734
680.70 0.3733
680.80 0.3732
680.90 0.3731
681.00 0.373
681.10 0.3729
681.20 0.3728
681.30 0.3727
681.40 0.3726
681.50 0.3725
681.60 0.3724
681.70 0.3723
681.80 0.3722
681.90 0.3721
682.00 0.372
682.10 0.3718
682.20 0.3717
682.30 0.3716
682.40 0.3715
682.50 0.3714
682.60 0.3713
682.70 0.3712
682.80 0.371
682.90 0.3709
683.00 0.3708
683.10 0.3707
683.20 0.3706
683.30 0.3705
683.40 0.3703
683.50 0.3702
683.60 0.3701
683.70 0.37
683.80 0.3698
683.90 0.3697
684.00 0.3696
684.10 0.3695
684.20 0.3693
684.30 0.3692
684.40 0.3691
684.50 0.369
684.60 0.3688
684.70 0.3687
684.80 0.3686
684.90 0.3684
685.00 0.3683
685.10 0.3682
685.20 0.3681
685.30 0.3679
685.40 0.3678
685.50 0.3677
685.60 0.3675
685.70 0.3674
685.80 0.3672
685.90 0.3671
686.00 0.367
686.10 0.3668
686.20 0.3667
686.30 0.3666
686.40 0.3664
686.50 0.3663
686.60 0.3662
686.70 0.366
686.80 0.3659
686.90 0.3657
687.00 0.3656
687.10 0.3655
687.20 0.3653
687.30 0.3652
687.40 0.365
687.50 0.3649
687.60 0.3648
687.70 0.3646
687.80 0.3645
687.90 0.3643
688.00 0.3642
688.10 0.364
688.20 0.3639
688.30 0.3638
688.40 0.3636
688.50 0.3635
688.60 0.3633
688.70 0.3632
688.80 0.363
688.90 0.3629
689.00 0.3627
689.10 0.3626
689.20 0.3625
689.30 0.3623
689.40 0.3622
689.50 0.362
689.60 0.3618
689.70 0.3617
689.80 0.3615
689.90 0.3614
690.00 0.3612
690.10 0.361
690.20 0.3609
690.30 0.3607
690.40 0.3606
690.50 0.3604
690.60 0.3602
690.70 0.3601
690.80 0.3599
690.90 0.3598
691.00 0.3596
691.10 0.3594
691.20 0.3593
691.30 0.3591
691.40 0.359
691.50 0.3588
691.60 0.3587
691.70 0.3585
691.80 0.3583
691.90 0.3582
692.00 0.358
692.10 0.3579
692.20 0.3577
692.30 0.3576
692.40 0.3574
692.50 0.3572
692.60 0.3571
692.70 0.3569
692.80 0.3568
692.90 0.3566
693.00 0.3565
693.10 0.3563
693.20 0.3561
693.30 0.356
693.40 0.3558
693.50 0.3557
693.60 0.3555
693.70 0.3554
693.80 0.3552
693.90 0.355
694.00 0.3549
694.10 0.3547
694.20 0.3546
694.30 0.3544
694.40 0.3543
694.50 0.3541
694.60 0.354
694.70 0.3538
694.80 0.3536
694.90 0.3535
695.00 0.3533
695.10 0.3532
695.20 0.353
695.30 0.3529
695.40 0.3527
695.50 0.3526
695.60 0.3524
695.70 0.3522
695.80 0.3521
695.90 0.3519
696.00 0.3518
696.10 0.3516
696.20 0.3515
696.30 0.3513
696.40 0.3512
696.50 0.351
696.60 0.3509
696.70 0.3507
696.80 0.3506
696.90 0.3504
697.00 0.3502
697.10 0.3501
697.20 0.3499
697.30 0.3498
697.40 0.3496
697.50 0.3495
697.60 0.3493
697.70 0.3492
697.80 0.349
697.90 0.3489
698.00 0.3487
698.10 0.3486
698.20 0.3484
698.30 0.3483
698.40 0.3481
698.50 0.3479
698.60 0.3478
698.70 0.3476
698.80 0.3475
698.90 0.3473
699.00 0.3472
699.10 0.347
699.20 0.3469
699.30 0.3467
699.40 0.3466
699.50 0.3464
699.60 0.3463
699.70 0.3461
699.80 0.346
699.90 0.3458
700.00 0.3457
700.10 0.3455
700.20 0.3454
700.30 0.3452
700.40 0.345
700.50 0.3449
700.60 0.3447
700.70 0.3446
700.80 0.3444
700.90 0.3443
701.00 0.3441
701.10 0.344
701.20 0.3438
701.30 0.3437
701.40 0.3435
701.50 0.3433
701.60 0.3432
701.70 0.343
701.80 0.3429
701.90 0.3427
702.00 0.3426
702.10 0.3424
702.20 0.3423
702.30 0.3421
702.40 0.342
702.50 0.3418
702.60 0.3417
702.70 0.3415
702.80 0.3414
702.90 0.3412
703.00 0.3411
703.10 0.3409
703.20 0.3407
703.30 0.3406
703.40 0.3404
703.50 0.3403
703.60 0.3401
703.70 0.34
703.80 0.3398
703.90 0.3397
704.00 0.3395
704.10 0.3394
704.20 0.3392
704.30 0.3391
704.40 0.3389
704.50 0.3388
704.60 0.3386
704.70 0.3385
704.80 0.3383
704.90 0.3382
705.00 0.338
705.10 0.3379
705.20 0.3377
705.30 0.3375
705.40 0.3374
705.50 0.3372
705.60 0.3371
705.70 0.3369
705.80 0.3367
705.90 0.3366
706.00 0.3364
706.10 0.3363
706.20 0.3361
706.30 0.3359
706.40 0.3358
706.50 0.3356
706.60 0.3355
706.70 0.3353
706.80 0.3351
706.90 0.335
707.00 0.3348
707.10 0.3347
707.20 0.3345
707.30 0.3343
707.40 0.3342
707.50 0.334
707.60 0.3339
707.70 0.3337
707.80 0.3335
707.90 0.3334
708.00 0.3332
708.10 0.3331
708.20 0.3329
708.30 0.3328
708.40 0.3326
708.50 0.3324
708.60 0.3323
708.70 0.3321
708.80 0.332
708.90 0.3318
709.00 0.3317
709.10 0.3315
709.20 0.3313
709.30 0.3312
709.40 0.331
709.50 0.3309
709.60 0.3307
709.70 0.3306
709.80 0.3304
709.90 0.3302
710.00 0.3301
710.10 0.3299
710.20 0.3298
710.30 0.3296
710.40 0.3294
710.50 0.3293
710.60 0.3291
710.70 0.329
710.80 0.3288
710.90 0.3287
711.00 0.3285
711.10 0.3283
711.20 0.3282
711.30 0.328
711.40 0.3279
711.50 0.3277
711.60 0.3276
711.70 0.3274
711.80 0.3272
711.90 0.3271
712.00 0.3269
712.10 0.3268
712.20 0.3266
712.30 0.3265
712.40 0.3263
712.50 0.3262
712.60 0.326
712.70 0.3258
712.80 0.3257
712.90 0.3255
713.00 0.3254
713.10 0.3252
713.20 0.3251
713.30 0.3249
713.40 0.3247
713.50 0.3246
713.60 0.3244
713.70 0.3243
713.80 0.3241
713.90 0.324
714.00 0.3238
714.10 0.3237
714.20 0.3235
714.30 0.3233
714.40 0.3232
714.50 0.323
714.60 0.3229
714.70 0.3227
714.80 0.3226
714.90 0.3224
715.00 0.3223
715.10 0.3221
715.20 0.322
715.30 0.3218
715.40 0.3217
715.50 0.3216
715.60 0.3214
715.70 0.3213
715.80 0.3212
715.90 0.321
716.00 0.3209
716.10 0.3207
716.20 0.3206
716.30 0.3205
716.40 0.3203
716.50 0.3202
716.60 0.32
716.70 0.3199
716.80 0.3198
716.90 0.3196
717.00 0.3195
717.10 0.3193
717.20 0.3192
717.30 0.3191
717.40 0.3189
717.50 0.3188
717.60 0.3187
717.70 0.3185
717.80 0.3184
717.90 0.3182
718.00 0.3181
718.10 0.318
718.20 0.3178
718.30 0.3177
718.40 0.3176
718.50 0.3174
718.60 0.3173
718.70 0.3171
718.80 0.317
718.90 0.3169
719.00 0.3167
719.10 0.3166
719.20 0.3165
719.30 0.3163
719.40 0.3162
719.50 0.3161
719.60 0.3159
719.70 0.3158
719.80 0.3156
719.90 0.3155
720.00 0.3154
720.10 0.3152
720.20 0.3151
720.30 0.3149
720.40 0.3148
720.50 0.3146
720.60 0.3144
720.70 0.3143
720.80 0.3141
720.90 0.314
721.00 0.3138
721.10 0.3137
721.20 0.3135
721.30 0.3134
721.40 0.3132
721.50 0.3131
721.60 0.3129
721.70 0.3128
721.80 0.3126
721.90 0.3124
722.00 0.3123
722.10 0.3121
722.20 0.312
722.30 0.3118
722.40 0.3117
722.50 0.3115
722.60 0.3114
722.70 0.3112
722.80 0.3111
722.90 0.3109
723.00 0.3108
723.10 0.3106
723.20 0.3105
723.30 0.3103
723.40 0.3102
723.50 0.31
723.60 0.3099
723.70 0.3097
723.80 0.3096
723.90 0.3094
724.00 0.3093
724.10 0.3091
724.20 0.3089
724.30 0.3088
724.40 0.3086
724.50 0.3085
724.60 0.3083
724.70 0.3082
724.80 0.308
724.90 0.3079
725.00 0.3077
725.10 0.3076
725.20 0.3074
725.30 0.3073
725.40 0.3071
725.50 0.307
725.60 0.3068
725.70 0.3067
725.80 0.3065
725.90 0.3064
726.00 0.3062
726.10 0.3061
726.20 0.3059
726.30 0.3058
726.40 0.3057
726.50 0.3055
726.60 0.3054
726.70 0.3052
726.80 0.3051
726.90 0.3049
727.00 0.3048
727.10 0.3046
727.20 0.3045
727.30 0.3043
727.40 0.3042
727.50 0.304
727.60 0.3039
727.70 0.3037
727.80 0.3036
727.90 0.3034
728.00 0.3033
728.10 0.3031
728.20 0.303
728.30 0.3028
728.40 0.3027
728.50 0.3025
728.60 0.3024
728.70 0.3022
728.80 0.3021
728.90 0.302
729.00 0.3018
729.10 0.3017
729.20 0.3015
729.30 0.3014
729.40 0.3012
729.50 0.3011
729.60 0.3009
729.70 0.3008
729.80 0.3006
729.90 0.3005
730.00 0.3003
730.10 0.3002
730.20 0.3001
730.30 0.2999
730.40 0.2998
730.50 0.2996
730.60 0.2995
730.70 0.2993
730.80 0.2992
730.90 0.299
731.00 0.2989
731.10 0.2988
731.20 0.2986
731.30 0.2985
731.40 0.2983
731.50 0.2982
731.60 0.298
731.70 0.2979
731.80 0.2977
731.90 0.2976
732.00 0.2975
732.10 0.2973
732.20 0.2972
732.30 0.297
732.40 0.2969
732.50 0.2967
732.60 0.2966
732.70 0.2965
732.80 0.2963
732.90 0.2962
733.00 0.296
733.10 0.2959
733.20 0.2957
733.30 0.2956
733.40 0.2955
733.50 0.2953
733.60 0.2952
733.70 0.295
733.80 0.2949
733.90 0.2947
734.00 0.2946
734.10 0.2945
734.20 0.2943
734.30 0.2942
734.40 0.294
734.50 0.2939
734.60 0.2938
734.70 0.2936
734.80 0.2935
734.90 0.2933
735.00 0.2932
735.10 0.293
735.20 0.2929
735.30 0.2928
735.40 0.2926
735.50 0.2925
735.60 0.2923
735.70 0.2922
735.80 0.2921
735.90 0.2919
736.00 0.2918
736.10 0.2916
736.20 0.2915
736.30 0.2914
736.40 0.2912
736.50 0.2911
736.60 0.2909
736.70 0.2908
736.80 0.2907
736.90 0.2905
737.00 0.2904
737.10 0.2902
737.20 0.2901
737.30 0.29
737.40 0.2898
737.50 0.2897
737.60 0.2895
737.70 0.2894
737.80 0.2893
737.90 0.2891
738.00 0.289
738.10 0.2888
738.20 0.2887
738.30 0.2886
738.40 0.2884
738.50 0.2883
738.60 0.2881
738.70 0.288
738.80 0.2879
738.90 0.2877
739.00 0.2876
739.10 0.2874
739.20 0.2873
739.30 0.2872
739.40 0.287
739.50 0.2869
739.60 0.2868
739.70 0.2866
739.80 0.2865
739.90 0.2863
740.00 0.2862
740.10 0.2861
740.20 0.2859
740.30 0.2858
740.40 0.2857
740.50 0.2855
740.60 0.2854
740.70 0.2852
740.80 0.2851
740.90 0.285
741.00 0.2848
741.10 0.2847
741.20 0.2846
741.30 0.2844
741.40 0.2843
741.50 0.2842
741.60 0.284
741.70 0.2839
741.80 0.2838
741.90 0.2836
742.00 0.2835
742.10 0.2834
742.20 0.2832
742.30 0.2831
742.40 0.2829
742.50 0.2828
742.60 0.2827
742.70 0.2825
742.80 0.2824
742.90 0.2823
743.00 0.2821
743.10 0.282
743.20 0.2819
743.30 0.2817
743.40 0.2816
743.50 0.2815
743.60 0.2813
743.70 0.2812
743.80 0.2811
743.90 0.2809
744.00 0.2808
744.10 0.2807
744.20 0.2805
744.30 0.2804
744.40 0.2803
744.50 0.2801
744.60 0.28
744.70 0.2799
744.80 0.2797
744.90 0.2796
745.00 0.2795
745.10 0.2793
745.20 0.2792
745.30 0.2791
745.40 0.2789
745.50 0.2788
745.60 0.2787
745.70 0.2785
745.80 0.2784
745.90 0.2783
746.00 0.2781
746.10 0.278
746.20 0.2779
746.30 0.2777
746.40 0.2776
746.50 0.2775
746.60 0.2773
746.70 0.2772
746.80 0.2771
746.90 0.2769
747.00 0.2768
747.10 0.2767
747.20 0.2766
747.30 0.2764
747.40 0.2763
747.50 0.2762
747.60 0.276
747.70 0.2759
747.80 0.2758
747.90 0.2756
748.00 0.2755
748.10 0.2754
748.20 0.2752
748.30 0.2751
748.40 0.275
748.50 0.2748
748.60 0.2747
748.70 0.2746
748.80 0.2744
748.90 0.2743
749.00 0.2742
749.10 0.2741
749.20 0.2739
749.30 0.2738
749.40 0.2737
749.50 0.2735
749.60 0.2734
749.70 0.2733
749.80 0.2731
749.90 0.273
750.00 0.2729
750.10 0.2728
750.20 0.2726
750.30 0.2725
750.40 0.2724
750.50 0.2722
750.60 0.2721
750.70 0.272
750.80 0.2719
750.90 0.2717
751.00 0.2716
751.10 0.2715
751.20 0.2713
751.30 0.2712
751.40 0.2711
751.50 0.271
751.60 0.2708
751.70 0.2707
751.80 0.2706
751.90 0.2705
752.00 0.2703
752.10 0.2702
752.20 0.2701
752.30 0.2699
752.40 0.2698
752.50 0.2697
752.60 0.2696
752.70 0.2694
752.80 0.2693
752.90 0.2692
753.00 0.2691
753.10 0.2689
753.20 0.2688
753.30 0.2687
753.40 0.2686
753.50 0.2684
753.60 0.2683
753.70 0.2682
753.80 0.268
753.90 0.2679
754.00 0.2678
754.10 0.2677
754.20 0.2675
754.30 0.2674
754.40 0.2673
754.50 0.2672
754.60 0.267
754.70 0.2669
754.80 0.2668
754.90 0.2667
755.00 0.2665
755.10 0.2664
755.20 0.2663
755.30 0.2662
755.40 0.266
755.50 0.2659
755.60 0.2658
755.70 0.2657
755.80 0.2655
755.90 0.2654
756.00 0.2653
756.10 0.2652
756.20 0.265
756.30 0.2649
756.40 0.2648
756.50 0.2647
756.60 0.2645
756.70 0.2644
756.80 0.2643
756.90 0.2642
757.00 0.264
757.10 0.2639
757.20 0.2638
757.30 0.2637
757.40 0.2635
757.50 0.2634
757.60 0.2633
757.70 0.2632
757.80 0.263
757.90 0.2629
758.00 0.2628
758.10 0.2627
758.20 0.2626
758.30 0.2624
758.40 0.2623
758.50 0.2622
758.60 0.2621
758.70 0.2619
758.80 0.2618
758.90 0.2617
759.00 0.2616
759.10 0.2614
759.20 0.2613
759.30 0.2612
759.40 0.2611
759.50 0.261
759.60 0.2608
759.70 0.2607
759.80 0.2606
759.90 0.2605
760.00 0.2603
760.10 0.2602
760.20 0.2601
760.30 0.26
760.40 0.2599
760.50 0.2597
760.60 0.2596
760.70 0.2595
760.80 0.2594
760.90 0.2593
761.00 0.2591
761.10 0.259
761.20 0.2589
761.30 0.2588
761.40 0.2586
761.50 0.2585
761.60 0.2584
761.70 0.2583
761.80 0.2582
761.90 0.258
762.00 0.2579
762.10 0.2578
762.20 0.2577
762.30 0.2576
762.40 0.2574
762.50 0.2573
762.60 0.2572
762.70 0.2571
762.80 0.257
762.90 0.2569
763.00 0.2567
763.10 0.2566
763.20 0.2565
763.30 0.2564
763.40 0.2563
763.50 0.2561
763.60 0.256
763.70 0.2559
763.80 0.2558
763.90 0.2557
764.00 0.2555
764.10 0.2554
764.20 0.2553
764.30 0.2552
764.40 0.2551
764.50 0.2549
764.60 0.2548
764.70 0.2547
764.80 0.2546
764.90 0.2545
765.00 0.2544
765.10 0.2542
765.20 0.2541
765.30 0.254
765.40 0.2539
765.50 0.2538
765.60 0.2536
765.70 0.2535
765.80 0.2534
765.90 0.2533
766.00 0.2532
766.10 0.2531
766.20 0.2529
766.30 0.2528
766.40 0.2527
766.50 0.2526
766.60 0.2525
766.70 0.2524
766.80 0.2522
766.90 0.2521
767.00 0.252
767.10 0.2519
767.20 0.2518
767.30 0.2516
767.40 0.2515
767.50 0.2514
767.60 0.2513
767.70 0.2512
767.80 0.2511
767.90 0.2509
768.00 0.2508
768.10 0.2507
768.20 0.2506
768.30 0.2505
768.40 0.2504
768.50 0.2502
768.60 0.2501
768.70 0.25
768.80 0.2499
768.90 0.2498
769.00 0.2497
769.10 0.2495
769.20 0.2494
769.30 0.2493
769.40 0.2492
769.50 0.2491
769.60 0.249
769.70 0.2489
769.80 0.2487
769.90 0.2486
770.00 0.2485
770.10 0.2484
770.20 0.2483
770.30 0.2482
770.40 0.248
770.50 0.2479
770.60 0.2478
770.70 0.2477
770.80 0.2476
770.90 0.2475
771.00 0.2474
771.10 0.2473
771.20 0.2471
771.30 0.247
771.40 0.2469
771.50 0.2468
771.60 0.2467
771.70 0.2466
771.80 0.2465
771.90 0.2463
772.00 0.2462
772.10 0.2461
772.20 0.246
772.30 0.2459
772.40 0.2458
772.50 0.2457
772.60 0.2456
772.70 0.2454
772.80 0.2453
772.90 0.2452
773.00 0.2451
773.10 0.245
773.20 0.2449
773.30 0.2448
773.40 0.2447
773.50 0.2445
773.60 0.2444
773.70 0.2443
773.80 0.2442
773.90 0.2441
774.00 0.244
774.10 0.2439
774.20 0.2438
774.30 0.2436
774.40 0.2435
774.50 0.2434
774.60 0.2433
774.70 0.2432
774.80 0.2431
774.90 0.243
775.00 0.2429
775.10 0.2427
775.20 0.2426
775.30 0.2425
775.40 0.2424
775.50 0.2423
775.60 0.2422
775.70 0.2421
775.80 0.242
775.90 0.2419
776.00 0.2417
776.10 0.2416
776.20 0.2415
776.30 0.2414
776.40 0.2413
776.50 0.2412
776.60 0.2411
776.70 0.241
776.80 0.2409
776.90 0.2407
777.00 0.2406
777.10 0.2405
777.20 0.2404
777.30 0.2403
777.40 0.2402
777.50 0.2401
777.60 0.24
777.70 0.2399
777.80 0.2398
777.90 0.2396
778.00 0.2395
778.10 0.2394
778.20 0.2393
778.30 0.2392
778.40 0.2391
778.50 0.239
778.60 0.2389
778.70 0.2388
778.80 0.2387
778.90 0.2385
779.00 0.2384
779.10 0.2383
779.20 0.2382
779.30 0.2381
779.40 0.238
779.50 0.2379
779.60 0.2378
779.70 0.2377
779.80 0.2376
779.90 0.2374
780.00 0.2373
780.10 0.2372
780.20 0.2371
780.30 0.237
780.40 0.2369
780.50 0.2368
780.60 0.2367
780.70 0.2366
780.80 0.2365
780.90 0.2364
781.00 0.2363
781.10 0.2362
781.20 0.236
781.30 0.2359
781.40 0.2358
781.50 0.2357
781.60 0.2356
781.70 0.2355
781.80 0.2354
781.90 0.2353
782.00 0.2352
782.10 0.2351
782.20 0.235
782.30 0.2349
782.40 0.2348
782.50 0.2347
782.60 0.2346
782.70 0.2344
782.80 0.2343
782.90 0.2342
783.00 0.2341
783.10 0.234
783.20 0.2339
783.30 0.2338
783.40 0.2337
783.50 0.2336
783.60 0.2335
783.70 0.2334
783.80 0.2333
783.90 0.2332
784.00 0.2331
784.10 0.233
784.20 0.2329
784.30 0.2327
784.40 0.2326
784.50 0.2325
784.60 0.2324
784.70 0.2323
784.80 0.2322
784.90 0.2321
785.00 0.232
785.10 0.2319
785.20 0.2318
785.30 0.2317
785.40 0.2316
785.50 0.2315
785.60 0.2314
785.70 0.2313
785.80 0.2312
785.90 0.2311
786.00 0.231
786.10 0.2308
786.20 0.2307
786.30 0.2306
786.40 0.2305
786.50 0.2304
786.60 0.2303
786.70 0.2302
786.80 0.2301
786.90 0.23
787.00 0.2299
787.10 0.2298
787.20 0.2297
787.30 0.2296
787.40 0.2295
787.50 0.2294
787.60 0.2293
787.70 0.2292
787.80 0.2291
787.90 0.229
788.00 0.2289
788.10 0.2288
788.20 0.2287
788.30 0.2286
788.40 0.2284
788.50 0.2283
788.60 0.2282
788.70 0.2281
788.80 0.228
788.90 0.2279
789.00 0.2278
789.10 0.2277
789.20 0.2276
789.30 0.2275
789.40 0.2274
789.50 0.2273
789.60 0.2272
789.70 0.2271
789.80 0.227
789.90 0.2269
790.00 0.2268
790.10 0.2267
790.20 0.2266
790.30 0.2265
790.40 0.2264
790.50 0.2263
790.60 0.2262
790.70 0.2261
790.80 0.226
790.90 0.2259
791.00 0.2258
791.10 0.2257
791.20 0.2256
791.30 0.2255
791.40 0.2254
791.50 0.2253
791.60 0.2252
791.70 0.2251
791.80 0.225
791.90 0.2249
792.00 0.2248
792.10 0.2247
792.20 0.2246
792.30 0.2245
792.40 0.2244
792.50 0.2243
792.60 0.2242
792.70 0.2241
792.80 0.224
792.90 0.2239
793.00 0.2238
793.10 0.2237
793.20 0.2236
793.30 0.2235
793.40 0.2234
793.50 0.2233
793.60 0.2232
793.70 0.2231
793.80 0.223
793.90 0.2229
794.00 0.2228
794.10 0.2227
794.20 0.2226
794.30 0.2225
794.40 0.2224
794.50 0.2223
794.60 0.2222
794.70 0.2221
794.80 0.222
794.90 0.2219
795.00 0.2218
795.10 0.2217
795.20 0.2216
795.30 0.2215
795.40 0.2214
795.50 0.2213
795.60 0.2212
795.70 0.2211
795.80 0.221
795.90 0.2209
796.00 0.2208
796.10 0.2207
796.20 0.2206
796.30 0.2205
796.40 0.2204
796.50 0.2203
796.60 0.2202
796.70 0.2201
796.80 0.22
796.90 0.2199
797.00 0.2198
797.10 0.2197
797.20 0.2196
797.30 0.2195
797.40 0.2194
797.50 0.2193
797.60 0.2192
797.70 0.2191
797.80 0.219
797.90 0.2189
798.00 0.2188
798.10 0.2187
798.20 0.2186
798.30 0.2185
798.40 0.2184
798.50 0.2183
798.60 0.2182
798.70 0.2181
798.80 0.218
798.90 0.2179
799.00 0.2178
799.10 0.2177
799.20 0.2176
799.30 0.2175
799.40 0.2174
799.50 0.2173
799.60 0.2172
799.70 0.2171
799.80 0.217
799.90 0.2169
800.00 0.2168
800.10 0.2167
800.20 0.2166
800.30 0.2165
800.40 0.2164
800.50 0.2163
800.60 0.2162
800.70 0.2162
800.80 0.2161
800.90 0.216
801.00 0.2159
801.10 0.2158
801.20 0.2157
801.30 0.2156
801.40 0.2155
801.50 0.2154
801.60 0.2153
801.70 0.2152
801.80 0.2151
801.90 0.215
802.00 0.2149
802.10 0.2148
802.20 0.2147
802.30 0.2146
802.40 0.2145
802.50 0.2144
802.60 0.2143
802.70 0.2142
802.80 0.2141
802.90 0.2141
803.00 0.214
803.10 0.2139
803.20 0.2138
803.30 0.2137
803.40 0.2136
803.50 0.2135
803.60 0.2134
803.70 0.2133
803.80 0.2132
803.90 0.2131
804.00 0.213
804.10 0.2129
804.20 0.2128
804.30 0.2127
804.40 0.2126
804.50 0.2125
804.60 0.2124
804.70 0.2123
804.80 0.2123
804.90 0.2122
805.00 0.2121
805.10 0.212
805.20 0.2119
805.30 0.2118
805.40 0.2117
805.50 0.2116
805.60 0.2115
805.70 0.2114
805.80 0.2113
805.90 0.2112
806.00 0.2111
806.10 0.211
806.20 0.2109
806.30 0.2108
806.40 0.2108
806.50 0.2107
806.60 0.2106
806.70 0.2105
806.80 0.2104
806.90 0.2103
807.00 0.2102
807.10 0.2101
807.20 0.21
807.30 0.2099
807.40 0.2098
807.50 0.2097
807.60 0.2096
807.70 0.2095
807.80 0.2094
807.90 0.2094
808.00 0.2093
808.10 0.2092
808.20 0.2091
808.30 0.209
808.40 0.2089
808.50 0.2088
808.60 0.2087
808.70 0.2086
808.80 0.2085
808.90 0.2084
809.00 0.2083
809.10 0.2082
809.20 0.2081
809.30 0.2081
809.40 0.208
809.50 0.2079
809.60 0.2078
809.70 0.2077
809.80 0.2076
809.90 0.2075
810.00 0.2074
810.10 0.2073
810.20 0.2072
810.30 0.2071
810.40 0.207
810.50 0.207
810.60 0.2069
810.70 0.2068
810.80 0.2067
810.90 0.2066
811.00 0.2065
811.10 0.2064
811.20 0.2063
811.30 0.2062
811.40 0.2061
811.50 0.206
811.60 0.206
811.70 0.2059
811.80 0.2058
811.90 0.2057
812.00 0.2056
812.10 0.2055
812.20 0.2054
812.30 0.2053
812.40 0.2052
812.50 0.2051
812.60 0.2051
812.70 0.205
812.80 0.2049
812.90 0.2048
813.00 0.2047
813.10 0.2046
813.20 0.2045
813.30 0.2044
813.40 0.2043
813.50 0.2042
813.60 0.2042
813.70 0.2041
813.80 0.204
813.90 0.2039
814.00 0.2038
814.10 0.2037
814.20 0.2036
814.30 0.2035
814.40 0.2034
814.50 0.2033
814.60 0.2033
814.70 0.2032
814.80 0.2031
814.90 0.203
815.00 0.2029
815.10 0.2028
815.20 0.2027
815.30 0.2026
815.40 0.2025
815.50 0.2025
815.60 0.2024
815.70 0.2023
815.80 0.2022
815.90 0.2021
816.00 0.202
816.10 0.2019
816.20 0.2018
816.30 0.2017
816.40 0.2017
816.50 0.2016
816.60 0.2015
816.70 0.2014
816.80 0.2013
816.90 0.2012
817.00 0.2011
817.10 0.201
817.20 0.2009
817.30 0.2009
817.40 0.2008
817.50 0.2007
817.60 0.2006
817.70 0.2005
817.80 0.2004
817.90 0.2003
818.00 0.2002
818.10 0.2002
818.20 0.2001
818.30 0.2
818.40 0.1999
818.50 0.1998
818.60 0.1997
818.70 0.1996
818.80 0.1995
818.90 0.1995
819.00 0.1994
819.10 0.1993
819.20 0.1992
819.30 0.1991
819.40 0.199
819.50 0.1989
819.60 0.1988
819.70 0.1988
819.80 0.1987
819.90 0.1986
820.00 0.1985
820.10 0.1984
820.20 0.1983
820.30 0.1983
820.40 0.1982
820.50 0.1981
820.60 0.198
820.70 0.1979
820.80 0.1978
820.90 0.1977
821.00 0.1977
821.10 0.1976
821.20 0.1975
821.30 0.1974
821.40 0.1973
821.50 0.1972
821.60 0.1971
821.70 0.197
821.80 0.197
821.90 0.1969
822.00 0.1968
822.10 0.1967
822.20 0.1966
822.30 0.1965
822.40 0.1964
822.50 0.1964
822.60 0.1963
822.70 0.1962
822.80 0.1961
822.90 0.196
823.00 0.1959
823.10 0.1959
823.20 0.1958
823.30 0.1957
823.40 0.1956
823.50 0.1955
823.60 0.1954
823.70 0.1953
823.80 0.1953
823.90 0.1952
824.00 0.1951
824.10 0.195
824.20 0.1949
824.30 0.1948
824.40 0.1947
824.50 0.1947
824.60 0.1946
824.70 0.1945
824.80 0.1944
824.90 0.1943
825.00 0.1942
825.10 0.1942
825.20 0.1941
825.30 0.194
825.40 0.1939
825.50 0.1938
825.60 0.1937
825.70 0.1937
825.80 0.1936
825.90 0.1935
826.00 0.1934
826.10 0.1933
826.20 0.1932
826.30 0.1931
826.40 0.1931
826.50 0.193
826.60 0.1929
826.70 0.1928
826.80 0.1927
826.90 0.1926
827.00 0.1926
827.10 0.1925
827.20 0.1924
827.30 0.1923
827.40 0.1922
827.50 0.1921
827.60 0.1921
827.70 0.192
827.80 0.1919
827.90 0.1918
828.00 0.1917
828.10 0.1916
828.20 0.1916
828.30 0.1915
828.40 0.1914
828.50 0.1913
828.60 0.1912
828.70 0.1911
828.80 0.1911
828.90 0.191
829.00 0.1909
829.10 0.1908
829.20 0.1907
829.30 0.1907
829.40 0.1906
829.50 0.1905
829.60 0.1904
829.70 0.1903
829.80 0.1902
829.90 0.1902
830.00 0.1901
830.10 0.19
830.20 0.1899
830.30 0.1898
830.40 0.1897
830.50 0.1897
830.60 0.1896
830.70 0.1895
830.80 0.1894
830.90 0.1893
831.00 0.1893
831.10 0.1892
831.20 0.1891
831.30 0.189
831.40 0.1889
831.50 0.1888
831.60 0.1888
831.70 0.1887
831.80 0.1886
831.90 0.1885
832.00 0.1884
832.10 0.1884
832.20 0.1883
832.30 0.1882
832.40 0.1881
832.50 0.188
832.60 0.188
832.70 0.1879
832.80 0.1878
832.90 0.1877
833.00 0.1876
833.10 0.1876
833.20 0.1875
833.30 0.1874
833.40 0.1873
833.50 0.1872
833.60 0.1871
833.70 0.1871
833.80 0.187
833.90 0.1869
834.00 0.1868
834.10 0.1867
834.20 0.1867
834.30 0.1866
834.40 0.1865
834.50 0.1864
834.60 0.1863
834.70 0.1863
834.80 0.1862
834.90 0.1861
835.00 0.186
835.10 0.1859
835.20 0.1859
835.30 0.1858
835.40 0.1857
835.50 0.1856
835.60 0.1855
835.70 0.1855
835.80 0.1854
835.90 0.1853
836.00 0.1852
836.10 0.1851
836.20 0.1851
836.30 0.185
836.40 0.1849
836.50 0.1848
836.60 0.1847
836.70 0.1847
836.80 0.1846
836.90 0.1845
837.00 0.1844
837.10 0.1843
837.20 0.1843
837.30 0.1842
837.40 0.1841
837.50 0.184
837.60 0.184
837.70 0.1839
837.80 0.1838
837.90 0.1837
838.00 0.1836
838.10 0.1836
838.20 0.1835
838.30 0.1834
838.40 0.1833
838.50 0.1832
838.60 0.1832
838.70 0.1831
838.80 0.183
838.90 0.1829
839.00 0.1829
839.10 0.1828
839.20 0.1827
839.30 0.1826
839.40 0.1825
839.50 0.1825
839.60 0.1824
839.70 0.1823
839.80 0.1822
839.90 0.1822
840.00 0.1821
840.10 0.182
840.20 0.1819
840.30 0.1818
840.40 0.1818
840.50 0.1817
840.60 0.1816
840.70 0.1815
840.80 0.1815
840.90 0.1814
841.00 0.1813
841.10 0.1812
841.20 0.1811
841.30 0.1811
841.40 0.181
841.50 0.1809
841.60 0.1808
841.70 0.1808
841.80 0.1807
841.90 0.1806
842.00 0.1805
842.10 0.1804
842.20 0.1804
842.30 0.1803
842.40 0.1802
842.50 0.1801
842.60 0.1801
842.70 0.18
842.80 0.1799
842.90 0.1798
843.00 0.1798
843.10 0.1797
843.20 0.1796
843.30 0.1795
843.40 0.1795
843.50 0.1794
843.60 0.1793
843.70 0.1792
843.80 0.1791
843.90 0.1791
844.00 0.179
844.10 0.1789
844.20 0.1788
844.30 0.1788
844.40 0.1787
844.50 0.1786
844.60 0.1785
844.70 0.1785
844.80 0.1784
844.90 0.1783
845.00 0.1782
845.10 0.1782
845.20 0.1781
845.30 0.178
845.40 0.1779
845.50 0.1779
845.60 0.1778
845.70 0.1777
845.80 0.1776
845.90 0.1776
846.00 0.1775
846.10 0.1774
846.20 0.1773
846.30 0.1773
846.40 0.1772
846.50 0.1771
846.60 0.177
846.70 0.177
846.80 0.1769
846.90 0.1768
847.00 0.1767
847.10 0.1767
847.20 0.1766
847.30 0.1765
847.40 0.1764
847.50 0.1764
847.60 0.1763
847.70 0.1762
847.80 0.1761
847.90 0.1761
848.00 0.176
848.10 0.1759
848.20 0.1758
848.30 0.1758
848.40 0.1757
848.50 0.1756
848.60 0.1755
848.70 0.1755
848.80 0.1754
848.90 0.1753
849.00 0.1752
849.10 0.1752
849.20 0.1751
849.30 0.175
849.40 0.1749
849.50 0.1749
849.60 0.1748
849.70 0.1747
849.80 0.1747
849.90 0.1746
850.00 0.1745
850.10 0.1744
850.20 0.1744
850.30 0.1743
850.40 0.1742
850.50 0.1741
850.60 0.1741
850.70 0.174
850.80 0.1739
850.90 0.1738
851.00 0.1738
851.10 0.1737
851.20 0.1736
851.30 0.1736
851.40 0.1735
851.50 0.1734
851.60 0.1733
851.70 0.1733
851.80 0.1732
851.90 0.1731
852.00 0.173
852.10 0.173
852.20 0.1729
852.30 0.1728
852.40 0.1728
852.50 0.1727
852.60 0.1726
852.70 0.1725
852.80 0.1725
852.90 0.1724
853.00 0.1723
853.10 0.1722
853.20 0.1722
853.30 0.1721
853.40 0.172
853.50 0.172
853.60 0.1719
853.70 0.1718
853.80 0.1717
853.90 0.1717
854.00 0.1716
854.10 0.1715
854.20 0.1715
854.30 0.1714
854.40 0.1713
854.50 0.1712
854.60 0.1712
854.70 0.1711
854.80 0.171
854.90 0.171
855.00 0.1709
855.10 0.1708
855.20 0.1707
855.30 0.1707
855.40 0.1706
855.50 0.1705
855.60 0.1704
855.70 0.1704
855.80 0.1703
855.90 0.1702
856.00 0.1702
856.10 0.1701
856.20 0.17
856.30 0.17
856.40 0.1699
856.50 0.1698
856.60 0.1697
856.70 0.1697
856.80 0.1696
856.90 0.1695
857.00 0.1695
857.10 0.1694
857.20 0.1693
857.30 0.1692
857.40 0.1692
857.50 0.1691
857.60 0.169
857.70 0.169
857.80 0.1689
857.90 0.1688
858.00 0.1688
858.10 0.1687
858.20 0.1686
858.30 0.1685
858.40 0.1685
858.50 0.1684
858.60 0.1683
858.70 0.1683
858.80 0.1682
858.90 0.1681
859.00 0.1681
859.10 0.168
859.20 0.1679
859.30 0.1678
859.40 0.1678
859.50 0.1677
859.60 0.1676
859.70 0.1676
859.80 0.1675
859.90 0.1674
860.00 0.1674
860.10 0.1673
860.20 0.1672
860.30 0.1671
860.40 0.1671
860.50 0.167
860.60 0.1669
860.70 0.1669
860.80 0.1668
860.90 0.1667
861.00 0.1667
861.10 0.1666
861.20 0.1665
861.30 0.1665
861.40 0.1664
861.50 0.1663
861.60 0.1663
861.70 0.1662
861.80 0.1661
861.90 0.166
862.00 0.166
862.10 0.1659
862.20 0.1658
862.30 0.1658
862.40 0.1657
862.50 0.1656
862.60 0.1656
862.70 0.1655
862.80 0.1654
862.90 0.1654
863.00 0.1653
863.10 0.1652
863.20 0.1652
863.30 0.1651
863.40 0.165
863.50 0.165
863.60 0.1649
863.70 0.1648
863.80 0.1648
863.90 0.1647
864.00 0.1646
864.10 0.1646
864.20 0.1645
864.30 0.1644
864.40 0.1643
864.50 0.1643
864.60 0.1642
864.70 0.1641
864.80 0.1641
864.90 0.164
865.00 0.1639
865.10 0.1639
865.20 0.1638
865.30 0.1637
865.40 0.1637
865.50 0.1636
865.60 0.1635
865.70 0.1635
865.80 0.1634
865.90 0.1633
866.00 0.1633
866.10 0.1632
866.20 0.1631
866.30 0.1631
866.40 0.163
866.50 0.1629
866.60 0.1629
866.70 0.1628
866.80 0.1627
866.90 0.1627
867.00 0.1626
867.10 0.1625
867.20 0.1625
867.30 0.1624
867.40 0.1623
867.50 0.1623
867.60 0.1622
867.70 0.1621
867.80 0.1621
867.90 0.162
868.00 0.1619
868.10 0.1619
868.20 0.1618
868.30 0.1618
868.40 0.1617
868.50 0.1616
868.60 0.1616
868.70 0.1615
868.80 0.1614
868.90 0.1614
869.00 0.1613
869.10 0.1612
869.20 0.1612
869.30 0.1611
869.40 0.161
869.50 0.161
869.60 0.1609
869.70 0.1608
869.80 0.1608
869.90 0.1607
870.00 0.1606
870.10 0.1606
870.20 0.1605
870.30 0.1605
870.40 0.1604
870.50 0.1603
870.60 0.1603
870.70 0.1602
870.80 0.1601
870.90 0.1601
871.00 0.16
871.10 0.1599
871.20 0.1599
871.30 0.1598
871.40 0.1597
871.50 0.1597
871.60 0.1596
871.70 0.1595
871.80 0.1595
871.90 0.1594
872.00 0.1594
872.10 0.1593
872.20 0.1592
872.30 0.1592
872.40 0.1591
872.50 0.159
872.60 0.159
872.70 0.1589
872.80 0.1588
872.90 0.1588
873.00 0.1587
873.10 0.1587
873.20 0.1586
873.30 0.1585
873.40 0.1585
873.50 0.1584
873.60 0.1583
873.70 0.1583
873.80 0.1582
873.90 0.1581
874.00 0.1581
874.10 0.158
874.20 0.158
874.30 0.1579
874.40 0.1578
874.50 0.1578
874.60 0.1577
874.70 0.1576
874.80 0.1576
874.90 0.1575
875.00 0.1575
875.10 0.1574
875.20 0.1573
875.30 0.1573
875.40 0.1572
875.50 0.1571
875.60 0.1571
875.70 0.157
875.80 0.1569
875.90 0.1569
876.00 0.1568
876.10 0.1568
876.20 0.1567
876.30 0.1566
876.40 0.1566
876.50 0.1565
876.60 0.1564
876.70 0.1564
876.80 0.1563
876.90 0.1563
877.00 0.1562
877.10 0.1561
877.20 0.1561
877.30 0.156
877.40 0.156
877.50 0.1559
877.60 0.1558
877.70 0.1558
877.80 0.1557
877.90 0.1556
878.00 0.1556
878.10 0.1555
878.20 0.1555
878.30 0.1554
878.40 0.1553
878.50 0.1553
878.60 0.1552
878.70 0.1552
878.80 0.1551
878.90 0.155
879.00 0.155
879.10 0.1549
879.20 0.1549
879.30 0.1548
879.40 0.1547
879.50 0.1547
879.60 0.1546
879.70 0.1546
879.80 0.1545
879.90 0.1544
880.00 0.1544
880.10 0.1543
880.20 0.1543
880.30 0.1542
880.40 0.1541
880.50 0.1541
880.60 0.154
880.70 0.154
880.80 0.1539
880.90 0.1538
881.00 0.1538
881.10 0.1537
881.20 0.1537
881.30 0.1536
881.40 0.1535
881.50 0.1535
881.60 0.1534
881.70 0.1534
881.80 0.1533
881.90 0.1532
882.00 0.1532
882.10 0.1531
882.20 0.1531
882.30 0.153
882.40 0.1529
882.50 0.1529
882.60 0.1528
882.70 0.1528
882.80 0.1527
882.90 0.1526
883.00 0.1526
883.10 0.1525
883.20 0.1525
883.30 0.1524
883.40 0.1523
883.50 0.1523
883.60 0.1522
883.70 0.1522
883.80 0.1521
883.90 0.152
884.00 0.152
884.10 0.1519
884.20 0.1519
884.30 0.1518
884.40 0.1517
884.50 0.1517
884.60 0.1516
884.70 0.1516
884.80 0.1515
884.90 0.1514
885.00 0.1514
885.10 0.1513
885.20 0.1513
885.30 0.1512
885.40 0.1511
885.50 0.1511
885.60 0.151
885.70 0.151
885.80 0.1509
885.90 0.1508
886.00 0.1508
886.10 0.1507
886.20 0.1507
886.30 0.1506
886.40 0.1505
886.50 0.1505
886.60 0.1504
886.70 0.1504
886.80 0.1503
886.90 0.1503
887.00 0.1502
887.10 0.1501
887.20 0.1501
887.30 0.15
887.40 0.15
887.50 0.1499
887.60 0.1499
887.70 0.1498
887.80 0.1497
887.90 0.1497
888.00 0.1496
888.10 0.1496
888.20 0.1495
888.30 0.1495
888.40 0.1494
888.50 0.1494
888.60 0.1493
888.70 0.1493
888.80 0.1492
888.90 0.1491
889.00 0.1491
889.10 0.149
889.20 0.149
889.30 0.1489
889.40 0.1489
889.50 0.1488
889.60 0.1488
889.70 0.1487
889.80 0.1486
889.90 0.1486
890.00 0.1485
890.10 0.1485
890.20 0.1484
890.30 0.1484
890.40 0.1483
890.50 0.1483
890.60 0.1482
890.70 0.1482
890.80 0.1481
890.90 0.148
891.00 0.148
891.10 0.1479
891.20 0.1479
891.30 0.1478
891.40 0.1478
891.50 0.1477
891.60 0.1477
891.70 0.1476
891.80 0.1476
891.90 0.1475
892.00 0.1474
892.10 0.1474
892.20 0.1473
892.30 0.1473
892.40 0.1472
892.50 0.1472
892.60 0.1471
892.70 0.1471
892.80 0.147
892.90 0.147
893.00 0.1469
893.10 0.1468
893.20 0.1468
893.30 0.1467
893.40 0.1467
893.50 0.1466
893.60 0.1466
893.70 0.1465
893.80 0.1465
893.90 0.1464
894.00 0.1464
894.10 0.1463
894.20 0.1462
894.30 0.1462
894.40 0.1461
894.50 0.1461
894.60 0.146
894.70 0.146
894.80 0.1459
894.90 0.1459
895.00 0.1458
895.10 0.1458
895.20 0.1457
895.30 0.1456
895.40 0.1456
895.50 0.1455
895.60 0.1455
895.70 0.1454
895.80 0.1454
895.90 0.1453
896.00 0.1453
896.10 0.1452
896.20 0.1452
896.30 0.1451
896.40 0.1451
896.50 0.145
896.60 0.1449
896.70 0.1449
896.80 0.1448
896.90 0.1448
897.00 0.1447
897.10 0.1447
897.20 0.1446
897.30 0.1446
897.40 0.1445
897.50 0.1444
897.60 0.1444
897.70 0.1443
897.80 0.1443
897.90 0.1442
898.00 0.1441
898.10 0.1441
898.20 0.144
898.30 0.144
898.40 0.1439
898.50 0.1439
898.60 0.1438
898.70 0.1437
898.80 0.1437
898.90 0.1436
899.00 0.1436
899.10 0.1435
899.20 0.1434
899.30 0.1434
899.40 0.1433
899.50 0.1433
899.60 0.1432
899.70 0.1432
899.80 0.1431
899.90 0.143
900.00 0.143
900.10 0.1429
900.20 0.1429
900.30 0.1428
900.40 0.1427
900.50 0.1427
900.60 0.1426
900.70 0.1426
900.80 0.1425
900.90 0.1425
901.00 0.1424
901.10 0.1423
901.20 0.1423
901.30 0.1422
901.40 0.1422
901.50 0.1421
901.60 0.1421
901.70 0.142
901.80 0.1419
901.90 0.1419
902.00 0.1418
902.10 0.1418
902.20 0.1417
902.30 0.1417
902.40 0.1416
902.50 0.1416
902.60 0.1415
902.70 0.1415
902.80 0.1415
902.90 0.1414
903.00 0.1414
903.10 0.1413
903.20 0.1413
903.30 0.1412
903.40 0.1412
903.50 0.1411
903.60 0.1411
903.70 0.141
903.80 0.141
903.90 0.1409
904.00 0.1409
904.10 0.1408
904.20 0.1408
904.30 0.1408
904.40 0.1407
904.50 0.1407
904.60 0.1406
904.70 0.1406
904.80 0.1405
904.90 0.1405
905.00 0.1404
905.10 0.1404
905.20 0.1403
905.30 0.1403
905.40 0.1402
905.50 0.1402
905.60 0.1402
905.70 0.1401
905.80 0.1401
905.90 0.14
906.00 0.14
906.10 0.1399
906.20 0.1399
906.30 0.1398
906.40 0.1398
906.50 0.1397
906.60 0.1397
906.70 0.1396
906.80 0.1396
906.90 0.1396
907.00 0.1395
907.10 0.1395
907.20 0.1394
907.30 0.1394
907.40 0.1393
907.50 0.1393
907.60 0.1392
907.70 0.1392
907.80 0.1391
907.90 0.1391
908.00 0.139
908.10 0.139
908.20 0.1389
908.30 0.1389
908.40 0.1388
908.50 0.1388
908.60 0.1388
908.70 0.1387
908.80 0.1387
908.90 0.1386
909.00 0.1386
909.10 0.1385
909.20 0.1385
909.30 0.1384
909.40 0.1384
909.50 0.1383
909.60 0.1383
909.70 0.1382
909.80 0.1382
909.90 0.1381
910.00 0.1381
910.10 0.138
910.20 0.138
910.30 0.138
910.40 0.1379
910.50 0.1379
910.60 0.1378
910.70 0.1378
910.80 0.1377
910.90 0.1377
911.00 0.1376
911.10 0.1376
911.20 0.1375
911.30 0.1375
911.40 0.1374
911.50 0.1374
911.60 0.1373
911.70 0.1373
911.80 0.1373
911.90 0.1372
912.00 0.1372
912.10 0.1371
912.20 0.1371
912.30 0.137
912.40 0.137
912.50 0.1369
912.60 0.1369
912.70 0.1368
912.80 0.1368
912.90 0.1367
913.00 0.1367
913.10 0.1366
913.20 0.1366
913.30 0.1365
913.40 0.1365
913.50 0.1364
913.60 0.1364
913.70 0.1363
913.80 0.1363
913.90 0.1362
914.00 0.1362
914.10 0.1361
914.20 0.1361
914.30 0.136
914.40 0.136
914.50 0.1359
914.60 0.1359
914.70 0.1358
914.80 0.1358
914.90 0.1357
915.00 0.1357
915.10 0.1356
915.20 0.1356
915.30 0.1355
915.40 0.1355
915.50 0.1354
915.60 0.1354
915.70 0.1353
915.80 0.1353
915.90 0.1352
916.00 0.1352
916.10 0.1351
916.20 0.1351
916.30 0.135
916.40 0.135
916.50 0.1349
916.60 0.1349
916.70 0.1348
916.80 0.1348
916.90 0.1347
917.00 0.1347
917.10 0.1346
917.20 0.1346
917.30 0.1345
917.40 0.1345
917.50 0.1344
917.60 0.1343
917.70 0.1343
917.80 0.1342
917.90 0.1342
918.00 0.1341
918.10 0.1341
918.20 0.134
918.30 0.134
918.40 0.1339
918.50 0.1339
918.60 0.1338
918.70 0.1338
918.80 0.1337
918.90 0.1337
919.00 0.1336
919.10 0.1335
919.20 0.1335
919.30 0.1334
919.40 0.1334
919.50 0.1333
919.60 0.1333
919.70 0.1332
919.80 0.1332
919.90 0.1331
920.00 0.1331
920.10 0.133
920.20 0.133
920.30 0.1329
920.40 0.1329
920.50 0.1328
920.60 0.1327
920.70 0.1327
920.80 0.1326
920.90 0.1326
921.00 0.1325
921.10 0.1325
921.20 0.1324
921.30 0.1324
921.40 0.1323
921.50 0.1323
921.60 0.1322
921.70 0.1322
921.80 0.1321
921.90 0.1321
922.00 0.132
922.10 0.132
922.20 0.1319
922.30 0.1319
922.40 0.1318
922.50 0.1317
922.60 0.1317
922.70 0.1316
922.80 0.1316
922.90 0.1315
923.00 0.1315
923.10 0.1314
923.20 0.1314
923.30 0.1313
923.40 0.1313
923.50 0.1312
923.60 0.1312
923.70 0.1311
923.80 0.1311
923.90 0.131
924.00 0.131
924.10 0.1309
924.20 0.1308
924.30 0.1308
924.40 0.1307
924.50 0.1307
924.60 0.1306
924.70 0.1306
924.80 0.1305
924.90 0.1305
925.00 0.1304
925.10 0.1304
925.20 0.1303
925.30 0.1303
925.40 0.1302
925.50 0.1302
925.60 0.1301
925.70 0.1301
925.80 0.13
925.90 0.13
926.00 0.1299
926.10 0.1299
926.20 0.1298
926.30 0.1298
926.40 0.1297
926.50 0.1296
926.60 0.1296
926.70 0.1295
926.80 0.1295
926.90 0.1294
927.00 0.1294
927.10 0.1294
927.20 0.1293
927.30 0.1293
927.40 0.1293
927.50 0.1292
927.60 0.1292
927.70 0.1292
927.80 0.1291
927.90 0.1291
928.00 0.1291
928.10 0.129
928.20 0.129
928.30 0.129
928.40 0.1289
928.50 0.1289
928.60 0.1289
928.70 0.1289
928.80 0.1288
928.90 0.1288
929.00 0.1288
929.10 0.1287
929.20 0.1287
929.30 0.1287
929.40 0.1286
929.50 0.1286
929.60 0.1286
929.70 0.1285
929.80 0.1285
929.90 0.1285
930.00 0.1284
930.10 0.1284
930.20 0.1284
930.30 0.1284
930.40 0.1283
930.50 0.1283
930.60 0.1283
930.70 0.1282
930.80 0.1282
930.90 0.1282
931.00 0.1281
931.10 0.1281
931.20 0.1281
931.30 0.128
931.40 0.128
931.50 0.128
931.60 0.128
931.70 0.1279
931.80 0.1279
931.90 0.1279
932.00 0.1278
932.10 0.1278
932.20 0.1278
932.30 0.1277
932.40 0.1277
932.50 0.1276
932.60 0.1276
932.70 0.1276
932.80 0.1275
932.90 0.1275
933.00 0.1275
933.10 0.1274
933.20 0.1274
933.30 0.1273
933.40 0.1273
933.50 0.1273
933.60 0.1272
933.70 0.1272
933.80 0.1272
933.90 0.1271
934.00 0.1271
934.10 0.127
934.20 0.127
934.30 0.127
934.40 0.1269
934.50 0.1269
934.60 0.1269
934.70 0.1268
934.80 0.1268
934.90 0.1267
935.00 0.1267
935.10 0.1267
935.20 0.1266
935.30 0.1266
935.40 0.1265
935.50 0.1265
935.60 0.1265
935.70 0.1264
935.80 0.1264
935.90 0.1263
936.00 0.1263
936.10 0.1263
936.20 0.1262
936.30 0.1262
936.40 0.1261
936.50 0.1261
936.60 0.1261
936.70 0.126
936.80 0.126
936.90 0.1259
937.00 0.1259
937.10 0.1259
937.20 0.1258
937.30 0.1258
937.40 0.1257
937.50 0.1257
937.60 0.1257
937.70 0.1256
937.80 0.1256
937.90 0.1255
938.00 0.1255
938.10 0.1255
938.20 0.1254
938.30 0.1254
938.40 0.1253
938.50 0.1253
938.60 0.1252
938.70 0.1252
938.80 0.1252
938.90 0.1251
939.00 0.1251
939.10 0.125
939.20 0.125
939.30 0.1249
939.40 0.1249
939.50 0.1249
939.60 0.1248
939.70 0.1248
939.80 0.1247
939.90 0.1247
940.00 0.1247
940.10 0.1246
940.20 0.1246
940.30 0.1245
940.40 0.1245
940.50 0.1244
940.60 0.1244
940.70 0.1243
940.80 0.1243
940.90 0.1243
941.00 0.1242
941.10 0.1242
941.20 0.1241
941.30 0.1241
941.40 0.124
941.50 0.124
941.60 0.1239
941.70 0.1239
941.80 0.1239
941.90 0.1238
942.00 0.1238
942.10 0.1237
942.20 0.1237
942.30 0.1236
942.40 0.1236
942.50 0.1235
942.60 0.1235
942.70 0.1234
942.80 0.1234
942.90 0.1234
943.00 0.1233
943.10 0.1233
943.20 0.1232
943.30 0.1232
943.40 0.1231
943.50 0.1231
943.60 0.123
943.70 0.123
943.80 0.1229
943.90 0.1229
944.00 0.1228
944.10 0.1228
944.20 0.1227
944.30 0.1227
944.40 0.1226
944.50 0.1226
944.60 0.1225
944.70 0.1225
944.80 0.1224
944.90 0.1224
945.00 0.1223
945.10 0.1223
945.20 0.1222
945.30 0.1222
945.40 0.1221
945.50 0.1221
945.60 0.122
945.70 0.122
945.80 0.1219
945.90 0.1218
946.00 0.1218
946.10 0.1217
946.20 0.1217
946.30 0.1216
946.40 0.1216
946.50 0.1215
946.60 0.1214
946.70 0.1214
946.80 0.1213
946.90 0.1213
947.00 0.1212
947.10 0.1212
947.20 0.1211
947.30 0.121
947.40 0.121
947.50 0.1209
947.60 0.1208
947.70 0.1208
947.80 0.1207
947.90 0.1207
948.00 0.1206
948.10 0.1205
948.20 0.1205
948.30 0.1204
948.40 0.1203
948.50 0.1203
948.60 0.1202
948.70 0.1201
948.80 0.1201
948.90 0.12
949.00 0.1199
949.10 0.1199
949.20 0.1198
949.30 0.1197
949.40 0.1197
949.50 0.1196
949.60 0.1195
949.70 0.1195
949.80 0.1194
949.90 0.1193
950.00 0.1192
950.10 0.1192
950.20 0.1191
950.30 0.119
950.40 0.119
950.50 0.1189
950.60 0.1188
950.70 0.1188
950.80 0.1187
950.90 0.1186
951.00 0.1185
951.10 0.1185
951.20 0.1184
951.30 0.1183
951.40 0.1183
951.50 0.1182
951.60 0.1181
951.70 0.1181
951.80 0.118
951.90 0.1179
952.00 0.1179
952.10 0.1178
952.20 0.1178
952.30 0.1177
952.40 0.1177
952.50 0.1176
952.60 0.1176
952.70 0.1175
952.80 0.1175
952.90 0.1174
953.00 0.1174
953.10 0.1174
953.20 0.1174
953.30 0.1173
953.40 0.1173
953.50 0.1173
953.60 0.1173
953.70 0.1174
953.80 0.1174
953.90 0.1175
954.00 0.1176
954.10 0.1177
954.20 0.1177
954.30 0.1167
954.40 0.1157
954.50 0.1155
954.60 0.1154
954.70 0.1152
954.80 0.1151
954.90 0.1149
955.00 0.1148
955.10 0.1147
955.20 0.1145
955.30 0.1144
955.40 0.1143
955.50 0.1141
955.60 0.114
955.70 0.1138
955.80 0.1137
955.90 0.1137
956.00 0.1136
956.10 0.1136
956.20 0.1135
956.30 0.1134
956.40 0.1134
956.50 0.1133
956.60 0.1133
956.70 0.1132
956.80 0.1132
956.90 0.1131
957.00 0.1131
957.10 0.113
957.20 0.113
957.30 0.113
957.40 0.113
957.50 0.113
957.60 0.113
957.70 0.113
957.80 0.1129
957.90 0.1129
958.00 0.1129
958.10 0.1129
958.20 0.1129
958.30 0.1129
958.40 0.1129
958.50 0.1129
958.60 0.1129
958.70 0.1128
958.80 0.1128
958.90 0.1128
959.00 0.1128
959.10 0.1128
959.20 0.1128
959.30 0.1128
959.40 0.1128
959.50 0.1128
959.60 0.1128
959.70 0.1128
959.80 0.1128
959.90 0.1128
960.00 0.1128
960.10 0.1128
960.20 0.1128
960.30 0.1128
960.40 0.1128
960.50 0.1127
960.60 0.1127
960.70 0.1127
960.80 0.1127
960.90 0.1127
961.00 0.1127
961.10 0.1127
961.20 0.1127
961.30 0.1127
961.40 0.1127
961.50 0.1127
961.60 0.1127
961.70 0.1127
961.80 0.1127
961.90 0.1127
962.00 0.1127
962.10 0.1127
962.20 0.1127
962.30 0.1127
962.40 0.1127
962.50 0.1127
962.60 0.1127
962.70 0.1127
962.80 0.1127
962.90 0.1127
963.00 0.1127
963.10 0.1127
963.20 0.1127
963.30 0.1127
963.40 0.1126
963.50 0.1126
963.60 0.1126
963.70 0.1126
963.80 0.1126
963.90 0.1126
964.00 0.1126
964.10 0.1126
964.20 0.1126
964.30 0.1126
964.40 0.1126
964.50 0.1126
964.60 0.1125
964.70 0.1125
964.80 0.1125
964.90 0.1125
965.00 0.1125
965.10 0.1125
965.20 0.1125
965.30 0.1125
965.40 0.1125
965.50 0.1124
965.60 0.1124
965.70 0.1124
965.80 0.1124
965.90 0.1124
966.00 0.1124
966.10 0.1124
966.20 0.1124
966.30 0.1123
966.40 0.1123
966.50 0.1123
966.60 0.1123
966.70 0.1123
966.80 0.1123
966.90 0.1123
967.00 0.1122
967.10 0.1122
967.20 0.1122
967.30 0.1122
967.40 0.1122
967.50 0.1122
967.60 0.1121
967.70 0.1121
967.80 0.1121
967.90 0.1121
968.00 0.1121
968.10 0.112
968.20 0.112
968.30 0.112
968.40 0.112
968.50 0.112
968.60 0.1119
968.70 0.1119
968.80 0.1119
968.90 0.1119
969.00 0.1119
969.10 0.1118
969.20 0.1118
969.30 0.1118
969.40 0.1118
969.50 0.1117
969.60 0.1117
969.70 0.1117
969.80 0.1117
969.90 0.1117
970.00 0.1116
970.10 0.1116
970.20 0.1116
970.30 0.1116
970.40 0.1115
970.50 0.1115
970.60 0.1115
970.70 0.1115
970.80 0.1114
970.90 0.1114
971.00 0.1114
971.10 0.1114
971.20 0.1113
971.30 0.1113
971.40 0.1113
971.50 0.1113
971.60 0.1112
971.70 0.1112
971.80 0.1112
971.90 0.1112
972.00 0.1111
972.10 0.1111
972.20 0.1111
972.30 0.111
972.40 0.111
972.50 0.111
972.60 0.1109
972.70 0.1109
972.80 0.1109
972.90 0.1109
973.00 0.1108
973.10 0.1108
973.20 0.1108
973.30 0.1107
973.40 0.1107
973.50 0.1107
973.60 0.1107
973.70 0.1106
973.80 0.1106
973.90 0.1106
974.00 0.1105
974.10 0.1105
974.20 0.1105
974.30 0.1104
974.40 0.1104
974.50 0.1104
974.60 0.1103
974.70 0.1103
974.80 0.1103
974.90 0.1102
975.00 0.1102
975.10 0.1102
975.20 0.1101
975.30 0.1101
975.40 0.1101
975.50 0.11
975.60 0.11
975.70 0.11
975.80 0.1099
975.90 0.1099
976.00 0.1099
976.10 0.1098
976.20 0.1098
976.30 0.1098
976.40 0.1097
976.50 0.1097
976.60 0.1097
976.70 0.1096
976.80 0.1096
976.90 0.1096
977.00 0.1095
977.10 0.1095
977.20 0.1095
977.30 0.1094
977.40 0.1094
977.50 0.1094
977.60 0.1093
977.70 0.1093
977.80 0.1092
977.90 0.1092
978.00 0.1092
978.10 0.1091
978.20 0.1091
978.30 0.109
978.40 0.109
978.50 0.109
978.60 0.1089
978.70 0.1089
978.80 0.1089
978.90 0.1088
979.00 0.1088
979.10 0.1087
979.20 0.1087
979.30 0.1087
979.40 0.1086
979.50 0.1086
979.60 0.1085
979.70 0.1085
979.80 0.1085
979.90 0.1084
980.00 0.1084
980.10 0.1084
980.20 0.1083
980.30 0.1083
980.40 0.1082
980.50 0.1082
980.60 0.1082
980.70 0.1081
980.80 0.1081
980.90 0.108
981.00 0.108
981.10 0.108
981.20 0.1079
981.30 0.1079
981.40 0.1079
981.50 0.1078
981.60 0.1078
981.70 0.1077
981.80 0.1077
981.90 0.1077
982.00 0.1076
982.10 0.1076
982.20 0.1075
982.30 0.1075
982.40 0.1074
982.50 0.1074
982.60 0.1074
982.70 0.1073
982.80 0.1073
982.90 0.1072
983.00 0.1072
983.10 0.1071
983.20 0.1071
983.30 0.107
983.40 0.107
983.50 0.107
983.60 0.1069
983.70 0.1069
983.80 0.1068
983.90 0.1068
984.00 0.1067
984.10 0.1067
984.20 0.1066
984.30 0.1066
984.40 0.1066
984.50 0.1065
984.60 0.1065
984.70 0.1064
984.80 0.1064
984.90 0.1063
985.00 0.1063
985.10 0.1062
985.20 0.1062
985.30 0.1061
985.40 0.1061
985.50 0.106
985.60 0.106
985.70 0.1059
985.80 0.1059
985.90 0.1058
986.00 0.1058
986.10 0.1057
986.20 0.1057
986.30 0.1056
986.40 0.1056
986.50 0.1055
986.60 0.1055
986.70 0.1054
986.80 0.1054
986.90 0.1053
987.00 0.1053
987.10 0.1052
987.20 0.1051
987.30 0.1051
987.40 0.105
987.50 0.105
987.60 0.1049
987.70 0.1049
987.80 0.1048
987.90 0.1047
988.00 0.1047
988.10 0.1046
988.20 0.1046
988.30 0.1045
988.40 0.1045
988.50 0.1044
988.60 0.1043
988.70 0.1043
988.80 0.1042
988.90 0.1042
989.00 0.1041
989.10 0.104
989.20 0.104
989.30 0.1039
989.40 0.1038
989.50 0.1038
989.60 0.1037
989.70 0.1036
989.80 0.1036
989.90 0.1035
990.00 0.1034
990.10 0.1034
990.20 0.1033
990.30 0.1032
990.40 0.1032
990.50 0.1031
990.60 0.1031
990.70 0.103
990.80 0.1029
990.90 0.1028
991.00 0.1028
991.10 0.1027
991.20 0.1026
991.30 0.1025
991.40 0.1025
991.50 0.1024
991.60 0.1023
991.70 0.1022
991.80 0.1022
991.90 0.1021
992.00 0.102
992.10 0.1019
992.20 0.1019
992.30 0.1018
992.40 0.1017
992.50 0.1016
992.60 0.1015
992.70 0.1015
992.80 0.1014
992.90 0.1013
993.00 0.1012
993.10 0.1011
993.20 0.101
993.30 0.1009
993.40 0.1008
993.50 0.1008
993.60 0.1007
993.70 0.1006
993.80 0.1005
993.90 0.1004
994.00 0.1003
994.10 0.1002
994.20 0.1001
994.30 0.1
994.40 0.09996
994.50 0.09987
994.60 0.09978
994.70 0.09969
994.80 0.09959
994.90 0.09949
995.00 0.09939
995.10 0.09929
995.20 0.09919
995.30 0.0991
995.40 0.099
995.50 0.0989
995.60 0.0988
995.70 0.0987
995.80 0.0986
995.90 0.09849
996.00 0.09839
996.10 0.09828
996.20 0.09818
996.30 0.09807
996.40 0.09797
996.50 0.09786
996.60 0.09776
996.70 0.09766
996.80 0.09755
996.90 0.09745
997.00 0.09734
997.10 0.09724
997.20 0.09713
997.30 0.09702
997.40 0.09691
997.50 0.0968
997.60 0.0967
997.70 0.09659
997.80 0.09648
997.90 0.09637
998.00 0.09626
998.10 0.09616
998.20 0.09605
998.30 0.09594
998.40 0.09583
998.50 0.09573
998.60 0.09562
998.70 0.09551
998.80 0.0954
998.90 0.0953
999.00 0.09519
999.10 0.09508
999.20 0.09497
999.30 0.09487
999.40 0.09476
999.50 0.09465
999.60 0.09454
999.70 0.09445
999.80 0.09436
999.90 0.09426
1000.00 0.09417
1000.10 0.09408
1000.20 0.09399
1000.30 0.0939
1000.40 0.09381
1000.50 0.09371
1000.60 0.09362
1000.70 0.09353
1000.80 0.09344
1000.90 0.09335
1001.00 0.09326
1001.10 0.09317
1001.20 0.09307
1001.30 0.09298
1001.40 0.09289
1001.50 0.0928
1001.60 0.09271
1001.70 0.09264
1001.80 0.09257
1001.90 0.0925
1002.00 0.09243
1002.10 0.09239
1002.20 0.09235
1002.30 0.09232
1002.40 0.09228
1002.50 0.09224
1002.60 0.0922
1002.70 0.09216
1002.80 0.09212
1002.90 0.09208
1003.00 0.09204
1003.10 0.092
1003.20 0.09208
1003.30 0.0922
1003.40 0.09231
1003.50 0.09243
1003.60 0.09254
1003.70 0.09266
1003.80 0.09277
1003.90 0.09295
1004.00 0.09315
1004.10 0.09335
1004.20 0.09355
1004.30 0.09373
1004.40 0.09391
1004.50 0.09406
1004.60 0.09414
1004.70 0.0903
1004.80 0.09015
1004.90 0.08994
1005.00 0.08973
1005.10 0.08952
1005.20 0.0893
1005.30 0.08908
1005.40 0.08886
1005.50 0.0887
1005.60 0.08856
1005.70 0.08842
1005.80 0.08828
1005.90 0.08814
1006.00 0.088
1006.10 0.08786
1006.20 0.08777
1006.30 0.08769
1006.40 0.08761
1006.50 0.08753
1006.60 0.08745
1006.70 0.08737
1006.80 0.08729
1006.90 0.08721
1007.00 0.08713
1007.10 0.08706
1007.20 0.087
1007.30 0.08693
1007.40 0.08686
1007.50 0.08679
1007.60 0.08672
1007.70 0.08671
1007.80 0.08671
1007.90 0.08671
1008.00 0.08671
1008.10 0.08671
1008.20 0.08671
1008.30 0.08671
1008.40 0.08671
1008.50 0.08671
1008.60 0.08671
1008.70 0.08671
1008.80 0.08671
1008.90 0.08671
1009.00 0.08671
1009.10 0.08671
1009.20 0.08671
1009.30 0.08671
1009.40 0.0867
1009.50 0.0867
1009.60 0.0867
1009.70 0.08672
1009.80 0.08674
1009.90 0.08676
1010.00 0.08678
1010.10 0.0868
1010.20 0.08682
1010.30 0.08684
1010.40 0.08686
1010.50 0.08688
1010.60 0.0869
1010.70 0.08692
1010.80 0.08694
1010.90 0.08696
1011.00 0.08698
1011.10 0.087
1011.20 0.08702
1011.30 0.08705
1011.40 0.08707
1011.50 0.08709
1011.60 0.08711
1011.70 0.08713
1011.80 0.08715
1011.90 0.08718
1012.00 0.0872
1012.10 0.08723
1012.20 0.08725
1012.30 0.08728
1012.40 0.0873
1012.50 0.08733
1012.60 0.08735
1012.70 0.08738
1012.80 0.0874
1012.90 0.08742
1013.00 0.08745
1013.10 0.08747
1013.20 0.0875
1013.30 0.08752
1013.40 0.08755
1013.50 0.08757
1013.60 0.08759
1013.70 0.08762
1013.80 0.08764
1013.90 0.08766
1014.00 0.08769
1014.10 0.08771
1014.20 0.08773
1014.30 0.08776
1014.40 0.08778
1014.50 0.0878
1014.60 0.08782
1014.70 0.08784
1014.80 0.08786
1014.90 0.08788
1015.00 0.0879
1015.10 0.08792
1015.20 0.08794
1015.30 0.08796
1015.40 0.08798
1015.50 0.088
1015.60 0.08802
1015.70 0.08804
1015.80 0.08806
1015.90 0.08808
1016.00 0.0881
1016.10 0.08812
1016.20 0.08814
1016.30 0.08816
1016.40 0.08818
1016.50 0.0882
1016.60 0.08822
1016.70 0.08824
1016.80 0.08826
1016.90 0.08827
1017.00 0.08829
1017.10 0.0883
1017.20 0.08832
1017.30 0.08833
1017.40 0.08835
1017.50 0.08836
1017.60 0.08838
1017.70 0.08839
1017.80 0.0884
1017.90 0.08842
1018.00 0.08843
1018.10 0.08845
1018.20 0.08846
1018.30 0.08848
1018.40 0.08849
1018.50 0.0885
1018.60 0.08852
1018.70 0.08853
1018.80 0.08854
1018.90 0.08855
1019.00 0.08856
1019.10 0.08857
1019.20 0.08858
1019.30 0.08859
1019.40 0.0886
1019.50 0.08861
1019.60 0.08862
1019.70 0.08863
1019.80 0.08863
1019.90 0.08864
1020.00 0.08865
1020.10 0.08866
1020.20 0.08867
1020.30 0.08868
1020.40 0.08869
1020.50 0.0887
1020.60 0.08871
1020.70 0.08872
1020.80 0.08872
1020.90 0.08873
1021.00 0.08873
1021.10 0.08874
1021.20 0.08875
1021.30 0.08875
1021.40 0.08876
1021.50 0.08876
1021.60 0.08877
1021.70 0.08877
1021.80 0.08878
1021.90 0.08878
1022.00 0.08879
1022.10 0.08879
1022.20 0.08879
1022.30 0.08879
1022.40 0.08879
1022.50 0.08879
1022.60 0.08879
1022.70 0.08879
1022.80 0.08879
1022.90 0.08879
1023.00 0.0888
1023.10 0.0888
1023.20 0.0888
1023.30 0.0888
1023.40 0.0888
1023.50 0.0888
1023.60 0.0888
1023.70 0.0888
1023.80 0.0888
1023.90 0.0888
1024.00 0.0888
1024.10 0.0888
1024.20 0.0888
1024.30 0.0888
1024.40 0.0888
1024.50 0.08881
1024.60 0.08881
1024.70 0.0888
1024.80 0.0888
1024.90 0.08879
1025.00 0.08879
1025.10 0.08878
1025.20 0.08878
1025.30 0.08877
1025.40 0.08877
1025.50 0.08877
1025.60 0.08876
1025.70 0.08876
1025.80 0.08875
1025.90 0.08875
1026.00 0.08874
1026.10 0.08874
1026.20 0.08873
1026.30 0.08873
1026.40 0.08872
1026.50 0.08872
1026.60 0.08871
1026.70 0.08871
1026.80 0.08871
1026.90 0.0887
1027.00 0.0887
1027.10 0.08869
1027.20 0.08867
1027.30 0.08866
1027.40 0.08865
1027.50 0.08864
1027.60 0.08863
1027.70 0.08862
1027.80 0.08861
1027.90 0.0886
1028.00 0.08859
1028.10 0.08857
1028.20 0.08856
1028.30 0.08855
1028.40 0.08854
1028.50 0.08853
1028.60 0.08852
1028.70 0.08851
1028.80 0.0885
1028.90 0.08849
1029.00 0.08848
1029.10 0.08846
1029.20 0.08845
1029.30 0.08844
1029.40 0.08843
1029.50 0.08842
1029.60 0.08841
1029.70 0.0884
1029.80 0.08839
1029.90 0.08838
1030.00 0.08837
1030.10 0.08836
1030.20 0.08834
1030.30 0.08833
1030.40 0.08832
1030.50 0.08831
1030.60 0.0883
1030.70 0.08829
1030.80 0.08828
1030.90 0.08827
1031.00 0.08826
1031.10 0.08825
1031.20 0.08823
1031.30 0.08822
1031.40 0.08821
1031.50 0.0882
1031.60 0.08819
1031.70 0.08818
1031.80 0.08817
1031.90 0.08816
1032.00 0.08815
1032.10 0.08813
1032.20 0.08811
1032.30 0.08809
1032.40 0.08807
1032.50 0.08806
1032.60 0.08804
1032.70 0.08802
1032.80 0.088
1032.90 0.08798
1033.00 0.08797
1033.10 0.08795
1033.20 0.08793
1033.30 0.08791
1033.40 0.08789
1033.50 0.08788
1033.60 0.08786
1033.70 0.08784
1033.80 0.08782
1033.90 0.0878
1034.00 0.08779
1034.10 0.08777
1034.20 0.08775
1034.30 0.08773
1034.40 0.08771
1034.50 0.0877
1034.60 0.08768
1034.70 0.08766
1034.80 0.08764
1034.90 0.08762
1035.00 0.08761
1035.10 0.08759
1035.20 0.08757
1035.30 0.08755
1035.40 0.08754
1035.50 0.08752
1035.60 0.0875
1035.70 0.08748
1035.80 0.08746
1035.90 0.08745
1036.00 0.08743
1036.10 0.08741
1036.20 0.08739
1036.30 0.08737
1036.40 0.08736
1036.50 0.08734
1036.60 0.08732
1036.70 0.0873
1036.80 0.08729
1036.90 0.08727
1037.00 0.08725
1037.10 0.08723
1037.20 0.0872
1037.30 0.08718
1037.40 0.08716
1037.50 0.08713
1037.60 0.08711
1037.70 0.08709
1037.80 0.08706
1037.90 0.08704
1038.00 0.08702
1038.10 0.08699
1038.20 0.08697
1038.30 0.08695
1038.40 0.08692
1038.50 0.0869
1038.60 0.08688
1038.70 0.08685
1038.80 0.08683
1038.90 0.08681
1039.00 0.08678
1039.10 0.08676
1039.20 0.08674
1039.30 0.08672
1039.40 0.08669
1039.50 0.08667
1039.60 0.08665
1039.70 0.08662
1039.80 0.0866
1039.90 0.08658
1040.00 0.08655
1040.10 0.08653
1040.20 0.08651
1040.30 0.08648
1040.40 0.08646
1040.50 0.08644
1040.60 0.08641
1040.70 0.08639
1040.80 0.08637
1040.90 0.08635
1041.00 0.08632
1041.10 0.0863
1041.20 0.08628
1041.30 0.08625
1041.40 0.08623
1041.50 0.08621
1041.60 0.08618
1041.70 0.08616
1041.80 0.08614
1041.90 0.08612
1042.00 0.08609
1042.10 0.08606
1042.20 0.08604
1042.30 0.08601
1042.40 0.08598
1042.50 0.08595
1042.60 0.08593
1042.70 0.0859
1042.80 0.08587
1042.90 0.08584
1043.00 0.08582
1043.10 0.08579
1043.20 0.08576
1043.30 0.08573
1043.40 0.0857
1043.50 0.08568
1043.60 0.08565
1043.70 0.08562
1043.80 0.08559
1043.90 0.08557
1044.00 0.08554
1044.10 0.08551
1044.20 0.08548
1044.30 0.08546
1044.40 0.08543
1044.50 0.0854
1044.60 0.08537
1044.70 0.08535
1044.80 0.08532
1044.90 0.08529
1045.00 0.08526
1045.10 0.08524
1045.20 0.08521
1045.30 0.08518
1045.40 0.08515
1045.50 0.08513
1045.60 0.0851
1045.70 0.08507
1045.80 0.08504
1045.90 0.08502
1046.00 0.08499
1046.10 0.08496
1046.20 0.08493
1046.30 0.08491
1046.40 0.08488
1046.50 0.08485
1046.60 0.08482
1046.70 0.0848
1046.80 0.08477
1046.90 0.08474
1047.00 0.08471
1047.10 0.08468
1047.20 0.08465
1047.30 0.08462
1047.40 0.08459
1047.50 0.08456
1047.60 0.08452
1047.70 0.08449
1047.80 0.08446
1047.90 0.08443
1048.00 0.0844
1048.10 0.08437
1048.20 0.08433
1048.30 0.0843
1048.40 0.08427
1048.50 0.08424
1048.60 0.08421
1048.70 0.08418
1048.80 0.08414
1048.90 0.08411
1049.00 0.08408
1049.10 0.08405
1049.20 0.08402
1049.30 0.08399
1049.40 0.08395
1049.50 0.08392
1049.60 0.08389
1049.70 0.08386
1049.80 0.08383
1049.90 0.0838
1050.00 0.08377
1050.10 0.08373
1050.20 0.0837
1050.30 0.08367
1050.40 0.08364
1050.50 0.08361
1050.60 0.08358
1050.70 0.08355
1050.80 0.08351
1050.90 0.08348
1051.00 0.08345
1051.10 0.08342
1051.20 0.08339
1051.30 0.08336
1051.40 0.08333
1051.50 0.08329
1051.60 0.08326
1051.70 0.08323
1051.80 0.0832
1051.90 0.08317
1052.00 0.08314
1052.10 0.0831
1052.20 0.08307
1052.30 0.08303
1052.40 0.083
1052.50 0.08296
1052.60 0.08292
1052.70 0.08289
1052.80 0.08285
1052.90 0.08282
1053.00 0.08278
1053.10 0.08275
1053.20 0.08271
1053.30 0.08267
1053.40 0.08264
1053.50 0.0826
1053.60 0.08257
1053.70 0.08253
1053.80 0.0825
1053.90 0.08246
1054.00 0.08242
1054.10 0.08239
1054.20 0.08235
1054.30 0.08232
1054.40 0.08228
1054.50 0.08225
1054.60 0.08221
1054.70 0.08218
1054.80 0.08214
1054.90 0.08211
1055.00 0.08207
1055.10 0.08203
1055.20 0.082
1055.30 0.08196
1055.40 0.08193
1055.50 0.08189
1055.60 0.08186
1055.70 0.08182
1055.80 0.08179
1055.90 0.08175
1056.00 0.08172
1056.10 0.08168
1056.20 0.08165
1056.30 0.08161
1056.40 0.08157
1056.50 0.08154
1056.60 0.0815
1056.70 0.08147
1056.80 0.08143
1056.90 0.0814
1057.00 0.08136
1057.10 0.08132
1057.20 0.08128
1057.30 0.08124
1057.40 0.0812
1057.50 0.08116
1057.60 0.08112
1057.70 0.08108
1057.80 0.08104
1057.90 0.081
1058.00 0.08096
1058.10 0.08092
1058.20 0.08088
1058.30 0.08084
1058.40 0.0808
1058.50 0.08076
1058.60 0.08072
1058.70 0.08068
1058.80 0.08064
1058.90 0.0806
1059.00 0.08056
1059.10 0.08052
1059.20 0.08048
1059.30 0.08044
1059.40 0.0804
1059.50 0.08036
1059.60 0.08032
1059.70 0.08028
1059.80 0.08024
1059.90 0.0802
1060.00 0.08016
1060.10 0.08012
1060.20 0.08008
1060.30 0.08004
1060.40 0.08
1060.50 0.07996
1060.60 0.07992
1060.70 0.07988
1060.80 0.07984
1060.90 0.0798
1061.00 0.07976
1061.10 0.07972
1061.20 0.07968
1061.30 0.07964
1061.40 0.0796
1061.50 0.07956
1061.60 0.07952
1061.70 0.07948
1061.80 0.07944
1061.90 0.0794
1062.00 0.07936
1062.10 0.07932
1062.20 0.07927
1062.30 0.07922
1062.40 0.07918
1062.50 0.07913
1062.60 0.07909
1062.70 0.07904
1062.80 0.07899
1062.90 0.07895
1063.00 0.0789
1063.10 0.07886
1063.20 0.07881
1063.30 0.07877
1063.40 0.07872
1063.50 0.07867
1063.60 0.07863
1063.70 0.07858
1063.80 0.07854
1063.90 0.07849
1064.00 0.07845
1064.10 0.0784
1064.20 0.07836
1064.30 0.07831
1064.40 0.07826
1064.50 0.07822
1064.60 0.07817
1064.70 0.07813
1064.80 0.07808
1064.90 0.07804
1065.00 0.07799
1065.10 0.07795
1065.20 0.0779
1065.30 0.07786
1065.40 0.07781
1065.50 0.07776
1065.60 0.07772
1065.70 0.07767
1065.80 0.07763
1065.90 0.07758
1066.00 0.07754
1066.10 0.07749
1066.20 0.07745
1066.30 0.0774
1066.40 0.07736
1066.50 0.07731
1066.60 0.07727
1066.70 0.07722
1066.80 0.07718
1066.90 0.07713
1067.00 0.07709
1067.10 0.07703
1067.20 0.07698
1067.30 0.07693
1067.40 0.07688
1067.50 0.07682
1067.60 0.07677
1067.70 0.07672
1067.80 0.07666
1067.90 0.07661
1068.00 0.07656
1068.10 0.07651
1068.20 0.07645
1068.30 0.0764
1068.40 0.07635
1068.50 0.0763
1068.60 0.07624
1068.70 0.07619
1068.80 0.07614
1068.90 0.07608
1069.00 0.07603
1069.10 0.07598
1069.20 0.07593
1069.30 0.07587
1069.40 0.07582
1069.50 0.07577
1069.60 0.07572
1069.70 0.07567
1069.80 0.07561
1069.90 0.07556
1070.00 0.07551
1070.10 0.07546
1070.20 0.0754
1070.30 0.07535
1070.40 0.0753
1070.50 0.07525
1070.60 0.07519
1070.70 0.07514
1070.80 0.07509
1070.90 0.07504
1071.00 0.07499
1071.10 0.07493
1071.20 0.07488
1071.30 0.07483
1071.40 0.07478
1071.50 0.07472
1071.60 0.07467
1071.70 0.07462
1071.80 0.07457
1071.90 0.07452
1072.00 0.07446
1072.10 0.07441
1072.20 0.07435
1072.30 0.07429
1072.40 0.07423
1072.50 0.07418
1072.60 0.07412
1072.70 0.07406
1072.80 0.074
1072.90 0.07394
1073.00 0.07389
1073.10 0.07383
1073.20 0.07377
1073.30 0.07371
1073.40 0.07366
1073.50 0.0736
1073.60 0.07353
1073.70 0.07347
1073.80 0.07341
1073.90 0.07334
1074.00 0.07328
1074.10 0.07322
1074.20 0.07316
1074.30 0.07309
1074.40 0.07303
1074.50 0.07297
1074.60 0.07291
1074.70 0.07284
1074.80 0.07278
1074.90 0.07272
1075.00 0.07265
1075.10 0.07259
1075.20 0.07253
1075.30 0.07247
1075.40 0.0724
1075.50 0.07234
1075.60 0.07228
1075.70 0.07222
1075.80 0.07215
1075.90 0.07209
1076.00 0.07203
1076.10 0.07197
1076.20 0.0719
1076.30 0.07184
1076.40 0.07178
1076.50 0.07172
1076.60 0.07166
1076.70 0.07159
1076.80 0.07153
1076.90 0.07147
1077.00 0.07141
1077.10 0.07134
1077.20 0.07127
1077.30 0.07121
1077.40 0.07114
1077.50 0.07107
1077.60 0.071
1077.70 0.07093
1077.80 0.07086
1077.90 0.07079
1078.00 0.07072
1078.10 0.07065
1078.20 0.07058
1078.30 0.07051
1078.40 0.07044
1078.50 0.07038
1078.60 0.07031
1078.70 0.07024
1078.80 0.07017
1078.90 0.0701
1079.00 0.07003
1079.10 0.06996
1079.20 0.06989
1079.30 0.06982
1079.40 0.06975
1079.50 0.06968
1079.60 0.06961
1079.70 0.06953
1079.80 0.06946
1079.90 0.06938
1080.00 0.06931
1080.10 0.06923
1080.20 0.06916
1080.30 0.06908
1080.40 0.06901
1080.50 0.06894
1080.60 0.06886
1080.70 0.06879
1080.80 0.06871
1080.90 0.06864
1081.00 0.06857
1081.10 0.06849
1081.20 0.06842
1081.30 0.06834
1081.40 0.06827
1081.50 0.06819
1081.60 0.06812
1081.70 0.06804
1081.80 0.06796
1081.90 0.06788
1082.00 0.06781
1082.10 0.06773
1082.20 0.06765
1082.30 0.06757
1082.40 0.06749
1082.50 0.06741
1082.60 0.06733
1082.70 0.06725
1082.80 0.06717
1082.90 0.06709
1083.00 0.06701
1083.10 0.06693
1083.20 0.06685
1083.30 0.06677
1083.40 0.06669
1083.50 0.06661
1083.60 0.06653
1083.70 0.06645
1083.80 0.06637
1083.90 0.06628
1084.00 0.0662
1084.10 0.06612
1084.20 0.06604
1084.30 0.06596
1084.40 0.06587
1084.50 0.06579
1084.60 0.06571
1084.70 0.06562
1084.80 0.06554
1084.90 0.06545
1085.00 0.06537
1085.10 0.06528
1085.20 0.0652
1085.30 0.06511
1085.40 0.06503
1085.50 0.06494
1085.60 0.06486
1085.70 0.06477
1085.80 0.06469
1085.90 0.0646
1086.00 0.06452
1086.10 0.06444
1086.20 0.06435
1086.30 0.06427
1086.40 0.06418
1086.50 0.0641
1086.60 0.06401
1086.70 0.06393
1086.80 0.06384
1086.90 0.06376
1087.00 0.06367
1087.10 0.06359
1087.20 0.0635
1087.30 0.06342
1087.40 0.06333
1087.50 0.06325
1087.60 0.06316
1087.70 0.06308
1087.80 0.06299
1087.90 0.06291
1088.00 0.06282
1088.10 0.06274
1088.20 0.06265
1088.30 0.06257
1088.40 0.06248
1088.50 0.0624
1088.60 0.06232
1088.70 0.06225
1088.80 0.06217
1088.90 0.0621
1089.00 0.06202
1089.10 0.06194
1089.20 0.06187
1089.30 0.06179
1089.40 0.06172
1089.50 0.06164
1089.60 0.06157
1089.70 0.06149
1089.80 0.06141
1089.90 0.06134
1090.00 0.06126
1090.10 0.06119
1090.20 0.06111
1090.30 0.06104
1090.40 0.06096
1090.50 0.0609
1090.60 0.06085
1090.70 0.06081
1090.80 0.06077
1090.90 0.06073
1091.00 0.06069
1091.10 0.06065
1091.20 0.06061
1091.30 0.06057
1091.40 0.06053
1091.50 0.06049
1091.60 0.06045
1091.70 0.06041
1091.80 0.06037
1091.90 0.06032
1092.00 0.06028
1092.10 0.06034
1092.20 0.06039
1092.30 0.06044
1092.40 0.06049
1092.50 0.06054
1092.60 0.06059
1092.70 0.06066
1092.80 0.06076
1092.90 0.06086
1093.00 0.06096
1093.10 0.06108
1093.20 0.06124
1093.30 0.0614
1093.40 0.06152
1093.50 0.06155
1093.60 0.06141
1093.70 0.06122
1093.80 0.06103
1093.90 0.06085
1094.00 0.06071
1094.10 0.06057
1094.20 0.06044
1094.30 0.06031
1094.40 0.06023
1094.50 0.06015
1094.60 0.06006
1094.70 0.05998
1094.80 0.05989
1094.90 0.05981
1095.00 0.05975
1095.10 0.05976
1095.20 0.05976
1095.30 0.05976
1095.40 0.05977
1095.50 0.05977
1095.60 0.05977
1095.70 0.05978
1095.80 0.05978
1095.90 0.05978
1096.00 0.05978
1096.10 0.05979
1096.20 0.05979
1096.30 0.05979
1096.40 0.0598
1096.50 0.05981
1096.60 0.05983
1096.70 0.05986
1096.80 0.05989
1096.90 0.05992
1097.00 0.05995
1097.10 0.05998
1097.20 0.06002
1097.30 0.06006
1097.40 0.0601
1097.50 0.06014
1097.60 0.06018
1097.70 0.06022
1097.80 0.06025
1097.90 0.06029
1098.00 0.06033
1098.10 0.06037
1098.20 0.06041
1098.30 0.06045
1098.40 0.06048
1098.50 0.06052
1098.60 0.06057
1098.70 0.06061
1098.80 0.06065
1098.90 0.0607
1099.00 0.06074
1099.10 0.06078
1099.20 0.06082
1099.30 0.06087
1099.40 0.06091
1099.50 0.06095
1099.60 0.06099
1099.70 0.06104
1099.80 0.06108
1099.90 0.06112
1100.00 0.06116
1100.10 0.06121
1100.20 0.06125
1100.30 0.06129
1100.40 0.06133
1100.50 0.06137
1100.60 0.06142
1100.70 0.06146
1100.80 0.0615
1100.90 0.06154
1101.00 0.06158
1101.10 0.06162
1101.20 0.06166
1101.30 0.0617
1101.40 0.06174
1101.50 0.06178
1101.60 0.06182
1101.70 0.06186
1101.80 0.0619
1101.90 0.06194
1102.00 0.06198
1102.10 0.06202
1102.20 0.06206
1102.30 0.0621
1102.40 0.06214
1102.50 0.06217
1102.60 0.06221
1102.70 0.06225
1102.80 0.06228
1102.90 0.06232
1103.00 0.06236
1103.10 0.06239
1103.20 0.06243
1103.30 0.06247
1103.40 0.0625
1103.50 0.06254
1103.60 0.06257
1103.70 0.0626
1103.80 0.06263
1103.90 0.06267
1104.00 0.0627
1104.10 0.06273
1104.20 0.06276
1104.30 0.06279
1104.40 0.06283
1104.50 0.06286
1104.60 0.06289
1104.70 0.06292
1104.80 0.06296
1104.90 0.06299
1105.00 0.06302
1105.10 0.06305
1105.20 0.06308
1105.30 0.06312
1105.40 0.06315
1105.50 0.06318
1105.60 0.0632
1105.70 0.06323
1105.80 0.06326
1105.90 0.06329
1106.00 0.06331
1106.10 0.06334
1106.20 0.06337
1106.30 0.06339
1106.40 0.06342
1106.50 0.06345
1106.60 0.06348
1106.70 0.0635
1106.80 0.06353
1106.90 0.06356
1107.00 0.06358
1107.10 0.06361
1107.20 0.06363
1107.30 0.06366
1107.40 0.06368
1107.50 0.0637
1107.60 0.06372
1107.70 0.06375
1107.80 0.06377
1107.90 0.06379
1108.00 0.06381
1108.10 0.06383
1108.20 0.06385
1108.30 0.06387
1108.40 0.06389
1108.50 0.06391
1108.60 0.06393
1108.70 0.06395
1108.80 0.06397
1108.90 0.064
1109.00 0.06402
1109.10 0.06404
1109.20 0.06406
1109.30 0.06408
1109.40 0.0641
1109.50 0.06412
1109.60 0.06413
1109.70 0.06415
1109.80 0.06416
1109.90 0.06418
1110.00 0.06419
1110.10 0.06421
1110.20 0.06423
1110.30 0.06424
1110.40 0.06426
1110.50 0.06427
1110.60 0.06429
1110.70 0.0643
1110.80 0.06432
1110.90 0.06433
1111.00 0.06435
1111.10 0.06436
1111.20 0.06438
1111.30 0.06439
1111.40 0.06441
1111.50 0.06442
1111.60 0.06444
1111.70 0.06445
1111.80 0.06447
1111.90 0.06448
1112.00 0.0645
1112.10 0.06451
1112.20 0.06452
1112.30 0.06453
1112.40 0.06454
1112.50 0.06455
1112.60 0.06457
1112.70 0.06458
1112.80 0.06459
1112.90 0.0646
1113.00 0.06461
1113.10 0.06462
1113.20 0.06463
1113.30 0.06464
1113.40 0.06465
1113.50 0.06466
1113.60 0.06467
1113.70 0.06467
1113.80 0.06468
1113.90 0.06469
1114.00 0.06469
1114.10 0.0647
1114.20 0.0647
1114.30 0.06471
1114.40 0.06472
1114.50 0.06472
1114.60 0.06473
1114.70 0.06473
1114.80 0.06474
1114.90 0.06475
1115.00 0.06475
1115.10 0.06476
1115.20 0.06476
1115.30 0.06477
1115.40 0.06478
1115.50 0.06478
1115.60 0.06479
1115.70 0.06479
1115.80 0.0648
1115.90 0.06481
1116.00 0.06481
1116.10 0.06482
1116.20 0.06482
1116.30 0.06483
1116.40 0.06484
1116.50 0.06484
1116.60 0.06485
1116.70 0.06485
1116.80 0.06486
1116.90 0.06487
1117.00 0.06487
1117.10 0.06487
1117.20 0.06487
1117.30 0.06487
1117.40 0.06487
1117.50 0.06487
1117.60 0.06487
1117.70 0.06487
1117.80 0.06487
1117.90 0.06487
1118.00 0.06487
1118.10 0.06487
1118.20 0.06487
1118.30 0.06487
1118.40 0.06486
1118.50 0.06486
1118.60 0.06486
1118.70 0.06486
1118.80 0.06486
1118.90 0.06486
1119.00 0.06486
1119.10 0.06486
1119.20 0.06486
1119.30 0.06486
1119.40 0.06486
1119.50 0.06486
1119.60 0.06486
1119.70 0.06486
1119.80 0.06486
1119.90 0.06486
1120.00 0.06486
1120.10 0.06486
1120.20 0.06486
1120.30 0.06485
1120.40 0.06485
1120.50 0.06485
1120.60 0.06485
1120.70 0.06485
1120.80 0.06485
1120.90 0.06485
1121.00 0.06485
1121.10 0.06485
1121.20 0.06485
1121.30 0.06485
1121.40 0.06485
1121.50 0.06485
1121.60 0.06485
1121.70 0.06485
1121.80 0.06485
1121.90 0.06485
1122.00 0.06485
1122.10 0.06484
1122.20 0.06483
1122.30 0.06483
1122.40 0.06482
1122.50 0.06481
1122.60 0.06481
1122.70 0.0648
1122.80 0.0648
1122.90 0.06479
1123.00 0.06478
1123.10 0.06478
1123.20 0.06477
1123.30 0.06477
1123.40 0.06476
1123.50 0.06475
1123.60 0.06475
1123.70 0.06474
1123.80 0.06473
1123.90 0.06473
1124.00 0.06472
1124.10 0.06472
1124.20 0.06471
1124.30 0.0647
1124.40 0.0647
1124.50 0.06469
1124.60 0.06469
1124.70 0.06468
1124.80 0.06467
1124.90 0.06467
1125.00 0.06466
1125.10 0.06465
1125.20 0.06465
1125.30 0.06464
1125.40 0.06464
1125.50 0.06463
1125.60 0.06462
1125.70 0.06462
1125.80 0.06461
1125.90 0.06461
1126.00 0.0646
1126.10 0.06459
1126.20 0.06459
1126.30 0.06458
1126.40 0.06458
1126.50 0.06457
1126.60 0.06456
1126.70 0.06456
1126.80 0.06455
1126.90 0.06454
1127.00 0.06454
1127.10 0.06453
1127.20 0.06452
1127.30 0.06451
1127.40 0.0645
1127.50 0.06449
1127.60 0.06448
1127.70 0.06447
1127.80 0.06446
1127.90 0.06445
1128.00 0.06444
1128.10 0.06443
1128.20 0.06442
1128.30 0.06441
1128.40 0.0644
1128.50 0.06438
1128.60 0.06437
1128.70 0.06436
1128.80 0.06435
1128.90 0.06434
1129.00 0.06433
1129.10 0.06432
1129.20 0.06431
1129.30 0.0643
1129.40 0.06429
1129.50 0.06428
1129.60 0.06427
1129.70 0.06426
1129.80 0.06425
1129.90 0.06424
1130.00 0.06423
1130.10 0.06422
1130.20 0.06421
1130.30 0.0642
1130.40 0.06419
1130.50 0.06418
1130.60 0.06417
1130.70 0.06416
1130.80 0.06415
1130.90 0.06414
1131.00 0.06413
1131.10 0.06412
1131.20 0.06411
1131.30 0.0641
1131.40 0.06409
1131.50 0.06408
1131.60 0.06407
1131.70 0.06406
1131.80 0.06405
1131.90 0.06404
1132.00 0.06403
1132.10 0.06402
1132.20 0.064
1132.30 0.06399
1132.40 0.06398
1132.50 0.06396
1132.60 0.06395
1132.70 0.06394
1132.80 0.06393
1132.90 0.06391
1133.00 0.0639
1133.10 0.06389
1133.20 0.06387
1133.30 0.06386
1133.40 0.06385
1133.50 0.06383
1133.60 0.06382
1133.70 0.06381
1133.80 0.0638
1133.90 0.06378
1134.00 0.06377
1134.10 0.06376
1134.20 0.06374
1134.30 0.06373
1134.40 0.06372
1134.50 0.06371
1134.60 0.06369
1134.70 0.06368
1134.80 0.06367
1134.90 0.06365
1135.00 0.06364
1135.10 0.06363
1135.20 0.06362
1135.30 0.0636
1135.40 0.06359
1135.50 0.06358
1135.60 0.06356
1135.70 0.06355
1135.80 0.06354
1135.90 0.06353
1136.00 0.06351
1136.10 0.0635
1136.20 0.06349
1136.30 0.06347
1136.40 0.06346
1136.50 0.06345
1136.60 0.06344
1136.70 0.06342
1136.80 0.06341
1136.90 0.0634
1137.00 0.06338
1137.10 0.06337
1137.20 0.06336
1137.30 0.06334
1137.40 0.06333
1137.50 0.06331
1137.60 0.0633
1137.70 0.06328
1137.80 0.06327
1137.90 0.06325
1138.00 0.06324
1138.10 0.06322
1138.20 0.06321
1138.30 0.06319
1138.40 0.06318
1138.50 0.06316
1138.60 0.06315
1138.70 0.06313
1138.80 0.06312
1138.90 0.0631
1139.00 0.06309
1139.10 0.06307
1139.20 0.06306
1139.30 0.06304
1139.40 0.06303
1139.50 0.06301
1139.60 0.063
1139.70 0.06298
1139.80 0.06297
1139.90 0.06295
1140.00 0.06294
1140.10 0.06292
1140.20 0.06291
1140.30 0.0629
1140.40 0.06288
1140.50 0.06287
1140.60 0.06285
1140.70 0.06284
1140.80 0.06282
1140.90 0.06281
1141.00 0.06279
1141.10 0.06278
1141.20 0.06276
1141.30 0.06275
1141.40 0.06273
1141.50 0.06272
1141.60 0.0627
1141.70 0.06269
1141.80 0.06267
1141.90 0.06266
1142.00 0.06264
1142.10 0.06263
1142.20 0.06261
1142.30 0.0626
1142.40 0.06258
1142.50 0.06256
1142.60 0.06255
1142.70 0.06253
1142.80 0.06252
1142.90 0.0625
1143.00 0.06248
1143.10 0.06247
1143.20 0.06245
1143.30 0.06244
1143.40 0.06242
1143.50 0.0624
1143.60 0.06239
1143.70 0.06237
1143.80 0.06236
1143.90 0.06234
1144.00 0.06232
1144.10 0.06231
1144.20 0.06229
1144.30 0.06228
1144.40 0.06226
1144.50 0.06224
1144.60 0.06223
1144.70 0.06221
1144.80 0.0622
1144.90 0.06218
1145.00 0.06216
1145.10 0.06215
1145.20 0.06213
1145.30 0.06212
1145.40 0.0621
1145.50 0.06208
1145.60 0.06207
1145.70 0.06205
1145.80 0.06204
1145.90 0.06202
1146.00 0.06201
1146.10 0.06199
1146.20 0.06197
1146.30 0.06196
1146.40 0.06194
1146.50 0.06193
1146.60 0.06191
1146.70 0.06189
1146.80 0.06188
1146.90 0.06186
1147.00 0.06185
1147.10 0.06183
1147.20 0.06181
1147.30 0.0618
1147.40 0.06178
1147.50 0.06176
1147.60 0.06175
1147.70 0.06173
1147.80 0.06171
1147.90 0.06169
1148.00 0.06168
1148.10 0.06166
1148.20 0.06164
1148.30 0.06163
1148.40 0.06161
1148.50 0.06159
1148.60 0.06158
1148.70 0.06156
1148.80 0.06154
1148.90 0.06153
1149.00 0.06151
1149.10 0.06149
1149.20 0.06148
1149.30 0.06146
1149.40 0.06144
1149.50 0.06143
1149.60 0.06141
1149.70 0.06139
1149.80 0.06137
1149.90 0.06136
1150.00 0.06134
1150.10 0.06132
1150.20 0.06131
1150.30 0.06129
1150.40 0.06127
1150.50 0.06126
1150.60 0.06124
1150.70 0.06122
1150.80 0.06121
1150.90 0.06119
1151.00 0.06117
1151.10 0.06116
1151.20 0.06114
1151.30 0.06112
1151.40 0.06111
1151.50 0.06109
1151.60 0.06107
1151.70 0.06106
1151.80 0.06104
1151.90 0.06102
1152.00 0.06101
1152.10 0.06099
1152.20 0.06097
1152.30 0.06096
1152.40 0.06094
1152.50 0.06092
1152.60 0.0609
1152.70 0.06089
1152.80 0.06087
1152.90 0.06085
1153.00 0.06083
1153.10 0.06082
1153.20 0.0608
1153.30 0.06078
1153.40 0.06076
1153.50 0.06075
1153.60 0.06073
1153.70 0.06071
1153.80 0.06069
1153.90 0.06068
1154.00 0.06066
1154.10 0.06064
1154.20 0.06063
1154.30 0.06061
1154.40 0.06059
1154.50 0.06057
1154.60 0.06056
1154.70 0.06054
1154.80 0.06052
1154.90 0.0605
1155.00 0.06049
1155.10 0.06047
1155.20 0.06045
1155.30 0.06043
1155.40 0.06042
1155.50 0.0604
1155.60 0.06038
1155.70 0.06037
1155.80 0.06035
1155.90 0.06033
1156.00 0.06031
1156.10 0.0603
1156.20 0.06028
1156.30 0.06026
1156.40 0.06025
1156.50 0.06023
1156.60 0.06021
1156.70 0.06019
1156.80 0.06018
1156.90 0.06016
1157.00 0.06014
1157.10 0.06012
1157.20 0.06011
1157.30 0.06009
1157.40 0.06007
1157.50 0.06005
1157.60 0.06004
1157.70 0.06002
1157.80 0.06
1157.90 0.05998
1158.00 0.05997
1158.10 0.05995
1158.20 0.05993
1158.30 0.05991
1158.40 0.0599
1158.50 0.05988
1158.60 0.05986
1158.70 0.05984
1158.80 0.05983
1158.90 0.05981
1159.00 0.05979
1159.10 0.05977
1159.20 0.05975
1159.30 0.05974
1159.40 0.05972
1159.50 0.0597
1159.60 0.05968
1159.70 0.05967
1159.80 0.05965
1159.90 0.05963
1160.00 0.05961
1160.10 0.0596
1160.20 0.05958
1160.30 0.05956
1160.40 0.05954
1160.50 0.05953
1160.60 0.05951
1160.70 0.05949
1160.80 0.05947
1160.90 0.05946
1161.00 0.05944
1161.10 0.05942
1161.20 0.05941
1161.30 0.05939
1161.40 0.05937
1161.50 0.05935
1161.60 0.05934
1161.70 0.05932
1161.80 0.0593
1161.90 0.05928
1162.00 0.05927
1162.10 0.05925
1162.20 0.05923
1162.30 0.05921
1162.40 0.05919
1162.50 0.05918
1162.60 0.05916
1162.70 0.05914
1162.80 0.05912
1162.90 0.05911
1163.00 0.05909
1163.10 0.05907
1163.20 0.05905
1163.30 0.05903
1163.40 0.05902
1163.50 0.059
1163.60 0.05898
1163.70 0.05896
1163.80 0.05894
1163.90 0.05893
1164.00 0.05891
1164.10 0.05889
1164.20 0.05887
1164.30 0.05886
1164.40 0.05884
1164.50 0.05882
1164.60 0.0588
1164.70 0.05879
1164.80 0.05877
1164.90 0.05875
1165.00 0.05873
1165.10 0.05871
1165.20 0.0587
1165.30 0.05868
1165.40 0.05866
1165.50 0.05864
1165.60 0.05863
1165.70 0.05861
1165.80 0.05859
1165.90 0.05857
1166.00 0.05856
1166.10 0.05854
1166.20 0.05852
1166.30 0.0585
1166.40 0.05848
1166.50 0.05847
1166.60 0.05845
1166.70 0.05843
1166.80 0.05841
1166.90 0.0584
1167.00 0.05838
1167.10 0.05836
1167.20 0.05834
1167.30 0.05833
1167.40 0.05831
1167.50 0.05829
1167.60 0.05827
1167.70 0.05825
1167.80 0.05824
1167.90 0.05822
1168.00 0.0582
1168.10 0.05818
1168.20 0.05817
1168.30 0.05815
1168.40 0.05813
1168.50 0.05811
1168.60 0.05809
1168.70 0.05808
1168.80 0.05806
1168.90 0.05804
1169.00 0.05802
1169.10 0.05801
1169.20 0.05799
1169.30 0.05797
1169.40 0.05795
1169.50 0.05793
1169.60 0.05792
1169.70 0.0579
1169.80 0.05788
1169.90 0.05786
1170.00 0.05785
1170.10 0.05783
1170.20 0.05781
1170.30 0.05779
1170.40 0.05778
1170.50 0.05776
1170.60 0.05774
1170.70 0.05772
1170.80 0.05771
1170.90 0.05769
1171.00 0.05767
1171.10 0.05765
1171.20 0.05763
1171.30 0.05762
1171.40 0.0576
1171.50 0.05758
1171.60 0.05756
1171.70 0.05755
1171.80 0.05753
1171.90 0.05751
1172.00 0.05749
1172.10 0.05748
1172.20 0.05746
1172.30 0.05744
1172.40 0.05742
1172.50 0.05741
1172.60 0.05739
1172.70 0.05737
1172.80 0.05735
1172.90 0.05733
1173.00 0.05732
1173.10 0.0573
1173.20 0.05728
1173.30 0.05726
1173.40 0.05725
1173.50 0.05723
1173.60 0.05721
1173.70 0.05719
1173.80 0.05717
1173.90 0.05716
1174.00 0.05714
1174.10 0.05712
1174.20 0.0571
1174.30 0.05709
1174.40 0.05707
1174.50 0.05705
1174.60 0.05703
1174.70 0.05701
1174.80 0.057
1174.90 0.05698
1175.00 0.05696
1175.10 0.05694
1175.20 0.05693
1175.30 0.05691
1175.40 0.05689
1175.50 0.05687
1175.60 0.05686
1175.70 0.05684
1175.80 0.05682
1175.90 0.0568
1176.00 0.05678
1176.10 0.05677
1176.20 0.05675
1176.30 0.05673
1176.40 0.05671
1176.50 0.0567
1176.60 0.05668
1176.70 0.05666
1176.80 0.05664
1176.90 0.05663
1177.00 0.05661
1177.10 0.05659
1177.20 0.05657
1177.30 0.05656
1177.40 0.05654
1177.50 0.05652
1177.60 0.0565
1177.70 0.05648
1177.80 0.05647
1177.90 0.05645
1178.00 0.05643
1178.10 0.05641
1178.20 0.0564
1178.30 0.05638
1178.40 0.05636
1178.50 0.05634
1178.60 0.05632
1178.70 0.05631
1178.80 0.05629
1178.90 0.05627
1179.00 0.05625
1179.10 0.05624
1179.20 0.05622
1179.30 0.0562
1179.40 0.05618
1179.50 0.05617
1179.60 0.05615
1179.70 0.05613
1179.80 0.05611
1179.90 0.0561
1180.00 0.05608
1180.10 0.05606
1180.20 0.05604
1180.30 0.05602
1180.40 0.05601
1180.50 0.05599
1180.60 0.05597
1180.70 0.05595
1180.80 0.05594
1180.90 0.05592
1181.00 0.0559
1181.10 0.05588
1181.20 0.05587
1181.30 0.05585
1181.40 0.05583
1181.50 0.05581
1181.60 0.0558
1181.70 0.05578
1181.80 0.05576
1181.90 0.05574
1182.00 0.05573
1182.10 0.05571
1182.20 0.05569
1182.30 0.05567
1182.40 0.05566
1182.50 0.05564
1182.60 0.05562
1182.70 0.0556
1182.80 0.05559
1182.90 0.05557
1183.00 0.05555
1183.10 0.05553
1183.20 0.05551
1183.30 0.0555
1183.40 0.05548
1183.50 0.05546
1183.60 0.05544
1183.70 0.05543
1183.80 0.05541
1183.90 0.05539
1184.00 0.05537
1184.10 0.05536
1184.20 0.05534
1184.30 0.05532
1184.40 0.0553
1184.50 0.05529
1184.60 0.05527
1184.70 0.05525
1184.80 0.05523
1184.90 0.05522
1185.00 0.0552
1185.10 0.05518
1185.20 0.05516
1185.30 0.05515
1185.40 0.05513
1185.50 0.05511
1185.60 0.05509
1185.70 0.05508
1185.80 0.05506
1185.90 0.05504
1186.00 0.05502
1186.10 0.05501
1186.20 0.05499
1186.30 0.05497
1186.40 0.05496
1186.50 0.05494
1186.60 0.05492
1186.70 0.0549
1186.80 0.05489
1186.90 0.05487
1187.00 0.05485
1187.10 0.05483
1187.20 0.05482
1187.30 0.0548
1187.40 0.05478
1187.50 0.05476
1187.60 0.05475
1187.70 0.05473
1187.80 0.05471
1187.90 0.05469
1188.00 0.05468
1188.10 0.05466
1188.20 0.05464
1188.30 0.05462
1188.40 0.05461
1188.50 0.05459
1188.60 0.05457
1188.70 0.05455
1188.80 0.05454
1188.90 0.05452
1189.00 0.0545
1189.10 0.05448
1189.20 0.05447
1189.30 0.05445
1189.40 0.05443
1189.50 0.05441
1189.60 0.0544
1189.70 0.05438
1189.80 0.05436
1189.90 0.05434
1190.00 0.05433
1190.10 0.05431
1190.20 0.05429
1190.30 0.05427
1190.40 0.05426
1190.50 0.05424
1190.60 0.05422
1190.70 0.05421
1190.80 0.05419
1190.90 0.05417
1191.00 0.05415
1191.10 0.05414
1191.20 0.05412
1191.30 0.0541
1191.40 0.05408
1191.50 0.05407
1191.60 0.05405
1191.70 0.05403
1191.80 0.05401
1191.90 0.054
1192.00 0.05398
1192.10 0.05396
1192.20 0.05394
1192.30 0.05393
1192.40 0.05391
1192.50 0.05389
1192.60 0.05387
1192.70 0.05386
1192.80 0.05384
1192.90 0.05382
1193.00 0.0538
1193.10 0.05379
1193.20 0.05377
1193.30 0.05375
1193.40 0.05373
1193.50 0.05372
1193.60 0.0537
1193.70 0.05368
1193.80 0.05366
1193.90 0.05365
1194.00 0.05363
1194.10 0.05361
1194.20 0.0536
1194.30 0.05358
1194.40 0.05356
1194.50 0.05354
1194.60 0.05353
1194.70 0.05351
1194.80 0.05349
1194.90 0.05347
1195.00 0.05346
1195.10 0.05344
1195.20 0.05342
1195.30 0.0534
1195.40 0.05339
1195.50 0.05337
1195.60 0.05335
1195.70 0.05333
1195.80 0.05332
1195.90 0.0533
1196.00 0.05328
1196.10 0.05326
1196.20 0.05325
1196.30 0.05323
1196.40 0.05321
1196.50 0.0532
1196.60 0.05318
1196.70 0.05316
1196.80 0.05314
1196.90 0.05313
1197.00 0.05311
1197.10 0.05309
1197.20 0.05307
1197.30 0.05306
1197.40 0.05304
1197.50 0.05302
1197.60 0.053
1197.70 0.05299
1197.80 0.05297
1197.90 0.05295
1198.00 0.05294
1198.10 0.05292
1198.20 0.0529
1198.30 0.05288
1198.40 0.05287
1198.50 0.05285
1198.60 0.05283
1198.70 0.05281
1198.80 0.0528
1198.90 0.05278
1199.00 0.05276
1199.10 0.05275
1199.20 0.05273
1199.30 0.05271
1199.40 0.05269
1199.50 0.05268
1199.60 0.05266
1199.70 0.05264
1199.80 0.05262
1199.90 0.05261
1200.00 0
