# Version 2.1 - nm, norm@500 to 1, cut digits, bergeron_50000_65.dat_50000
# Wavelength(nm)  Flambda(ergs/cm^s/s/nm)
300.00 6.169
300.10 6.162
300.20 6.154
300.30 6.147
300.40 6.14
300.50 6.132
300.60 6.125
300.70 6.118
300.80 6.11
300.90 6.103
301.00 6.095
301.10 6.088
301.20 6.081
301.30 6.074
301.40 6.066
301.50 6.059
301.60 6.052
301.70 6.044
301.80 6.037
301.90 6.03
302.00 6.023
302.10 6.016
302.20 6.008
302.30 6.001
302.40 5.994
302.50 5.987
302.60 5.98
302.70 5.973
302.80 5.965
302.90 5.958
303.00 5.951
303.10 5.944
303.20 5.937
303.30 5.93
303.40 5.923
303.50 5.916
303.60 5.909
303.70 5.902
303.80 5.895
303.90 5.888
304.00 5.881
304.10 5.874
304.20 5.867
304.30 5.86
304.40 5.853
304.50 5.846
304.60 5.839
304.70 5.832
304.80 5.825
304.90 5.818
305.00 5.811
305.10 5.804
305.20 5.798
305.30 5.791
305.40 5.784
305.50 5.777
305.60 5.77
305.70 5.763
305.80 5.756
305.90 5.75
306.00 5.743
306.10 5.736
306.20 5.729
306.30 5.722
306.40 5.716
306.50 5.709
306.60 5.702
306.70 5.696
306.80 5.689
306.90 5.682
307.00 5.675
307.10 5.669
307.20 5.662
307.30 5.655
307.40 5.649
307.50 5.642
307.60 5.635
307.70 5.629
307.80 5.622
307.90 5.616
308.00 5.609
308.10 5.602
308.20 5.596
308.30 5.589
308.40 5.583
308.50 5.576
308.60 5.57
308.70 5.563
308.80 5.556
308.90 5.55
309.00 5.543
309.10 5.537
309.20 5.53
309.30 5.524
309.40 5.518
309.50 5.511
309.60 5.505
309.70 5.498
309.80 5.492
309.90 5.485
310.00 5.479
310.10 5.473
310.20 5.466
310.30 5.46
310.40 5.453
310.50 5.447
310.60 5.441
310.70 5.434
310.80 5.428
310.90 5.422
311.00 5.415
311.10 5.409
311.20 5.403
311.30 5.396
311.40 5.39
311.50 5.384
311.60 5.378
311.70 5.371
311.80 5.365
311.90 5.359
312.00 5.353
312.10 5.346
312.20 5.34
312.30 5.334
312.40 5.328
312.50 5.322
312.60 5.316
312.70 5.309
312.80 5.303
312.90 5.297
313.00 5.291
313.10 5.285
313.20 5.279
313.30 5.273
313.40 5.266
313.50 5.26
313.60 5.254
313.70 5.248
313.80 5.242
313.90 5.236
314.00 5.23
314.10 5.224
314.20 5.218
314.30 5.212
314.40 5.206
314.50 5.2
314.60 5.194
314.70 5.188
314.80 5.182
314.90 5.176
315.00 5.17
315.10 5.164
315.20 5.158
315.30 5.152
315.40 5.146
315.50 5.14
315.60 5.135
315.70 5.129
315.80 5.123
315.90 5.117
316.00 5.111
316.10 5.105
316.20 5.099
316.30 5.093
316.40 5.088
316.50 5.082
316.60 5.076
316.70 5.07
316.80 5.064
316.90 5.058
317.00 5.053
317.10 5.047
317.20 5.041
317.30 5.035
317.40 5.03
317.50 5.024
317.60 5.018
317.70 5.012
317.80 5.007
317.90 5.001
318.00 4.995
318.10 4.99
318.20 4.984
318.30 4.978
318.40 4.972
318.50 4.967
318.60 4.961
318.70 4.955
318.80 4.95
318.90 4.944
319.00 4.939
319.10 4.933
319.20 4.927
319.30 4.922
319.40 4.916
319.50 4.911
319.60 4.905
319.70 4.899
319.80 4.894
319.90 4.888
320.00 4.883
320.10 4.877
320.20 4.872
320.30 4.866
320.40 4.861
320.50 4.855
320.60 4.85
320.70 4.844
320.80 4.839
320.90 4.833
321.00 4.828
321.10 4.822
321.20 4.817
321.30 4.811
321.40 4.806
321.50 4.8
321.60 4.795
321.70 4.79
321.80 4.784
321.90 4.779
322.00 4.773
322.10 4.768
322.20 4.763
322.30 4.757
322.40 4.752
322.50 4.747
322.60 4.741
322.70 4.736
322.80 4.731
322.90 4.725
323.00 4.72
323.10 4.715
323.20 4.709
323.30 4.704
323.40 4.699
323.50 4.693
323.60 4.688
323.70 4.683
323.80 4.678
323.90 4.672
324.00 4.667
324.10 4.662
324.20 4.657
324.30 4.651
324.40 4.646
324.50 4.641
324.60 4.636
324.70 4.631
324.80 4.625
324.90 4.62
325.00 4.615
325.10 4.61
325.20 4.605
325.30 4.6
325.40 4.595
325.50 4.589
325.60 4.584
325.70 4.579
325.80 4.574
325.90 4.569
326.00 4.564
326.10 4.559
326.20 4.554
326.30 4.549
326.40 4.544
326.50 4.538
326.60 4.533
326.70 4.528
326.80 4.523
326.90 4.518
327.00 4.513
327.10 4.508
327.20 4.503
327.30 4.498
327.40 4.493
327.50 4.488
327.60 4.483
327.70 4.478
327.80 4.473
327.90 4.468
328.00 4.463
328.10 4.458
328.20 4.454
328.30 4.449
328.40 4.444
328.50 4.439
328.60 4.434
328.70 4.429
328.80 4.424
328.90 4.419
329.00 4.414
329.10 4.409
329.20 4.404
329.30 4.4
329.40 4.395
329.50 4.39
329.60 4.385
329.70 4.38
329.80 4.375
329.90 4.371
330.00 4.366
330.10 4.361
330.20 4.356
330.30 4.351
330.40 4.347
330.50 4.342
330.60 4.337
330.70 4.332
330.80 4.327
330.90 4.323
331.00 4.318
331.10 4.313
331.20 4.308
331.30 4.304
331.40 4.299
331.50 4.294
331.60 4.29
331.70 4.285
331.80 4.28
331.90 4.275
332.00 4.271
332.10 4.266
332.20 4.261
332.30 4.257
332.40 4.252
332.50 4.247
332.60 4.243
332.70 4.238
332.80 4.233
332.90 4.229
333.00 4.224
333.10 4.22
333.20 4.215
333.30 4.21
333.40 4.206
333.50 4.201
333.60 4.197
333.70 4.192
333.80 4.187
333.90 4.183
334.00 4.178
334.10 4.174
334.20 4.169
334.30 4.165
334.40 4.16
334.50 4.156
334.60 4.151
334.70 4.146
334.80 4.142
334.90 4.137
335.00 4.133
335.10 4.128
335.20 4.124
335.30 4.119
335.40 4.115
335.50 4.111
335.60 4.106
335.70 4.102
335.80 4.097
335.90 4.093
336.00 4.088
336.10 4.084
336.20 4.079
336.30 4.075
336.40 4.071
336.50 4.066
336.60 4.062
336.70 4.057
336.80 4.053
336.90 4.049
337.00 4.044
337.10 4.04
337.20 4.035
337.30 4.031
337.40 4.027
337.50 4.022
337.60 4.018
337.70 4.014
337.80 4.009
337.90 4.005
338.00 4.001
338.10 3.996
338.20 3.992
338.30 3.988
338.40 3.983
338.50 3.979
338.60 3.975
338.70 3.971
338.80 3.966
338.90 3.962
339.00 3.958
339.10 3.954
339.20 3.949
339.30 3.945
339.40 3.941
339.50 3.937
339.60 3.932
339.70 3.928
339.80 3.924
339.90 3.92
340.00 3.915
340.10 3.911
340.20 3.907
340.30 3.903
340.40 3.899
340.50 3.895
340.60 3.89
340.70 3.886
340.80 3.882
340.90 3.878
341.00 3.874
341.10 3.87
341.20 3.865
341.30 3.861
341.40 3.857
341.50 3.853
341.60 3.849
341.70 3.845
341.80 3.841
341.90 3.837
342.00 3.833
342.10 3.828
342.20 3.824
342.30 3.82
342.40 3.816
342.50 3.812
342.60 3.808
342.70 3.804
342.80 3.8
342.90 3.796
343.00 3.792
343.10 3.788
343.20 3.784
343.30 3.78
343.40 3.776
343.50 3.772
343.60 3.768
343.70 3.764
343.80 3.76
343.90 3.756
344.00 3.752
344.10 3.748
344.20 3.744
344.30 3.74
344.40 3.736
344.50 3.732
344.60 3.728
344.70 3.724
344.80 3.72
344.90 3.716
345.00 3.712
345.10 3.708
345.20 3.704
345.30 3.7
345.40 3.697
345.50 3.693
345.60 3.689
345.70 3.685
345.80 3.681
345.90 3.677
346.00 3.673
346.10 3.669
346.20 3.665
346.30 3.662
346.40 3.658
346.50 3.654
346.60 3.65
346.70 3.646
346.80 3.642
346.90 3.638
347.00 3.635
347.10 3.631
347.20 3.627
347.30 3.623
347.40 3.619
347.50 3.616
347.60 3.612
347.70 3.608
347.80 3.604
347.90 3.6
348.00 3.597
348.10 3.593
348.20 3.589
348.30 3.585
348.40 3.581
348.50 3.578
348.60 3.574
348.70 3.57
348.80 3.567
348.90 3.563
349.00 3.559
349.10 3.555
349.20 3.552
349.30 3.548
349.40 3.544
349.50 3.54
349.60 3.537
349.70 3.533
349.80 3.529
349.90 3.526
350.00 3.522
350.10 3.518
350.20 3.515
350.30 3.511
350.40 3.507
350.50 3.504
350.60 3.5
350.70 3.496
350.80 3.493
350.90 3.489
351.00 3.485
351.10 3.482
351.20 3.478
351.30 3.475
351.40 3.471
351.50 3.467
351.60 3.464
351.70 3.46
351.80 3.456
351.90 3.453
352.00 3.449
352.10 3.446
352.20 3.442
352.30 3.439
352.40 3.435
352.50 3.431
352.60 3.428
352.70 3.424
352.80 3.421
352.90 3.417
353.00 3.414
353.10 3.41
353.20 3.407
353.30 3.403
353.40 3.4
353.50 3.396
353.60 3.393
353.70 3.389
353.80 3.386
353.90 3.382
354.00 3.378
354.10 3.375
354.20 3.372
354.30 3.368
354.40 3.365
354.50 3.361
354.60 3.358
354.70 3.354
354.80 3.351
354.90 3.347
355.00 3.344
355.10 3.34
355.20 3.337
355.30 3.333
355.40 3.33
355.50 3.327
355.60 3.323
355.70 3.32
355.80 3.316
355.90 3.313
356.00 3.31
356.10 3.306
356.20 3.303
356.30 3.299
356.40 3.296
356.50 3.293
356.60 3.289
356.70 3.286
356.80 3.282
356.90 3.279
357.00 3.276
357.10 3.272
357.20 3.269
357.30 3.266
357.40 3.262
357.50 3.259
357.60 3.256
357.70 3.252
357.80 3.249
357.90 3.246
358.00 3.242
358.10 3.239
358.20 3.236
358.30 3.232
358.40 3.229
358.50 3.226
358.60 3.222
358.70 3.219
358.80 3.216
358.90 3.213
359.00 3.209
359.10 3.206
359.20 3.203
359.30 3.2
359.40 3.196
359.50 3.193
359.60 3.19
359.70 3.186
359.80 3.183
359.90 3.18
360.00 3.177
360.10 3.174
360.20 3.17
360.30 3.167
360.40 3.164
360.50 3.161
360.60 3.157
360.70 3.154
360.80 3.151
360.90 3.148
361.00 3.145
361.10 3.141
361.20 3.138
361.30 3.135
361.40 3.132
361.50 3.129
361.60 3.126
361.70 3.122
361.80 3.119
361.90 3.116
362.00 3.113
362.10 3.11
362.20 3.107
362.30 3.103
362.40 3.1
362.50 3.097
362.60 3.094
362.70 3.091
362.80 3.088
362.90 3.085
363.00 3.082
363.10 3.078
363.20 3.075
363.30 3.072
363.40 3.069
363.50 3.066
363.60 3.063
363.70 3.06
363.80 3.057
363.90 3.054
364.00 3.051
364.10 3.048
364.20 3.044
364.30 3.041
364.40 3.038
364.50 3.035
364.60 3.032
364.70 3.029
364.80 3.026
364.90 3.023
365.00 3.02
365.10 3.017
365.20 3.014
365.30 3.011
365.40 3.008
365.50 3.005
365.60 3.002
365.70 2.999
365.80 2.996
365.90 2.993
366.00 2.99
366.10 2.987
366.20 2.984
366.30 2.98
366.40 2.977
366.50 2.974
366.60 2.971
366.70 2.968
366.80 2.965
366.90 2.962
367.00 2.959
367.10 2.955
367.20 2.952
367.30 2.949
367.40 2.946
367.50 2.943
367.60 2.94
367.70 2.937
367.80 2.934
367.90 2.931
368.00 2.928
368.10 2.925
368.20 2.921
368.30 2.918
368.40 2.915
368.50 2.912
368.60 2.909
368.70 2.906
368.80 2.903
368.90 2.9
369.00 2.897
369.10 2.894
369.20 2.891
369.30 2.888
369.40 2.885
369.50 2.882
369.60 2.879
369.70 2.876
369.80 2.873
369.90 2.87
370.00 2.867
370.10 2.864
370.20 2.861
370.30 2.859
370.40 2.856
370.50 2.853
370.60 2.85
370.70 2.847
370.80 2.844
370.90 2.841
371.00 2.838
371.10 2.835
371.20 2.832
371.30 2.83
371.40 2.827
371.50 2.824
371.60 2.821
371.70 2.818
371.80 2.815
371.90 2.812
372.00 2.81
372.10 2.807
372.20 2.804
372.30 2.802
372.40 2.799
372.50 2.797
372.60 2.794
372.70 2.791
372.80 2.789
372.90 2.786
373.00 2.784
373.10 2.781
373.20 2.778
373.30 2.776
373.40 2.773
373.50 2.771
373.60 2.768
373.70 2.766
373.80 2.763
373.90 2.76
374.00 2.758
374.10 2.756
374.20 2.753
374.30 2.751
374.40 2.748
374.50 2.746
374.60 2.744
374.70 2.741
374.80 2.739
374.90 2.737
375.00 2.734
375.10 2.732
375.20 2.73
375.30 2.727
375.40 2.725
375.50 2.723
375.60 2.72
375.70 2.718
375.80 2.716
375.90 2.713
376.00 2.711
376.10 2.708
376.20 2.704
376.30 2.701
376.40 2.698
376.50 2.694
376.60 2.691
376.70 2.687
376.80 2.684
376.90 2.681
377.00 2.677
377.10 2.677
377.20 2.676
377.30 2.675
377.40 2.674
377.50 2.673
377.60 2.672
377.70 2.671
377.80 2.67
377.90 2.67
378.00 2.669
378.10 2.665
378.20 2.662
378.30 2.658
378.40 2.655
378.50 2.652
378.60 2.648
378.70 2.645
378.80 2.641
378.90 2.638
379.00 2.635
379.10 2.63
379.20 2.626
379.30 2.622
379.40 2.618
379.50 2.614
379.60 2.61
379.70 2.606
379.80 2.602
379.90 2.597
380.00 2.593
380.10 2.595
380.20 2.597
380.30 2.598
380.40 2.6
380.50 2.602
380.60 2.603
380.70 2.605
380.80 2.607
380.90 2.608
381.00 2.61
381.10 2.608
381.20 2.607
381.30 2.606
381.40 2.604
381.50 2.603
381.60 2.6
381.70 2.597
381.80 2.593
381.90 2.588
382.00 2.583
382.10 2.577
382.20 2.571
382.30 2.562
382.40 2.552
382.50 2.543
382.60 2.533
382.70 2.524
382.80 2.514
382.90 2.505
383.00 2.495
383.10 2.486
383.20 2.476
383.30 2.464
383.40 2.453
383.50 2.443
383.60 2.443
383.70 2.45
383.80 2.458
383.90 2.466
384.00 2.474
384.10 2.482
384.20 2.49
384.30 2.497
384.40 2.503
384.50 2.509
384.60 2.514
384.70 2.519
384.80 2.524
384.90 2.527
385.00 2.53
385.10 2.533
385.20 2.535
385.30 2.537
385.40 2.538
385.50 2.539
385.60 2.539
385.70 2.539
385.80 2.538
385.90 2.537
386.00 2.535
386.10 2.533
386.20 2.53
386.30 2.527
386.40 2.524
386.50 2.52
386.60 2.515
386.70 2.51
386.80 2.504
386.90 2.498
387.00 2.491
387.10 2.483
387.20 2.475
387.30 2.466
387.40 2.457
387.50 2.446
387.60 2.434
387.70 2.423
387.80 2.409
387.90 2.395
388.00 2.381
388.10 2.364
388.20 2.348
388.30 2.33
388.40 2.311
388.50 2.292
388.60 2.272
388.70 2.253
388.80 2.238
388.90 2.227
389.00 2.233
389.10 2.244
389.20 2.259
389.30 2.275
389.40 2.291
389.50 2.305
389.60 2.319
389.70 2.332
389.80 2.344
389.90 2.355
390.00 2.365
390.10 2.375
390.20 2.383
390.30 2.391
390.40 2.398
390.50 2.404
390.60 2.41
390.70 2.415
390.80 2.419
390.90 2.423
391.00 2.427
391.10 2.429
391.20 2.432
391.30 2.434
391.40 2.435
391.50 2.437
391.60 2.438
391.70 2.438
391.80 2.439
391.90 2.439
392.00 2.438
392.10 2.438
392.20 2.437
392.30 2.436
392.40 2.435
392.50 2.434
392.60 2.432
392.70 2.431
392.80 2.429
392.90 2.426
393.00 2.424
393.10 2.422
393.20 2.419
393.30 2.416
393.40 2.413
393.50 2.41
393.60 2.406
393.70 2.402
393.80 2.398
393.90 2.394
394.00 2.389
394.10 2.384
394.20 2.379
394.30 2.374
394.40 2.368
394.50 2.362
394.60 2.355
394.70 2.348
394.80 2.34
394.90 2.332
395.00 2.323
395.10 2.313
395.20 2.303
395.30 2.292
395.40 2.281
395.50 2.268
395.60 2.254
395.70 2.24
395.80 2.225
395.90 2.208
396.00 2.19
396.10 2.171
396.20 2.15
396.30 2.128
396.40 2.105
396.50 2.08
396.60 2.055
396.70 2.028
396.80 1.999
396.90 1.97
397.00 1.942
397.10 1.964
397.20 1.988
397.30 2.014
397.40 2.037
397.50 2.059
397.60 2.08
397.70 2.099
397.80 2.118
397.90 2.135
398.00 2.15
398.10 2.164
398.20 2.177
398.30 2.188
398.40 2.199
398.50 2.208
398.60 2.217
398.70 2.224
398.80 2.232
398.90 2.237
399.00 2.243
399.10 2.248
399.20 2.252
399.30 2.256
399.40 2.259
399.50 2.261
399.60 2.264
399.70 2.266
399.80 2.267
399.90 2.269
400.00 2.27
400.10 2.271
400.20 2.271
400.30 2.272
400.40 2.272
400.50 2.272
400.60 2.271
400.70 2.271
400.80 2.271
400.90 2.27
401.00 2.269
401.10 2.268
401.20 2.267
401.30 2.266
401.40 2.265
401.50 2.264
401.60 2.263
401.70 2.262
401.80 2.26
401.90 2.259
402.00 2.257
402.10 2.256
402.20 2.254
402.30 2.252
402.40 2.251
402.50 2.249
402.60 2.247
402.70 2.246
402.80 2.244
402.90 2.242
403.00 2.24
403.10 2.238
403.20 2.236
403.30 2.234
403.40 2.232
403.50 2.23
403.60 2.228
403.70 2.226
403.80 2.224
403.90 2.222
404.00 2.22
404.10 2.217
404.20 2.215
404.30 2.213
404.40 2.211
404.50 2.208
404.60 2.206
404.70 2.204
404.80 2.201
404.90 2.199
405.00 2.196
405.10 2.194
405.20 2.191
405.30 2.188
405.40 2.186
405.50 2.183
405.60 2.18
405.70 2.177
405.80 2.174
405.90 2.171
406.00 2.168
406.10 2.165
406.20 2.162
406.30 2.159
406.40 2.155
406.50 2.151
406.60 2.148
406.70 2.144
406.80 2.14
406.90 2.135
407.00 2.131
407.10 2.126
407.20 2.121
407.30 2.116
407.40 2.111
407.50 2.105
407.60 2.099
407.70 2.092
407.80 2.086
407.90 2.078
408.00 2.07
408.10 2.062
408.20 2.053
408.30 2.043
408.40 2.033
408.50 2.021
408.60 2.009
408.70 1.996
408.80 1.982
408.90 1.967
409.00 1.951
409.10 1.933
409.20 1.914
409.30 1.894
409.40 1.871
409.50 1.848
409.60 1.823
409.70 1.796
409.80 1.767
409.90 1.736
410.00 1.7
410.10 1.672
410.20 1.654
410.30 1.683
410.40 1.713
410.50 1.743
410.60 1.77
410.70 1.794
410.80 1.817
410.90 1.838
411.00 1.857
411.10 1.875
411.20 1.891
411.30 1.905
411.40 1.919
411.50 1.931
411.60 1.941
411.70 1.951
411.80 1.96
411.90 1.968
412.00 1.975
412.10 1.981
412.20 1.986
412.30 1.991
412.40 1.995
412.50 1.999
412.60 2.002
412.70 2.005
412.80 2.007
412.90 2.009
413.00 2.011
413.10 2.012
413.20 2.013
413.30 2.014
413.40 2.015
413.50 2.015
413.60 2.015
413.70 2.016
413.80 2.016
413.90 2.015
414.00 2.015
414.10 2.015
414.20 2.014
414.30 2.013
414.40 2.013
414.50 2.012
414.60 2.011
414.70 2.01
414.80 2.009
414.90 2.008
415.00 2.007
415.10 2.006
415.20 2.005
415.30 2.004
415.40 2.002
415.50 2.001
415.60 2
415.70 1.998
415.80 1.997
415.90 1.996
416.00 1.994
416.10 1.993
416.20 1.991
416.30 1.99
416.40 1.988
416.50 1.987
416.60 1.985
416.70 1.984
416.80 1.982
416.90 1.981
417.00 1.979
417.10 1.978
417.20 1.976
417.30 1.974
417.40 1.973
417.50 1.971
417.60 1.97
417.70 1.968
417.80 1.966
417.90 1.965
418.00 1.963
418.10 1.962
418.20 1.96
418.30 1.958
418.40 1.957
418.50 1.955
418.60 1.953
418.70 1.952
418.80 1.95
418.90 1.948
419.00 1.947
419.10 1.945
419.20 1.943
419.30 1.942
419.40 1.94
419.50 1.938
419.60 1.937
419.70 1.935
419.80 1.933
419.90 1.932
420.00 1.93
420.10 1.928
420.20 1.926
420.30 1.925
420.40 1.923
420.50 1.921
420.60 1.92
420.70 1.918
420.80 1.916
420.90 1.915
421.00 1.913
421.10 1.911
421.20 1.91
421.30 1.908
421.40 1.906
421.50 1.905
421.60 1.903
421.70 1.901
421.80 1.899
421.90 1.898
422.00 1.896
422.10 1.894
422.20 1.893
422.30 1.891
422.40 1.889
422.50 1.888
422.60 1.886
422.70 1.884
422.80 1.883
422.90 1.881
423.00 1.879
423.10 1.878
423.20 1.876
423.30 1.874
423.40 1.872
423.50 1.871
423.60 1.869
423.70 1.867
423.80 1.866
423.90 1.864
424.00 1.862
424.10 1.861
424.20 1.859
424.30 1.857
424.40 1.856
424.50 1.854
424.60 1.852
424.70 1.85
424.80 1.849
424.90 1.847
425.00 1.845
425.10 1.844
425.20 1.842
425.30 1.84
425.40 1.839
425.50 1.837
425.60 1.835
425.70 1.833
425.80 1.832
425.90 1.83
426.00 1.828
426.10 1.826
426.20 1.825
426.30 1.823
426.40 1.821
426.50 1.82
426.60 1.818
426.70 1.816
426.80 1.814
426.90 1.813
427.00 1.811
427.10 1.809
427.20 1.807
427.30 1.805
427.40 1.804
427.50 1.802
427.60 1.8
427.70 1.798
427.80 1.796
427.90 1.794
428.00 1.792
428.10 1.791
428.20 1.789
428.30 1.787
428.40 1.785
428.50 1.783
428.60 1.781
428.70 1.779
428.80 1.777
428.90 1.775
429.00 1.773
429.10 1.771
429.20 1.768
429.30 1.766
429.40 1.764
429.50 1.762
429.60 1.759
429.70 1.757
429.80 1.755
429.90 1.752
430.00 1.75
430.10 1.747
430.20 1.744
430.30 1.742
430.40 1.739
430.50 1.736
430.60 1.733
430.70 1.729
430.80 1.726
430.90 1.722
431.00 1.719
431.10 1.715
431.20 1.711
431.30 1.706
431.40 1.702
431.50 1.697
431.60 1.692
431.70 1.686
431.80 1.681
431.90 1.674
432.00 1.667
432.10 1.66
432.20 1.652
432.30 1.644
432.40 1.635
432.50 1.625
432.60 1.614
432.70 1.602
432.80 1.589
432.90 1.576
433.00 1.561
433.10 1.544
433.20 1.527
433.30 1.508
433.40 1.487
433.50 1.465
433.60 1.441
433.70 1.415
433.80 1.384
433.90 1.35
434.00 1.309
434.10 1.309
434.20 1.35
434.30 1.381
434.40 1.409
434.50 1.433
434.60 1.454
434.70 1.473
434.80 1.491
434.90 1.507
435.00 1.522
435.10 1.536
435.20 1.547
435.30 1.558
435.40 1.568
435.50 1.577
435.60 1.584
435.70 1.591
435.80 1.597
435.90 1.603
436.00 1.608
436.10 1.612
436.20 1.615
436.30 1.619
436.40 1.622
436.50 1.624
436.60 1.626
436.70 1.628
436.80 1.629
436.90 1.631
437.00 1.632
437.10 1.632
437.20 1.633
437.30 1.633
437.40 1.634
437.50 1.634
437.60 1.634
437.70 1.634
437.80 1.634
437.90 1.633
438.00 1.633
438.10 1.633
438.20 1.632
438.30 1.632
438.40 1.631
438.50 1.63
438.60 1.63
438.70 1.629
438.80 1.628
438.90 1.627
439.00 1.626
439.10 1.625
439.20 1.625
439.30 1.624
439.40 1.623
439.50 1.622
439.60 1.621
439.70 1.62
439.80 1.618
439.90 1.617
440.00 1.616
440.10 1.615
440.20 1.614
440.30 1.613
440.40 1.612
440.50 1.611
440.60 1.609
440.70 1.608
440.80 1.607
440.90 1.606
441.00 1.605
441.10 1.603
441.20 1.602
441.30 1.601
441.40 1.6
441.50 1.599
441.60 1.597
441.70 1.596
441.80 1.595
441.90 1.594
442.00 1.592
442.10 1.591
442.20 1.59
442.30 1.589
442.40 1.587
442.50 1.586
442.60 1.585
442.70 1.583
442.80 1.582
442.90 1.581
443.00 1.58
443.10 1.578
443.20 1.577
443.30 1.576
443.40 1.574
443.50 1.573
443.60 1.572
443.70 1.571
443.80 1.569
443.90 1.568
444.00 1.567
444.10 1.565
444.20 1.564
444.30 1.563
444.40 1.562
444.50 1.56
444.60 1.559
444.70 1.558
444.80 1.556
444.90 1.555
445.00 1.554
445.10 1.553
445.20 1.551
445.30 1.55
445.40 1.549
445.50 1.547
445.60 1.546
445.70 1.545
445.80 1.544
445.90 1.542
446.00 1.541
446.10 1.54
446.20 1.539
446.30 1.537
446.40 1.536
446.50 1.535
446.60 1.533
446.70 1.532
446.80 1.531
446.90 1.53
447.00 1.528
447.10 1.527
447.20 1.526
447.30 1.524
447.40 1.523
447.50 1.522
447.60 1.521
447.70 1.519
447.80 1.518
447.90 1.517
448.00 1.516
448.10 1.514
448.20 1.513
448.30 1.512
448.40 1.511
448.50 1.509
448.60 1.508
448.70 1.507
448.80 1.505
448.90 1.504
449.00 1.503
449.10 1.502
449.20 1.5
449.30 1.499
449.40 1.498
449.50 1.497
449.60 1.495
449.70 1.494
449.80 1.493
449.90 1.492
450.00 1.49
450.10 1.489
450.20 1.488
450.30 1.487
450.40 1.486
450.50 1.484
450.60 1.483
450.70 1.482
450.80 1.481
450.90 1.479
451.00 1.478
451.10 1.477
451.20 1.476
451.30 1.474
451.40 1.473
451.50 1.472
451.60 1.471
451.70 1.47
451.80 1.468
451.90 1.467
452.00 1.466
452.10 1.465
452.20 1.463
452.30 1.462
452.40 1.461
452.50 1.46
452.60 1.459
452.70 1.457
452.80 1.456
452.90 1.455
453.00 1.454
453.10 1.452
453.20 1.451
453.30 1.45
453.40 1.449
453.50 1.448
453.60 1.446
453.70 1.445
453.80 1.444
453.90 1.443
454.00 1.442
454.10 1.44
454.20 1.439
454.30 1.438
454.40 1.437
454.50 1.436
454.60 1.435
454.70 1.433
454.80 1.432
454.90 1.431
455.00 1.43
455.10 1.429
455.20 1.427
455.30 1.426
455.40 1.425
455.50 1.424
455.60 1.423
455.70 1.421
455.80 1.42
455.90 1.419
456.00 1.418
456.10 1.417
456.20 1.416
456.30 1.414
456.40 1.413
456.50 1.412
456.60 1.411
456.70 1.41
456.80 1.409
456.90 1.407
457.00 1.406
457.10 1.405
457.20 1.404
457.30 1.403
457.40 1.402
457.50 1.4
457.60 1.399
457.70 1.398
457.80 1.397
457.90 1.396
458.00 1.395
458.10 1.394
458.20 1.392
458.30 1.391
458.40 1.39
458.50 1.389
458.60 1.388
458.70 1.387
458.80 1.386
458.90 1.384
459.00 1.383
459.10 1.382
459.20 1.381
459.30 1.38
459.40 1.379
459.50 1.378
459.60 1.376
459.70 1.375
459.80 1.374
459.90 1.373
460.00 1.372
460.10 1.371
460.20 1.37
460.30 1.369
460.40 1.367
460.50 1.366
460.60 1.365
460.70 1.364
460.80 1.363
460.90 1.362
461.00 1.361
461.10 1.36
461.20 1.358
461.30 1.357
461.40 1.356
461.50 1.355
461.60 1.354
461.70 1.353
461.80 1.352
461.90 1.351
462.00 1.35
462.10 1.348
462.20 1.347
462.30 1.346
462.40 1.345
462.50 1.344
462.60 1.343
462.70 1.342
462.80 1.341
462.90 1.34
463.00 1.339
463.10 1.337
463.20 1.336
463.30 1.335
463.40 1.334
463.50 1.333
463.60 1.332
463.70 1.331
463.80 1.33
463.90 1.329
464.00 1.328
464.10 1.327
464.20 1.325
464.30 1.324
464.40 1.323
464.50 1.322
464.60 1.321
464.70 1.32
464.80 1.319
464.90 1.318
465.00 1.317
465.10 1.316
465.20 1.315
465.30 1.314
465.40 1.313
465.50 1.311
465.60 1.31
465.70 1.309
465.80 1.308
465.90 1.307
466.00 1.306
466.10 1.305
466.20 1.304
466.30 1.303
466.40 1.302
466.50 1.301
466.60 1.3
466.70 1.299
466.80 1.298
466.90 1.297
467.00 1.296
467.10 1.295
467.20 1.293
467.30 1.292
467.40 1.291
467.50 1.29
467.60 1.289
467.70 1.288
467.80 1.287
467.90 1.286
468.00 1.285
468.10 1.284
468.20 1.283
468.30 1.282
468.40 1.281
468.50 1.28
468.60 1.279
468.70 1.278
468.80 1.277
468.90 1.276
469.00 1.275
469.10 1.274
469.20 1.273
469.30 1.272
469.40 1.271
469.50 1.269
469.60 1.268
469.70 1.267
469.80 1.266
469.90 1.265
470.00 1.264
470.10 1.263
470.20 1.262
470.30 1.261
470.40 1.26
470.50 1.259
470.60 1.258
470.70 1.257
470.80 1.256
470.90 1.255
471.00 1.254
471.10 1.253
471.20 1.252
471.30 1.251
471.40 1.25
471.50 1.249
471.60 1.248
471.70 1.247
471.80 1.246
471.90 1.245
472.00 1.244
472.10 1.243
472.20 1.242
472.30 1.241
472.40 1.24
472.50 1.239
472.60 1.238
472.70 1.237
472.80 1.236
472.90 1.235
473.00 1.234
473.10 1.233
473.20 1.232
473.30 1.231
473.40 1.23
473.50 1.229
473.60 1.228
473.70 1.227
473.80 1.226
473.90 1.225
474.00 1.224
474.10 1.223
474.20 1.222
474.30 1.221
474.40 1.22
474.50 1.219
474.60 1.218
474.70 1.217
474.80 1.216
474.90 1.215
475.00 1.214
475.10 1.213
475.20 1.212
475.30 1.211
475.40 1.21
475.50 1.209
475.60 1.208
475.70 1.207
475.80 1.206
475.90 1.205
476.00 1.204
476.10 1.203
476.20 1.202
476.30 1.201
476.40 1.2
476.50 1.199
476.60 1.198
476.70 1.197
476.80 1.196
476.90 1.195
477.00 1.194
477.10 1.193
477.20 1.192
477.30 1.191
477.40 1.19
477.50 1.189
477.60 1.188
477.70 1.187
477.80 1.186
477.90 1.185
478.00 1.184
478.10 1.183
478.20 1.182
478.30 1.181
478.40 1.18
478.50 1.179
478.60 1.178
478.70 1.177
478.80 1.175
478.90 1.174
479.00 1.173
479.10 1.172
479.20 1.171
479.30 1.17
479.40 1.169
479.50 1.168
479.60 1.167
479.70 1.166
479.80 1.165
479.90 1.164
480.00 1.163
480.10 1.161
480.20 1.16
480.30 1.159
480.40 1.158
480.50 1.157
480.60 1.156
480.70 1.154
480.80 1.153
480.90 1.152
481.00 1.151
481.10 1.15
481.20 1.148
481.30 1.147
481.40 1.145
481.50 1.144
481.60 1.143
481.70 1.141
481.80 1.14
481.90 1.138
482.00 1.137
482.10 1.135
482.20 1.134
482.30 1.132
482.40 1.13
482.50 1.128
482.60 1.126
482.70 1.124
482.80 1.122
482.90 1.12
483.00 1.118
483.10 1.116
483.20 1.114
483.30 1.11
483.40 1.107
483.50 1.104
483.60 1.101
483.70 1.098
483.80 1.095
483.90 1.091
484.00 1.088
484.10 1.085
484.20 1.08
484.30 1.075
484.40 1.07
484.50 1.065
484.60 1.059
484.70 1.052
484.80 1.044
484.90 1.037
485.00 1.029
485.10 1.021
485.20 1.012
485.30 1.001
485.40 0.9898
485.50 0.9777
485.60 0.9641
485.70 0.9497
485.80 0.9319
485.90 0.9124
486.00 0.8837
486.10 0.8374
486.20 0.85
486.30 0.8941
486.40 0.9152
486.50 0.9334
486.60 0.9481
486.70 0.9611
486.80 0.9724
486.90 0.9829
487.00 0.9921
487.10 1.001
487.20 1.008
487.30 1.014
487.40 1.02
487.50 1.026
487.60 1.032
487.70 1.037
487.80 1.04
487.90 1.044
488.00 1.047
488.10 1.051
488.20 1.053
488.30 1.054
488.40 1.056
488.50 1.057
488.60 1.058
488.70 1.06
488.80 1.061
488.90 1.063
489.00 1.064
489.10 1.065
489.20 1.066
489.30 1.066
489.40 1.066
489.50 1.066
489.60 1.067
489.70 1.067
489.80 1.067
489.90 1.067
490.00 1.067
490.10 1.067
490.20 1.067
490.30 1.067
490.40 1.066
490.50 1.066
490.60 1.066
490.70 1.065
490.80 1.065
490.90 1.064
491.00 1.064
491.10 1.064
491.20 1.063
491.30 1.063
491.40 1.062
491.50 1.062
491.60 1.061
491.70 1.06
491.80 1.06
491.90 1.059
492.00 1.059
492.10 1.058
492.20 1.057
492.30 1.057
492.40 1.056
492.50 1.055
492.60 1.055
492.70 1.054
492.80 1.053
492.90 1.053
493.00 1.052
493.10 1.051
493.20 1.051
493.30 1.05
493.40 1.049
493.50 1.049
493.60 1.048
493.70 1.047
493.80 1.046
493.90 1.046
494.00 1.045
494.10 1.044
494.20 1.044
494.30 1.043
494.40 1.042
494.50 1.041
494.60 1.041
494.70 1.04
494.80 1.039
494.90 1.038
495.00 1.038
495.10 1.037
495.20 1.036
495.30 1.035
495.40 1.035
495.50 1.034
495.60 1.033
495.70 1.032
495.80 1.032
495.90 1.031
496.00 1.03
496.10 1.029
496.20 1.029
496.30 1.028
496.40 1.027
496.50 1.026
496.60 1.026
496.70 1.025
496.80 1.024
496.90 1.023
497.00 1.023
497.10 1.022
497.20 1.021
497.30 1.02
497.40 1.02
497.50 1.019
497.60 1.018
497.70 1.017
497.80 1.017
497.90 1.016
498.00 1.015
498.10 1.014
498.20 1.014
498.30 1.013
498.40 1.012
498.50 1.011
498.60 1.011
498.70 1.01
498.80 1.009
498.90 1.008
499.00 1.008
499.10 1.007
499.20 1.006
499.30 1.005
499.40 1.005
499.50 1.004
499.60 1.003
499.70 1.002
499.80 1.001
499.90 1.001
500.00 1
500.10 0.9993
500.20 0.9985
500.30 0.9978
500.40 0.997
500.50 0.9963
500.60 0.9955
500.70 0.9948
500.80 0.994
500.90 0.9933
501.00 0.9925
501.10 0.9918
501.20 0.991
501.30 0.9903
501.40 0.9896
501.50 0.9888
501.60 0.9881
501.70 0.9873
501.80 0.9866
501.90 0.9859
502.00 0.9851
502.10 0.9844
502.20 0.9836
502.30 0.9829
502.40 0.9822
502.50 0.9814
502.60 0.9807
502.70 0.98
502.80 0.9792
502.90 0.9785
503.00 0.9778
503.10 0.977
503.20 0.9763
503.30 0.9756
503.40 0.9748
503.50 0.9741
503.60 0.9734
503.70 0.9726
503.80 0.9719
503.90 0.9712
504.00 0.9705
504.10 0.9697
504.20 0.969
504.30 0.9683
504.40 0.9676
504.50 0.9668
504.60 0.9661
504.70 0.9654
504.80 0.9647
504.90 0.9639
505.00 0.9632
505.10 0.9625
505.20 0.9618
505.30 0.9611
505.40 0.9603
505.50 0.9596
505.60 0.9589
505.70 0.9582
505.80 0.9575
505.90 0.9568
506.00 0.956
506.10 0.9553
506.20 0.9546
506.30 0.9539
506.40 0.9532
506.50 0.9525
506.60 0.9518
506.70 0.9511
506.80 0.9504
506.90 0.9496
507.00 0.9489
507.10 0.9482
507.20 0.9475
507.30 0.9468
507.40 0.9461
507.50 0.9454
507.60 0.9447
507.70 0.944
507.80 0.9433
507.90 0.9426
508.00 0.9419
508.10 0.9412
508.20 0.9405
508.30 0.9398
508.40 0.9391
508.50 0.9384
508.60 0.9377
508.70 0.937
508.80 0.9363
508.90 0.9356
509.00 0.9349
509.10 0.9342
509.20 0.9335
509.30 0.9328
509.40 0.9321
509.50 0.9314
509.60 0.9307
509.70 0.93
509.80 0.9293
509.90 0.9286
510.00 0.928
510.10 0.9273
510.20 0.9266
510.30 0.9259
510.40 0.9252
510.50 0.9245
510.60 0.9238
510.70 0.9231
510.80 0.9225
510.90 0.9218
511.00 0.9211
511.10 0.9204
511.20 0.9197
511.30 0.919
511.40 0.9184
511.50 0.9177
511.60 0.917
511.70 0.9163
511.80 0.9156
511.90 0.915
512.00 0.9143
512.10 0.9136
512.20 0.9129
512.30 0.9123
512.40 0.9116
512.50 0.9109
512.60 0.9102
512.70 0.9096
512.80 0.9089
512.90 0.9082
513.00 0.9075
513.10 0.9069
513.20 0.9062
513.30 0.9055
513.40 0.9049
513.50 0.9042
513.60 0.9035
513.70 0.9029
513.80 0.9022
513.90 0.9015
514.00 0.9009
514.10 0.9002
514.20 0.8995
514.30 0.8989
514.40 0.8982
514.50 0.8975
514.60 0.8969
514.70 0.8962
514.80 0.8956
514.90 0.8949
515.00 0.8942
515.10 0.8936
515.20 0.8929
515.30 0.8923
515.40 0.8916
515.50 0.8909
515.60 0.8903
515.70 0.8896
515.80 0.889
515.90 0.8883
516.00 0.8877
516.10 0.887
516.20 0.8864
516.30 0.8857
516.40 0.8851
516.50 0.8844
516.60 0.8838
516.70 0.8831
516.80 0.8825
516.90 0.8818
517.00 0.8812
517.10 0.8805
517.20 0.8799
517.30 0.8792
517.40 0.8786
517.50 0.8779
517.60 0.8773
517.70 0.8767
517.80 0.876
517.90 0.8754
518.00 0.8747
518.10 0.8741
518.20 0.8734
518.30 0.8728
518.40 0.8722
518.50 0.8715
518.60 0.8709
518.70 0.8703
518.80 0.8696
518.90 0.869
519.00 0.8683
519.10 0.8677
519.20 0.8671
519.30 0.8664
519.40 0.8658
519.50 0.8652
519.60 0.8645
519.70 0.8639
519.80 0.8633
519.90 0.8626
520.00 0.862
520.10 0.8614
520.20 0.8608
520.30 0.8601
520.40 0.8595
520.50 0.8589
520.60 0.8582
520.70 0.8576
520.80 0.857
520.90 0.8564
521.00 0.8557
521.10 0.8551
521.20 0.8545
521.30 0.8539
521.40 0.8533
521.50 0.8526
521.60 0.852
521.70 0.8514
521.80 0.8508
521.90 0.8502
522.00 0.8495
522.10 0.8489
522.20 0.8483
522.30 0.8477
522.40 0.8471
522.50 0.8465
522.60 0.8458
522.70 0.8452
522.80 0.8446
522.90 0.844
523.00 0.8434
523.10 0.8428
523.20 0.8422
523.30 0.8415
523.40 0.8409
523.50 0.8403
523.60 0.8397
523.70 0.8391
523.80 0.8385
523.90 0.8379
524.00 0.8373
524.10 0.8367
524.20 0.8361
524.30 0.8355
524.40 0.8349
524.50 0.8342
524.60 0.8336
524.70 0.833
524.80 0.8324
524.90 0.8318
525.00 0.8312
525.10 0.8306
525.20 0.83
525.30 0.8294
525.40 0.8288
525.50 0.8282
525.60 0.8276
525.70 0.827
525.80 0.8264
525.90 0.8258
526.00 0.8252
526.10 0.8246
526.20 0.824
526.30 0.8235
526.40 0.8229
526.50 0.8223
526.60 0.8217
526.70 0.8211
526.80 0.8205
526.90 0.8199
527.00 0.8193
527.10 0.8187
527.20 0.8181
527.30 0.8175
527.40 0.8169
527.50 0.8164
527.60 0.8158
527.70 0.8152
527.80 0.8146
527.90 0.814
528.00 0.8134
528.10 0.8128
528.20 0.8122
528.30 0.8117
528.40 0.8111
528.50 0.8105
528.60 0.8099
528.70 0.8093
528.80 0.8087
528.90 0.8082
529.00 0.8076
529.10 0.807
529.20 0.8064
529.30 0.8058
529.40 0.8053
529.50 0.8047
529.60 0.8041
529.70 0.8035
529.80 0.803
529.90 0.8024
530.00 0.8018
530.10 0.8012
530.20 0.8007
530.30 0.8001
530.40 0.7995
530.50 0.7989
530.60 0.7984
530.70 0.7978
530.80 0.7972
530.90 0.7966
531.00 0.7961
531.10 0.7955
531.20 0.7949
531.30 0.7944
531.40 0.7938
531.50 0.7932
531.60 0.7927
531.70 0.7921
531.80 0.7915
531.90 0.791
532.00 0.7904
532.10 0.7898
532.20 0.7893
532.30 0.7887
532.40 0.7881
532.50 0.7876
532.60 0.787
532.70 0.7865
532.80 0.7859
532.90 0.7853
533.00 0.7848
533.10 0.7842
533.20 0.7836
533.30 0.7831
533.40 0.7825
533.50 0.782
533.60 0.7814
533.70 0.7809
533.80 0.7803
533.90 0.7797
534.00 0.7792
534.10 0.7786
534.20 0.7781
534.30 0.7775
534.40 0.777
534.50 0.7764
534.60 0.7759
534.70 0.7753
534.80 0.7748
534.90 0.7742
535.00 0.7737
535.10 0.7731
535.20 0.7726
535.30 0.772
535.40 0.7715
535.50 0.7709
535.60 0.7704
535.70 0.7698
535.80 0.7693
535.90 0.7687
536.00 0.7682
536.10 0.7676
536.20 0.7671
536.30 0.7666
536.40 0.766
536.50 0.7655
536.60 0.7649
536.70 0.7644
536.80 0.7638
536.90 0.7633
537.00 0.7628
537.10 0.7622
537.20 0.7617
537.30 0.7611
537.40 0.7606
537.50 0.7601
537.60 0.7595
537.70 0.759
537.80 0.7584
537.90 0.7579
538.00 0.7574
538.10 0.7568
538.20 0.7563
538.30 0.7558
538.40 0.7552
538.50 0.7547
538.60 0.7542
538.70 0.7536
538.80 0.7531
538.90 0.7526
539.00 0.752
539.10 0.7515
539.20 0.751
539.30 0.7504
539.40 0.7499
539.50 0.7494
539.60 0.7489
539.70 0.7483
539.80 0.7478
539.90 0.7473
540.00 0.7468
540.10 0.7462
540.20 0.7457
540.30 0.7452
540.40 0.7447
540.50 0.7441
540.60 0.7436
540.70 0.7431
540.80 0.7426
540.90 0.742
541.00 0.7415
541.10 0.741
541.20 0.7405
541.30 0.7399
541.40 0.7394
541.50 0.7389
541.60 0.7384
541.70 0.7379
541.80 0.7374
541.90 0.7368
542.00 0.7363
542.10 0.7358
542.20 0.7353
542.30 0.7348
542.40 0.7343
542.50 0.7337
542.60 0.7332
542.70 0.7327
542.80 0.7322
542.90 0.7317
543.00 0.7312
543.10 0.7307
543.20 0.7301
543.30 0.7296
543.40 0.7291
543.50 0.7286
543.60 0.7281
543.70 0.7276
543.80 0.7271
543.90 0.7266
544.00 0.7261
544.10 0.7256
544.20 0.725
544.30 0.7245
544.40 0.724
544.50 0.7235
544.60 0.723
544.70 0.7225
544.80 0.722
544.90 0.7215
545.00 0.721
545.10 0.7205
545.20 0.72
545.30 0.7195
545.40 0.719
545.50 0.7185
545.60 0.718
545.70 0.7175
545.80 0.717
545.90 0.7165
546.00 0.716
546.10 0.7155
546.20 0.715
546.30 0.7145
546.40 0.714
546.50 0.7135
546.60 0.713
546.70 0.7125
546.80 0.712
546.90 0.7115
547.00 0.711
547.10 0.7105
547.20 0.71
547.30 0.7095
547.40 0.709
547.50 0.7085
547.60 0.7081
547.70 0.7076
547.80 0.7071
547.90 0.7066
548.00 0.7061
548.10 0.7056
548.20 0.7051
548.30 0.7046
548.40 0.7041
548.50 0.7036
548.60 0.7031
548.70 0.7027
548.80 0.7022
548.90 0.7017
549.00 0.7012
549.10 0.7007
549.20 0.7002
549.30 0.6997
549.40 0.6993
549.50 0.6988
549.60 0.6983
549.70 0.6978
549.80 0.6973
549.90 0.6968
550.00 0.6964
550.10 0.6959
550.20 0.6954
550.30 0.6949
550.40 0.6944
550.50 0.6939
550.60 0.6935
550.70 0.693
550.80 0.6925
550.90 0.692
551.00 0.6915
551.10 0.6911
551.20 0.6906
551.30 0.6901
551.40 0.6896
551.50 0.6892
551.60 0.6887
551.70 0.6882
551.80 0.6877
551.90 0.6873
552.00 0.6868
552.10 0.6863
552.20 0.6858
552.30 0.6854
552.40 0.6849
552.50 0.6844
552.60 0.684
552.70 0.6835
552.80 0.683
552.90 0.6825
553.00 0.6821
553.10 0.6816
553.20 0.6811
553.30 0.6807
553.40 0.6802
553.50 0.6797
553.60 0.6793
553.70 0.6788
553.80 0.6783
553.90 0.6779
554.00 0.6774
554.10 0.6769
554.20 0.6765
554.30 0.676
554.40 0.6755
554.50 0.6751
554.60 0.6746
554.70 0.6741
554.80 0.6737
554.90 0.6732
555.00 0.6727
555.10 0.6723
555.20 0.6718
555.30 0.6714
555.40 0.6709
555.50 0.6704
555.60 0.67
555.70 0.6695
555.80 0.6691
555.90 0.6686
556.00 0.6682
556.10 0.6677
556.20 0.6672
556.30 0.6668
556.40 0.6663
556.50 0.6659
556.60 0.6654
556.70 0.665
556.80 0.6645
556.90 0.664
557.00 0.6636
557.10 0.6631
557.20 0.6627
557.30 0.6622
557.40 0.6618
557.50 0.6613
557.60 0.6609
557.70 0.6604
557.80 0.66
557.90 0.6595
558.00 0.6591
558.10 0.6586
558.20 0.6582
558.30 0.6577
558.40 0.6573
558.50 0.6568
558.60 0.6564
558.70 0.6559
558.80 0.6555
558.90 0.655
559.00 0.6546
559.10 0.6541
559.20 0.6537
559.30 0.6532
559.40 0.6528
559.50 0.6524
559.60 0.6519
559.70 0.6515
559.80 0.651
559.90 0.6506
560.00 0.6501
560.10 0.6497
560.20 0.6493
560.30 0.6488
560.40 0.6484
560.50 0.6479
560.60 0.6475
560.70 0.6471
560.80 0.6466
560.90 0.6462
561.00 0.6457
561.10 0.6453
561.20 0.6449
561.30 0.6444
561.40 0.644
561.50 0.6435
561.60 0.6431
561.70 0.6427
561.80 0.6422
561.90 0.6418
562.00 0.6414
562.10 0.6409
562.20 0.6405
562.30 0.6401
562.40 0.6396
562.50 0.6392
562.60 0.6388
562.70 0.6383
562.80 0.6379
562.90 0.6375
563.00 0.637
563.10 0.6366
563.20 0.6362
563.30 0.6357
563.40 0.6353
563.50 0.6349
563.60 0.6344
563.70 0.634
563.80 0.6336
563.90 0.6332
564.00 0.6327
564.10 0.6323
564.20 0.6319
564.30 0.6315
564.40 0.631
564.50 0.6306
564.60 0.6302
564.70 0.6297
564.80 0.6293
564.90 0.6289
565.00 0.6285
565.10 0.628
565.20 0.6276
565.30 0.6272
565.40 0.6268
565.50 0.6264
565.60 0.6259
565.70 0.6255
565.80 0.6251
565.90 0.6247
566.00 0.6242
566.10 0.6238
566.20 0.6234
566.30 0.623
566.40 0.6226
566.50 0.6222
566.60 0.6217
566.70 0.6213
566.80 0.6209
566.90 0.6205
567.00 0.6201
567.10 0.6196
567.20 0.6192
567.30 0.6188
567.40 0.6184
567.50 0.618
567.60 0.6176
567.70 0.6172
567.80 0.6167
567.90 0.6163
568.00 0.6159
568.10 0.6155
568.20 0.6151
568.30 0.6147
568.40 0.6143
568.50 0.6138
568.60 0.6134
568.70 0.613
568.80 0.6126
568.90 0.6122
569.00 0.6118
569.10 0.6114
569.20 0.611
569.30 0.6106
569.40 0.6102
569.50 0.6097
569.60 0.6093
569.70 0.6089
569.80 0.6085
569.90 0.6081
570.00 0.6077
570.10 0.6073
570.20 0.6069
570.30 0.6065
570.40 0.6061
570.50 0.6057
570.60 0.6053
570.70 0.6049
570.80 0.6045
570.90 0.6041
571.00 0.6037
571.10 0.6033
571.20 0.6028
571.30 0.6024
571.40 0.602
571.50 0.6016
571.60 0.6012
571.70 0.6008
571.80 0.6004
571.90 0.6
572.00 0.5996
572.10 0.5992
572.20 0.5988
572.30 0.5984
572.40 0.598
572.50 0.5976
572.60 0.5972
572.70 0.5968
572.80 0.5964
572.90 0.5961
573.00 0.5957
573.10 0.5953
573.20 0.5949
573.30 0.5945
573.40 0.5941
573.50 0.5937
573.60 0.5933
573.70 0.5929
573.80 0.5925
573.90 0.5921
574.00 0.5917
574.10 0.5913
574.20 0.5909
574.30 0.5905
574.40 0.5901
574.50 0.5897
574.60 0.5894
574.70 0.589
574.80 0.5886
574.90 0.5882
575.00 0.5878
575.10 0.5874
575.20 0.587
575.30 0.5866
575.40 0.5862
575.50 0.5858
575.60 0.5855
575.70 0.5851
575.80 0.5847
575.90 0.5843
576.00 0.5839
576.10 0.5835
576.20 0.5831
576.30 0.5827
576.40 0.5824
576.50 0.582
576.60 0.5816
576.70 0.5812
576.80 0.5808
576.90 0.5804
577.00 0.58
577.10 0.5797
577.20 0.5793
577.30 0.5789
577.40 0.5785
577.50 0.5781
577.60 0.5778
577.70 0.5774
577.80 0.577
577.90 0.5766
578.00 0.5762
578.10 0.5758
578.20 0.5755
578.30 0.5751
578.40 0.5747
578.50 0.5743
578.60 0.574
578.70 0.5736
578.80 0.5732
578.90 0.5728
579.00 0.5724
579.10 0.5721
579.20 0.5717
579.30 0.5713
579.40 0.5709
579.50 0.5706
579.60 0.5702
579.70 0.5698
579.80 0.5694
579.90 0.5691
580.00 0.5687
580.10 0.5683
580.20 0.5679
580.30 0.5676
580.40 0.5672
580.50 0.5668
580.60 0.5664
580.70 0.5661
580.80 0.5657
580.90 0.5653
581.00 0.565
581.10 0.5646
581.20 0.5642
581.30 0.5638
581.40 0.5635
581.50 0.5631
581.60 0.5627
581.70 0.5624
581.80 0.562
581.90 0.5616
582.00 0.5613
582.10 0.5609
582.20 0.5605
582.30 0.5602
582.40 0.5598
582.50 0.5594
582.60 0.5591
582.70 0.5587
582.80 0.5583
582.90 0.558
583.00 0.5576
583.10 0.5572
583.20 0.5569
583.30 0.5565
583.40 0.5561
583.50 0.5558
583.60 0.5554
583.70 0.555
583.80 0.5547
583.90 0.5543
584.00 0.554
584.10 0.5536
584.20 0.5532
584.30 0.5529
584.40 0.5525
584.50 0.5521
584.60 0.5518
584.70 0.5514
584.80 0.5511
584.90 0.5507
585.00 0.5503
585.10 0.55
585.20 0.5496
585.30 0.5493
585.40 0.5489
585.50 0.5486
585.60 0.5482
585.70 0.5478
585.80 0.5475
585.90 0.5471
586.00 0.5468
586.10 0.5464
586.20 0.5461
586.30 0.5457
586.40 0.5453
586.50 0.545
586.60 0.5446
586.70 0.5443
586.80 0.5439
586.90 0.5436
587.00 0.5432
587.10 0.5429
587.20 0.5425
587.30 0.5422
587.40 0.5418
587.50 0.5415
587.60 0.5411
587.70 0.5408
587.80 0.5404
587.90 0.54
588.00 0.5397
588.10 0.5393
588.20 0.539
588.30 0.5386
588.40 0.5383
588.50 0.5379
588.60 0.5376
588.70 0.5373
588.80 0.5369
588.90 0.5366
589.00 0.5362
589.10 0.5359
589.20 0.5355
589.30 0.5352
589.40 0.5348
589.50 0.5345
589.60 0.5341
589.70 0.5338
589.80 0.5334
589.90 0.5331
590.00 0.5327
590.10 0.5324
590.20 0.5321
590.30 0.5317
590.40 0.5314
590.50 0.531
590.60 0.5307
590.70 0.5303
590.80 0.53
590.90 0.5297
591.00 0.5293
591.10 0.529
591.20 0.5286
591.30 0.5283
591.40 0.5279
591.50 0.5276
591.60 0.5273
591.70 0.5269
591.80 0.5266
591.90 0.5262
592.00 0.5259
592.10 0.5256
592.20 0.5252
592.30 0.5249
592.40 0.5245
592.50 0.5242
592.60 0.5239
592.70 0.5235
592.80 0.5232
592.90 0.5229
593.00 0.5225
593.10 0.5222
593.20 0.5218
593.30 0.5215
593.40 0.5212
593.50 0.5208
593.60 0.5205
593.70 0.5202
593.80 0.5198
593.90 0.5195
594.00 0.5192
594.10 0.5188
594.20 0.5185
594.30 0.5182
594.40 0.5178
594.50 0.5175
594.60 0.5172
594.70 0.5168
594.80 0.5165
594.90 0.5162
595.00 0.5158
595.10 0.5155
595.20 0.5152
595.30 0.5148
595.40 0.5145
595.50 0.5142
595.60 0.5139
595.70 0.5135
595.80 0.5132
595.90 0.5129
596.00 0.5125
596.10 0.5122
596.20 0.5119
596.30 0.5116
596.40 0.5112
596.50 0.5109
596.60 0.5106
596.70 0.5102
596.80 0.5099
596.90 0.5096
597.00 0.5093
597.10 0.5089
597.20 0.5086
597.30 0.5083
597.40 0.508
597.50 0.5076
597.60 0.5073
597.70 0.507
597.80 0.5067
597.90 0.5063
598.00 0.506
598.10 0.5057
598.20 0.5054
598.30 0.5051
598.40 0.5047
598.50 0.5044
598.60 0.5041
598.70 0.5038
598.80 0.5034
598.90 0.5031
599.00 0.5028
599.10 0.5025
599.20 0.5022
599.30 0.5018
599.40 0.5015
599.50 0.5012
599.60 0.5009
599.70 0.5006
599.80 0.5002
599.90 0.4999
600.00 0.4996
600.10 0.4993
600.20 0.499
600.30 0.4987
600.40 0.4983
600.50 0.498
600.60 0.4977
600.70 0.4974
600.80 0.4971
600.90 0.4968
601.00 0.4964
601.10 0.4961
601.20 0.4958
601.30 0.4955
601.40 0.4952
601.50 0.4949
601.60 0.4945
601.70 0.4942
601.80 0.4939
601.90 0.4936
602.00 0.4933
602.10 0.493
602.20 0.4927
602.30 0.4924
602.40 0.492
602.50 0.4917
602.60 0.4914
602.70 0.4911
602.80 0.4908
602.90 0.4905
603.00 0.4902
603.10 0.4899
603.20 0.4895
603.30 0.4892
603.40 0.4889
603.50 0.4886
603.60 0.4883
603.70 0.488
603.80 0.4877
603.90 0.4874
604.00 0.4871
604.10 0.4868
604.20 0.4865
604.30 0.4862
604.40 0.4858
604.50 0.4855
604.60 0.4852
604.70 0.4849
604.80 0.4846
604.90 0.4843
605.00 0.484
605.10 0.4837
605.20 0.4834
605.30 0.4831
605.40 0.4828
605.50 0.4825
605.60 0.4822
605.70 0.4819
605.80 0.4816
605.90 0.4813
606.00 0.481
606.10 0.4807
606.20 0.4803
606.30 0.48
606.40 0.4797
606.50 0.4794
606.60 0.4791
606.70 0.4788
606.80 0.4785
606.90 0.4782
607.00 0.4779
607.10 0.4776
607.20 0.4773
607.30 0.477
607.40 0.4767
607.50 0.4764
607.60 0.4761
607.70 0.4758
607.80 0.4755
607.90 0.4752
608.00 0.4749
608.10 0.4746
608.20 0.4743
608.30 0.474
608.40 0.4737
608.50 0.4734
608.60 0.4731
608.70 0.4728
608.80 0.4726
608.90 0.4723
609.00 0.472
609.10 0.4717
609.20 0.4714
609.30 0.4711
609.40 0.4708
609.50 0.4705
609.60 0.4702
609.70 0.4699
609.80 0.4696
609.90 0.4693
610.00 0.469
610.10 0.4687
610.20 0.4684
610.30 0.4681
610.40 0.4678
610.50 0.4675
610.60 0.4672
610.70 0.467
610.80 0.4667
610.90 0.4664
611.00 0.4661
611.10 0.4658
611.20 0.4655
611.30 0.4652
611.40 0.4649
611.50 0.4646
611.60 0.4643
611.70 0.464
611.80 0.4637
611.90 0.4635
612.00 0.4632
612.10 0.4629
612.20 0.4626
612.30 0.4623
612.40 0.462
612.50 0.4617
612.60 0.4614
612.70 0.4611
612.80 0.4609
612.90 0.4606
613.00 0.4603
613.10 0.46
613.20 0.4597
613.30 0.4594
613.40 0.4591
613.50 0.4589
613.60 0.4586
613.70 0.4583
613.80 0.458
613.90 0.4577
614.00 0.4574
614.10 0.4571
614.20 0.4569
614.30 0.4566
614.40 0.4563
614.50 0.456
614.60 0.4557
614.70 0.4554
614.80 0.4552
614.90 0.4549
615.00 0.4546
615.10 0.4543
615.20 0.454
615.30 0.4537
615.40 0.4535
615.50 0.4532
615.60 0.4529
615.70 0.4526
615.80 0.4523
615.90 0.452
616.00 0.4518
616.10 0.4515
616.20 0.4512
616.30 0.4509
616.40 0.4506
616.50 0.4504
616.60 0.4501
616.70 0.4498
616.80 0.4495
616.90 0.4493
617.00 0.449
617.10 0.4487
617.20 0.4484
617.30 0.4481
617.40 0.4479
617.50 0.4476
617.60 0.4473
617.70 0.447
617.80 0.4468
617.90 0.4465
618.00 0.4462
618.10 0.4459
618.20 0.4456
618.30 0.4454
618.40 0.4451
618.50 0.4448
618.60 0.4445
618.70 0.4443
618.80 0.444
618.90 0.4437
619.00 0.4434
619.10 0.4432
619.20 0.4429
619.30 0.4426
619.40 0.4423
619.50 0.4421
619.60 0.4418
619.70 0.4415
619.80 0.4413
619.90 0.441
620.00 0.4407
620.10 0.4404
620.20 0.4402
620.30 0.4399
620.40 0.4396
620.50 0.4394
620.60 0.4391
620.70 0.4388
620.80 0.4385
620.90 0.4383
621.00 0.438
621.10 0.4377
621.20 0.4375
621.30 0.4372
621.40 0.4369
621.50 0.4367
621.60 0.4364
621.70 0.4361
621.80 0.4358
621.90 0.4356
622.00 0.4353
622.10 0.435
622.20 0.4348
622.30 0.4345
622.40 0.4342
622.50 0.434
622.60 0.4337
622.70 0.4334
622.80 0.4332
622.90 0.4329
623.00 0.4326
623.10 0.4324
623.20 0.4321
623.30 0.4318
623.40 0.4316
623.50 0.4313
623.60 0.431
623.70 0.4308
623.80 0.4305
623.90 0.4303
624.00 0.43
624.10 0.4297
624.20 0.4295
624.30 0.4292
624.40 0.4289
624.50 0.4287
624.60 0.4284
624.70 0.4281
624.80 0.4279
624.90 0.4276
625.00 0.4274
625.10 0.4271
625.20 0.4268
625.30 0.4266
625.40 0.4263
625.50 0.4261
625.60 0.4258
625.70 0.4255
625.80 0.4253
625.90 0.425
626.00 0.4248
626.10 0.4245
626.20 0.4242
626.30 0.424
626.40 0.4237
626.50 0.4235
626.60 0.4232
626.70 0.4229
626.80 0.4227
626.90 0.4224
627.00 0.4222
627.10 0.4219
627.20 0.4216
627.30 0.4214
627.40 0.4211
627.50 0.4209
627.60 0.4206
627.70 0.4204
627.80 0.4201
627.90 0.4198
628.00 0.4196
628.10 0.4193
628.20 0.4191
628.30 0.4188
628.40 0.4186
628.50 0.4183
628.60 0.4181
628.70 0.4178
628.80 0.4175
628.90 0.4173
629.00 0.417
629.10 0.4168
629.20 0.4165
629.30 0.4163
629.40 0.416
629.50 0.4158
629.60 0.4155
629.70 0.4153
629.80 0.415
629.90 0.4148
630.00 0.4145
630.10 0.4143
630.20 0.414
630.30 0.4138
630.40 0.4135
630.50 0.4132
630.60 0.413
630.70 0.4127
630.80 0.4125
630.90 0.4122
631.00 0.412
631.10 0.4117
631.20 0.4115
631.30 0.4112
631.40 0.411
631.50 0.4107
631.60 0.4105
631.70 0.4102
631.80 0.41
631.90 0.4097
632.00 0.4095
632.10 0.4092
632.20 0.409
632.30 0.4088
632.40 0.4085
632.50 0.4083
632.60 0.408
632.70 0.4078
632.80 0.4075
632.90 0.4073
633.00 0.407
633.10 0.4068
633.20 0.4065
633.30 0.4063
633.40 0.406
633.50 0.4058
633.60 0.4055
633.70 0.4053
633.80 0.405
633.90 0.4048
634.00 0.4046
634.10 0.4043
634.20 0.4041
634.30 0.4038
634.40 0.4036
634.50 0.4033
634.60 0.4031
634.70 0.4028
634.80 0.4026
634.90 0.4024
635.00 0.4021
635.10 0.4019
635.20 0.4016
635.30 0.4014
635.40 0.4011
635.50 0.4009
635.60 0.4007
635.70 0.4004
635.80 0.4002
635.90 0.3999
636.00 0.3997
636.10 0.3994
636.20 0.3992
636.30 0.399
636.40 0.3987
636.50 0.3985
636.60 0.3982
636.70 0.398
636.80 0.3978
636.90 0.3975
637.00 0.3973
637.10 0.397
637.20 0.3968
637.30 0.3966
637.40 0.3963
637.50 0.3961
637.60 0.3958
637.70 0.3956
637.80 0.3954
637.90 0.3951
638.00 0.3949
638.10 0.3946
638.20 0.3944
638.30 0.3942
638.40 0.3939
638.50 0.3937
638.60 0.3935
638.70 0.3932
638.80 0.393
638.90 0.3927
639.00 0.3925
639.10 0.3923
639.20 0.392
639.30 0.3918
639.40 0.3916
639.50 0.3913
639.60 0.3911
639.70 0.3909
639.80 0.3906
639.90 0.3904
640.00 0.3901
640.10 0.3899
640.20 0.3897
640.30 0.3894
640.40 0.3892
640.50 0.389
640.60 0.3887
640.70 0.3885
640.80 0.3883
640.90 0.388
641.00 0.3878
641.10 0.3876
641.20 0.3873
641.30 0.3871
641.40 0.3869
641.50 0.3866
641.60 0.3864
641.70 0.3862
641.80 0.3859
641.90 0.3857
642.00 0.3855
642.10 0.3852
642.20 0.385
642.30 0.3848
642.40 0.3845
642.50 0.3843
642.60 0.3841
642.70 0.3838
642.80 0.3836
642.90 0.3834
643.00 0.3831
643.10 0.3829
643.20 0.3827
643.30 0.3824
643.40 0.3822
643.50 0.382
643.60 0.3817
643.70 0.3815
643.80 0.3813
643.90 0.381
644.00 0.3808
644.10 0.3806
644.20 0.3803
644.30 0.3801
644.40 0.3799
644.50 0.3796
644.60 0.3794
644.70 0.3792
644.80 0.3789
644.90 0.3787
645.00 0.3785
645.10 0.3783
645.20 0.378
645.30 0.3778
645.40 0.3776
645.50 0.3773
645.60 0.3771
645.70 0.3769
645.80 0.3766
645.90 0.3764
646.00 0.3762
646.10 0.3759
646.20 0.3757
646.30 0.3755
646.40 0.3752
646.50 0.375
646.60 0.3748
646.70 0.3745
646.80 0.3743
646.90 0.3741
647.00 0.3738
647.10 0.3736
647.20 0.3734
647.30 0.3731
647.40 0.3729
647.50 0.3726
647.60 0.3724
647.70 0.3722
647.80 0.3719
647.90 0.3717
648.00 0.3715
648.10 0.3712
648.20 0.371
648.30 0.3707
648.40 0.3705
648.50 0.3703
648.60 0.37
648.70 0.3698
648.80 0.3695
648.90 0.3693
649.00 0.369
649.10 0.3688
649.20 0.3686
649.30 0.3683
649.40 0.368
649.50 0.3678
649.60 0.3675
649.70 0.3673
649.80 0.367
649.90 0.3668
650.00 0.3665
650.10 0.3662
650.20 0.366
650.30 0.3657
650.40 0.3654
650.50 0.3652
650.60 0.3649
650.70 0.3646
650.80 0.3643
650.90 0.364
651.00 0.3638
651.10 0.3635
651.20 0.3632
651.30 0.3629
651.40 0.3626
651.50 0.3622
651.60 0.3619
651.70 0.3616
651.80 0.3612
651.90 0.3609
652.00 0.3605
652.10 0.3602
652.20 0.3599
652.30 0.3595
652.40 0.3591
652.50 0.3586
652.60 0.3582
652.70 0.3577
652.80 0.3572
652.90 0.3568
653.00 0.3563
653.10 0.3559
653.20 0.3554
653.30 0.3549
653.40 0.3541
653.50 0.3534
653.60 0.3526
653.70 0.3518
653.80 0.3511
653.90 0.3503
654.00 0.3495
654.10 0.3488
654.20 0.348
654.30 0.3471
654.40 0.3459
654.50 0.3446
654.60 0.3433
654.70 0.342
654.80 0.3406
654.90 0.3386
655.00 0.3367
655.10 0.3347
655.20 0.3328
655.30 0.3307
655.40 0.3281
655.50 0.3253
655.60 0.322
655.70 0.3186
655.80 0.3144
655.90 0.3094
656.00 0.3016
656.10 0.2925
656.20 0.2678
656.30 0.2697
656.40 0.2779
656.50 0.2957
656.60 0.3034
656.70 0.3103
656.80 0.3141
656.90 0.3178
657.00 0.3207
657.10 0.3234
657.20 0.3257
657.30 0.3278
657.40 0.3293
657.50 0.3309
657.60 0.3324
657.70 0.334
657.80 0.3354
657.90 0.3363
658.00 0.3371
658.10 0.338
658.20 0.3389
658.30 0.3396
658.40 0.34
658.50 0.3403
658.60 0.3407
658.70 0.341
658.80 0.3413
658.90 0.3417
659.00 0.342
659.10 0.3424
659.20 0.3427
659.30 0.343
659.40 0.343
659.50 0.3431
659.60 0.3431
659.70 0.3431
659.80 0.3432
659.90 0.3432
660.00 0.3432
660.10 0.3433
660.20 0.3433
660.30 0.3433
660.40 0.3432
660.50 0.3432
660.60 0.3431
660.70 0.343
660.80 0.3429
660.90 0.3428
661.00 0.3427
661.10 0.3426
661.20 0.3426
661.30 0.3425
661.40 0.3423
661.50 0.3422
661.60 0.342
661.70 0.3419
661.80 0.3418
661.90 0.3416
662.00 0.3415
662.10 0.3414
662.20 0.3412
662.30 0.3411
662.40 0.3409
662.50 0.3408
662.60 0.3406
662.70 0.3404
662.80 0.3403
662.90 0.3401
663.00 0.34
663.10 0.3398
663.20 0.3396
663.30 0.3395
663.40 0.3393
663.50 0.3391
663.60 0.339
663.70 0.3388
663.80 0.3386
663.90 0.3384
664.00 0.3383
664.10 0.3381
664.20 0.3379
664.30 0.3377
664.40 0.3376
664.50 0.3374
664.60 0.3372
664.70 0.337
664.80 0.3368
664.90 0.3367
665.00 0.3365
665.10 0.3363
665.20 0.3361
665.30 0.336
665.40 0.3358
665.50 0.3356
665.60 0.3354
665.70 0.3352
665.80 0.335
665.90 0.3349
666.00 0.3347
666.10 0.3345
666.20 0.3343
666.30 0.3341
666.40 0.3339
666.50 0.3338
666.60 0.3336
666.70 0.3334
666.80 0.3332
666.90 0.333
667.00 0.3328
667.10 0.3326
667.20 0.3325
667.30 0.3323
667.40 0.3321
667.50 0.3319
667.60 0.3317
667.70 0.3315
667.80 0.3314
667.90 0.3312
668.00 0.331
668.10 0.3308
668.20 0.3306
668.30 0.3304
668.40 0.3302
668.50 0.3301
668.60 0.3299
668.70 0.3297
668.80 0.3295
668.90 0.3293
669.00 0.3291
669.10 0.3289
669.20 0.3288
669.30 0.3286
669.40 0.3284
669.50 0.3282
669.60 0.328
669.70 0.3278
669.80 0.3277
669.90 0.3275
670.00 0.3273
670.10 0.3271
670.20 0.3269
670.30 0.3267
670.40 0.3266
670.50 0.3264
670.60 0.3262
670.70 0.326
670.80 0.3258
670.90 0.3256
671.00 0.3254
671.10 0.3253
671.20 0.3251
671.30 0.3249
671.40 0.3247
671.50 0.3245
671.60 0.3243
671.70 0.3242
671.80 0.324
671.90 0.3238
672.00 0.3236
672.10 0.3234
672.20 0.3232
672.30 0.3231
672.40 0.3229
672.50 0.3227
672.60 0.3225
672.70 0.3223
672.80 0.3222
672.90 0.322
673.00 0.3218
673.10 0.3216
673.20 0.3214
673.30 0.3212
673.40 0.3211
673.50 0.3209
673.60 0.3207
673.70 0.3205
673.80 0.3203
673.90 0.3202
674.00 0.32
674.10 0.3198
674.20 0.3196
674.30 0.3194
674.40 0.3193
674.50 0.3191
674.60 0.3189
674.70 0.3187
674.80 0.3185
674.90 0.3183
675.00 0.3182
675.10 0.318
675.20 0.3178
675.30 0.3176
675.40 0.3174
675.50 0.3173
675.60 0.3171
675.70 0.3169
675.80 0.3167
675.90 0.3166
676.00 0.3164
676.10 0.3162
676.20 0.316
676.30 0.3158
676.40 0.3157
676.50 0.3155
676.60 0.3153
676.70 0.3151
676.80 0.3149
676.90 0.3148
677.00 0.3146
677.10 0.3144
677.20 0.3142
677.30 0.3141
677.40 0.3139
677.50 0.3137
677.60 0.3135
677.70 0.3134
677.80 0.3132
677.90 0.313
678.00 0.3128
678.10 0.3126
678.20 0.3125
678.30 0.3123
678.40 0.3121
678.50 0.3119
678.60 0.3118
678.70 0.3116
678.80 0.3114
678.90 0.3112
679.00 0.3111
679.10 0.3109
679.20 0.3107
679.30 0.3105
679.40 0.3104
679.50 0.3102
679.60 0.31
679.70 0.3098
679.80 0.3097
679.90 0.3095
680.00 0.3093
680.10 0.3091
680.20 0.309
680.30 0.3088
680.40 0.3086
680.50 0.3084
680.60 0.3083
680.70 0.3081
680.80 0.3079
680.90 0.3078
681.00 0.3076
681.10 0.3074
681.20 0.3072
681.30 0.3071
681.40 0.3069
681.50 0.3067
681.60 0.3065
681.70 0.3064
681.80 0.3062
681.90 0.306
682.00 0.3059
682.10 0.3057
682.20 0.3055
682.30 0.3053
682.40 0.3052
682.50 0.305
682.60 0.3048
682.70 0.3047
682.80 0.3045
682.90 0.3043
683.00 0.3041
683.10 0.304
683.20 0.3038
683.30 0.3036
683.40 0.3035
683.50 0.3033
683.60 0.3031
683.70 0.303
683.80 0.3028
683.90 0.3026
684.00 0.3024
684.10 0.3023
684.20 0.3021
684.30 0.3019
684.40 0.3018
684.50 0.3016
684.60 0.3014
684.70 0.3013
684.80 0.3011
684.90 0.3009
685.00 0.3008
685.10 0.3006
685.20 0.3004
685.30 0.3003
685.40 0.3001
685.50 0.2999
685.60 0.2997
685.70 0.2996
685.80 0.2994
685.90 0.2992
686.00 0.2991
686.10 0.2989
686.20 0.2987
686.30 0.2986
686.40 0.2984
686.50 0.2982
686.60 0.2981
686.70 0.2979
686.80 0.2977
686.90 0.2976
687.00 0.2974
687.10 0.2972
687.20 0.2971
687.30 0.2969
687.40 0.2967
687.50 0.2966
687.60 0.2964
687.70 0.2963
687.80 0.2961
687.90 0.2959
688.00 0.2958
688.10 0.2956
688.20 0.2954
688.30 0.2953
688.40 0.2951
688.50 0.2949
688.60 0.2948
688.70 0.2946
688.80 0.2944
688.90 0.2943
689.00 0.2941
689.10 0.294
689.20 0.2938
689.30 0.2936
689.40 0.2935
689.50 0.2933
689.60 0.2931
689.70 0.293
689.80 0.2928
689.90 0.2926
690.00 0.2925
690.10 0.2923
690.20 0.2922
690.30 0.292
690.40 0.2918
690.50 0.2917
690.60 0.2915
690.70 0.2914
690.80 0.2912
690.90 0.291
691.00 0.2909
691.10 0.2907
691.20 0.2905
691.30 0.2904
691.40 0.2902
691.50 0.2901
691.60 0.2899
691.70 0.2897
691.80 0.2896
691.90 0.2894
692.00 0.2893
692.10 0.2891
692.20 0.2889
692.30 0.2888
692.40 0.2886
692.50 0.2885
692.60 0.2883
692.70 0.2881
692.80 0.288
692.90 0.2878
693.00 0.2877
693.10 0.2875
693.20 0.2873
693.30 0.2872
693.40 0.287
693.50 0.2869
693.60 0.2867
693.70 0.2865
693.80 0.2864
693.90 0.2862
694.00 0.2861
694.10 0.2859
694.20 0.2858
694.30 0.2856
694.40 0.2854
694.50 0.2853
694.60 0.2851
694.70 0.285
694.80 0.2848
694.90 0.2846
695.00 0.2845
695.10 0.2843
695.20 0.2842
695.30 0.284
695.40 0.2839
695.50 0.2837
695.60 0.2836
695.70 0.2834
695.80 0.2832
695.90 0.2831
696.00 0.2829
696.10 0.2828
696.20 0.2826
696.30 0.2825
696.40 0.2823
696.50 0.2822
696.60 0.282
696.70 0.2818
696.80 0.2817
696.90 0.2815
697.00 0.2814
697.10 0.2812
697.20 0.2811
697.30 0.2809
697.40 0.2808
697.50 0.2806
697.60 0.2804
697.70 0.2803
697.80 0.2801
697.90 0.28
698.00 0.2798
698.10 0.2797
698.20 0.2795
698.30 0.2794
698.40 0.2792
698.50 0.2791
698.60 0.2789
698.70 0.2788
698.80 0.2786
698.90 0.2784
699.00 0.2783
699.10 0.2781
699.20 0.278
699.30 0.2778
699.40 0.2777
699.50 0.2775
699.60 0.2774
699.70 0.2772
699.80 0.2771
699.90 0.2769
700.00 0.2768
700.10 0.2766
700.20 0.2765
700.30 0.2763
700.40 0.2762
700.50 0.276
700.60 0.2759
700.70 0.2757
700.80 0.2756
700.90 0.2754
701.00 0.2753
701.10 0.2751
701.20 0.275
701.30 0.2748
701.40 0.2747
701.50 0.2745
701.60 0.2744
701.70 0.2742
701.80 0.2741
701.90 0.2739
702.00 0.2738
702.10 0.2736
702.20 0.2735
702.30 0.2733
702.40 0.2732
702.50 0.273
702.60 0.2729
702.70 0.2727
702.80 0.2726
702.90 0.2724
703.00 0.2723
703.10 0.2721
703.20 0.272
703.30 0.2718
703.40 0.2717
703.50 0.2715
703.60 0.2714
703.70 0.2712
703.80 0.2711
703.90 0.2709
704.00 0.2708
704.10 0.2706
704.20 0.2705
704.30 0.2703
704.40 0.2702
704.50 0.27
704.60 0.2699
704.70 0.2697
704.80 0.2696
704.90 0.2695
705.00 0.2693
705.10 0.2692
705.20 0.269
705.30 0.2689
705.40 0.2687
705.50 0.2686
705.60 0.2684
705.70 0.2683
705.80 0.2681
705.90 0.268
706.00 0.2678
706.10 0.2677
706.20 0.2676
706.30 0.2674
706.40 0.2673
706.50 0.2671
706.60 0.267
706.70 0.2668
706.80 0.2667
706.90 0.2665
707.00 0.2664
707.10 0.2663
707.20 0.2661
707.30 0.266
707.40 0.2658
707.50 0.2657
707.60 0.2655
707.70 0.2654
707.80 0.2652
707.90 0.2651
708.00 0.265
708.10 0.2648
708.20 0.2647
708.30 0.2645
708.40 0.2644
708.50 0.2642
708.60 0.2641
708.70 0.2639
708.80 0.2638
708.90 0.2637
709.00 0.2635
709.10 0.2634
709.20 0.2632
709.30 0.2631
709.40 0.2629
709.50 0.2628
709.60 0.2627
709.70 0.2625
709.80 0.2624
709.90 0.2622
710.00 0.2621
710.10 0.2619
710.20 0.2618
710.30 0.2617
710.40 0.2615
710.50 0.2614
710.60 0.2612
710.70 0.2611
710.80 0.261
710.90 0.2608
711.00 0.2607
711.10 0.2605
711.20 0.2604
711.30 0.2603
711.40 0.2601
711.50 0.26
711.60 0.2598
711.70 0.2597
711.80 0.2596
711.90 0.2594
712.00 0.2593
712.10 0.2591
712.20 0.259
712.30 0.2589
712.40 0.2587
712.50 0.2586
712.60 0.2584
712.70 0.2583
712.80 0.2582
712.90 0.258
713.00 0.2579
713.10 0.2577
713.20 0.2576
713.30 0.2575
713.40 0.2573
713.50 0.2572
713.60 0.2571
713.70 0.2569
713.80 0.2568
713.90 0.2566
714.00 0.2565
714.10 0.2564
714.20 0.2562
714.30 0.2561
714.40 0.2559
714.50 0.2558
714.60 0.2557
714.70 0.2555
714.80 0.2554
714.90 0.2553
715.00 0.2551
715.10 0.255
715.20 0.2548
715.30 0.2547
715.40 0.2546
715.50 0.2544
715.60 0.2543
715.70 0.2542
715.80 0.254
715.90 0.2539
716.00 0.2538
716.10 0.2536
716.20 0.2535
716.30 0.2533
716.40 0.2532
716.50 0.2531
716.60 0.2529
716.70 0.2528
716.80 0.2527
716.90 0.2525
717.00 0.2524
717.10 0.2523
717.20 0.2521
717.30 0.252
717.40 0.2519
717.50 0.2517
717.60 0.2516
717.70 0.2515
717.80 0.2513
717.90 0.2512
718.00 0.2511
718.10 0.2509
718.20 0.2508
718.30 0.2506
718.40 0.2505
718.50 0.2504
718.60 0.2502
718.70 0.2501
718.80 0.25
718.90 0.2498
719.00 0.2497
719.10 0.2496
719.20 0.2494
719.30 0.2493
719.40 0.2492
719.50 0.249
719.60 0.2489
719.70 0.2488
719.80 0.2486
719.90 0.2485
720.00 0.2484
720.10 0.2482
720.20 0.2481
720.30 0.248
720.40 0.2478
720.50 0.2477
720.60 0.2476
720.70 0.2475
720.80 0.2473
720.90 0.2472
721.00 0.2471
721.10 0.2469
721.20 0.2468
721.30 0.2467
721.40 0.2465
721.50 0.2464
721.60 0.2463
721.70 0.2461
721.80 0.246
721.90 0.2459
722.00 0.2457
722.10 0.2456
722.20 0.2455
722.30 0.2454
722.40 0.2452
722.50 0.2451
722.60 0.245
722.70 0.2448
722.80 0.2447
722.90 0.2446
723.00 0.2444
723.10 0.2443
723.20 0.2442
723.30 0.2441
723.40 0.2439
723.50 0.2438
723.60 0.2437
723.70 0.2435
723.80 0.2434
723.90 0.2433
724.00 0.2431
724.10 0.243
724.20 0.2429
724.30 0.2428
724.40 0.2426
724.50 0.2425
724.60 0.2424
724.70 0.2422
724.80 0.2421
724.90 0.242
725.00 0.2419
725.10 0.2417
725.20 0.2416
725.30 0.2415
725.40 0.2413
725.50 0.2412
725.60 0.2411
725.70 0.241
725.80 0.2408
725.90 0.2407
726.00 0.2406
726.10 0.2405
726.20 0.2403
726.30 0.2402
726.40 0.2401
726.50 0.2399
726.60 0.2398
726.70 0.2397
726.80 0.2396
726.90 0.2394
727.00 0.2393
727.10 0.2392
727.20 0.2391
727.30 0.2389
727.40 0.2388
727.50 0.2387
727.60 0.2386
727.70 0.2384
727.80 0.2383
727.90 0.2382
728.00 0.2381
728.10 0.2379
728.20 0.2378
728.30 0.2377
728.40 0.2375
728.50 0.2374
728.60 0.2373
728.70 0.2372
728.80 0.237
728.90 0.2369
729.00 0.2368
729.10 0.2367
729.20 0.2365
729.30 0.2364
729.40 0.2363
729.50 0.2362
729.60 0.236
729.70 0.2359
729.80 0.2358
729.90 0.2357
730.00 0.2355
730.10 0.2354
730.20 0.2353
730.30 0.2352
730.40 0.2351
730.50 0.2349
730.60 0.2348
730.70 0.2347
730.80 0.2346
730.90 0.2344
731.00 0.2343
731.10 0.2342
731.20 0.2341
731.30 0.234
731.40 0.2338
731.50 0.2337
731.60 0.2336
731.70 0.2335
731.80 0.2333
731.90 0.2332
732.00 0.2331
732.10 0.233
732.20 0.2329
732.30 0.2327
732.40 0.2326
732.50 0.2325
732.60 0.2324
732.70 0.2322
732.80 0.2321
732.90 0.232
733.00 0.2319
733.10 0.2318
733.20 0.2316
733.30 0.2315
733.40 0.2314
733.50 0.2313
733.60 0.2312
733.70 0.231
733.80 0.2309
733.90 0.2308
734.00 0.2307
734.10 0.2306
734.20 0.2304
734.30 0.2303
734.40 0.2302
734.50 0.2301
734.60 0.23
734.70 0.2298
734.80 0.2297
734.90 0.2296
735.00 0.2295
735.10 0.2293
735.20 0.2292
735.30 0.2291
735.40 0.229
735.50 0.2289
735.60 0.2287
735.70 0.2286
735.80 0.2285
735.90 0.2284
736.00 0.2283
736.10 0.2282
736.20 0.228
736.30 0.2279
736.40 0.2278
736.50 0.2277
736.60 0.2276
736.70 0.2274
736.80 0.2273
736.90 0.2272
737.00 0.2271
737.10 0.227
737.20 0.2268
737.30 0.2267
737.40 0.2266
737.50 0.2265
737.60 0.2264
737.70 0.2262
737.80 0.2261
737.90 0.226
738.00 0.2259
738.10 0.2258
738.20 0.2257
738.30 0.2255
738.40 0.2254
738.50 0.2253
738.60 0.2252
738.70 0.2251
738.80 0.2249
738.90 0.2248
739.00 0.2247
739.10 0.2246
739.20 0.2245
739.30 0.2244
739.40 0.2242
739.50 0.2241
739.60 0.224
739.70 0.2239
739.80 0.2238
739.90 0.2237
740.00 0.2235
740.10 0.2234
740.20 0.2233
740.30 0.2232
740.40 0.2231
740.50 0.223
740.60 0.2228
740.70 0.2227
740.80 0.2226
740.90 0.2225
741.00 0.2224
741.10 0.2223
741.20 0.2222
741.30 0.222
741.40 0.2219
741.50 0.2218
741.60 0.2217
741.70 0.2216
741.80 0.2215
741.90 0.2214
742.00 0.2212
742.10 0.2211
742.20 0.221
742.30 0.2209
742.40 0.2208
742.50 0.2207
742.60 0.2206
742.70 0.2204
742.80 0.2203
742.90 0.2202
743.00 0.2201
743.10 0.22
743.20 0.2199
743.30 0.2198
743.40 0.2197
743.50 0.2195
743.60 0.2194
743.70 0.2193
743.80 0.2192
743.90 0.2191
744.00 0.219
744.10 0.2189
744.20 0.2187
744.30 0.2186
744.40 0.2185
744.50 0.2184
744.60 0.2183
744.70 0.2182
744.80 0.2181
744.90 0.218
745.00 0.2178
745.10 0.2177
745.20 0.2176
745.30 0.2175
745.40 0.2174
745.50 0.2173
745.60 0.2172
745.70 0.2171
745.80 0.2169
745.90 0.2168
746.00 0.2167
746.10 0.2166
746.20 0.2165
746.30 0.2164
746.40 0.2163
746.50 0.2162
746.60 0.216
746.70 0.2159
746.80 0.2158
746.90 0.2157
747.00 0.2156
747.10 0.2155
747.20 0.2154
747.30 0.2153
747.40 0.2152
747.50 0.215
747.60 0.2149
747.70 0.2148
747.80 0.2147
747.90 0.2146
748.00 0.2145
748.10 0.2144
748.20 0.2143
748.30 0.2142
748.40 0.214
748.50 0.2139
748.60 0.2138
748.70 0.2137
748.80 0.2136
748.90 0.2135
749.00 0.2134
749.10 0.2133
749.20 0.2132
749.30 0.2131
749.40 0.2129
749.50 0.2128
749.60 0.2127
749.70 0.2126
749.80 0.2125
749.90 0.2124
750.00 0.2123
750.10 0.2122
750.20 0.2121
750.30 0.212
750.40 0.2119
750.50 0.2117
750.60 0.2116
750.70 0.2115
750.80 0.2114
750.90 0.2113
751.00 0.2112
751.10 0.2111
751.20 0.211
751.30 0.2109
751.40 0.2108
751.50 0.2107
751.60 0.2106
751.70 0.2105
751.80 0.2103
751.90 0.2102
752.00 0.2101
752.10 0.21
752.20 0.2099
752.30 0.2098
752.40 0.2097
752.50 0.2096
752.60 0.2095
752.70 0.2094
752.80 0.2093
752.90 0.2092
753.00 0.2091
753.10 0.209
753.20 0.2089
753.30 0.2087
753.40 0.2086
753.50 0.2085
753.60 0.2084
753.70 0.2083
753.80 0.2082
753.90 0.2081
754.00 0.208
754.10 0.2079
754.20 0.2078
754.30 0.2077
754.40 0.2076
754.50 0.2075
754.60 0.2074
754.70 0.2073
754.80 0.2072
754.90 0.2071
755.00 0.2069
755.10 0.2068
755.20 0.2067
755.30 0.2066
755.40 0.2065
755.50 0.2064
755.60 0.2063
755.70 0.2062
755.80 0.2061
755.90 0.206
756.00 0.2059
756.10 0.2058
756.20 0.2057
756.30 0.2056
756.40 0.2055
756.50 0.2054
756.60 0.2053
756.70 0.2052
756.80 0.2051
756.90 0.205
757.00 0.2048
757.10 0.2047
757.20 0.2046
757.30 0.2045
757.40 0.2044
757.50 0.2043
757.60 0.2042
757.70 0.2041
757.80 0.204
757.90 0.2039
758.00 0.2038
758.10 0.2037
758.20 0.2036
758.30 0.2035
758.40 0.2034
758.50 0.2033
758.60 0.2032
758.70 0.2031
758.80 0.203
758.90 0.2029
759.00 0.2028
759.10 0.2027
759.20 0.2026
759.30 0.2025
759.40 0.2024
759.50 0.2022
759.60 0.2021
759.70 0.202
759.80 0.2019
759.90 0.2018
760.00 0.2017
760.10 0.2016
760.20 0.2015
760.30 0.2014
760.40 0.2013
760.50 0.2012
760.60 0.2011
760.70 0.201
760.80 0.2009
760.90 0.2008
761.00 0.2007
761.10 0.2006
761.20 0.2005
761.30 0.2004
761.40 0.2003
761.50 0.2002
761.60 0.2001
761.70 0.2
761.80 0.1999
761.90 0.1998
762.00 0.1997
762.10 0.1996
762.20 0.1995
762.30 0.1994
762.40 0.1993
762.50 0.1992
762.60 0.1991
762.70 0.199
762.80 0.1989
762.90 0.1988
763.00 0.1987
763.10 0.1986
763.20 0.1985
763.30 0.1984
763.40 0.1983
763.50 0.1982
763.60 0.1981
763.70 0.198
763.80 0.1979
763.90 0.1978
764.00 0.1977
764.10 0.1976
764.20 0.1975
764.30 0.1974
764.40 0.1973
764.50 0.1972
764.60 0.1971
764.70 0.197
764.80 0.1969
764.90 0.1968
765.00 0.1967
765.10 0.1966
765.20 0.1965
765.30 0.1964
765.40 0.1963
765.50 0.1962
765.60 0.1961
765.70 0.196
765.80 0.1959
765.90 0.1958
766.00 0.1957
766.10 0.1956
766.20 0.1955
766.30 0.1954
766.40 0.1953
766.50 0.1952
766.60 0.1951
766.70 0.195
766.80 0.1949
766.90 0.1948
767.00 0.1948
767.10 0.1947
767.20 0.1946
767.30 0.1945
767.40 0.1944
767.50 0.1943
767.60 0.1942
767.70 0.1941
767.80 0.194
767.90 0.1939
768.00 0.1938
768.10 0.1937
768.20 0.1936
768.30 0.1935
768.40 0.1934
768.50 0.1933
768.60 0.1932
768.70 0.1931
768.80 0.193
768.90 0.1929
769.00 0.1928
769.10 0.1927
769.20 0.1926
769.30 0.1925
769.40 0.1924
769.50 0.1923
769.60 0.1922
769.70 0.1921
769.80 0.192
769.90 0.1919
770.00 0.1918
770.10 0.1917
770.20 0.1916
770.30 0.1915
770.40 0.1914
770.50 0.1914
770.60 0.1913
770.70 0.1912
770.80 0.1911
770.90 0.191
771.00 0.1909
771.10 0.1908
771.20 0.1907
771.30 0.1906
771.40 0.1905
771.50 0.1904
771.60 0.1903
771.70 0.1902
771.80 0.1901
771.90 0.19
772.00 0.1899
772.10 0.1898
772.20 0.1897
772.30 0.1897
772.40 0.1896
772.50 0.1895
772.60 0.1894
772.70 0.1893
772.80 0.1892
772.90 0.1891
773.00 0.189
773.10 0.1889
773.20 0.1888
773.30 0.1887
773.40 0.1886
773.50 0.1885
773.60 0.1884
773.70 0.1883
773.80 0.1882
773.90 0.1881
774.00 0.1881
774.10 0.188
774.20 0.1879
774.30 0.1878
774.40 0.1877
774.50 0.1876
774.60 0.1875
774.70 0.1874
774.80 0.1873
774.90 0.1872
775.00 0.1871
775.10 0.187
775.20 0.1869
775.30 0.1868
775.40 0.1868
775.50 0.1867
775.60 0.1866
775.70 0.1865
775.80 0.1864
775.90 0.1863
776.00 0.1862
776.10 0.1861
776.20 0.186
776.30 0.1859
776.40 0.1858
776.50 0.1857
776.60 0.1856
776.70 0.1855
776.80 0.1855
776.90 0.1854
777.00 0.1853
777.10 0.1852
777.20 0.1851
777.30 0.185
777.40 0.1849
777.50 0.1848
777.60 0.1847
777.70 0.1846
777.80 0.1845
777.90 0.1844
778.00 0.1844
778.10 0.1843
778.20 0.1842
778.30 0.1841
778.40 0.184
778.50 0.1839
778.60 0.1838
778.70 0.1837
778.80 0.1836
778.90 0.1835
779.00 0.1834
779.10 0.1833
779.20 0.1833
779.30 0.1832
779.40 0.1831
779.50 0.183
779.60 0.1829
779.70 0.1828
779.80 0.1827
779.90 0.1826
780.00 0.1825
780.10 0.1824
780.20 0.1823
780.30 0.1823
780.40 0.1822
780.50 0.1821
780.60 0.182
780.70 0.1819
780.80 0.1818
780.90 0.1817
781.00 0.1816
781.10 0.1815
781.20 0.1815
781.30 0.1814
781.40 0.1813
781.50 0.1812
781.60 0.1811
781.70 0.181
781.80 0.1809
781.90 0.1808
782.00 0.1807
782.10 0.1807
782.20 0.1806
782.30 0.1805
782.40 0.1804
782.50 0.1803
782.60 0.1802
782.70 0.1801
782.80 0.18
782.90 0.1799
783.00 0.1799
783.10 0.1798
783.20 0.1797
783.30 0.1796
783.40 0.1795
783.50 0.1794
783.60 0.1793
783.70 0.1792
783.80 0.1792
783.90 0.1791
784.00 0.179
784.10 0.1789
784.20 0.1788
784.30 0.1787
784.40 0.1786
784.50 0.1785
784.60 0.1785
784.70 0.1784
784.80 0.1783
784.90 0.1782
785.00 0.1781
785.10 0.178
785.20 0.1779
785.30 0.1778
785.40 0.1778
785.50 0.1777
785.60 0.1776
785.70 0.1775
785.80 0.1774
785.90 0.1773
786.00 0.1772
786.10 0.1771
786.20 0.1771
786.30 0.177
786.40 0.1769
786.50 0.1768
786.60 0.1767
786.70 0.1766
786.80 0.1765
786.90 0.1764
787.00 0.1764
787.10 0.1763
787.20 0.1762
787.30 0.1761
787.40 0.176
787.50 0.1759
787.60 0.1758
787.70 0.1758
787.80 0.1757
787.90 0.1756
788.00 0.1755
788.10 0.1754
788.20 0.1753
788.30 0.1752
788.40 0.1752
788.50 0.1751
788.60 0.175
788.70 0.1749
788.80 0.1748
788.90 0.1747
789.00 0.1746
789.10 0.1746
789.20 0.1745
789.30 0.1744
789.40 0.1743
789.50 0.1742
789.60 0.1741
789.70 0.174
789.80 0.174
789.90 0.1739
790.00 0.1738
790.10 0.1737
790.20 0.1736
790.30 0.1735
790.40 0.1734
790.50 0.1734
790.60 0.1733
790.70 0.1732
790.80 0.1731
790.90 0.173
791.00 0.1729
791.10 0.1729
791.20 0.1728
791.30 0.1727
791.40 0.1726
791.50 0.1725
791.60 0.1724
791.70 0.1724
791.80 0.1723
791.90 0.1722
792.00 0.1721
792.10 0.172
792.20 0.1719
792.30 0.1719
792.40 0.1718
792.50 0.1717
792.60 0.1716
792.70 0.1715
792.80 0.1714
792.90 0.1714
793.00 0.1713
793.10 0.1712
793.20 0.1711
793.30 0.171
793.40 0.1709
793.50 0.1709
793.60 0.1708
793.70 0.1707
793.80 0.1706
793.90 0.1705
794.00 0.1704
794.10 0.1704
794.20 0.1703
794.30 0.1702
794.40 0.1701
794.50 0.17
794.60 0.17
794.70 0.1699
794.80 0.1698
794.90 0.1697
795.00 0.1696
795.10 0.1695
795.20 0.1695
795.30 0.1694
795.40 0.1693
795.50 0.1692
795.60 0.1691
795.70 0.169
795.80 0.169
795.90 0.1689
796.00 0.1688
796.10 0.1687
796.20 0.1686
796.30 0.1686
796.40 0.1685
796.50 0.1684
796.60 0.1683
796.70 0.1682
796.80 0.1681
796.90 0.1681
797.00 0.168
797.10 0.1679
797.20 0.1678
797.30 0.1677
797.40 0.1677
797.50 0.1676
797.60 0.1675
797.70 0.1674
797.80 0.1673
797.90 0.1673
798.00 0.1672
798.10 0.1671
798.20 0.167
798.30 0.1669
798.40 0.1668
798.50 0.1668
798.60 0.1667
798.70 0.1666
798.80 0.1665
798.90 0.1664
799.00 0.1664
799.10 0.1663
799.20 0.1662
799.30 0.1661
799.40 0.166
799.50 0.166
799.60 0.1659
799.70 0.1658
799.80 0.1657
799.90 0.1656
800.00 0.1656
800.10 0.1655
800.20 0.1654
800.30 0.1653
800.40 0.1652
800.50 0.1652
800.60 0.1651
800.70 0.165
800.80 0.1649
800.90 0.1648
801.00 0.1648
801.10 0.1647
801.20 0.1646
801.30 0.1645
801.40 0.1644
801.50 0.1644
801.60 0.1643
801.70 0.1642
801.80 0.1641
801.90 0.1641
802.00 0.164
802.10 0.1639
802.20 0.1638
802.30 0.1637
802.40 0.1637
802.50 0.1636
802.60 0.1635
802.70 0.1634
802.80 0.1634
802.90 0.1633
803.00 0.1632
803.10 0.1631
803.20 0.163
803.30 0.163
803.40 0.1629
803.50 0.1628
803.60 0.1627
803.70 0.1626
803.80 0.1626
803.90 0.1625
804.00 0.1624
804.10 0.1623
804.20 0.1623
804.30 0.1622
804.40 0.1621
804.50 0.162
804.60 0.162
804.70 0.1619
804.80 0.1618
804.90 0.1617
805.00 0.1616
805.10 0.1616
805.20 0.1615
805.30 0.1614
805.40 0.1613
805.50 0.1613
805.60 0.1612
805.70 0.1611
805.80 0.161
805.90 0.1609
806.00 0.1609
806.10 0.1608
806.20 0.1607
806.30 0.1606
806.40 0.1606
806.50 0.1605
806.60 0.1604
806.70 0.1603
806.80 0.1603
806.90 0.1602
807.00 0.1601
807.10 0.16
807.20 0.1599
807.30 0.1599
807.40 0.1598
807.50 0.1597
807.60 0.1596
807.70 0.1596
807.80 0.1595
807.90 0.1594
808.00 0.1593
808.10 0.1593
808.20 0.1592
808.30 0.1591
808.40 0.159
808.50 0.159
808.60 0.1589
808.70 0.1588
808.80 0.1587
808.90 0.1586
809.00 0.1586
809.10 0.1585
809.20 0.1584
809.30 0.1583
809.40 0.1583
809.50 0.1582
809.60 0.1581
809.70 0.158
809.80 0.158
809.90 0.1579
810.00 0.1578
810.10 0.1577
810.20 0.1577
810.30 0.1576
810.40 0.1575
810.50 0.1574
810.60 0.1574
810.70 0.1573
810.80 0.1572
810.90 0.1571
811.00 0.1571
811.10 0.157
811.20 0.1569
811.30 0.1568
811.40 0.1568
811.50 0.1567
811.60 0.1566
811.70 0.1565
811.80 0.1565
811.90 0.1564
812.00 0.1563
812.10 0.1563
812.20 0.1562
812.30 0.1561
812.40 0.156
812.50 0.156
812.60 0.1559
812.70 0.1558
812.80 0.1557
812.90 0.1557
813.00 0.1556
813.10 0.1555
813.20 0.1554
813.30 0.1554
813.40 0.1553
813.50 0.1552
813.60 0.1551
813.70 0.1551
813.80 0.155
813.90 0.1549
814.00 0.1549
814.10 0.1548
814.20 0.1547
814.30 0.1546
814.40 0.1546
814.50 0.1545
814.60 0.1544
814.70 0.1543
814.80 0.1543
814.90 0.1542
815.00 0.1541
815.10 0.1541
815.20 0.154
815.30 0.1539
815.40 0.1538
815.50 0.1538
815.60 0.1537
815.70 0.1536
815.80 0.1535
815.90 0.1535
816.00 0.1534
816.10 0.1533
816.20 0.1533
816.30 0.1532
816.40 0.1531
816.50 0.153
816.60 0.153
816.70 0.1529
816.80 0.1528
816.90 0.1527
817.00 0.1527
817.10 0.1526
817.20 0.1525
817.30 0.1525
817.40 0.1524
817.50 0.1523
817.60 0.1522
817.70 0.1522
817.80 0.1521
817.90 0.152
818.00 0.1519
818.10 0.1519
818.20 0.1518
818.30 0.1517
818.40 0.1517
818.50 0.1516
818.60 0.1515
818.70 0.1514
818.80 0.1514
818.90 0.1513
819.00 0.1512
819.10 0.1512
819.20 0.1511
819.30 0.151
819.40 0.1509
819.50 0.1509
819.60 0.1508
819.70 0.1507
819.80 0.1507
819.90 0.1506
820.00 0.1505
820.10 0.1504
820.20 0.1504
820.30 0.1503
820.40 0.1502
820.50 0.1502
820.60 0.1501
820.70 0.15
820.80 0.1499
820.90 0.1499
821.00 0.1498
821.10 0.1497
821.20 0.1497
821.30 0.1496
821.40 0.1495
821.50 0.1495
821.60 0.1494
821.70 0.1493
821.80 0.1492
821.90 0.1492
822.00 0.1491
822.10 0.149
822.20 0.149
822.30 0.1489
822.40 0.1488
822.50 0.1488
822.60 0.1487
822.70 0.1486
822.80 0.1485
822.90 0.1485
823.00 0.1484
823.10 0.1483
823.20 0.1483
823.30 0.1482
823.40 0.1481
823.50 0.1481
823.60 0.148
823.70 0.1479
823.80 0.1479
823.90 0.1478
824.00 0.1477
824.10 0.1476
824.20 0.1476
824.30 0.1475
824.40 0.1474
824.50 0.1474
824.60 0.1473
824.70 0.1472
824.80 0.1472
824.90 0.1471
825.00 0.147
825.10 0.147
825.20 0.1469
825.30 0.1468
825.40 0.1468
825.50 0.1467
825.60 0.1466
825.70 0.1465
825.80 0.1465
825.90 0.1464
826.00 0.1463
826.10 0.1463
826.20 0.1462
826.30 0.1461
826.40 0.1461
826.50 0.146
826.60 0.1459
826.70 0.1459
826.80 0.1458
826.90 0.1457
827.00 0.1457
827.10 0.1456
827.20 0.1455
827.30 0.1455
827.40 0.1454
827.50 0.1453
827.60 0.1453
827.70 0.1452
827.80 0.1451
827.90 0.145
828.00 0.145
828.10 0.1449
828.20 0.1448
828.30 0.1448
828.40 0.1447
828.50 0.1446
828.60 0.1446
828.70 0.1445
828.80 0.1444
828.90 0.1444
829.00 0.1443
829.10 0.1442
829.20 0.1442
829.30 0.1441
829.40 0.144
829.50 0.144
829.60 0.1439
829.70 0.1438
829.80 0.1438
829.90 0.1437
830.00 0.1436
830.10 0.1436
830.20 0.1435
830.30 0.1434
830.40 0.1434
830.50 0.1433
830.60 0.1432
830.70 0.1432
830.80 0.1431
830.90 0.143
831.00 0.143
831.10 0.1429
831.20 0.1428
831.30 0.1428
831.40 0.1427
831.50 0.1426
831.60 0.1426
831.70 0.1425
831.80 0.1424
831.90 0.1424
832.00 0.1423
832.10 0.1422
832.20 0.1422
832.30 0.1421
832.40 0.142
832.50 0.142
832.60 0.1419
832.70 0.1418
832.80 0.1418
832.90 0.1417
833.00 0.1416
833.10 0.1416
833.20 0.1415
833.30 0.1414
833.40 0.1414
833.50 0.1413
833.60 0.1412
833.70 0.1412
833.80 0.1411
833.90 0.141
834.00 0.141
834.10 0.1409
834.20 0.1409
834.30 0.1408
834.40 0.1407
834.50 0.1407
834.60 0.1406
834.70 0.1405
834.80 0.1405
834.90 0.1404
835.00 0.1403
835.10 0.1403
835.20 0.1402
835.30 0.1401
835.40 0.1401
835.50 0.14
835.60 0.1399
835.70 0.1399
835.80 0.1398
835.90 0.1397
836.00 0.1397
836.10 0.1396
836.20 0.1395
836.30 0.1395
836.40 0.1394
836.50 0.1393
836.60 0.1393
836.70 0.1392
836.80 0.1392
836.90 0.1391
837.00 0.139
837.10 0.139
837.20 0.1389
837.30 0.1388
837.40 0.1388
837.50 0.1387
837.60 0.1386
837.70 0.1386
837.80 0.1385
837.90 0.1384
838.00 0.1384
838.10 0.1383
838.20 0.1383
838.30 0.1382
838.40 0.1381
838.50 0.1381
838.60 0.138
838.70 0.1379
838.80 0.1379
838.90 0.1378
839.00 0.1377
839.10 0.1377
839.20 0.1376
839.30 0.1376
839.40 0.1375
839.50 0.1374
839.60 0.1374
839.70 0.1373
839.80 0.1372
839.90 0.1372
840.00 0.1371
840.10 0.137
840.20 0.137
840.30 0.1369
840.40 0.1369
840.50 0.1368
840.60 0.1367
840.70 0.1367
840.80 0.1366
840.90 0.1365
841.00 0.1365
841.10 0.1364
841.20 0.1364
841.30 0.1363
841.40 0.1362
841.50 0.1362
841.60 0.1361
841.70 0.136
841.80 0.136
841.90 0.1359
842.00 0.1359
842.10 0.1358
842.20 0.1357
842.30 0.1357
842.40 0.1356
842.50 0.1355
842.60 0.1355
842.70 0.1354
842.80 0.1354
842.90 0.1353
843.00 0.1352
843.10 0.1352
843.20 0.1351
843.30 0.135
843.40 0.135
843.50 0.1349
843.60 0.1349
843.70 0.1348
843.80 0.1347
843.90 0.1347
844.00 0.1346
844.10 0.1345
844.20 0.1345
844.30 0.1344
844.40 0.1344
844.50 0.1343
844.60 0.1342
844.70 0.1342
844.80 0.1341
844.90 0.1341
845.00 0.134
845.10 0.1339
845.20 0.1339
845.30 0.1338
845.40 0.1337
845.50 0.1337
845.60 0.1336
845.70 0.1336
845.80 0.1335
845.90 0.1334
846.00 0.1334
846.10 0.1333
846.20 0.1333
846.30 0.1332
846.40 0.1331
846.50 0.1331
846.60 0.133
846.70 0.133
846.80 0.1329
846.90 0.1328
847.00 0.1328
847.10 0.1327
847.20 0.1326
847.30 0.1326
847.40 0.1325
847.50 0.1325
847.60 0.1324
847.70 0.1323
847.80 0.1323
847.90 0.1322
848.00 0.1322
848.10 0.1321
848.20 0.132
848.30 0.132
848.40 0.1319
848.50 0.1319
848.60 0.1318
848.70 0.1317
848.80 0.1317
848.90 0.1316
849.00 0.1316
849.10 0.1315
849.20 0.1314
849.30 0.1314
849.40 0.1313
849.50 0.1313
849.60 0.1312
849.70 0.1311
849.80 0.1311
849.90 0.131
850.00 0.131
850.10 0.1309
850.20 0.1308
850.30 0.1308
850.40 0.1307
850.50 0.1307
850.60 0.1306
850.70 0.1305
850.80 0.1305
850.90 0.1304
851.00 0.1304
851.10 0.1303
851.20 0.1302
851.30 0.1302
851.40 0.1301
851.50 0.1301
851.60 0.13
851.70 0.13
851.80 0.1299
851.90 0.1298
852.00 0.1298
852.10 0.1297
852.20 0.1297
852.30 0.1296
852.40 0.1295
852.50 0.1295
852.60 0.1294
852.70 0.1294
852.80 0.1293
852.90 0.1292
853.00 0.1292
853.10 0.1291
853.20 0.1291
853.30 0.129
853.40 0.129
853.50 0.1289
853.60 0.1288
853.70 0.1288
853.80 0.1287
853.90 0.1287
854.00 0.1286
854.10 0.1285
854.20 0.1285
854.30 0.1284
854.40 0.1284
854.50 0.1283
854.60 0.1283
854.70 0.1282
854.80 0.1281
854.90 0.1281
855.00 0.128
855.10 0.128
855.20 0.1279
855.30 0.1279
855.40 0.1278
855.50 0.1277
855.60 0.1277
855.70 0.1276
855.80 0.1276
855.90 0.1275
856.00 0.1274
856.10 0.1274
856.20 0.1273
856.30 0.1273
856.40 0.1272
856.50 0.1272
856.60 0.1271
856.70 0.127
856.80 0.127
856.90 0.1269
857.00 0.1269
857.10 0.1268
857.20 0.1268
857.30 0.1267
857.40 0.1266
857.50 0.1266
857.60 0.1265
857.70 0.1265
857.80 0.1264
857.90 0.1264
858.00 0.1263
858.10 0.1263
858.20 0.1262
858.30 0.1261
858.40 0.1261
858.50 0.126
858.60 0.126
858.70 0.1259
858.80 0.1259
858.90 0.1258
859.00 0.1257
859.10 0.1257
859.20 0.1256
859.30 0.1256
859.40 0.1255
859.50 0.1255
859.60 0.1254
859.70 0.1254
859.80 0.1253
859.90 0.1252
860.00 0.1252
860.10 0.1251
860.20 0.1251
860.30 0.125
860.40 0.125
860.50 0.1249
860.60 0.1248
860.70 0.1248
860.80 0.1247
860.90 0.1247
861.00 0.1246
861.10 0.1246
861.20 0.1245
861.30 0.1245
861.40 0.1244
861.50 0.1243
861.60 0.1243
861.70 0.1242
861.80 0.1242
861.90 0.1241
862.00 0.1241
862.10 0.124
862.20 0.124
862.30 0.1239
862.40 0.1238
862.50 0.1238
862.60 0.1237
862.70 0.1237
862.80 0.1236
862.90 0.1236
863.00 0.1235
863.10 0.1235
863.20 0.1234
863.30 0.1234
863.40 0.1233
863.50 0.1232
863.60 0.1232
863.70 0.1231
863.80 0.1231
863.90 0.123
864.00 0.123
864.10 0.1229
864.20 0.1229
864.30 0.1228
864.40 0.1228
864.50 0.1227
864.60 0.1226
864.70 0.1226
864.80 0.1225
864.90 0.1225
865.00 0.1224
865.10 0.1224
865.20 0.1223
865.30 0.1223
865.40 0.1222
865.50 0.1222
865.60 0.1221
865.70 0.1221
865.80 0.122
865.90 0.1219
866.00 0.1219
866.10 0.1218
866.20 0.1218
866.30 0.1217
866.40 0.1217
866.50 0.1216
866.60 0.1216
866.70 0.1215
866.80 0.1215
866.90 0.1214
867.00 0.1214
867.10 0.1213
867.20 0.1212
867.30 0.1212
867.40 0.1211
867.50 0.1211
867.60 0.121
867.70 0.121
867.80 0.1209
867.90 0.1209
868.00 0.1208
868.10 0.1208
868.20 0.1207
868.30 0.1207
868.40 0.1206
868.50 0.1206
868.60 0.1205
868.70 0.1204
868.80 0.1204
868.90 0.1203
869.00 0.1203
869.10 0.1202
869.20 0.1202
869.30 0.1201
869.40 0.1201
869.50 0.12
869.60 0.12
869.70 0.1199
869.80 0.1199
869.90 0.1198
870.00 0.1198
870.10 0.1197
870.20 0.1196
870.30 0.1196
870.40 0.1195
870.50 0.1195
870.60 0.1194
870.70 0.1194
870.80 0.1193
870.90 0.1193
871.00 0.1192
871.10 0.1192
871.20 0.1191
871.30 0.1191
871.40 0.119
871.50 0.119
871.60 0.1189
871.70 0.1189
871.80 0.1188
871.90 0.1188
872.00 0.1187
872.10 0.1186
872.20 0.1186
872.30 0.1185
872.40 0.1185
872.50 0.1184
872.60 0.1184
872.70 0.1183
872.80 0.1183
872.90 0.1182
873.00 0.1182
873.10 0.1181
873.20 0.1181
873.30 0.118
873.40 0.118
873.50 0.1179
873.60 0.1179
873.70 0.1178
873.80 0.1178
873.90 0.1177
874.00 0.1177
874.10 0.1176
874.20 0.1176
874.30 0.1175
874.40 0.1175
874.50 0.1174
874.60 0.1174
874.70 0.1173
874.80 0.1173
874.90 0.1172
875.00 0.1172
875.10 0.1171
875.20 0.1171
875.30 0.117
875.40 0.117
875.50 0.1169
875.60 0.1169
875.70 0.1168
875.80 0.1167
875.90 0.1167
876.00 0.1166
876.10 0.1166
876.20 0.1165
876.30 0.1165
876.40 0.1164
876.50 0.1164
876.60 0.1163
876.70 0.1163
876.80 0.1162
876.90 0.1162
877.00 0.1161
877.10 0.1161
877.20 0.116
877.30 0.116
877.40 0.1159
877.50 0.1159
877.60 0.1158
877.70 0.1158
877.80 0.1157
877.90 0.1157
878.00 0.1156
878.10 0.1156
878.20 0.1155
878.30 0.1155
878.40 0.1154
878.50 0.1154
878.60 0.1153
878.70 0.1153
878.80 0.1152
878.90 0.1152
879.00 0.1151
879.10 0.1151
879.20 0.115
879.30 0.115
879.40 0.1149
879.50 0.1149
879.60 0.1148
879.70 0.1148
879.80 0.1147
879.90 0.1147
880.00 0.1146
880.10 0.1146
880.20 0.1145
880.30 0.1145
880.40 0.1144
880.50 0.1144
880.60 0.1143
880.70 0.1143
880.80 0.1142
880.90 0.1142
881.00 0.1141
881.10 0.1141
881.20 0.114
881.30 0.114
881.40 0.1139
881.50 0.1139
881.60 0.1138
881.70 0.1138
881.80 0.1137
881.90 0.1137
882.00 0.1136
882.10 0.1136
882.20 0.1135
882.30 0.1135
882.40 0.1134
882.50 0.1134
882.60 0.1133
882.70 0.1133
882.80 0.1132
882.90 0.1132
883.00 0.1131
883.10 0.1131
883.20 0.113
883.30 0.113
883.40 0.1129
883.50 0.1129
883.60 0.1128
883.70 0.1128
883.80 0.1127
883.90 0.1127
884.00 0.1126
884.10 0.1126
884.20 0.1125
884.30 0.1125
884.40 0.1124
884.50 0.1124
884.60 0.1123
884.70 0.1123
884.80 0.1122
884.90 0.1122
885.00 0.1121
885.10 0.1121
885.20 0.112
885.30 0.112
885.40 0.1119
885.50 0.1119
885.60 0.1118
885.70 0.1118
885.80 0.1117
885.90 0.1117
886.00 0.1116
886.10 0.1116
886.20 0.1115
886.30 0.1115
886.40 0.1114
886.50 0.1114
886.60 0.1113
886.70 0.1113
886.80 0.1112
886.90 0.1112
887.00 0.1111
887.10 0.1111
887.20 0.111
887.30 0.111
887.40 0.111
887.50 0.1109
887.60 0.1109
887.70 0.1108
887.80 0.1108
887.90 0.1107
888.00 0.1107
888.10 0.1106
888.20 0.1106
888.30 0.1105
888.40 0.1105
888.50 0.1105
888.60 0.1104
888.70 0.1104
888.80 0.1103
888.90 0.1103
889.00 0.1102
889.10 0.1102
889.20 0.1101
889.30 0.1101
889.40 0.1101
889.50 0.11
889.60 0.11
889.70 0.1099
889.80 0.1099
889.90 0.1098
890.00 0.1098
890.10 0.1097
890.20 0.1097
890.30 0.1097
890.40 0.1096
890.50 0.1096
890.60 0.1095
890.70 0.1095
890.80 0.1094
890.90 0.1094
891.00 0.1094
891.10 0.1093
891.20 0.1093
891.30 0.1092
891.40 0.1092
891.50 0.1091
891.60 0.1091
891.70 0.109
891.80 0.109
891.90 0.109
892.00 0.1089
892.10 0.1089
892.20 0.1088
892.30 0.1088
892.40 0.1087
892.50 0.1087
892.60 0.1086
892.70 0.1086
892.80 0.1085
892.90 0.1085
893.00 0.1084
893.10 0.1084
893.20 0.1083
893.30 0.1083
893.40 0.1082
893.50 0.1082
893.60 0.1081
893.70 0.1081
893.80 0.108
893.90 0.108
894.00 0.1079
894.10 0.1079
894.20 0.1078
894.30 0.1078
894.40 0.1077
894.50 0.1077
894.60 0.1076
894.70 0.1076
894.80 0.1075
894.90 0.1075
895.00 0.1074
895.10 0.1074
895.20 0.1073
895.30 0.1073
895.40 0.1072
895.50 0.1072
895.60 0.1071
895.70 0.1071
895.80 0.107
895.90 0.107
896.00 0.1069
896.10 0.1069
896.20 0.1068
896.30 0.1068
896.40 0.1067
896.50 0.1067
896.60 0.1066
896.70 0.1066
896.80 0.1065
896.90 0.1065
897.00 0.1064
897.10 0.1064
897.20 0.1063
897.30 0.1063
897.40 0.1062
897.50 0.1062
897.60 0.1061
897.70 0.1061
897.80 0.106
897.90 0.106
898.00 0.1059
898.10 0.1059
898.20 0.1058
898.30 0.1058
898.40 0.1057
898.50 0.1057
898.60 0.1056
898.70 0.1056
898.80 0.1055
898.90 0.1055
899.00 0.1054
899.10 0.1054
899.20 0.1053
899.30 0.1053
899.40 0.1052
899.50 0.1052
899.60 0.1051
899.70 0.105
899.80 0.105
899.90 0.1049
900.00 0.1049
900.10 0.1048
900.20 0.1048
900.30 0.1047
900.40 0.1047
900.50 0.1046
900.60 0.1046
900.70 0.1045
900.80 0.1045
900.90 0.1044
901.00 0.1044
901.10 0.1043
901.20 0.1043
901.30 0.1042
901.40 0.1042
901.50 0.1041
901.60 0.1041
901.70 0.104
901.80 0.104
901.90 0.1039
902.00 0.1039
902.10 0.1038
902.20 0.1038
902.30 0.1038
902.40 0.1037
902.50 0.1037
902.60 0.1037
902.70 0.1036
902.80 0.1036
902.90 0.1036
903.00 0.1035
903.10 0.1035
903.20 0.1035
903.30 0.1034
903.40 0.1034
903.50 0.1034
903.60 0.1033
903.70 0.1033
903.80 0.1033
903.90 0.1032
904.00 0.1032
904.10 0.1032
904.20 0.1031
904.30 0.1031
904.40 0.1031
904.50 0.103
904.60 0.103
904.70 0.103
904.80 0.1029
904.90 0.1029
905.00 0.1028
905.10 0.1028
905.20 0.1028
905.30 0.1027
905.40 0.1027
905.50 0.1027
905.60 0.1026
905.70 0.1026
905.80 0.1026
905.90 0.1025
906.00 0.1025
906.10 0.1025
906.20 0.1024
906.30 0.1024
906.40 0.1024
906.50 0.1023
906.60 0.1023
906.70 0.1023
906.80 0.1022
906.90 0.1022
907.00 0.1022
907.10 0.1021
907.20 0.1021
907.30 0.1021
907.40 0.102
907.50 0.102
907.60 0.1019
907.70 0.1019
907.80 0.1019
907.90 0.1018
908.00 0.1018
908.10 0.1017
908.20 0.1017
908.30 0.1017
908.40 0.1016
908.50 0.1016
908.60 0.1015
908.70 0.1015
908.80 0.1015
908.90 0.1014
909.00 0.1014
909.10 0.1013
909.20 0.1013
909.30 0.1013
909.40 0.1012
909.50 0.1012
909.60 0.1011
909.70 0.1011
909.80 0.1011
909.90 0.101
910.00 0.101
910.10 0.1009
910.20 0.1009
910.30 0.1009
910.40 0.1008
910.50 0.1008
910.60 0.1007
910.70 0.1007
910.80 0.1007
910.90 0.1006
911.00 0.1006
911.10 0.1005
911.20 0.1005
911.30 0.1005
911.40 0.1004
911.50 0.1004
911.60 0.1003
911.70 0.1003
911.80 0.1003
911.90 0.1002
912.00 0.1002
912.10 0.1001
912.20 0.1001
912.30 0.1
912.40 0.1
912.50 0.09995
912.60 0.0999
912.70 0.09985
912.80 0.0998
912.90 0.09976
913.00 0.09971
913.10 0.09966
913.20 0.09961
913.30 0.09956
913.40 0.09952
913.50 0.09947
913.60 0.09942
913.70 0.09937
913.80 0.09932
913.90 0.09928
914.00 0.09923
914.10 0.09918
914.20 0.09913
914.30 0.09909
914.40 0.09904
914.50 0.09899
914.60 0.09894
914.70 0.09889
914.80 0.09885
914.90 0.0988
915.00 0.09875
915.10 0.0987
915.20 0.09866
915.30 0.09861
915.40 0.09856
915.50 0.09851
915.60 0.09847
915.70 0.09842
915.80 0.09837
915.90 0.09832
916.00 0.09828
916.10 0.09823
916.20 0.09818
916.30 0.09813
916.40 0.09809
916.50 0.09804
916.60 0.09799
916.70 0.09794
916.80 0.0979
916.90 0.09785
917.00 0.0978
917.10 0.09774
917.20 0.09768
917.30 0.09762
917.40 0.09757
917.50 0.09751
917.60 0.09745
917.70 0.09739
917.80 0.09733
917.90 0.09727
918.00 0.09721
918.10 0.09715
918.20 0.09709
918.30 0.09703
918.40 0.09698
918.50 0.09692
918.60 0.09686
918.70 0.0968
918.80 0.09674
918.90 0.09668
919.00 0.09662
919.10 0.09656
919.20 0.09651
919.30 0.09645
919.40 0.09639
919.50 0.09633
919.60 0.09627
919.70 0.09621
919.80 0.09615
919.90 0.09609
920.00 0.09604
920.10 0.09598
920.20 0.09592
920.30 0.09586
920.40 0.0958
920.50 0.09574
920.60 0.09569
920.70 0.09563
920.80 0.09557
920.90 0.09551
921.00 0.09545
921.10 0.09539
921.20 0.09534
921.30 0.09528
921.40 0.09522
921.50 0.09516
921.60 0.0951
921.70 0.09504
921.80 0.09499
921.90 0.09493
922.00 0.09487
922.10 0.09484
922.20 0.09482
922.30 0.09479
922.40 0.09477
922.50 0.09474
922.60 0.09472
922.70 0.09469
922.80 0.09466
922.90 0.09464
923.00 0.09461
923.10 0.09459
923.20 0.09456
923.30 0.09454
923.40 0.09451
923.50 0.09448
923.60 0.09446
923.70 0.09443
923.80 0.09441
923.90 0.09438
924.00 0.09436
924.10 0.09433
924.20 0.09431
924.30 0.09428
924.40 0.09425
924.50 0.09423
924.60 0.0942
924.70 0.09418
924.80 0.09415
924.90 0.09413
925.00 0.0941
925.10 0.09408
925.20 0.09405
925.30 0.09402
925.40 0.094
925.50 0.09397
925.60 0.09395
925.70 0.09392
925.80 0.0939
925.90 0.09387
926.00 0.09385
926.10 0.09382
926.20 0.0938
926.30 0.09377
926.40 0.09374
926.50 0.09372
926.60 0.09369
926.70 0.09367
926.80 0.09364
926.90 0.09362
927.00 0.09359
927.10 0.09356
927.20 0.09354
927.30 0.09351
927.40 0.09348
927.50 0.09345
927.60 0.09343
927.70 0.0934
927.80 0.09337
927.90 0.09334
928.00 0.09332
928.10 0.09329
928.20 0.09326
928.30 0.09324
928.40 0.09321
928.50 0.09318
928.60 0.09315
928.70 0.09313
928.80 0.0931
928.90 0.09307
929.00 0.09304
929.10 0.09302
929.20 0.09299
929.30 0.09296
929.40 0.09293
929.50 0.09291
929.60 0.09288
929.70 0.09285
929.80 0.09283
929.90 0.0928
930.00 0.09277
930.10 0.09274
930.20 0.09272
930.30 0.09269
930.40 0.09266
930.50 0.09264
930.60 0.09261
930.70 0.09258
930.80 0.09255
930.90 0.09253
931.00 0.0925
931.10 0.09247
931.20 0.09245
931.30 0.09242
931.40 0.09239
931.50 0.09236
931.60 0.09234
931.70 0.09231
931.80 0.09228
931.90 0.09226
932.00 0.09223
932.10 0.09219
932.20 0.09216
932.30 0.09213
932.40 0.09209
932.50 0.09206
932.60 0.09203
932.70 0.09199
932.80 0.09196
932.90 0.09193
933.00 0.09189
933.10 0.09186
933.20 0.09183
933.30 0.09179
933.40 0.09176
933.50 0.09172
933.60 0.09169
933.70 0.09166
933.80 0.09162
933.90 0.09159
934.00 0.09156
934.10 0.09152
934.20 0.09149
934.30 0.09146
934.40 0.09142
934.50 0.09139
934.60 0.09135
934.70 0.09131
934.80 0.09128
934.90 0.09124
935.00 0.09121
935.10 0.09117
935.20 0.09114
935.30 0.0911
935.40 0.09106
935.50 0.09103
935.60 0.09099
935.70 0.09096
935.80 0.09092
935.90 0.09089
936.00 0.09085
936.10 0.09081
936.20 0.09078
936.30 0.09074
936.40 0.09071
936.50 0.09067
936.60 0.09064
936.70 0.0906
936.80 0.09057
936.90 0.09053
937.00 0.0905
937.10 0.09046
937.20 0.09042
937.30 0.09038
937.40 0.09035
937.50 0.09031
937.60 0.09027
937.70 0.09024
937.80 0.0902
937.90 0.09016
938.00 0.09013
938.10 0.09009
938.20 0.09005
938.30 0.09002
938.40 0.08998
938.50 0.08994
938.60 0.0899
938.70 0.08987
938.80 0.08983
938.90 0.08979
939.00 0.08975
939.10 0.08971
939.20 0.08968
939.30 0.08964
939.40 0.0896
939.50 0.08956
939.60 0.08953
939.70 0.08949
939.80 0.08945
939.90 0.08941
940.00 0.08938
940.10 0.08934
940.20 0.0893
940.30 0.08926
940.40 0.08922
940.50 0.08919
940.60 0.08915
940.70 0.08911
940.80 0.08907
940.90 0.08903
941.00 0.08899
941.10 0.08895
941.20 0.08891
941.30 0.08888
941.40 0.08884
941.50 0.0888
941.60 0.08876
941.70 0.08872
941.80 0.08868
941.90 0.08864
942.00 0.0886
942.10 0.08857
942.20 0.08853
942.30 0.08849
942.40 0.08845
942.50 0.0884
942.60 0.08836
942.70 0.08832
942.80 0.08828
942.90 0.08824
943.00 0.0882
943.10 0.08816
943.20 0.08812
943.30 0.08808
943.40 0.08804
943.50 0.088
943.60 0.08796
943.70 0.08792
943.80 0.08788
943.90 0.08784
944.00 0.0878
944.10 0.08775
944.20 0.08771
944.30 0.08767
944.40 0.08763
944.50 0.08759
944.60 0.08755
944.70 0.0875
944.80 0.08746
944.90 0.08742
945.00 0.08738
945.10 0.08733
945.20 0.08729
945.30 0.08725
945.40 0.0872
945.50 0.08716
945.60 0.08711
945.70 0.08707
945.80 0.08702
945.90 0.08698
946.00 0.08693
946.10 0.08689
946.20 0.08684
946.30 0.0868
946.40 0.08675
946.50 0.08671
946.60 0.08666
946.70 0.08662
946.80 0.08657
946.90 0.08653
947.00 0.08648
947.10 0.08643
947.20 0.08639
947.30 0.08634
947.40 0.08629
947.50 0.08623
947.60 0.08618
947.70 0.08613
947.80 0.08608
947.90 0.08603
948.00 0.08597
948.10 0.08592
948.20 0.08587
948.30 0.08582
948.40 0.08577
948.50 0.08572
948.60 0.08566
948.70 0.08561
948.80 0.08556
948.90 0.08551
949.00 0.08546
949.10 0.08541
949.20 0.08536
949.30 0.0853
949.40 0.08524
949.50 0.08518
949.60 0.08512
949.70 0.08506
949.80 0.085
949.90 0.08494
950.00 0.08488
950.10 0.08481
950.20 0.08475
950.30 0.08469
950.40 0.08463
950.50 0.08457
950.60 0.08451
950.70 0.08445
950.80 0.08439
950.90 0.08433
951.00 0.08427
951.10 0.0842
951.20 0.08414
951.30 0.08408
951.40 0.08401
951.50 0.08395
951.60 0.08388
951.70 0.08381
951.80 0.08374
951.90 0.08367
952.00 0.0836
952.10 0.08353
952.20 0.08346
952.30 0.08339
952.40 0.08332
952.50 0.08324
952.60 0.08317
952.70 0.0831
952.80 0.08303
952.90 0.08296
953.00 0.08289
953.10 0.08282
953.20 0.08275
953.30 0.08267
953.40 0.0826
953.50 0.08253
953.60 0.08247
953.70 0.08241
953.80 0.08234
953.90 0.08228
954.00 0.08223
954.10 0.08217
954.20 0.08213
954.30 0.08209
954.40 0.08207
954.50 0.08205
954.60 0.08201
954.70 0.08198
954.80 0.08195
954.90 0.08192
955.00 0.08188
955.10 0.08185
955.20 0.08184
955.30 0.08184
955.40 0.08184
955.50 0.08183
955.60 0.08183
955.70 0.08182
955.80 0.08182
955.90 0.08183
956.00 0.08183
956.10 0.08184
956.20 0.08184
956.30 0.08185
956.40 0.08185
956.50 0.08186
956.60 0.08186
956.70 0.08187
956.80 0.08187
956.90 0.08188
957.00 0.08188
957.10 0.08189
957.20 0.08189
957.30 0.08189
957.40 0.08189
957.50 0.08189
957.60 0.08188
957.70 0.08188
957.80 0.08188
957.90 0.08187
958.00 0.08187
958.10 0.08186
958.20 0.08186
958.30 0.08186
958.40 0.08185
958.50 0.08185
958.60 0.08185
958.70 0.08184
958.80 0.08184
958.90 0.08184
959.00 0.08183
959.10 0.08183
959.20 0.08183
959.30 0.08182
959.40 0.08181
959.50 0.08179
959.60 0.08178
959.70 0.08177
959.80 0.08175
959.90 0.08174
960.00 0.08172
960.10 0.08171
960.20 0.08169
960.30 0.08168
960.40 0.08166
960.50 0.08165
960.60 0.08164
960.70 0.08162
960.80 0.08161
960.90 0.08159
961.00 0.08158
961.10 0.08156
961.20 0.08155
961.30 0.08154
961.40 0.08152
961.50 0.0815
961.60 0.08148
961.70 0.08146
961.80 0.08144
961.90 0.08142
962.00 0.0814
962.10 0.08137
962.20 0.08135
962.30 0.08133
962.40 0.08131
962.50 0.08128
962.60 0.08126
962.70 0.08124
962.80 0.08122
962.90 0.08119
963.00 0.08117
963.10 0.08115
963.20 0.08113
963.30 0.0811
963.40 0.08108
963.50 0.08105
963.60 0.08103
963.70 0.081
963.80 0.08098
963.90 0.08095
964.00 0.08093
964.10 0.0809
964.20 0.08088
964.30 0.08085
964.40 0.08083
964.50 0.0808
964.60 0.08077
964.70 0.08074
964.80 0.08072
964.90 0.08069
965.00 0.08066
965.10 0.08064
965.20 0.08061
965.30 0.08058
965.40 0.08055
965.50 0.08053
965.60 0.0805
965.70 0.08047
965.80 0.08045
965.90 0.08042
966.00 0.08039
966.10 0.08036
966.20 0.08034
966.30 0.08031
966.40 0.08028
966.50 0.08025
966.60 0.08022
966.70 0.0802
966.80 0.08017
966.90 0.08014
967.00 0.08011
967.10 0.08008
967.20 0.08005
967.30 0.08002
967.40 0.07999
967.50 0.07997
967.60 0.07994
967.70 0.07991
967.80 0.07988
967.90 0.07985
968.00 0.07982
968.10 0.07979
968.20 0.07976
968.30 0.07973
968.40 0.0797
968.50 0.07967
968.60 0.07964
968.70 0.07961
968.80 0.07958
968.90 0.07955
969.00 0.07952
969.10 0.07949
969.20 0.07946
969.30 0.07943
969.40 0.0794
969.50 0.07937
969.60 0.07934
969.70 0.07931
969.80 0.07929
969.90 0.07926
970.00 0.07923
970.10 0.0792
970.20 0.07917
970.30 0.07914
970.40 0.07911
970.50 0.07908
970.60 0.07905
970.70 0.07902
970.80 0.07899
970.90 0.07895
971.00 0.07892
971.10 0.07889
971.20 0.07886
971.30 0.07883
971.40 0.0788
971.50 0.07877
971.60 0.07874
971.70 0.07871
971.80 0.07868
971.90 0.07865
972.00 0.07862
972.10 0.07859
972.20 0.07856
972.30 0.07853
972.40 0.0785
972.50 0.07847
972.60 0.07844
972.70 0.07841
972.80 0.07838
972.90 0.07835
973.00 0.07832
973.10 0.07829
973.20 0.07826
973.30 0.07823
973.40 0.0782
973.50 0.07817
973.60 0.07814
973.70 0.07811
973.80 0.07808
973.90 0.07804
974.00 0.07801
974.10 0.07798
974.20 0.07795
974.30 0.07792
974.40 0.07789
974.50 0.07786
974.60 0.07783
974.70 0.0778
974.80 0.07777
974.90 0.07774
975.00 0.07771
975.10 0.07768
975.20 0.07765
975.30 0.07762
975.40 0.07759
975.50 0.07756
975.60 0.07753
975.70 0.0775
975.80 0.07747
975.90 0.07744
976.00 0.07741
976.10 0.07738
976.20 0.07734
976.30 0.07731
976.40 0.07728
976.50 0.07725
976.60 0.07722
976.70 0.07719
976.80 0.07716
976.90 0.07713
977.00 0.0771
977.10 0.07707
977.20 0.07704
977.30 0.07701
977.40 0.07698
977.50 0.07695
977.60 0.07692
977.70 0.07689
977.80 0.07686
977.90 0.07683
978.00 0.0768
978.10 0.07677
978.20 0.07674
978.30 0.07671
978.40 0.07668
978.50 0.07665
978.60 0.07662
978.70 0.07658
978.80 0.07655
978.90 0.07652
979.00 0.07649
979.10 0.07646
979.20 0.07643
979.30 0.0764
979.40 0.07637
979.50 0.07634
979.60 0.07631
979.70 0.07628
979.80 0.07625
979.90 0.07622
980.00 0.07619
980.10 0.07616
980.20 0.07613
980.30 0.0761
980.40 0.07607
980.50 0.07604
980.60 0.07601
980.70 0.07598
980.80 0.07595
980.90 0.07592
981.00 0.07589
981.10 0.07586
981.20 0.07583
981.30 0.0758
981.40 0.07577
981.50 0.07574
981.60 0.07571
981.70 0.07568
981.80 0.07565
981.90 0.07562
982.00 0.07559
982.10 0.07556
982.20 0.07553
982.30 0.0755
982.40 0.07547
982.50 0.07544
982.60 0.07541
982.70 0.07538
982.80 0.07535
982.90 0.07532
983.00 0.07529
983.10 0.07526
983.20 0.07523
983.30 0.0752
983.40 0.07517
983.50 0.07514
983.60 0.07511
983.70 0.07508
983.80 0.07505
983.90 0.07502
984.00 0.07499
984.10 0.07496
984.20 0.07493
984.30 0.0749
984.40 0.07487
984.50 0.07484
984.60 0.07481
984.70 0.07478
984.80 0.07475
984.90 0.07472
985.00 0.07469
985.10 0.07466
985.20 0.07463
985.30 0.0746
985.40 0.07457
985.50 0.07454
985.60 0.07451
985.70 0.07448
985.80 0.07445
985.90 0.07442
986.00 0.07439
986.10 0.07436
986.20 0.07433
986.30 0.0743
986.40 0.07427
986.50 0.07424
986.60 0.07421
986.70 0.07418
986.80 0.07415
986.90 0.07412
987.00 0.07409
987.10 0.07406
987.20 0.07402
987.30 0.07399
987.40 0.07396
987.50 0.07393
987.60 0.0739
987.70 0.07387
987.80 0.07384
987.90 0.07381
988.00 0.07378
988.10 0.07375
988.20 0.07372
988.30 0.07369
988.40 0.07366
988.50 0.07363
988.60 0.0736
988.70 0.07357
988.80 0.07354
988.90 0.07351
989.00 0.07348
989.10 0.07345
989.20 0.07342
989.30 0.07339
989.40 0.07336
989.50 0.07333
989.60 0.0733
989.70 0.07327
989.80 0.07324
989.90 0.07321
990.00 0.07318
990.10 0.07314
990.20 0.07311
990.30 0.07308
990.40 0.07305
990.50 0.07302
990.60 0.07299
990.70 0.07296
990.80 0.07293
990.90 0.0729
991.00 0.07287
991.10 0.07284
991.20 0.07281
991.30 0.07278
991.40 0.07274
991.50 0.07271
991.60 0.07268
991.70 0.07265
991.80 0.07262
991.90 0.07259
992.00 0.07256
992.10 0.07253
992.20 0.07249
992.30 0.07246
992.40 0.07243
992.50 0.0724
992.60 0.07237
992.70 0.07234
992.80 0.0723
992.90 0.07227
993.00 0.07224
993.10 0.07221
993.20 0.07217
993.30 0.07214
993.40 0.07211
993.50 0.07207
993.60 0.07204
993.70 0.07201
993.80 0.07198
993.90 0.07194
994.00 0.07191
994.10 0.07188
994.20 0.07185
994.30 0.07181
994.40 0.07178
994.50 0.07175
994.60 0.07172
994.70 0.07168
994.80 0.07165
994.90 0.07161
995.00 0.07158
995.10 0.07154
995.20 0.07151
995.30 0.07147
995.40 0.07144
995.50 0.0714
995.60 0.07137
995.70 0.07133
995.80 0.0713
995.90 0.07126
996.00 0.07122
996.10 0.07119
996.20 0.07115
996.30 0.07111
996.40 0.07107
996.50 0.07104
996.60 0.071
996.70 0.07096
996.80 0.07093
996.90 0.07089
997.00 0.07085
997.10 0.07081
997.20 0.07077
997.30 0.07073
997.40 0.07069
997.50 0.07065
997.60 0.07061
997.70 0.07057
997.80 0.07052
997.90 0.07048
998.00 0.07043
998.10 0.07039
998.20 0.07034
998.30 0.07029
998.40 0.07025
998.50 0.0702
998.60 0.07016
998.70 0.07011
998.80 0.07007
998.90 0.07002
999.00 0.06998
999.10 0.06993
999.20 0.06988
999.30 0.06984
999.40 0.06979
999.50 0.06975
999.60 0.0697
999.70 0.06965
999.80 0.06958
999.90 0.06952
1000.00 0.06946
1000.10 0.0694
1000.20 0.06934
1000.30 0.06928
1000.40 0.06922
1000.50 0.06916
1000.60 0.0691
1000.70 0.06904
1000.80 0.06898
1000.90 0.06892
1001.00 0.06886
1001.10 0.0688
1001.20 0.06874
1001.30 0.06868
1001.40 0.06862
1001.50 0.06856
1001.60 0.0685
1001.70 0.06843
1001.80 0.06836
1001.90 0.06829
1002.00 0.06822
1002.10 0.06814
1002.20 0.06806
1002.30 0.06799
1002.40 0.06791
1002.50 0.06783
1002.60 0.06775
1002.70 0.06767
1002.80 0.06759
1002.90 0.06751
1003.00 0.06743
1003.10 0.06735
1003.20 0.06727
1003.30 0.06719
1003.40 0.0671
1003.50 0.06702
1003.60 0.06693
1003.70 0.06685
1003.80 0.06676
1003.90 0.06669
1004.00 0.06661
1004.10 0.06654
1004.20 0.06646
1004.30 0.06641
1004.40 0.06637
1004.50 0.06634
1004.60 0.06636
1004.70 0.06643
1004.80 0.06654
1004.90 0.06655
1005.00 0.06656
1005.10 0.06647
1005.20 0.06636
1005.30 0.06624
1005.40 0.06613
1005.50 0.06612
1005.60 0.06613
1005.70 0.06615
1005.80 0.06616
1005.90 0.06618
1006.00 0.06619
1006.10 0.06621
1006.20 0.06624
1006.30 0.06627
1006.40 0.0663
1006.50 0.06634
1006.60 0.06637
1006.70 0.0664
1006.80 0.06644
1006.90 0.06647
1007.00 0.0665
1007.10 0.06653
1007.20 0.06656
1007.30 0.06658
1007.40 0.06661
1007.50 0.06664
1007.60 0.06666
1007.70 0.06668
1007.80 0.06669
1007.90 0.0667
1008.00 0.06671
1008.10 0.06673
1008.20 0.06674
1008.30 0.06675
1008.40 0.06676
1008.50 0.06677
1008.60 0.06679
1008.70 0.0668
1008.80 0.06681
1008.90 0.06682
1009.00 0.06683
1009.10 0.06685
1009.20 0.06686
1009.30 0.06687
1009.40 0.06688
1009.50 0.06689
1009.60 0.06691
1009.70 0.06691
1009.80 0.0669
1009.90 0.0669
1010.00 0.06689
1010.10 0.06689
1010.20 0.06688
1010.30 0.06688
1010.40 0.06687
1010.50 0.06687
1010.60 0.06686
1010.70 0.06686
1010.80 0.06685
1010.90 0.06685
1011.00 0.06684
1011.10 0.06684
1011.20 0.06683
1011.30 0.06683
1011.40 0.06682
1011.50 0.06682
1011.60 0.06681
1011.70 0.0668
1011.80 0.06679
1011.90 0.06678
1012.00 0.06677
1012.10 0.06675
1012.20 0.06674
1012.30 0.06672
1012.40 0.06671
1012.50 0.06669
1012.60 0.06668
1012.70 0.06666
1012.80 0.06665
1012.90 0.06663
1013.00 0.06662
1013.10 0.0666
1013.20 0.06659
1013.30 0.06657
1013.40 0.06656
1013.50 0.06654
1013.60 0.06653
1013.70 0.06651
1013.80 0.06649
1013.90 0.06647
1014.00 0.06645
1014.10 0.06644
1014.20 0.06642
1014.30 0.0664
1014.40 0.06638
1014.50 0.06636
1014.60 0.06634
1014.70 0.06632
1014.80 0.0663
1014.90 0.06628
1015.00 0.06626
1015.10 0.06624
1015.20 0.06622
1015.30 0.0662
1015.40 0.06618
1015.50 0.06616
1015.60 0.06614
1015.70 0.06612
1015.80 0.0661
1015.90 0.06608
1016.00 0.06606
1016.10 0.06603
1016.20 0.06601
1016.30 0.06599
1016.40 0.06597
1016.50 0.06595
1016.60 0.06593
1016.70 0.06591
1016.80 0.06589
1016.90 0.06587
1017.00 0.06584
1017.10 0.06582
1017.20 0.0658
1017.30 0.06578
1017.40 0.06575
1017.50 0.06573
1017.60 0.06571
1017.70 0.06569
1017.80 0.06567
1017.90 0.06564
1018.00 0.06562
1018.10 0.0656
1018.20 0.06558
1018.30 0.06555
1018.40 0.06553
1018.50 0.06551
1018.60 0.06549
1018.70 0.06546
1018.80 0.06544
1018.90 0.06542
1019.00 0.06539
1019.10 0.06537
1019.20 0.06535
1019.30 0.06532
1019.40 0.0653
1019.50 0.06528
1019.60 0.06525
1019.70 0.06523
1019.80 0.06521
1019.90 0.06518
1020.00 0.06516
1020.10 0.06514
1020.20 0.06511
1020.30 0.06509
1020.40 0.06507
1020.50 0.06505
1020.60 0.06502
1020.70 0.065
1020.80 0.06498
1020.90 0.06495
1021.00 0.06493
1021.10 0.0649
1021.20 0.06488
1021.30 0.06486
1021.40 0.06483
1021.50 0.06481
1021.60 0.06479
1021.70 0.06476
1021.80 0.06474
1021.90 0.06472
1022.00 0.06469
1022.10 0.06467
1022.20 0.06465
1022.30 0.06462
1022.40 0.0646
1022.50 0.06457
1022.60 0.06455
1022.70 0.06453
1022.80 0.0645
1022.90 0.06448
1023.00 0.06446
1023.10 0.06443
1023.20 0.06441
1023.30 0.06439
1023.40 0.06436
1023.50 0.06434
1023.60 0.06431
1023.70 0.06429
1023.80 0.06427
1023.90 0.06424
1024.00 0.06422
1024.10 0.0642
1024.20 0.06417
1024.30 0.06415
1024.40 0.06413
1024.50 0.0641
1024.60 0.06408
1024.70 0.06405
1024.80 0.06403
1024.90 0.06401
1025.00 0.06398
1025.10 0.06396
1025.20 0.06394
1025.30 0.06391
1025.40 0.06389
1025.50 0.06386
1025.60 0.06384
1025.70 0.06382
1025.80 0.06379
1025.90 0.06377
1026.00 0.06375
1026.10 0.06372
1026.20 0.0637
1026.30 0.06368
1026.40 0.06365
1026.50 0.06363
1026.60 0.0636
1026.70 0.06358
1026.80 0.06356
1026.90 0.06353
1027.00 0.06351
1027.10 0.06349
1027.20 0.06346
1027.30 0.06344
1027.40 0.06342
1027.50 0.06339
1027.60 0.06337
1027.70 0.06335
1027.80 0.06332
1027.90 0.0633
1028.00 0.06327
1028.10 0.06325
1028.20 0.06323
1028.30 0.0632
1028.40 0.06318
1028.50 0.06316
1028.60 0.06313
1028.70 0.06311
1028.80 0.06309
1028.90 0.06306
1029.00 0.06304
1029.10 0.06302
1029.20 0.06299
1029.30 0.06297
1029.40 0.06294
1029.50 0.06292
1029.60 0.0629
1029.70 0.06287
1029.80 0.06285
1029.90 0.06283
1030.00 0.0628
1030.10 0.06278
1030.20 0.06276
1030.30 0.06273
1030.40 0.06271
1030.50 0.06269
1030.60 0.06266
1030.70 0.06264
1030.80 0.06262
1030.90 0.06259
1031.00 0.06257
1031.10 0.06255
1031.20 0.06252
1031.30 0.0625
1031.40 0.06248
1031.50 0.06245
1031.60 0.06243
1031.70 0.06241
1031.80 0.06238
1031.90 0.06236
1032.00 0.06234
1032.10 0.06231
1032.20 0.06229
1032.30 0.06227
1032.40 0.06224
1032.50 0.06222
1032.60 0.0622
1032.70 0.06217
1032.80 0.06215
1032.90 0.06213
1033.00 0.06211
1033.10 0.06208
1033.20 0.06206
1033.30 0.06204
1033.40 0.06201
1033.50 0.06199
1033.60 0.06197
1033.70 0.06194
1033.80 0.06192
1033.90 0.0619
1034.00 0.06187
1034.10 0.06185
1034.20 0.06183
1034.30 0.0618
1034.40 0.06178
1034.50 0.06176
1034.60 0.06174
1034.70 0.06171
1034.80 0.06169
1034.90 0.06167
1035.00 0.06164
1035.10 0.06162
1035.20 0.0616
1035.30 0.06157
1035.40 0.06155
1035.50 0.06153
1035.60 0.0615
1035.70 0.06148
1035.80 0.06146
1035.90 0.06144
1036.00 0.06141
1036.10 0.06139
1036.20 0.06137
1036.30 0.06134
1036.40 0.06132
1036.50 0.0613
1036.60 0.06128
1036.70 0.06125
1036.80 0.06123
1036.90 0.06121
1037.00 0.06118
1037.10 0.06116
1037.20 0.06114
1037.30 0.06112
1037.40 0.06109
1037.50 0.06107
1037.60 0.06105
1037.70 0.06102
1037.80 0.061
1037.90 0.06098
1038.00 0.06096
1038.10 0.06093
1038.20 0.06091
1038.30 0.06089
1038.40 0.06087
1038.50 0.06084
1038.60 0.06082
1038.70 0.0608
1038.80 0.06078
1038.90 0.06075
1039.00 0.06073
1039.10 0.06071
1039.20 0.06068
1039.30 0.06066
1039.40 0.06064
1039.50 0.06062
1039.60 0.06059
1039.70 0.06057
1039.80 0.06055
1039.90 0.06053
1040.00 0.0605
1040.10 0.06048
1040.20 0.06046
1040.30 0.06044
1040.40 0.06041
1040.50 0.06039
1040.60 0.06037
1040.70 0.06035
1040.80 0.06032
1040.90 0.0603
1041.00 0.06028
1041.10 0.06026
1041.20 0.06023
1041.30 0.06021
1041.40 0.06019
1041.50 0.06017
1041.60 0.06014
1041.70 0.06012
1041.80 0.0601
1041.90 0.06008
1042.00 0.06005
1042.10 0.06003
1042.20 0.06001
1042.30 0.05999
1042.40 0.05997
1042.50 0.05994
1042.60 0.05992
1042.70 0.0599
1042.80 0.05988
1042.90 0.05985
1043.00 0.05983
1043.10 0.05981
1043.20 0.05979
1043.30 0.05977
1043.40 0.05974
1043.50 0.05972
1043.60 0.0597
1043.70 0.05968
1043.80 0.05965
1043.90 0.05963
1044.00 0.05961
1044.10 0.05959
1044.20 0.05957
1044.30 0.05954
1044.40 0.05952
1044.50 0.0595
1044.60 0.05948
1044.70 0.05945
1044.80 0.05943
1044.90 0.05941
1045.00 0.05939
1045.10 0.05937
1045.20 0.05934
1045.30 0.05932
1045.40 0.0593
1045.50 0.05928
1045.60 0.05926
1045.70 0.05923
1045.80 0.05921
1045.90 0.05919
1046.00 0.05917
1046.10 0.05915
1046.20 0.05912
1046.30 0.0591
1046.40 0.05908
1046.50 0.05906
1046.60 0.05904
1046.70 0.05901
1046.80 0.05899
1046.90 0.05897
1047.00 0.05895
1047.10 0.05893
1047.20 0.0589
1047.30 0.05888
1047.40 0.05886
1047.50 0.05884
1047.60 0.05882
1047.70 0.0588
1047.80 0.05877
1047.90 0.05875
1048.00 0.05873
1048.10 0.05871
1048.20 0.05869
1048.30 0.05867
1048.40 0.05864
1048.50 0.05862
1048.60 0.0586
1048.70 0.05858
1048.80 0.05856
1048.90 0.05854
1049.00 0.05851
1049.10 0.05849
1049.20 0.05847
1049.30 0.05845
1049.40 0.05843
1049.50 0.05841
1049.60 0.05838
1049.70 0.05836
1049.80 0.05834
1049.90 0.05832
1050.00 0.0583
1050.10 0.05828
1050.20 0.05825
1050.30 0.05823
1050.40 0.05821
1050.50 0.05819
1050.60 0.05817
1050.70 0.05815
1050.80 0.05812
1050.90 0.0581
1051.00 0.05808
1051.10 0.05806
1051.20 0.05804
1051.30 0.05802
1051.40 0.058
1051.50 0.05797
1051.60 0.05795
1051.70 0.05793
1051.80 0.05791
1051.90 0.05789
1052.00 0.05787
1052.10 0.05785
1052.20 0.05782
1052.30 0.0578
1052.40 0.05778
1052.50 0.05776
1052.60 0.05774
1052.70 0.05772
1052.80 0.0577
1052.90 0.05767
1053.00 0.05765
1053.10 0.05763
1053.20 0.05761
1053.30 0.05759
1053.40 0.05757
1053.50 0.05755
1053.60 0.05753
1053.70 0.0575
1053.80 0.05748
1053.90 0.05746
1054.00 0.05744
1054.10 0.05742
1054.20 0.0574
1054.30 0.05738
1054.40 0.05736
1054.50 0.05734
1054.60 0.05731
1054.70 0.05729
1054.80 0.05727
1054.90 0.05725
1055.00 0.05723
1055.10 0.05721
1055.20 0.05719
1055.30 0.05717
1055.40 0.05714
1055.50 0.05712
1055.60 0.0571
1055.70 0.05708
1055.80 0.05706
1055.90 0.05704
1056.00 0.05702
1056.10 0.057
1056.20 0.05698
1056.30 0.05696
1056.40 0.05693
1056.50 0.05691
1056.60 0.05689
1056.70 0.05687
1056.80 0.05685
1056.90 0.05683
1057.00 0.05681
1057.10 0.05679
1057.20 0.05677
1057.30 0.05675
1057.40 0.05672
1057.50 0.0567
1057.60 0.05668
1057.70 0.05666
1057.80 0.05664
1057.90 0.05662
1058.00 0.0566
1058.10 0.05658
1058.20 0.05656
1058.30 0.05654
1058.40 0.05652
1058.50 0.0565
1058.60 0.05647
1058.70 0.05645
1058.80 0.05643
1058.90 0.05641
1059.00 0.05639
1059.10 0.05637
1059.20 0.05635
1059.30 0.05633
1059.40 0.05631
1059.50 0.05629
1059.60 0.05627
1059.70 0.05625
1059.80 0.05623
1059.90 0.0562
1060.00 0.05618
1060.10 0.05616
1060.20 0.05614
1060.30 0.05612
1060.40 0.0561
1060.50 0.05608
1060.60 0.05606
1060.70 0.05604
1060.80 0.05602
1060.90 0.056
1061.00 0.05598
1061.10 0.05596
1061.20 0.05594
1061.30 0.05592
1061.40 0.0559
1061.50 0.05587
1061.60 0.05585
1061.70 0.05583
1061.80 0.05581
1061.90 0.05579
1062.00 0.05577
1062.10 0.05575
1062.20 0.05573
1062.30 0.05571
1062.40 0.05569
1062.50 0.05567
1062.60 0.05565
1062.70 0.05563
1062.80 0.05561
1062.90 0.05559
1063.00 0.05557
1063.10 0.05555
1063.20 0.05553
1063.30 0.05551
1063.40 0.05549
1063.50 0.05546
1063.60 0.05544
1063.70 0.05542
1063.80 0.0554
1063.90 0.05538
1064.00 0.05536
1064.10 0.05534
1064.20 0.05532
1064.30 0.0553
1064.40 0.05528
1064.50 0.05526
1064.60 0.05524
1064.70 0.05522
1064.80 0.0552
1064.90 0.05518
1065.00 0.05516
1065.10 0.05514
1065.20 0.05512
1065.30 0.0551
1065.40 0.05508
1065.50 0.05506
1065.60 0.05504
1065.70 0.05502
1065.80 0.055
1065.90 0.05498
1066.00 0.05496
1066.10 0.05494
1066.20 0.05492
1066.30 0.0549
1066.40 0.05488
1066.50 0.05486
1066.60 0.05484
1066.70 0.05482
1066.80 0.0548
1066.90 0.05478
1067.00 0.05475
1067.10 0.05473
1067.20 0.05471
1067.30 0.05469
1067.40 0.05467
1067.50 0.05465
1067.60 0.05463
1067.70 0.05461
1067.80 0.05459
1067.90 0.05457
1068.00 0.05455
1068.10 0.05453
1068.20 0.05451
1068.30 0.05449
1068.40 0.05447
1068.50 0.05445
1068.60 0.05443
1068.70 0.05441
1068.80 0.05439
1068.90 0.05437
1069.00 0.05435
1069.10 0.05433
1069.20 0.05431
1069.30 0.05429
1069.40 0.05427
1069.50 0.05425
1069.60 0.05423
1069.70 0.05421
1069.80 0.05419
1069.90 0.05417
1070.00 0.05415
1070.10 0.05413
1070.20 0.05411
1070.30 0.05409
1070.40 0.05407
1070.50 0.05405
1070.60 0.05403
1070.70 0.05401
1070.80 0.05399
1070.90 0.05397
1071.00 0.05395
1071.10 0.05393
1071.20 0.05391
1071.30 0.05389
1071.40 0.05387
1071.50 0.05385
1071.60 0.05383
1071.70 0.05381
1071.80 0.05379
1071.90 0.05377
1072.00 0.05375
1072.10 0.05373
1072.20 0.05371
1072.30 0.05369
1072.40 0.05367
1072.50 0.05365
1072.60 0.05364
1072.70 0.05362
1072.80 0.0536
1072.90 0.05358
1073.00 0.05356
1073.10 0.05354
1073.20 0.05352
1073.30 0.0535
1073.40 0.05348
1073.50 0.05346
1073.60 0.05344
1073.70 0.05342
1073.80 0.0534
1073.90 0.05338
1074.00 0.05336
1074.10 0.05334
1074.20 0.05332
1074.30 0.0533
1074.40 0.05328
1074.50 0.05326
1074.60 0.05324
1074.70 0.05322
1074.80 0.0532
1074.90 0.05318
1075.00 0.05316
1075.10 0.05314
1075.20 0.05312
1075.30 0.0531
1075.40 0.05308
1075.50 0.05306
1075.60 0.05304
1075.70 0.05302
1075.80 0.053
1075.90 0.05298
1076.00 0.05296
1076.10 0.05294
1076.20 0.05292
1076.30 0.0529
1076.40 0.05288
1076.50 0.05286
1076.60 0.05284
1076.70 0.05282
1076.80 0.0528
1076.90 0.05278
1077.00 0.05276
1077.10 0.05274
1077.20 0.05272
1077.30 0.0527
1077.40 0.05268
1077.50 0.05266
1077.60 0.05264
1077.70 0.05262
1077.80 0.0526
1077.90 0.05258
1078.00 0.05256
1078.10 0.05254
1078.20 0.05252
1078.30 0.0525
1078.40 0.05248
1078.50 0.05246
1078.60 0.05244
1078.70 0.05242
1078.80 0.0524
1078.90 0.05238
1079.00 0.05236
1079.10 0.05234
1079.20 0.05232
1079.30 0.0523
1079.40 0.05228
1079.50 0.05225
1079.60 0.05223
1079.70 0.05221
1079.80 0.05219
1079.90 0.05217
1080.00 0.05215
1080.10 0.05213
1080.20 0.05211
1080.30 0.05209
1080.40 0.05207
1080.50 0.05205
1080.60 0.05203
1080.70 0.05201
1080.80 0.05199
1080.90 0.05196
1081.00 0.05194
1081.10 0.05192
1081.20 0.0519
1081.30 0.05188
1081.40 0.05186
1081.50 0.05184
1081.60 0.05182
1081.70 0.0518
1081.80 0.05178
1081.90 0.05175
1082.00 0.05173
1082.10 0.05171
1082.20 0.05169
1082.30 0.05167
1082.40 0.05165
1082.50 0.05162
1082.60 0.0516
1082.70 0.05158
1082.80 0.05156
1082.90 0.05154
1083.00 0.05151
1083.10 0.05149
1083.20 0.05147
1083.30 0.05145
1083.40 0.05143
1083.50 0.0514
1083.60 0.05138
1083.70 0.05136
1083.80 0.05133
1083.90 0.05131
1084.00 0.05129
1084.10 0.05126
1084.20 0.05124
1084.30 0.05122
1084.40 0.05119
1084.50 0.05117
1084.60 0.05114
1084.70 0.05112
1084.80 0.05109
1084.90 0.05107
1085.00 0.05104
1085.10 0.05101
1085.20 0.05099
1085.30 0.05096
1085.40 0.05094
1085.50 0.05091
1085.60 0.05088
1085.70 0.05086
1085.80 0.05083
1085.90 0.05081
1086.00 0.05078
1086.10 0.05075
1086.20 0.05073
1086.30 0.0507
1086.40 0.05068
1086.50 0.05065
1086.60 0.05062
1086.70 0.05059
1086.80 0.05056
1086.90 0.05053
1087.00 0.0505
1087.10 0.05047
1087.20 0.05043
1087.30 0.0504
1087.40 0.05037
1087.50 0.05033
1087.60 0.0503
1087.70 0.05027
1087.80 0.05023
1087.90 0.0502
1088.00 0.05016
1088.10 0.05013
1088.20 0.0501
1088.30 0.05006
1088.40 0.05003
1088.50 0.04999
1088.60 0.04995
1088.70 0.0499
1088.80 0.04985
1088.90 0.04981
1089.00 0.04976
1089.10 0.04972
1089.20 0.04967
1089.30 0.04963
1089.40 0.04958
1089.50 0.04953
1089.60 0.04949
1089.70 0.04944
1089.80 0.0494
1089.90 0.04935
1090.00 0.04931
1090.10 0.04926
1090.20 0.04921
1090.30 0.04917
1090.40 0.04912
1090.50 0.04907
1090.60 0.04901
1090.70 0.04895
1090.80 0.04888
1090.90 0.04882
1091.00 0.04876
1091.10 0.04869
1091.20 0.04863
1091.30 0.04857
1091.40 0.0485
1091.50 0.04844
1091.60 0.04838
1091.70 0.04832
1091.80 0.04825
1091.90 0.04819
1092.00 0.04813
1092.10 0.04806
1092.20 0.04799
1092.30 0.04792
1092.40 0.04785
1092.50 0.04778
1092.60 0.04771
1092.70 0.04764
1092.80 0.04759
1092.90 0.04753
1093.00 0.04747
1093.10 0.04742
1093.20 0.0474
1093.30 0.04737
1093.40 0.04738
1093.50 0.04743
1093.60 0.04754
1093.70 0.04763
1093.80 0.0477
1093.90 0.0477
1094.00 0.04757
1094.10 0.04744
1094.20 0.04731
1094.30 0.04723
1094.40 0.04724
1094.50 0.04725
1094.60 0.04726
1094.70 0.04727
1094.80 0.04728
1094.90 0.04729
1095.00 0.04731
1095.10 0.04734
1095.20 0.04737
1095.30 0.04741
1095.40 0.04744
1095.50 0.04747
1095.60 0.04751
1095.70 0.04754
1095.80 0.04758
1095.90 0.04761
1096.00 0.04764
1096.10 0.04768
1096.20 0.04771
1096.30 0.04774
1096.40 0.04778
1096.50 0.04781
1096.60 0.04783
1096.70 0.04786
1096.80 0.04788
1096.90 0.04791
1097.00 0.04793
1097.10 0.04795
1097.20 0.04796
1097.30 0.04797
1097.40 0.04799
1097.50 0.048
1097.60 0.04802
1097.70 0.04803
1097.80 0.04804
1097.90 0.04806
1098.00 0.04807
1098.10 0.04809
1098.20 0.0481
1098.30 0.04811
1098.40 0.04813
1098.50 0.04814
1098.60 0.04814
1098.70 0.04814
1098.80 0.04814
1098.90 0.04814
1099.00 0.04814
1099.10 0.04814
1099.20 0.04814
1099.30 0.04814
1099.40 0.04814
1099.50 0.04814
1099.60 0.04814
1099.70 0.04814
1099.80 0.04814
1099.90 0.04814
1100.00 0.04814
1100.10 0.04814
1100.20 0.04814
1100.30 0.04814
1100.40 0.04815
1100.50 0.04814
1100.60 0.04814
1100.70 0.04813
1100.80 0.04812
1100.90 0.04811
1101.00 0.04811
1101.10 0.0481
1101.20 0.04809
1101.30 0.04808
1101.40 0.04808
1101.50 0.04807
1101.60 0.04806
1101.70 0.04805
1101.80 0.04805
1101.90 0.04804
1102.00 0.04803
1102.10 0.04802
1102.20 0.04801
1102.30 0.048
1102.40 0.04799
1102.50 0.04798
1102.60 0.04797
1102.70 0.04796
1102.80 0.04794
1102.90 0.04793
1103.00 0.04792
1103.10 0.04791
1103.20 0.0479
1103.30 0.04789
1103.40 0.04788
1103.50 0.04786
1103.60 0.04785
1103.70 0.04784
1103.80 0.04782
1103.90 0.04781
1104.00 0.0478
1104.10 0.04778
1104.20 0.04777
1104.30 0.04776
1104.40 0.04774
1104.50 0.04773
1104.60 0.04772
1104.70 0.0477
1104.80 0.04769
1104.90 0.04768
1105.00 0.04766
1105.10 0.04765
1105.20 0.04764
1105.30 0.04762
1105.40 0.04761
1105.50 0.0476
1105.60 0.04758
1105.70 0.04757
1105.80 0.04755
1105.90 0.04754
1106.00 0.04752
1106.10 0.04751
1106.20 0.0475
1106.30 0.04748
1106.40 0.04747
1106.50 0.04745
1106.60 0.04744
1106.70 0.04742
1106.80 0.04741
1106.90 0.04739
1107.00 0.04738
1107.10 0.04736
1107.20 0.04735
1107.30 0.04733
1107.40 0.04732
1107.50 0.0473
1107.60 0.04729
1107.70 0.04727
1107.80 0.04726
1107.90 0.04724
1108.00 0.04723
1108.10 0.04721
1108.20 0.0472
1108.30 0.04718
1108.40 0.04717
1108.50 0.04715
1108.60 0.04714
1108.70 0.04712
1108.80 0.0471
1108.90 0.04709
1109.00 0.04707
1109.10 0.04706
1109.20 0.04704
1109.30 0.04703
1109.40 0.04701
1109.50 0.047
1109.60 0.04698
1109.70 0.04697
1109.80 0.04695
1109.90 0.04694
1110.00 0.04692
1110.10 0.0469
1110.20 0.04689
1110.30 0.04687
1110.40 0.04686
1110.50 0.04684
1110.60 0.04683
1110.70 0.04681
1110.80 0.04679
1110.90 0.04678
1111.00 0.04676
1111.10 0.04675
1111.20 0.04673
1111.30 0.04672
1111.40 0.0467
1111.50 0.04669
1111.60 0.04667
1111.70 0.04665
1111.80 0.04664
1111.90 0.04662
1112.00 0.04661
1112.10 0.04659
1112.20 0.04658
1112.30 0.04656
1112.40 0.04654
1112.50 0.04653
1112.60 0.04651
1112.70 0.0465
1112.80 0.04648
1112.90 0.04647
1113.00 0.04645
1113.10 0.04643
1113.20 0.04642
1113.30 0.0464
1113.40 0.04639
1113.50 0.04637
1113.60 0.04636
1113.70 0.04634
1113.80 0.04632
1113.90 0.04631
1114.00 0.04629
1114.10 0.04628
1114.20 0.04626
1114.30 0.04624
1114.40 0.04623
1114.50 0.04621
1114.60 0.0462
1114.70 0.04618
1114.80 0.04617
1114.90 0.04615
1115.00 0.04613
1115.10 0.04612
1115.20 0.0461
1115.30 0.04609
1115.40 0.04607
1115.50 0.04606
1115.60 0.04604
1115.70 0.04602
1115.80 0.04601
1115.90 0.04599
1116.00 0.04598
1116.10 0.04596
1116.20 0.04595
1116.30 0.04593
1116.40 0.04591
1116.50 0.0459
1116.60 0.04588
1116.70 0.04587
1116.80 0.04585
1116.90 0.04584
1117.00 0.04582
1117.10 0.0458
1117.20 0.04579
1117.30 0.04577
1117.40 0.04576
1117.50 0.04574
1117.60 0.04573
1117.70 0.04571
1117.80 0.04569
1117.90 0.04568
1118.00 0.04566
1118.10 0.04565
1118.20 0.04563
1118.30 0.04562
1118.40 0.0456
1118.50 0.04558
1118.60 0.04557
1118.70 0.04555
1118.80 0.04554
1118.90 0.04552
1119.00 0.04551
1119.10 0.04549
1119.20 0.04548
1119.30 0.04546
1119.40 0.04544
1119.50 0.04543
1119.60 0.04541
1119.70 0.0454
1119.80 0.04538
1119.90 0.04537
1120.00 0.04535
1120.10 0.04533
1120.20 0.04532
1120.30 0.0453
1120.40 0.04529
1120.50 0.04527
1120.60 0.04526
1120.70 0.04524
1120.80 0.04523
1120.90 0.04521
1121.00 0.04519
1121.10 0.04518
1121.20 0.04516
1121.30 0.04515
1121.40 0.04513
1121.50 0.04512
1121.60 0.0451
1121.70 0.04509
1121.80 0.04507
1121.90 0.04506
1122.00 0.04504
1122.10 0.04502
1122.20 0.04501
1122.30 0.04499
1122.40 0.04498
1122.50 0.04496
1122.60 0.04495
1122.70 0.04493
1122.80 0.04492
1122.90 0.0449
1123.00 0.04488
1123.10 0.04487
1123.20 0.04485
1123.30 0.04484
1123.40 0.04482
1123.50 0.04481
1123.60 0.04479
1123.70 0.04478
1123.80 0.04476
1123.90 0.04475
1124.00 0.04473
1124.10 0.04472
1124.20 0.0447
1124.30 0.04468
1124.40 0.04467
1124.50 0.04465
1124.60 0.04464
1124.70 0.04462
1124.80 0.04461
1124.90 0.04459
1125.00 0.04458
1125.10 0.04456
1125.20 0.04455
1125.30 0.04453
1125.40 0.04452
1125.50 0.0445
1125.60 0.04449
1125.70 0.04447
1125.80 0.04445
1125.90 0.04444
1126.00 0.04442
1126.10 0.04441
1126.20 0.04439
1126.30 0.04438
1126.40 0.04436
1126.50 0.04435
1126.60 0.04433
1126.70 0.04432
1126.80 0.0443
1126.90 0.04429
1127.00 0.04427
1127.10 0.04426
1127.20 0.04424
1127.30 0.04423
1127.40 0.04421
1127.50 0.0442
1127.60 0.04418
1127.70 0.04417
1127.80 0.04415
1127.90 0.04413
1128.00 0.04412
1128.10 0.0441
1128.20 0.04409
1128.30 0.04407
1128.40 0.04406
1128.50 0.04404
1128.60 0.04403
1128.70 0.04401
1128.80 0.044
1128.90 0.04398
1129.00 0.04397
1129.10 0.04395
1129.20 0.04394
1129.30 0.04392
1129.40 0.04391
1129.50 0.04389
1129.60 0.04388
1129.70 0.04386
1129.80 0.04385
1129.90 0.04383
1130.00 0.04382
1130.10 0.0438
1130.20 0.04379
1130.30 0.04377
1130.40 0.04376
1130.50 0.04374
1130.60 0.04373
1130.70 0.04371
1130.80 0.0437
1130.90 0.04368
1131.00 0.04367
1131.10 0.04365
1131.20 0.04364
1131.30 0.04362
1131.40 0.04361
1131.50 0.04359
1131.60 0.04358
1131.70 0.04356
1131.80 0.04355
1131.90 0.04353
1132.00 0.04352
1132.10 0.0435
1132.20 0.04349
1132.30 0.04347
1132.40 0.04346
1132.50 0.04344
1132.60 0.04343
1132.70 0.04341
1132.80 0.0434
1132.90 0.04338
1133.00 0.04337
1133.10 0.04335
1133.20 0.04334
1133.30 0.04332
1133.40 0.04331
1133.50 0.04329
1133.60 0.04328
1133.70 0.04327
1133.80 0.04325
1133.90 0.04324
1134.00 0.04322
1134.10 0.04321
1134.20 0.04319
1134.30 0.04318
1134.40 0.04316
1134.50 0.04315
1134.60 0.04313
1134.70 0.04312
1134.80 0.0431
1134.90 0.04309
1135.00 0.04307
1135.10 0.04306
1135.20 0.04304
1135.30 0.04303
1135.40 0.04301
1135.50 0.043
1135.60 0.04298
1135.70 0.04297
1135.80 0.04296
1135.90 0.04294
1136.00 0.04293
1136.10 0.04291
1136.20 0.0429
1136.30 0.04288
1136.40 0.04287
1136.50 0.04285
1136.60 0.04284
1136.70 0.04282
1136.80 0.04281
1136.90 0.04279
1137.00 0.04278
1137.10 0.04276
1137.20 0.04275
1137.30 0.04274
1137.40 0.04272
1137.50 0.04271
1137.60 0.04269
1137.70 0.04268
1137.80 0.04266
1137.90 0.04265
1138.00 0.04263
1138.10 0.04262
1138.20 0.0426
1138.30 0.04259
1138.40 0.04258
1138.50 0.04256
1138.60 0.04255
1138.70 0.04253
1138.80 0.04252
1138.90 0.0425
1139.00 0.04249
1139.10 0.04247
1139.20 0.04246
1139.30 0.04245
1139.40 0.04243
1139.50 0.04242
1139.60 0.0424
1139.70 0.04239
1139.80 0.04237
1139.90 0.04236
1140.00 0.04234
1140.10 0.04233
1140.20 0.04231
1140.30 0.0423
1140.40 0.04229
1140.50 0.04227
1140.60 0.04226
1140.70 0.04224
1140.80 0.04223
1140.90 0.04221
1141.00 0.0422
1141.10 0.04219
1141.20 0.04217
1141.30 0.04216
1141.40 0.04214
1141.50 0.04213
1141.60 0.04211
1141.70 0.0421
1141.80 0.04208
1141.90 0.04207
1142.00 0.04206
1142.10 0.04204
1142.20 0.04203
1142.30 0.04201
1142.40 0.042
1142.50 0.04198
1142.60 0.04197
1142.70 0.04196
1142.80 0.04194
1142.90 0.04193
1143.00 0.04191
1143.10 0.0419
1143.20 0.04188
1143.30 0.04187
1143.40 0.04186
1143.50 0.04184
1143.60 0.04183
1143.70 0.04181
1143.80 0.0418
1143.90 0.04179
1144.00 0.04177
1144.10 0.04176
1144.20 0.04174
1144.30 0.04173
1144.40 0.04171
1144.50 0.0417
1144.60 0.04169
1144.70 0.04167
1144.80 0.04166
1144.90 0.04164
1145.00 0.04163
1145.10 0.04162
1145.20 0.0416
1145.30 0.04159
1145.40 0.04157
1145.50 0.04156
1145.60 0.04154
1145.70 0.04153
1145.80 0.04152
1145.90 0.0415
1146.00 0.04149
1146.10 0.04147
1146.20 0.04146
1146.30 0.04145
1146.40 0.04143
1146.50 0.04142
1146.60 0.0414
1146.70 0.04139
1146.80 0.04138
1146.90 0.04136
1147.00 0.04135
1147.10 0.04133
1147.20 0.04132
1147.30 0.04131
1147.40 0.04129
1147.50 0.04128
1147.60 0.04126
1147.70 0.04125
1147.80 0.04124
1147.90 0.04122
1148.00 0.04121
1148.10 0.04119
1148.20 0.04118
1148.30 0.04117
1148.40 0.04115
1148.50 0.04114
1148.60 0.04112
1148.70 0.04111
1148.80 0.0411
1148.90 0.04108
1149.00 0.04107
1149.10 0.04105
1149.20 0.04104
1149.30 0.04103
1149.40 0.04101
1149.50 0.041
1149.60 0.04099
1149.70 0.04097
1149.80 0.04096
1149.90 0.04094
1150.00 0.04093
1150.10 0.04092
1150.20 0.0409
1150.30 0.04089
1150.40 0.04087
1150.50 0.04086
1150.60 0.04085
1150.70 0.04083
1150.80 0.04082
1150.90 0.04081
1151.00 0.04079
1151.10 0.04078
1151.20 0.04076
1151.30 0.04075
1151.40 0.04074
1151.50 0.04072
1151.60 0.04071
1151.70 0.04069
1151.80 0.04068
1151.90 0.04067
1152.00 0.04065
1152.10 0.04064
1152.20 0.04063
1152.30 0.04061
1152.40 0.0406
1152.50 0.04058
1152.60 0.04057
1152.70 0.04056
1152.80 0.04054
1152.90 0.04053
1153.00 0.04052
1153.10 0.0405
1153.20 0.04049
1153.30 0.04048
1153.40 0.04046
1153.50 0.04045
1153.60 0.04043
1153.70 0.04042
1153.80 0.04041
1153.90 0.04039
1154.00 0.04038
1154.10 0.04037
1154.20 0.04035
1154.30 0.04034
1154.40 0.04033
1154.50 0.04031
1154.60 0.0403
1154.70 0.04029
1154.80 0.04027
1154.90 0.04026
1155.00 0.04024
1155.10 0.04023
1155.20 0.04022
1155.30 0.0402
1155.40 0.04019
1155.50 0.04018
1155.60 0.04016
1155.70 0.04015
1155.80 0.04014
1155.90 0.04012
1156.00 0.04011
1156.10 0.0401
1156.20 0.04008
1156.30 0.04007
1156.40 0.04005
1156.50 0.04004
1156.60 0.04003
1156.70 0.04001
1156.80 0.04
1156.90 0.03999
1157.00 0.03997
1157.10 0.03996
1157.20 0.03995
1157.30 0.03993
1157.40 0.03992
1157.50 0.03991
1157.60 0.03989
1157.70 0.03988
1157.80 0.03987
1157.90 0.03985
1158.00 0.03984
1158.10 0.03983
1158.20 0.03981
1158.30 0.0398
1158.40 0.03979
1158.50 0.03977
1158.60 0.03976
1158.70 0.03975
1158.80 0.03973
1158.90 0.03972
1159.00 0.03971
1159.10 0.03969
1159.20 0.03968
1159.30 0.03967
1159.40 0.03965
1159.50 0.03964
1159.60 0.03963
1159.70 0.03961
1159.80 0.0396
1159.90 0.03959
1160.00 0.03957
1160.10 0.03956
1160.20 0.03955
1160.30 0.03953
1160.40 0.03952
1160.50 0.03951
1160.60 0.03949
1160.70 0.03948
1160.80 0.03947
1160.90 0.03945
1161.00 0.03944
1161.10 0.03943
1161.20 0.03941
1161.30 0.0394
1161.40 0.03939
1161.50 0.03937
1161.60 0.03936
1161.70 0.03935
1161.80 0.03933
1161.90 0.03932
1162.00 0.03931
1162.10 0.0393
1162.20 0.03928
1162.30 0.03927
1162.40 0.03926
1162.50 0.03924
1162.60 0.03923
1162.70 0.03922
1162.80 0.0392
1162.90 0.03919
1163.00 0.03918
1163.10 0.03916
1163.20 0.03915
1163.30 0.03914
1163.40 0.03912
1163.50 0.03911
1163.60 0.0391
1163.70 0.03909
1163.80 0.03907
1163.90 0.03906
1164.00 0.03905
1164.10 0.03903
1164.20 0.03902
1164.30 0.03901
1164.40 0.03899
1164.50 0.03898
1164.60 0.03897
1164.70 0.03896
1164.80 0.03894
1164.90 0.03893
1165.00 0.03892
1165.10 0.0389
1165.20 0.03889
1165.30 0.03888
1165.40 0.03886
1165.50 0.03885
1165.60 0.03884
1165.70 0.03883
1165.80 0.03881
1165.90 0.0388
1166.00 0.03879
1166.10 0.03877
1166.20 0.03876
1166.30 0.03875
1166.40 0.03873
1166.50 0.03872
1166.60 0.03871
1166.70 0.0387
1166.80 0.03868
1166.90 0.03867
1167.00 0.03866
1167.10 0.03864
1167.20 0.03863
1167.30 0.03862
1167.40 0.03861
1167.50 0.03859
1167.60 0.03858
1167.70 0.03857
1167.80 0.03855
1167.90 0.03854
1168.00 0.03853
1168.10 0.03852
1168.20 0.0385
1168.30 0.03849
1168.40 0.03848
1168.50 0.03846
1168.60 0.03845
1168.70 0.03844
1168.80 0.03843
1168.90 0.03841
1169.00 0.0384
1169.10 0.03839
1169.20 0.03837
1169.30 0.03836
1169.40 0.03835
1169.50 0.03834
1169.60 0.03832
1169.70 0.03831
1169.80 0.0383
1169.90 0.03829
1170.00 0.03827
1170.10 0.03826
1170.20 0.03825
1170.30 0.03823
1170.40 0.03822
1170.50 0.03821
1170.60 0.0382
1170.70 0.03818
1170.80 0.03817
1170.90 0.03816
1171.00 0.03815
1171.10 0.03813
1171.20 0.03812
1171.30 0.03811
1171.40 0.03809
1171.50 0.03808
1171.60 0.03807
1171.70 0.03806
1171.80 0.03804
1171.90 0.03803
1172.00 0.03802
1172.10 0.03801
1172.20 0.03799
1172.30 0.03798
1172.40 0.03797
1172.50 0.03796
1172.60 0.03794
1172.70 0.03793
1172.80 0.03792
1172.90 0.03791
1173.00 0.03789
1173.10 0.03788
1173.20 0.03787
1173.30 0.03786
1173.40 0.03784
1173.50 0.03783
1173.60 0.03782
1173.70 0.03781
1173.80 0.03779
1173.90 0.03778
1174.00 0.03777
1174.10 0.03776
1174.20 0.03774
1174.30 0.03773
1174.40 0.03772
1174.50 0.0377
1174.60 0.03769
1174.70 0.03768
1174.80 0.03767
1174.90 0.03765
1175.00 0.03764
1175.10 0.03763
1175.20 0.03762
1175.30 0.03761
1175.40 0.03759
1175.50 0.03758
1175.60 0.03757
1175.70 0.03756
1175.80 0.03754
1175.90 0.03753
1176.00 0.03752
1176.10 0.03751
1176.20 0.03749
1176.30 0.03748
1176.40 0.03747
1176.50 0.03746
1176.60 0.03744
1176.70 0.03743
1176.80 0.03742
1176.90 0.03741
1177.00 0.03739
1177.10 0.03738
1177.20 0.03737
1177.30 0.03736
1177.40 0.03734
1177.50 0.03733
1177.60 0.03732
1177.70 0.03731
1177.80 0.03729
1177.90 0.03728
1178.00 0.03727
1178.10 0.03726
1178.20 0.03725
1178.30 0.03723
1178.40 0.03722
1178.50 0.03721
1178.60 0.0372
1178.70 0.03718
1178.80 0.03717
1178.90 0.03716
1179.00 0.03715
1179.10 0.03714
1179.20 0.03712
1179.30 0.03711
1179.40 0.0371
1179.50 0.03709
1179.60 0.03707
1179.70 0.03706
1179.80 0.03705
1179.90 0.03704
1180.00 0.03703
1180.10 0.03701
1180.20 0.037
1180.30 0.03699
1180.40 0.03698
1180.50 0.03696
1180.60 0.03695
1180.70 0.03694
1180.80 0.03693
1180.90 0.03692
1181.00 0.0369
1181.10 0.03689
1181.20 0.03688
1181.30 0.03687
1181.40 0.03685
1181.50 0.03684
1181.60 0.03683
1181.70 0.03682
1181.80 0.03681
1181.90 0.03679
1182.00 0.03678
1182.10 0.03677
1182.20 0.03676
1182.30 0.03675
1182.40 0.03673
1182.50 0.03672
1182.60 0.03671
1182.70 0.0367
1182.80 0.03668
1182.90 0.03667
1183.00 0.03666
1183.10 0.03665
1183.20 0.03664
1183.30 0.03662
1183.40 0.03661
1183.50 0.0366
1183.60 0.03659
1183.70 0.03658
1183.80 0.03656
1183.90 0.03655
1184.00 0.03654
1184.10 0.03653
1184.20 0.03652
1184.30 0.0365
1184.40 0.03649
1184.50 0.03648
1184.60 0.03647
1184.70 0.03646
1184.80 0.03644
1184.90 0.03643
1185.00 0.03642
1185.10 0.03641
1185.20 0.0364
1185.30 0.03638
1185.40 0.03637
1185.50 0.03636
1185.60 0.03635
1185.70 0.03634
1185.80 0.03632
1185.90 0.03631
1186.00 0.0363
1186.10 0.03629
1186.20 0.03628
1186.30 0.03626
1186.40 0.03625
1186.50 0.03624
1186.60 0.03623
1186.70 0.03622
1186.80 0.03621
1186.90 0.03619
1187.00 0.03618
1187.10 0.03617
1187.20 0.03616
1187.30 0.03615
1187.40 0.03613
1187.50 0.03612
1187.60 0.03611
1187.70 0.0361
1187.80 0.03609
1187.90 0.03608
1188.00 0.03606
1188.10 0.03605
1188.20 0.03604
1188.30 0.03603
1188.40 0.03602
1188.50 0.036
1188.60 0.03599
1188.70 0.03598
1188.80 0.03597
1188.90 0.03596
1189.00 0.03595
1189.10 0.03593
1189.20 0.03592
1189.30 0.03591
1189.40 0.0359
1189.50 0.03589
1189.60 0.03587
1189.70 0.03586
1189.80 0.03585
1189.90 0.03584
1190.00 0.03583
1190.10 0.03582
1190.20 0.0358
1190.30 0.03579
1190.40 0.03578
1190.50 0.03577
1190.60 0.03576
1190.70 0.03575
1190.80 0.03573
1190.90 0.03572
1191.00 0.03571
1191.10 0.0357
1191.20 0.03569
1191.30 0.03568
1191.40 0.03566
1191.50 0.03565
1191.60 0.03564
1191.70 0.03563
1191.80 0.03562
1191.90 0.03561
1192.00 0.03559
1192.10 0.03558
1192.20 0.03557
1192.30 0.03556
1192.40 0.03555
1192.50 0.03554
1192.60 0.03552
1192.70 0.03551
1192.80 0.0355
1192.90 0.03549
1193.00 0.03548
1193.10 0.03547
1193.20 0.03545
1193.30 0.03544
1193.40 0.03543
1193.50 0.03542
1193.60 0.03541
1193.70 0.0354
1193.80 0.03539
1193.90 0.03537
1194.00 0.03536
1194.10 0.03535
1194.20 0.03534
1194.30 0.03533
1194.40 0.03532
1194.50 0.0353
1194.60 0.03529
1194.70 0.03528
1194.80 0.03527
1194.90 0.03526
1195.00 0.03525
1195.10 0.03524
1195.20 0.03522
1195.30 0.03521
1195.40 0.0352
1195.50 0.03519
1195.60 0.03518
1195.70 0.03517
1195.80 0.03516
1195.90 0.03514
1196.00 0.03513
1196.10 0.03512
1196.20 0.03511
1196.30 0.0351
1196.40 0.03509
1196.50 0.03508
1196.60 0.03506
1196.70 0.03505
1196.80 0.03504
1196.90 0.03503
1197.00 0.03502
1197.10 0.03501
1197.20 0.035
1197.30 0.03498
1197.40 0.03497
1197.50 0.03496
1197.60 0.03495
1197.70 0.03494
1197.80 0.03493
1197.90 0.03492
1198.00 0.0349
1198.10 0.03489
1198.20 0.03488
1198.30 0.03487
1198.40 0.03486
1198.50 0.03485
1198.60 0.03484
1198.70 0.03483
1198.80 0.03481
1198.90 0.0348
1199.00 0.03479
1199.10 0.03478
1199.20 0.03477
1199.30 0.03476
1199.40 0.03475
1199.50 0.03473
1199.60 0.03472
1199.70 0.03471
1199.80 0.0347
1199.90 0.03469
1200.00 0
