# Version 2.1 - nm, norm@500 to 1, cut digits, bergeron_13500_95.dat_13500
# Wavelength(nm)  Flambda(ergs/cm^s/s/nm)
300.00 2.599
300.10 2.597
300.20 2.596
300.30 2.594
300.40 2.592
300.50 2.59
300.60 2.588
300.70 2.587
300.80 2.585
300.90 2.583
301.00 2.581
301.10 2.58
301.20 2.578
301.30 2.576
301.40 2.574
301.50 2.573
301.60 2.571
301.70 2.569
301.80 2.567
301.90 2.566
302.00 2.564
302.10 2.562
302.20 2.56
302.30 2.559
302.40 2.557
302.50 2.555
302.60 2.554
302.70 2.552
302.80 2.55
302.90 2.548
303.00 2.547
303.10 2.545
303.20 2.543
303.30 2.541
303.40 2.54
303.50 2.538
303.60 2.536
303.70 2.535
303.80 2.533
303.90 2.531
304.00 2.529
304.10 2.528
304.20 2.526
304.30 2.524
304.40 2.523
304.50 2.521
304.60 2.519
304.70 2.517
304.80 2.516
304.90 2.514
305.00 2.512
305.10 2.511
305.20 2.509
305.30 2.507
305.40 2.506
305.50 2.504
305.60 2.502
305.70 2.5
305.80 2.499
305.90 2.497
306.00 2.495
306.10 2.494
306.20 2.492
306.30 2.49
306.40 2.489
306.50 2.487
306.60 2.485
306.70 2.484
306.80 2.482
306.90 2.48
307.00 2.478
307.10 2.477
307.20 2.475
307.30 2.473
307.40 2.472
307.50 2.47
307.60 2.468
307.70 2.467
307.80 2.465
307.90 2.463
308.00 2.462
308.10 2.46
308.20 2.458
308.30 2.457
308.40 2.455
308.50 2.453
308.60 2.452
308.70 2.45
308.80 2.448
308.90 2.447
309.00 2.445
309.10 2.444
309.20 2.442
309.30 2.44
309.40 2.439
309.50 2.437
309.60 2.435
309.70 2.434
309.80 2.432
309.90 2.43
310.00 2.429
310.10 2.427
310.20 2.425
310.30 2.424
310.40 2.422
310.50 2.42
310.60 2.419
310.70 2.417
310.80 2.416
310.90 2.414
311.00 2.412
311.10 2.411
311.20 2.409
311.30 2.407
311.40 2.406
311.50 2.404
311.60 2.403
311.70 2.401
311.80 2.399
311.90 2.398
312.00 2.396
312.10 2.394
312.20 2.393
312.30 2.391
312.40 2.39
312.50 2.388
312.60 2.386
312.70 2.385
312.80 2.383
312.90 2.382
313.00 2.38
313.10 2.378
313.20 2.377
313.30 2.375
313.40 2.374
313.50 2.372
313.60 2.37
313.70 2.369
313.80 2.367
313.90 2.366
314.00 2.364
314.10 2.362
314.20 2.361
314.30 2.359
314.40 2.358
314.50 2.356
314.60 2.354
314.70 2.353
314.80 2.351
314.90 2.35
315.00 2.348
315.10 2.346
315.20 2.345
315.30 2.343
315.40 2.342
315.50 2.34
315.60 2.339
315.70 2.337
315.80 2.335
315.90 2.334
316.00 2.332
316.10 2.331
316.20 2.329
316.30 2.328
316.40 2.326
316.50 2.324
316.60 2.323
316.70 2.321
316.80 2.32
316.90 2.318
317.00 2.317
317.10 2.315
317.20 2.313
317.30 2.312
317.40 2.31
317.50 2.309
317.60 2.307
317.70 2.306
317.80 2.304
317.90 2.303
318.00 2.301
318.10 2.3
318.20 2.298
318.30 2.296
318.40 2.295
318.50 2.293
318.60 2.292
318.70 2.29
318.80 2.289
318.90 2.287
319.00 2.286
319.10 2.284
319.20 2.283
319.30 2.281
319.40 2.279
319.50 2.278
319.60 2.276
319.70 2.275
319.80 2.273
319.90 2.272
320.00 2.27
320.10 2.269
320.20 2.267
320.30 2.266
320.40 2.264
320.50 2.263
320.60 2.261
320.70 2.26
320.80 2.258
320.90 2.257
321.00 2.255
321.10 2.254
321.20 2.252
321.30 2.251
321.40 2.249
321.50 2.248
321.60 2.246
321.70 2.245
321.80 2.243
321.90 2.242
322.00 2.24
322.10 2.239
322.20 2.237
322.30 2.236
322.40 2.234
322.50 2.233
322.60 2.231
322.70 2.23
322.80 2.228
322.90 2.227
323.00 2.225
323.10 2.224
323.20 2.222
323.30 2.221
323.40 2.219
323.50 2.218
323.60 2.216
323.70 2.215
323.80 2.213
323.90 2.212
324.00 2.21
324.10 2.209
324.20 2.207
324.30 2.206
324.40 2.204
324.50 2.203
324.60 2.201
324.70 2.2
324.80 2.198
324.90 2.197
325.00 2.195
325.10 2.194
325.20 2.192
325.30 2.191
325.40 2.19
325.50 2.188
325.60 2.187
325.70 2.185
325.80 2.184
325.90 2.182
326.00 2.181
326.10 2.179
326.20 2.178
326.30 2.176
326.40 2.175
326.50 2.173
326.60 2.172
326.70 2.171
326.80 2.169
326.90 2.168
327.00 2.166
327.10 2.165
327.20 2.163
327.30 2.162
327.40 2.16
327.50 2.159
327.60 2.158
327.70 2.156
327.80 2.155
327.90 2.153
328.00 2.152
328.10 2.15
328.20 2.149
328.30 2.147
328.40 2.146
328.50 2.145
328.60 2.143
328.70 2.142
328.80 2.14
328.90 2.139
329.00 2.137
329.10 2.136
329.20 2.135
329.30 2.133
329.40 2.132
329.50 2.13
329.60 2.129
329.70 2.127
329.80 2.126
329.90 2.125
330.00 2.123
330.10 2.122
330.20 2.12
330.30 2.119
330.40 2.118
330.50 2.116
330.60 2.115
330.70 2.113
330.80 2.112
330.90 2.11
331.00 2.109
331.10 2.108
331.20 2.106
331.30 2.105
331.40 2.103
331.50 2.102
331.60 2.101
331.70 2.099
331.80 2.098
331.90 2.096
332.00 2.095
332.10 2.094
332.20 2.092
332.30 2.091
332.40 2.089
332.50 2.088
332.60 2.087
332.70 2.085
332.80 2.084
332.90 2.083
333.00 2.081
333.10 2.08
333.20 2.078
333.30 2.077
333.40 2.076
333.50 2.074
333.60 2.073
333.70 2.071
333.80 2.07
333.90 2.069
334.00 2.067
334.10 2.066
334.20 2.065
334.30 2.063
334.40 2.062
334.50 2.06
334.60 2.059
334.70 2.058
334.80 2.056
334.90 2.055
335.00 2.054
335.10 2.052
335.20 2.051
335.30 2.05
335.40 2.048
335.50 2.047
335.60 2.045
335.70 2.044
335.80 2.043
335.90 2.041
336.00 2.04
336.10 2.039
336.20 2.037
336.30 2.036
336.40 2.035
336.50 2.033
336.60 2.032
336.70 2.031
336.80 2.029
336.90 2.028
337.00 2.027
337.10 2.025
337.20 2.024
337.30 2.023
337.40 2.021
337.50 2.02
337.60 2.019
337.70 2.017
337.80 2.016
337.90 2.015
338.00 2.013
338.10 2.012
338.20 2.01
338.30 2.009
338.40 2.008
338.50 2.006
338.60 2.005
338.70 2.004
338.80 2.003
338.90 2.001
339.00 2
339.10 1.999
339.20 1.997
339.30 1.996
339.40 1.995
339.50 1.993
339.60 1.992
339.70 1.991
339.80 1.989
339.90 1.988
340.00 1.987
340.10 1.985
340.20 1.984
340.30 1.983
340.40 1.981
340.50 1.98
340.60 1.979
340.70 1.977
340.80 1.976
340.90 1.975
341.00 1.974
341.10 1.972
341.20 1.971
341.30 1.97
341.40 1.968
341.50 1.967
341.60 1.966
341.70 1.964
341.80 1.963
341.90 1.962
342.00 1.961
342.10 1.959
342.20 1.958
342.30 1.957
342.40 1.955
342.50 1.954
342.60 1.953
342.70 1.952
342.80 1.95
342.90 1.949
343.00 1.948
343.10 1.946
343.20 1.945
343.30 1.944
343.40 1.943
343.50 1.941
343.60 1.94
343.70 1.939
343.80 1.937
343.90 1.936
344.00 1.935
344.10 1.934
344.20 1.932
344.30 1.931
344.40 1.93
344.50 1.928
344.60 1.927
344.70 1.926
344.80 1.925
344.90 1.923
345.00 1.922
345.10 1.921
345.20 1.92
345.30 1.918
345.40 1.917
345.50 1.916
345.60 1.915
345.70 1.913
345.80 1.912
345.90 1.911
346.00 1.909
346.10 1.908
346.20 1.907
346.30 1.906
346.40 1.904
346.50 1.903
346.60 1.902
346.70 1.901
346.80 1.899
346.90 1.898
347.00 1.897
347.10 1.896
347.20 1.894
347.30 1.893
347.40 1.892
347.50 1.891
347.60 1.889
347.70 1.888
347.80 1.887
347.90 1.886
348.00 1.885
348.10 1.883
348.20 1.882
348.30 1.881
348.40 1.88
348.50 1.878
348.60 1.877
348.70 1.876
348.80 1.875
348.90 1.873
349.00 1.872
349.10 1.871
349.20 1.87
349.30 1.868
349.40 1.867
349.50 1.866
349.60 1.865
349.70 1.864
349.80 1.862
349.90 1.861
350.00 1.86
350.10 1.859
350.20 1.857
350.30 1.856
350.40 1.855
350.50 1.854
350.60 1.853
350.70 1.851
350.80 1.85
350.90 1.849
351.00 1.848
351.10 1.847
351.20 1.845
351.30 1.844
351.40 1.843
351.50 1.842
351.60 1.841
351.70 1.839
351.80 1.838
351.90 1.837
352.00 1.836
352.10 1.835
352.20 1.833
352.30 1.832
352.40 1.831
352.50 1.83
352.60 1.829
352.70 1.827
352.80 1.826
352.90 1.825
353.00 1.824
353.10 1.823
353.20 1.821
353.30 1.82
353.40 1.819
353.50 1.818
353.60 1.817
353.70 1.815
353.80 1.814
353.90 1.813
354.00 1.812
354.10 1.811
354.20 1.809
354.30 1.808
354.40 1.807
354.50 1.806
354.60 1.805
354.70 1.804
354.80 1.802
354.90 1.801
355.00 1.8
355.10 1.799
355.20 1.798
355.30 1.797
355.40 1.795
355.50 1.794
355.60 1.793
355.70 1.792
355.80 1.791
355.90 1.789
356.00 1.788
356.10 1.787
356.20 1.786
356.30 1.785
356.40 1.784
356.50 1.782
356.60 1.781
356.70 1.78
356.80 1.779
356.90 1.778
357.00 1.777
357.10 1.776
357.20 1.774
357.30 1.773
357.40 1.772
357.50 1.771
357.60 1.77
357.70 1.769
357.80 1.767
357.90 1.766
358.00 1.765
358.10 1.764
358.20 1.763
358.30 1.762
358.40 1.761
358.50 1.759
358.60 1.758
358.70 1.757
358.80 1.756
358.90 1.755
359.00 1.754
359.10 1.753
359.20 1.751
359.30 1.75
359.40 1.749
359.50 1.748
359.60 1.747
359.70 1.746
359.80 1.745
359.90 1.743
360.00 1.742
360.10 1.741
360.20 1.74
360.30 1.739
360.40 1.738
360.50 1.737
360.60 1.736
360.70 1.734
360.80 1.733
360.90 1.732
361.00 1.731
361.10 1.73
361.20 1.729
361.30 1.728
361.40 1.727
361.50 1.725
361.60 1.724
361.70 1.723
361.80 1.722
361.90 1.721
362.00 1.72
362.10 1.719
362.20 1.718
362.30 1.717
362.40 1.715
362.50 1.714
362.60 1.713
362.70 1.712
362.80 1.711
362.90 1.71
363.00 1.709
363.10 1.707
363.20 1.706
363.30 1.705
363.40 1.704
363.50 1.702
363.60 1.701
363.70 1.7
363.80 1.698
363.90 1.697
364.00 1.696
364.10 1.694
364.20 1.693
364.30 1.692
364.40 1.69
364.50 1.689
364.60 1.688
364.70 1.686
364.80 1.685
364.90 1.684
365.00 1.682
365.10 1.681
365.20 1.68
365.30 1.678
365.40 1.677
365.50 1.676
365.60 1.674
365.70 1.673
365.80 1.672
365.90 1.67
366.00 1.669
366.10 1.668
366.20 1.667
366.30 1.666
366.40 1.664
366.50 1.663
366.60 1.662
366.70 1.661
366.80 1.66
366.90 1.659
367.00 1.658
367.10 1.656
367.20 1.655
367.30 1.654
367.40 1.653
367.50 1.652
367.60 1.651
367.70 1.65
367.80 1.648
367.90 1.647
368.00 1.646
368.10 1.645
368.20 1.644
368.30 1.643
368.40 1.642
368.50 1.641
368.60 1.639
368.70 1.638
368.80 1.637
368.90 1.636
369.00 1.635
369.10 1.634
369.20 1.633
369.30 1.631
369.40 1.63
369.50 1.629
369.60 1.628
369.70 1.627
369.80 1.626
369.90 1.625
370.00 1.623
370.10 1.622
370.20 1.621
370.30 1.62
370.40 1.619
370.50 1.618
370.60 1.617
370.70 1.616
370.80 1.615
370.90 1.614
371.00 1.612
371.10 1.611
371.20 1.61
371.30 1.609
371.40 1.608
371.50 1.607
371.60 1.606
371.70 1.605
371.80 1.604
371.90 1.603
372.00 1.601
372.10 1.6
372.20 1.599
372.30 1.598
372.40 1.597
372.50 1.596
372.60 1.595
372.70 1.594
372.80 1.593
372.90 1.592
373.00 1.591
373.10 1.59
373.20 1.589
373.30 1.588
373.40 1.587
373.50 1.586
373.60 1.585
373.70 1.584
373.80 1.583
373.90 1.582
374.00 1.581
374.10 1.581
374.20 1.58
374.30 1.579
374.40 1.578
374.50 1.577
374.60 1.576
374.70 1.575
374.80 1.574
374.90 1.573
375.00 1.572
375.10 1.572
375.20 1.571
375.30 1.57
375.40 1.569
375.50 1.568
375.60 1.567
375.70 1.566
375.80 1.565
375.90 1.564
376.00 1.563
376.10 1.563
376.20 1.562
376.30 1.561
376.40 1.56
376.50 1.559
376.60 1.558
376.70 1.557
376.80 1.557
376.90 1.556
377.00 1.555
377.10 1.554
377.20 1.553
377.30 1.552
377.40 1.551
377.50 1.55
377.60 1.549
377.70 1.548
377.80 1.547
377.90 1.547
378.00 1.546
378.10 1.544
378.20 1.543
378.30 1.542
378.40 1.54
378.50 1.539
378.60 1.538
378.70 1.537
378.80 1.535
378.90 1.534
379.00 1.533
379.10 1.532
379.20 1.531
379.30 1.53
379.40 1.529
379.50 1.528
379.60 1.527
379.70 1.526
379.80 1.525
379.90 1.524
380.00 1.522
380.10 1.522
380.20 1.522
380.30 1.522
380.40 1.522
380.50 1.522
380.60 1.521
380.70 1.521
380.80 1.521
380.90 1.521
381.00 1.521
381.10 1.52
381.20 1.52
381.30 1.519
381.40 1.519
381.50 1.518
381.60 1.517
381.70 1.516
381.80 1.515
381.90 1.514
382.00 1.513
382.10 1.512
382.20 1.51
382.30 1.508
382.40 1.506
382.50 1.504
382.60 1.502
382.70 1.5
382.80 1.498
382.90 1.496
383.00 1.494
383.10 1.492
383.20 1.49
383.30 1.489
383.40 1.487
383.50 1.486
383.60 1.486
383.70 1.487
383.80 1.487
383.90 1.488
384.00 1.489
384.10 1.491
384.20 1.492
384.30 1.494
384.40 1.496
384.50 1.497
384.60 1.498
384.70 1.499
384.80 1.5
384.90 1.501
385.00 1.501
385.10 1.501
385.20 1.502
385.30 1.502
385.40 1.501
385.50 1.501
385.60 1.501
385.70 1.5
385.80 1.5
385.90 1.499
386.00 1.498
386.10 1.497
386.20 1.496
386.30 1.495
386.40 1.493
386.50 1.492
386.60 1.49
386.70 1.488
386.80 1.486
386.90 1.484
387.00 1.482
387.10 1.48
387.20 1.477
387.30 1.475
387.40 1.472
387.50 1.469
387.60 1.466
387.70 1.462
387.80 1.459
387.90 1.455
388.00 1.451
388.10 1.446
388.20 1.442
388.30 1.437
388.40 1.431
388.50 1.427
388.60 1.422
388.70 1.42
388.80 1.417
388.90 1.416
389.00 1.417
389.10 1.419
389.20 1.421
389.30 1.425
389.40 1.429
389.50 1.434
389.60 1.439
389.70 1.443
389.80 1.448
389.90 1.451
390.00 1.455
390.10 1.458
390.20 1.461
390.30 1.464
390.40 1.467
390.50 1.469
390.60 1.471
390.70 1.474
390.80 1.476
390.90 1.477
391.00 1.479
391.10 1.481
391.20 1.482
391.30 1.483
391.40 1.484
391.50 1.485
391.60 1.486
391.70 1.486
391.80 1.486
391.90 1.487
392.00 1.487
392.10 1.487
392.20 1.486
392.30 1.486
392.40 1.485
392.50 1.485
392.60 1.484
392.70 1.482
392.80 1.481
392.90 1.48
393.00 1.478
393.10 1.476
393.20 1.474
393.30 1.472
393.40 1.469
393.50 1.466
393.60 1.464
393.70 1.46
393.80 1.457
393.90 1.454
394.00 1.45
394.10 1.446
394.20 1.442
394.30 1.438
394.40 1.433
394.50 1.428
394.60 1.423
394.70 1.418
394.80 1.412
394.90 1.407
395.00 1.401
395.10 1.394
395.20 1.388
395.30 1.381
395.40 1.374
395.50 1.367
395.60 1.359
395.70 1.351
395.80 1.343
395.90 1.335
396.00 1.326
396.10 1.317
396.20 1.308
396.30 1.297
396.40 1.287
396.50 1.274
396.60 1.261
396.70 1.247
396.80 1.237
396.90 1.227
397.00 1.219
397.10 1.226
397.20 1.235
397.30 1.244
397.40 1.257
397.50 1.27
397.60 1.283
397.70 1.293
397.80 1.303
397.90 1.313
398.00 1.321
398.10 1.33
398.20 1.338
398.30 1.346
398.40 1.354
398.50 1.361
398.60 1.368
398.70 1.375
398.80 1.382
398.90 1.388
399.00 1.394
399.10 1.4
399.20 1.406
399.30 1.411
399.40 1.417
399.50 1.422
399.60 1.426
399.70 1.431
399.80 1.435
399.90 1.44
400.00 1.444
400.10 1.447
400.20 1.451
400.30 1.455
400.40 1.458
400.50 1.461
400.60 1.464
400.70 1.466
400.80 1.469
400.90 1.471
401.00 1.473
401.10 1.475
401.20 1.477
401.30 1.479
401.40 1.48
401.50 1.482
401.60 1.483
401.70 1.484
401.80 1.485
401.90 1.486
402.00 1.486
402.10 1.487
402.20 1.487
402.30 1.487
402.40 1.488
402.50 1.487
402.60 1.487
402.70 1.487
402.80 1.486
402.90 1.485
403.00 1.485
403.10 1.484
403.20 1.482
403.30 1.481
403.40 1.48
403.50 1.478
403.60 1.477
403.70 1.475
403.80 1.473
403.90 1.471
404.00 1.468
404.10 1.466
404.20 1.463
404.30 1.46
404.40 1.458
404.50 1.455
404.60 1.451
404.70 1.448
404.80 1.444
404.90 1.441
405.00 1.437
405.10 1.433
405.20 1.428
405.30 1.424
405.40 1.419
405.50 1.415
405.60 1.41
405.70 1.405
405.80 1.399
405.90 1.394
406.00 1.388
406.10 1.382
406.20 1.376
406.30 1.37
406.40 1.363
406.50 1.356
406.60 1.349
406.70 1.342
406.80 1.335
406.90 1.327
407.00 1.319
407.10 1.311
407.20 1.302
407.30 1.293
407.40 1.284
407.50 1.275
407.60 1.266
407.70 1.256
407.80 1.246
407.90 1.235
408.00 1.224
408.10 1.213
408.20 1.202
408.30 1.19
408.40 1.178
408.50 1.165
408.60 1.152
408.70 1.138
408.80 1.125
408.90 1.111
409.00 1.096
409.10 1.082
409.20 1.067
409.30 1.052
409.40 1.037
409.50 1.021
409.60 1.005
409.70 0.987
409.80 0.9685
409.90 0.9494
410.00 0.9361
410.10 0.9278
410.20 0.9244
410.30 0.9308
410.40 0.9417
410.50 0.9572
410.60 0.9755
410.70 0.9929
410.80 1.009
410.90 1.024
411.00 1.039
411.10 1.053
411.20 1.067
411.30 1.081
411.40 1.094
411.50 1.107
411.60 1.12
411.70 1.133
411.80 1.145
411.90 1.157
412.00 1.169
412.10 1.18
412.20 1.191
412.30 1.201
412.40 1.211
412.50 1.221
412.60 1.231
412.70 1.24
412.80 1.249
412.90 1.257
413.00 1.266
413.10 1.274
413.20 1.282
413.30 1.289
413.40 1.297
413.50 1.304
413.60 1.311
413.70 1.318
413.80 1.325
413.90 1.331
414.00 1.337
414.10 1.343
414.20 1.349
414.30 1.355
414.40 1.36
414.50 1.366
414.60 1.371
414.70 1.376
414.80 1.381
414.90 1.385
415.00 1.39
415.10 1.394
415.20 1.399
415.30 1.403
415.40 1.407
415.50 1.411
415.60 1.415
415.70 1.419
415.80 1.422
415.90 1.426
416.00 1.429
416.10 1.432
416.20 1.436
416.30 1.439
416.40 1.442
416.50 1.445
416.60 1.447
416.70 1.45
416.80 1.453
416.90 1.455
417.00 1.458
417.10 1.46
417.20 1.462
417.30 1.464
417.40 1.467
417.50 1.469
417.60 1.47
417.70 1.472
417.80 1.474
417.90 1.476
418.00 1.477
418.10 1.479
418.20 1.48
418.30 1.482
418.40 1.483
418.50 1.484
418.60 1.485
418.70 1.486
418.80 1.487
418.90 1.488
419.00 1.489
419.10 1.49
419.20 1.491
419.30 1.491
419.40 1.492
419.50 1.493
419.60 1.493
419.70 1.494
419.80 1.494
419.90 1.494
420.00 1.494
420.10 1.495
420.20 1.495
420.30 1.495
420.40 1.495
420.50 1.495
420.60 1.494
420.70 1.494
420.80 1.494
420.90 1.494
421.00 1.493
421.10 1.493
421.20 1.492
421.30 1.492
421.40 1.491
421.50 1.49
421.60 1.49
421.70 1.489
421.80 1.488
421.90 1.487
422.00 1.486
422.10 1.485
422.20 1.484
422.30 1.482
422.40 1.481
422.50 1.48
422.60 1.479
422.70 1.477
422.80 1.476
422.90 1.474
423.00 1.473
423.10 1.471
423.20 1.469
423.30 1.467
423.40 1.466
423.50 1.464
423.60 1.462
423.70 1.46
423.80 1.458
423.90 1.455
424.00 1.453
424.10 1.451
424.20 1.449
424.30 1.446
424.40 1.444
424.50 1.441
424.60 1.438
424.70 1.436
424.80 1.433
424.90 1.43
425.00 1.427
425.10 1.424
425.20 1.421
425.30 1.418
425.40 1.415
425.50 1.412
425.60 1.409
425.70 1.405
425.80 1.402
425.90 1.398
426.00 1.395
426.10 1.391
426.20 1.386
426.30 1.382
426.40 1.378
426.50 1.374
426.60 1.37
426.70 1.366
426.80 1.362
426.90 1.357
427.00 1.353
427.10 1.348
427.20 1.344
427.30 1.339
427.40 1.334
427.50 1.329
427.60 1.325
427.70 1.32
427.80 1.314
427.90 1.309
428.00 1.304
428.10 1.298
428.20 1.293
428.30 1.287
428.40 1.282
428.50 1.276
428.60 1.27
428.70 1.264
428.80 1.258
428.90 1.251
429.00 1.245
429.10 1.238
429.20 1.232
429.30 1.225
429.40 1.218
429.50 1.211
429.60 1.204
429.70 1.197
429.80 1.189
429.90 1.181
430.00 1.174
430.10 1.166
430.20 1.158
430.30 1.149
430.40 1.141
430.50 1.132
430.60 1.124
430.70 1.115
430.80 1.105
430.90 1.096
431.00 1.087
431.10 1.077
431.20 1.067
431.30 1.056
431.40 1.046
431.50 1.035
431.60 1.024
431.70 1.013
431.80 1.001
431.90 0.9892
432.00 0.9768
432.10 0.9642
432.20 0.951
432.30 0.9375
432.40 0.9236
432.50 0.909
432.60 0.8941
432.70 0.8788
432.80 0.8629
432.90 0.8468
433.00 0.8306
433.10 0.8142
433.20 0.7978
433.30 0.7816
433.40 0.7653
433.50 0.7487
433.60 0.7317
433.70 0.7104
433.80 0.6841
433.90 0.6528
434.00 0.6207
434.10 0.6214
434.20 0.6548
434.30 0.685
434.40 0.7103
434.50 0.7305
434.60 0.7468
434.70 0.7626
434.80 0.7781
434.90 0.7936
435.00 0.8091
435.10 0.8246
435.20 0.8399
435.30 0.8551
435.40 0.87
435.50 0.8842
435.60 0.898
435.70 0.9115
435.80 0.9242
435.90 0.9366
436.00 0.9487
436.10 0.9601
436.20 0.9713
436.30 0.9821
436.40 0.9924
436.50 1.003
436.60 1.012
436.70 1.022
436.80 1.031
436.90 1.04
437.00 1.049
437.10 1.057
437.20 1.065
437.30 1.073
437.40 1.081
437.50 1.089
437.60 1.096
437.70 1.103
437.80 1.11
437.90 1.117
438.00 1.124
438.10 1.131
438.20 1.137
438.30 1.143
438.40 1.149
438.50 1.155
438.60 1.161
438.70 1.166
438.80 1.172
438.90 1.177
439.00 1.182
439.10 1.188
439.20 1.193
439.30 1.197
439.40 1.202
439.50 1.207
439.60 1.211
439.70 1.216
439.80 1.22
439.90 1.224
440.00 1.229
440.10 1.233
440.20 1.237
440.30 1.24
440.40 1.244
440.50 1.248
440.60 1.251
440.70 1.255
440.80 1.258
440.90 1.262
441.00 1.265
441.10 1.268
441.20 1.271
441.30 1.274
441.40 1.277
441.50 1.28
441.60 1.283
441.70 1.286
441.80 1.289
441.90 1.291
442.00 1.294
442.10 1.296
442.20 1.299
442.30 1.301
442.40 1.303
442.50 1.306
442.60 1.308
442.70 1.31
442.80 1.312
442.90 1.314
443.00 1.316
443.10 1.318
443.20 1.32
443.30 1.322
443.40 1.323
443.50 1.325
443.60 1.327
443.70 1.329
443.80 1.33
443.90 1.332
444.00 1.334
444.10 1.335
444.20 1.336
444.30 1.338
444.40 1.339
444.50 1.34
444.60 1.342
444.70 1.343
444.80 1.344
444.90 1.345
445.00 1.346
445.10 1.347
445.20 1.349
445.30 1.35
445.40 1.351
445.50 1.352
445.60 1.353
445.70 1.354
445.80 1.354
445.90 1.355
446.00 1.356
446.10 1.357
446.20 1.358
446.30 1.358
446.40 1.359
446.50 1.36
446.60 1.36
446.70 1.361
446.80 1.362
446.90 1.362
447.00 1.363
447.10 1.363
447.20 1.364
447.30 1.364
447.40 1.365
447.50 1.365
447.60 1.365
447.70 1.366
447.80 1.366
447.90 1.366
448.00 1.367
448.10 1.367
448.20 1.367
448.30 1.367
448.40 1.368
448.50 1.368
448.60 1.368
448.70 1.368
448.80 1.368
448.90 1.368
449.00 1.369
449.10 1.369
449.20 1.369
449.30 1.369
449.40 1.369
449.50 1.369
449.60 1.369
449.70 1.369
449.80 1.369
449.90 1.369
450.00 1.369
450.10 1.369
450.20 1.369
450.30 1.369
450.40 1.369
450.50 1.369
450.60 1.369
450.70 1.368
450.80 1.368
450.90 1.368
451.00 1.368
451.10 1.368
451.20 1.368
451.30 1.367
451.40 1.367
451.50 1.367
451.60 1.367
451.70 1.366
451.80 1.366
451.90 1.366
452.00 1.366
452.10 1.365
452.20 1.365
452.30 1.365
452.40 1.364
452.50 1.364
452.60 1.363
452.70 1.363
452.80 1.363
452.90 1.362
453.00 1.362
453.10 1.362
453.20 1.361
453.30 1.361
453.40 1.36
453.50 1.36
453.60 1.36
453.70 1.359
453.80 1.359
453.90 1.358
454.00 1.358
454.10 1.357
454.20 1.357
454.30 1.356
454.40 1.356
454.50 1.355
454.60 1.355
454.70 1.354
454.80 1.354
454.90 1.353
455.00 1.352
455.10 1.352
455.20 1.351
455.30 1.351
455.40 1.35
455.50 1.35
455.60 1.349
455.70 1.348
455.80 1.348
455.90 1.347
456.00 1.346
456.10 1.346
456.20 1.345
456.30 1.345
456.40 1.344
456.50 1.343
456.60 1.343
456.70 1.342
456.80 1.341
456.90 1.341
457.00 1.34
457.10 1.34
457.20 1.339
457.30 1.338
457.40 1.338
457.50 1.337
457.60 1.336
457.70 1.335
457.80 1.335
457.90 1.334
458.00 1.333
458.10 1.332
458.20 1.332
458.30 1.331
458.40 1.33
458.50 1.329
458.60 1.328
458.70 1.328
458.80 1.327
458.90 1.326
459.00 1.325
459.10 1.324
459.20 1.324
459.30 1.323
459.40 1.322
459.50 1.321
459.60 1.32
459.70 1.319
459.80 1.319
459.90 1.318
460.00 1.317
460.10 1.316
460.20 1.315
460.30 1.314
460.40 1.313
460.50 1.312
460.60 1.311
460.70 1.311
460.80 1.31
460.90 1.309
461.00 1.308
461.10 1.307
461.20 1.306
461.30 1.305
461.40 1.304
461.50 1.303
461.60 1.302
461.70 1.301
461.80 1.3
461.90 1.299
462.00 1.298
462.10 1.297
462.20 1.296
462.30 1.295
462.40 1.294
462.50 1.293
462.60 1.292
462.70 1.291
462.80 1.29
462.90 1.289
463.00 1.288
463.10 1.287
463.20 1.286
463.30 1.285
463.40 1.284
463.50 1.283
463.60 1.282
463.70 1.281
463.80 1.28
463.90 1.279
464.00 1.278
464.10 1.276
464.20 1.275
464.30 1.274
464.40 1.273
464.50 1.272
464.60 1.271
464.70 1.27
464.80 1.268
464.90 1.267
465.00 1.266
465.10 1.265
465.20 1.264
465.30 1.263
465.40 1.261
465.50 1.26
465.60 1.259
465.70 1.258
465.80 1.257
465.90 1.255
466.00 1.254
466.10 1.253
466.20 1.252
466.30 1.25
466.40 1.249
466.50 1.248
466.60 1.247
466.70 1.245
466.80 1.244
466.90 1.243
467.00 1.241
467.10 1.24
467.20 1.239
467.30 1.237
467.40 1.236
467.50 1.235
467.60 1.233
467.70 1.232
467.80 1.231
467.90 1.229
468.00 1.228
468.10 1.227
468.20 1.225
468.30 1.224
468.40 1.222
468.50 1.221
468.60 1.219
468.70 1.218
468.80 1.216
468.90 1.215
469.00 1.213
469.10 1.212
469.20 1.21
469.30 1.209
469.40 1.207
469.50 1.206
469.60 1.204
469.70 1.203
469.80 1.201
469.90 1.2
470.00 1.198
470.10 1.197
470.20 1.195
470.30 1.193
470.40 1.192
470.50 1.19
470.60 1.189
470.70 1.187
470.80 1.185
470.90 1.184
471.00 1.182
471.10 1.181
471.20 1.179
471.30 1.177
471.40 1.176
471.50 1.174
471.60 1.172
471.70 1.17
471.80 1.168
471.90 1.167
472.00 1.165
472.10 1.163
472.20 1.161
472.30 1.159
472.40 1.157
472.50 1.156
472.60 1.154
472.70 1.152
472.80 1.15
472.90 1.148
473.00 1.146
473.10 1.144
473.20 1.142
473.30 1.14
473.40 1.138
473.50 1.136
473.60 1.134
473.70 1.131
473.80 1.129
473.90 1.127
474.00 1.125
474.10 1.123
474.20 1.121
474.30 1.118
474.40 1.116
474.50 1.114
474.60 1.112
474.70 1.109
474.80 1.107
474.90 1.105
475.00 1.102
475.10 1.1
475.20 1.098
475.30 1.095
475.40 1.093
475.50 1.09
475.60 1.088
475.70 1.085
475.80 1.083
475.90 1.08
476.00 1.078
476.10 1.075
476.20 1.072
476.30 1.07
476.40 1.067
476.50 1.064
476.60 1.061
476.70 1.058
476.80 1.056
476.90 1.053
477.00 1.05
477.10 1.047
477.20 1.044
477.30 1.041
477.40 1.038
477.50 1.035
477.60 1.032
477.70 1.029
477.80 1.026
477.90 1.023
478.00 1.02
478.10 1.017
478.20 1.013
478.30 1.01
478.40 1.006
478.50 1.003
478.60 0.9995
478.70 0.9961
478.80 0.9926
478.90 0.9892
479.00 0.9858
479.10 0.9824
479.20 0.9786
479.30 0.9747
479.40 0.9709
479.50 0.967
479.60 0.9631
479.70 0.9592
479.80 0.9554
479.90 0.9515
480.00 0.9477
480.10 0.9438
480.20 0.9396
480.30 0.9351
480.40 0.9307
480.50 0.9263
480.60 0.9219
480.70 0.9175
480.80 0.9131
480.90 0.9087
481.00 0.9044
481.10 0.9
481.20 0.8951
481.30 0.89
481.40 0.8849
481.50 0.8798
481.60 0.8747
481.70 0.8696
481.80 0.8645
481.90 0.8594
482.00 0.8543
482.10 0.8493
482.20 0.8435
482.30 0.8374
482.40 0.8313
482.50 0.8253
482.60 0.8192
482.70 0.8131
482.80 0.8071
482.90 0.801
483.00 0.795
483.10 0.7889
483.20 0.7816
483.30 0.7738
483.40 0.7659
483.50 0.758
483.60 0.7502
483.70 0.7424
483.80 0.7345
483.90 0.7267
484.00 0.7189
484.10 0.711
484.20 0.7017
484.30 0.6915
484.40 0.6814
484.50 0.6713
484.60 0.6612
484.70 0.6498
484.80 0.6379
484.90 0.6259
485.00 0.614
485.10 0.6021
485.20 0.59
485.30 0.5777
485.40 0.5655
485.50 0.5533
485.60 0.5407
485.70 0.528
485.80 0.5119
485.90 0.4942
486.00 0.4675
486.10 0.43
486.20 0.4392
486.30 0.4783
486.40 0.4989
486.50 0.5165
486.60 0.5304
486.70 0.5426
486.80 0.5545
486.90 0.5661
487.00 0.5778
487.10 0.5894
487.20 0.6008
487.30 0.6121
487.40 0.6233
487.50 0.6345
487.60 0.6457
487.70 0.6557
487.80 0.665
487.90 0.6744
488.00 0.6837
488.10 0.693
488.20 0.7007
488.30 0.7077
488.40 0.7147
488.50 0.7216
488.60 0.7286
488.70 0.7355
488.80 0.7425
488.90 0.7494
489.00 0.7563
489.10 0.7633
489.20 0.7689
489.30 0.774
489.40 0.7791
489.50 0.7841
489.60 0.7892
489.70 0.7943
489.80 0.7993
489.90 0.8044
490.00 0.8094
490.10 0.8145
490.20 0.8188
490.30 0.8228
490.40 0.8268
490.50 0.8308
490.60 0.8348
490.70 0.8388
490.80 0.8428
490.90 0.8468
491.00 0.8508
491.10 0.8548
491.20 0.8582
491.30 0.8615
491.40 0.8647
491.50 0.8679
491.60 0.8712
491.70 0.8744
491.80 0.8776
491.90 0.8808
492.00 0.8841
492.10 0.8873
492.20 0.8901
492.30 0.8927
492.40 0.8954
492.50 0.898
492.60 0.9007
492.70 0.9033
492.80 0.9059
492.90 0.9085
493.00 0.9112
493.10 0.9138
493.20 0.9161
493.30 0.9183
493.40 0.9205
493.50 0.9227
493.60 0.9248
493.70 0.927
493.80 0.9292
493.90 0.9314
494.00 0.9335
494.10 0.9357
494.20 0.9376
494.30 0.9394
494.40 0.9411
494.50 0.9429
494.60 0.9446
494.70 0.9464
494.80 0.9481
494.90 0.9499
495.00 0.9516
495.10 0.9534
495.20 0.9549
495.30 0.9563
495.40 0.9578
495.50 0.9592
495.60 0.9606
495.70 0.9621
495.80 0.9635
495.90 0.9649
496.00 0.9664
496.10 0.9678
496.20 0.969
496.30 0.9701
496.40 0.9713
496.50 0.9724
496.60 0.9735
496.70 0.9747
496.80 0.9758
496.90 0.9769
497.00 0.978
497.10 0.9792
497.20 0.9802
497.30 0.9811
497.40 0.982
497.50 0.9829
497.60 0.9838
497.70 0.9847
497.80 0.9856
497.90 0.9865
498.00 0.9874
498.10 0.9883
498.20 0.9891
498.30 0.9898
498.40 0.9905
498.50 0.9912
498.60 0.9919
498.70 0.9926
498.80 0.9932
498.90 0.9939
499.00 0.9946
499.10 0.9953
499.20 0.9959
499.30 0.9964
499.40 0.9969
499.50 0.9974
499.60 0.9979
499.70 0.9985
499.80 0.999
499.90 0.9995
500.00 1
500.10 1.001
500.20 1.001
500.30 1.001
500.40 1.002
500.50 1.002
500.60 1.002
500.70 1.003
500.80 1.003
500.90 1.003
501.00 1.004
501.10 1.004
501.20 1.004
501.30 1.005
501.40 1.005
501.50 1.005
501.60 1.005
501.70 1.006
501.80 1.006
501.90 1.006
502.00 1.006
502.10 1.007
502.20 1.007
502.30 1.007
502.40 1.007
502.50 1.007
502.60 1.007
502.70 1.007
502.80 1.008
502.90 1.008
503.00 1.008
503.10 1.008
503.20 1.008
503.30 1.008
503.40 1.008
503.50 1.008
503.60 1.008
503.70 1.008
503.80 1.008
503.90 1.008
504.00 1.009
504.10 1.009
504.20 1.009
504.30 1.009
504.40 1.009
504.50 1.009
504.60 1.009
504.70 1.008
504.80 1.008
504.90 1.008
505.00 1.008
505.10 1.008
505.20 1.008
505.30 1.008
505.40 1.008
505.50 1.008
505.60 1.008
505.70 1.008
505.80 1.008
505.90 1.008
506.00 1.008
506.10 1.008
506.20 1.007
506.30 1.007
506.40 1.007
506.50 1.007
506.60 1.007
506.70 1.007
506.80 1.006
506.90 1.006
507.00 1.006
507.10 1.006
507.20 1.006
507.30 1.006
507.40 1.005
507.50 1.005
507.60 1.005
507.70 1.005
507.80 1.005
507.90 1.004
508.00 1.004
508.10 1.004
508.20 1.004
508.30 1.004
508.40 1.003
508.50 1.003
508.60 1.003
508.70 1.002
508.80 1.002
508.90 1.002
509.00 1.002
509.10 1.001
509.20 1.001
509.30 1.001
509.40 1.001
509.50 1
509.60 1
509.70 0.9997
509.80 0.9994
509.90 0.9992
510.00 0.9989
510.10 0.9986
510.20 0.9983
510.30 0.9979
510.40 0.9976
510.50 0.9973
510.60 0.997
510.70 0.9967
510.80 0.9963
510.90 0.996
511.00 0.9957
511.10 0.9954
511.20 0.995
511.30 0.9947
511.40 0.9943
511.50 0.994
511.60 0.9936
511.70 0.9933
511.80 0.9929
511.90 0.9926
512.00 0.9922
512.10 0.9919
512.20 0.9915
512.30 0.9911
512.40 0.9908
512.50 0.9904
512.60 0.99
512.70 0.9896
512.80 0.9892
512.90 0.9889
513.00 0.9885
513.10 0.9881
513.20 0.9877
513.30 0.9873
513.40 0.9869
513.50 0.9865
513.60 0.9862
513.70 0.9858
513.80 0.9854
513.90 0.985
514.00 0.9846
514.10 0.9842
514.20 0.9838
514.30 0.9834
514.40 0.983
514.50 0.9826
514.60 0.9822
514.70 0.9818
514.80 0.9814
514.90 0.981
515.00 0.9806
515.10 0.9802
515.20 0.9798
515.30 0.9793
515.40 0.9789
515.50 0.9785
515.60 0.9781
515.70 0.9776
515.80 0.9772
515.90 0.9768
516.00 0.9764
516.10 0.9759
516.20 0.9755
516.30 0.9751
516.40 0.9746
516.50 0.9742
516.60 0.9738
516.70 0.9733
516.80 0.9729
516.90 0.9725
517.00 0.972
517.10 0.9716
517.20 0.9712
517.30 0.9707
517.40 0.9703
517.50 0.9698
517.60 0.9694
517.70 0.969
517.80 0.9685
517.90 0.9681
518.00 0.9676
518.10 0.9672
518.20 0.9668
518.30 0.9663
518.40 0.9659
518.50 0.9654
518.60 0.965
518.70 0.9645
518.80 0.9641
518.90 0.9636
519.00 0.9632
519.10 0.9627
519.20 0.9623
519.30 0.9618
519.40 0.9613
519.50 0.9609
519.60 0.9604
519.70 0.96
519.80 0.9595
519.90 0.959
520.00 0.9586
520.10 0.9581
520.20 0.9577
520.30 0.9572
520.40 0.9567
520.50 0.9563
520.60 0.9558
520.70 0.9553
520.80 0.9549
520.90 0.9544
521.00 0.954
521.10 0.9535
521.20 0.953
521.30 0.9526
521.40 0.9521
521.50 0.9516
521.60 0.9512
521.70 0.9507
521.80 0.9502
521.90 0.9498
522.00 0.9493
522.10 0.9489
522.20 0.9484
522.30 0.9479
522.40 0.9474
522.50 0.947
522.60 0.9465
522.70 0.946
522.80 0.9455
522.90 0.9451
523.00 0.9446
523.10 0.9441
523.20 0.9437
523.30 0.9432
523.40 0.9427
523.50 0.9422
523.60 0.9417
523.70 0.9413
523.80 0.9408
523.90 0.9403
524.00 0.9398
524.10 0.9393
524.20 0.9389
524.30 0.9384
524.40 0.9379
524.50 0.9374
524.60 0.937
524.70 0.9365
524.80 0.936
524.90 0.9355
525.00 0.9351
525.10 0.9346
525.20 0.9341
525.30 0.9336
525.40 0.9331
525.50 0.9327
525.60 0.9322
525.70 0.9317
525.80 0.9312
525.90 0.9307
526.00 0.9303
526.10 0.9298
526.20 0.9293
526.30 0.9288
526.40 0.9283
526.50 0.9279
526.60 0.9274
526.70 0.9269
526.80 0.9264
526.90 0.9259
527.00 0.9255
527.10 0.925
527.20 0.9245
527.30 0.924
527.40 0.9235
527.50 0.923
527.60 0.9226
527.70 0.9221
527.80 0.9216
527.90 0.9211
528.00 0.9206
528.10 0.9201
528.20 0.9197
528.30 0.9192
528.40 0.9187
528.50 0.9182
528.60 0.9177
528.70 0.9172
528.80 0.9168
528.90 0.9163
529.00 0.9158
529.10 0.9153
529.20 0.9148
529.30 0.9143
529.40 0.9139
529.50 0.9134
529.60 0.9129
529.70 0.9124
529.80 0.9119
529.90 0.9114
530.00 0.9109
530.10 0.9104
530.20 0.91
530.30 0.9095
530.40 0.909
530.50 0.9085
530.60 0.908
530.70 0.9075
530.80 0.907
530.90 0.9066
531.00 0.9061
531.10 0.9056
531.20 0.9051
531.30 0.9046
531.40 0.9041
531.50 0.9037
531.60 0.9032
531.70 0.9027
531.80 0.9022
531.90 0.9017
532.00 0.9013
532.10 0.9008
532.20 0.9003
532.30 0.8998
532.40 0.8993
532.50 0.8988
532.60 0.8983
532.70 0.8978
532.80 0.8974
532.90 0.8969
533.00 0.8964
533.10 0.8959
533.20 0.8954
533.30 0.8949
533.40 0.8945
533.50 0.894
533.60 0.8935
533.70 0.893
533.80 0.8926
533.90 0.8921
534.00 0.8916
534.10 0.8911
534.20 0.8907
534.30 0.8902
534.40 0.8897
534.50 0.8892
534.60 0.8887
534.70 0.8882
534.80 0.8878
534.90 0.8873
535.00 0.8868
535.10 0.8863
535.20 0.8858
535.30 0.8854
535.40 0.8849
535.50 0.8844
535.60 0.8839
535.70 0.8834
535.80 0.883
535.90 0.8825
536.00 0.882
536.10 0.8815
536.20 0.8811
536.30 0.8806
536.40 0.8801
536.50 0.8796
536.60 0.8791
536.70 0.8786
536.80 0.8781
536.90 0.8777
537.00 0.8772
537.10 0.8767
537.20 0.8762
537.30 0.8757
537.40 0.8753
537.50 0.8748
537.60 0.8743
537.70 0.8739
537.80 0.8734
537.90 0.8729
538.00 0.8724
538.10 0.872
538.20 0.8715
538.30 0.871
538.40 0.8705
538.50 0.87
538.60 0.8696
538.70 0.8691
538.80 0.8686
538.90 0.8681
539.00 0.8677
539.10 0.8672
539.20 0.8667
539.30 0.8662
539.40 0.8658
539.50 0.8653
539.60 0.8648
539.70 0.8644
539.80 0.8639
539.90 0.8634
540.00 0.863
540.10 0.8625
540.20 0.862
540.30 0.8616
540.40 0.8611
540.50 0.8606
540.60 0.8601
540.70 0.8597
540.80 0.8592
540.90 0.8587
541.00 0.8583
541.10 0.8578
541.20 0.8573
541.30 0.8568
541.40 0.8564
541.50 0.8559
541.60 0.8554
541.70 0.855
541.80 0.8545
541.90 0.854
542.00 0.8536
542.10 0.8531
542.20 0.8526
542.30 0.8522
542.40 0.8517
542.50 0.8512
542.60 0.8508
542.70 0.8503
542.80 0.8498
542.90 0.8494
543.00 0.8489
543.10 0.8484
543.20 0.848
543.30 0.8475
543.40 0.8471
543.50 0.8466
543.60 0.8461
543.70 0.8457
543.80 0.8452
543.90 0.8447
544.00 0.8443
544.10 0.8438
544.20 0.8433
544.30 0.8429
544.40 0.8424
544.50 0.842
544.60 0.8415
544.70 0.841
544.80 0.8406
544.90 0.8401
545.00 0.8397
545.10 0.8392
545.20 0.8387
545.30 0.8383
545.40 0.8378
545.50 0.8374
545.60 0.8369
545.70 0.8364
545.80 0.836
545.90 0.8355
546.00 0.8351
546.10 0.8346
546.20 0.8343
546.30 0.834
546.40 0.8338
546.50 0.8335
546.60 0.8333
546.70 0.833
546.80 0.8328
546.90 0.8325
547.00 0.8323
547.10 0.832
547.20 0.8316
547.30 0.8312
547.40 0.8307
547.50 0.8303
547.60 0.8298
547.70 0.8293
547.80 0.8289
547.90 0.8284
548.00 0.8279
548.10 0.8275
548.20 0.827
548.30 0.8265
548.40 0.8261
548.50 0.8256
548.60 0.8252
548.70 0.8247
548.80 0.8242
548.90 0.8238
549.00 0.8233
549.10 0.8228
549.20 0.8224
549.30 0.8219
549.40 0.8215
549.50 0.821
549.60 0.8205
549.70 0.8201
549.80 0.8196
549.90 0.8192
550.00 0.8187
550.10 0.8183
550.20 0.8178
550.30 0.8173
550.40 0.8169
550.50 0.8164
550.60 0.816
550.70 0.8155
550.80 0.8151
550.90 0.8146
551.00 0.8141
551.10 0.8137
551.20 0.8132
551.30 0.8128
551.40 0.8123
551.50 0.8119
551.60 0.8114
551.70 0.811
551.80 0.8105
551.90 0.8101
552.00 0.8096
552.10 0.8092
552.20 0.8087
552.30 0.8083
552.40 0.8078
552.50 0.8074
552.60 0.8069
552.70 0.8065
552.80 0.806
552.90 0.8056
553.00 0.8051
553.10 0.8047
553.20 0.8042
553.30 0.8038
553.40 0.8033
553.50 0.8029
553.60 0.8024
553.70 0.802
553.80 0.8015
553.90 0.8011
554.00 0.8006
554.10 0.8002
554.20 0.7997
554.30 0.7993
554.40 0.7989
554.50 0.7984
554.60 0.798
554.70 0.7975
554.80 0.7971
554.90 0.7966
555.00 0.7962
555.10 0.7957
555.20 0.7953
555.30 0.7949
555.40 0.7944
555.50 0.794
555.60 0.7935
555.70 0.7931
555.80 0.7927
555.90 0.7922
556.00 0.7918
556.10 0.7913
556.20 0.7909
556.30 0.7905
556.40 0.79
556.50 0.7896
556.60 0.7891
556.70 0.7887
556.80 0.7883
556.90 0.7878
557.00 0.7874
557.10 0.787
557.20 0.7865
557.30 0.7861
557.40 0.7856
557.50 0.7852
557.60 0.7848
557.70 0.7843
557.80 0.7839
557.90 0.7835
558.00 0.783
558.10 0.7826
558.20 0.7822
558.30 0.7817
558.40 0.7813
558.50 0.7809
558.60 0.7804
558.70 0.78
558.80 0.7796
558.90 0.7791
559.00 0.7787
559.10 0.7783
559.20 0.7778
559.30 0.7774
559.40 0.777
559.50 0.7766
559.60 0.7761
559.70 0.7757
559.80 0.7753
559.90 0.7748
560.00 0.7744
560.10 0.774
560.20 0.7736
560.30 0.7731
560.40 0.7727
560.50 0.7723
560.60 0.7718
560.70 0.7714
560.80 0.771
560.90 0.7706
561.00 0.7701
561.10 0.7697
561.20 0.7693
561.30 0.7689
561.40 0.7684
561.50 0.768
561.60 0.7676
561.70 0.7672
561.80 0.7667
561.90 0.7663
562.00 0.7659
562.10 0.7655
562.20 0.765
562.30 0.7646
562.40 0.7642
562.50 0.7638
562.60 0.7634
562.70 0.7629
562.80 0.7625
562.90 0.7621
563.00 0.7617
563.10 0.7613
563.20 0.7608
563.30 0.7604
563.40 0.76
563.50 0.7596
563.60 0.7592
563.70 0.7588
563.80 0.7583
563.90 0.7579
564.00 0.7575
564.10 0.7571
564.20 0.7567
564.30 0.7563
564.40 0.7558
564.50 0.7554
564.60 0.755
564.70 0.7546
564.80 0.7542
564.90 0.7538
565.00 0.7533
565.10 0.7529
565.20 0.7525
565.30 0.7521
565.40 0.7517
565.50 0.7513
565.60 0.7509
565.70 0.7504
565.80 0.75
565.90 0.7496
566.00 0.7492
566.10 0.7488
566.20 0.7484
566.30 0.748
566.40 0.7476
566.50 0.7472
566.60 0.7467
566.70 0.7463
566.80 0.7459
566.90 0.7455
567.00 0.7451
567.10 0.7447
567.20 0.7443
567.30 0.7439
567.40 0.7435
567.50 0.7431
567.60 0.7427
567.70 0.7422
567.80 0.7418
567.90 0.7414
568.00 0.741
568.10 0.7406
568.20 0.7402
568.30 0.7398
568.40 0.7394
568.50 0.739
568.60 0.7386
568.70 0.7382
568.80 0.7378
568.90 0.7374
569.00 0.737
569.10 0.7366
569.20 0.7362
569.30 0.7358
569.40 0.7354
569.50 0.735
569.60 0.7346
569.70 0.7342
569.80 0.7338
569.90 0.7334
570.00 0.733
570.10 0.7326
570.20 0.7322
570.30 0.7318
570.40 0.7314
570.50 0.731
570.60 0.7306
570.70 0.7302
570.80 0.7298
570.90 0.7294
571.00 0.729
571.10 0.7286
571.20 0.7282
571.30 0.7278
571.40 0.7274
571.50 0.727
571.60 0.7266
571.70 0.7262
571.80 0.7258
571.90 0.7254
572.00 0.725
572.10 0.7246
572.20 0.7242
572.30 0.7238
572.40 0.7234
572.50 0.723
572.60 0.7226
572.70 0.7222
572.80 0.7218
572.90 0.7214
573.00 0.721
573.10 0.7207
573.20 0.7203
573.30 0.7199
573.40 0.7195
573.50 0.7191
573.60 0.7187
573.70 0.7183
573.80 0.7179
573.90 0.7175
574.00 0.7171
574.10 0.7167
574.20 0.7163
574.30 0.716
574.40 0.7156
574.50 0.7152
574.60 0.7148
574.70 0.7144
574.80 0.714
574.90 0.7136
575.00 0.7132
575.10 0.7129
575.20 0.7125
575.30 0.7121
575.40 0.7117
575.50 0.7113
575.60 0.7109
575.70 0.7105
575.80 0.7101
575.90 0.7098
576.00 0.7094
576.10 0.709
576.20 0.7086
576.30 0.7082
576.40 0.7078
576.50 0.7074
576.60 0.7071
576.70 0.7067
576.80 0.7063
576.90 0.7059
577.00 0.7055
577.10 0.7051
577.20 0.7048
577.30 0.7044
577.40 0.704
577.50 0.7036
577.60 0.7032
577.70 0.7029
577.80 0.7025
577.90 0.7021
578.00 0.7017
578.10 0.7013
578.20 0.701
578.30 0.7006
578.40 0.7002
578.50 0.6998
578.60 0.6994
578.70 0.6991
578.80 0.6987
578.90 0.6983
579.00 0.6979
579.10 0.6975
579.20 0.6972
579.30 0.6968
579.40 0.6964
579.50 0.696
579.60 0.6957
579.70 0.6953
579.80 0.6949
579.90 0.6945
580.00 0.6942
580.10 0.6938
580.20 0.6934
580.30 0.693
580.40 0.6927
580.50 0.6923
580.60 0.6919
580.70 0.6915
580.80 0.6912
580.90 0.6908
581.00 0.6904
581.10 0.69
581.20 0.6897
581.30 0.6893
581.40 0.6889
581.50 0.6885
581.60 0.6882
581.70 0.6878
581.80 0.6874
581.90 0.6871
582.00 0.6867
582.10 0.6863
582.20 0.686
582.30 0.6856
582.40 0.6852
582.50 0.6848
582.60 0.6845
582.70 0.6841
582.80 0.6837
582.90 0.6834
583.00 0.683
583.10 0.6826
583.20 0.6823
583.30 0.6819
583.40 0.6815
583.50 0.6812
583.60 0.6808
583.70 0.6804
583.80 0.6801
583.90 0.6797
584.00 0.6793
584.10 0.679
584.20 0.6786
584.30 0.6782
584.40 0.6779
584.50 0.6775
584.60 0.6771
584.70 0.6768
584.80 0.6764
584.90 0.676
585.00 0.6757
585.10 0.6753
585.20 0.675
585.30 0.6746
585.40 0.6742
585.50 0.6739
585.60 0.6735
585.70 0.6731
585.80 0.6728
585.90 0.6724
586.00 0.6721
586.10 0.6717
586.20 0.6713
586.30 0.671
586.40 0.6706
586.50 0.6703
586.60 0.6699
586.70 0.6695
586.80 0.6692
586.90 0.6688
587.00 0.6685
587.10 0.6681
587.20 0.6677
587.30 0.6674
587.40 0.667
587.50 0.6667
587.60 0.6663
587.70 0.666
587.80 0.6656
587.90 0.6652
588.00 0.6649
588.10 0.6645
588.20 0.6642
588.30 0.6638
588.40 0.6635
588.50 0.6631
588.60 0.6628
588.70 0.6624
588.80 0.662
588.90 0.6617
589.00 0.6613
589.10 0.661
589.20 0.6606
589.30 0.6603
589.40 0.6599
589.50 0.6596
589.60 0.6592
589.70 0.6589
589.80 0.6585
589.90 0.6582
590.00 0.6578
590.10 0.6575
590.20 0.6571
590.30 0.6568
590.40 0.6564
590.50 0.6561
590.60 0.6557
590.70 0.6554
590.80 0.655
590.90 0.6547
591.00 0.6543
591.10 0.654
591.20 0.6536
591.30 0.6533
591.40 0.6529
591.50 0.6526
591.60 0.6522
591.70 0.6519
591.80 0.6515
591.90 0.6512
592.00 0.6508
592.10 0.6505
592.20 0.6501
592.30 0.6498
592.40 0.6494
592.50 0.6491
592.60 0.6487
592.70 0.6484
592.80 0.6481
592.90 0.6477
593.00 0.6474
593.10 0.647
593.20 0.6467
593.30 0.6463
593.40 0.646
593.50 0.6456
593.60 0.6453
593.70 0.645
593.80 0.6446
593.90 0.6443
594.00 0.6439
594.10 0.6436
594.20 0.6432
594.30 0.6429
594.40 0.6426
594.50 0.6422
594.60 0.6419
594.70 0.6415
594.80 0.6412
594.90 0.6408
595.00 0.6405
595.10 0.6402
595.20 0.6398
595.30 0.6395
595.40 0.6391
595.50 0.6388
595.60 0.6385
595.70 0.6381
595.80 0.6378
595.90 0.6375
596.00 0.6371
596.10 0.6368
596.20 0.6362
596.30 0.6354
596.40 0.6347
596.50 0.6339
596.60 0.6332
596.70 0.6325
596.80 0.6317
596.90 0.631
597.00 0.6302
597.10 0.6295
597.20 0.629
597.30 0.6287
597.40 0.6283
597.50 0.628
597.60 0.6276
597.70 0.6273
597.80 0.6269
597.90 0.6266
598.00 0.6263
598.10 0.6259
598.20 0.6256
598.30 0.6252
598.40 0.6249
598.50 0.6245
598.60 0.6242
598.70 0.6238
598.80 0.6235
598.90 0.6231
599.00 0.6228
599.10 0.6225
599.20 0.6221
599.30 0.6218
599.40 0.6214
599.50 0.6211
599.60 0.6207
599.70 0.6204
599.80 0.6201
599.90 0.6197
600.00 0.6194
600.10 0.619
600.20 0.6187
600.30 0.6183
600.40 0.618
600.50 0.6177
600.60 0.6173
600.70 0.617
600.80 0.6166
600.90 0.6163
601.00 0.6159
601.10 0.6156
601.20 0.6153
601.30 0.6149
601.40 0.6146
601.50 0.6142
601.60 0.6139
601.70 0.6136
601.80 0.6132
601.90 0.6129
602.00 0.6125
602.10 0.6122
602.20 0.6119
602.30 0.6115
602.40 0.6112
602.50 0.6108
602.60 0.6105
602.70 0.6102
602.80 0.6098
602.90 0.6095
603.00 0.6091
603.10 0.6088
603.20 0.6085
603.30 0.6081
603.40 0.6078
603.50 0.6074
603.60 0.6071
603.70 0.6068
603.80 0.6064
603.90 0.6061
604.00 0.6058
604.10 0.6054
604.20 0.6051
604.30 0.6047
604.40 0.6044
604.50 0.6041
604.60 0.6037
604.70 0.6034
604.80 0.6031
604.90 0.6027
605.00 0.6024
605.10 0.602
605.20 0.6017
605.30 0.6014
605.40 0.601
605.50 0.6007
605.60 0.6004
605.70 0.6
605.80 0.5997
605.90 0.5994
606.00 0.599
606.10 0.5987
606.20 0.5983
606.30 0.598
606.40 0.5977
606.50 0.5973
606.60 0.597
606.70 0.5967
606.80 0.5963
606.90 0.596
607.00 0.5957
607.10 0.5953
607.20 0.595
607.30 0.5947
607.40 0.5943
607.50 0.594
607.60 0.5937
607.70 0.5933
607.80 0.593
607.90 0.5927
608.00 0.5923
608.10 0.592
608.20 0.5917
608.30 0.5913
608.40 0.591
608.50 0.5906
608.60 0.5903
608.70 0.59
608.80 0.5896
608.90 0.5893
609.00 0.589
609.10 0.5887
609.20 0.5883
609.30 0.588
609.40 0.5876
609.50 0.5873
609.60 0.587
609.70 0.5867
609.80 0.5863
609.90 0.586
610.00 0.5857
610.10 0.5853
610.20 0.585
610.30 0.5847
610.40 0.5843
610.50 0.584
610.60 0.5837
610.70 0.5833
610.80 0.583
610.90 0.5827
611.00 0.5823
611.10 0.582
611.20 0.5817
611.30 0.5813
611.40 0.581
611.50 0.5807
611.60 0.5803
611.70 0.58
611.80 0.5797
611.90 0.5793
612.00 0.579
612.10 0.5787
612.20 0.5783
612.30 0.578
612.40 0.5777
612.50 0.5773
612.60 0.577
612.70 0.5767
612.80 0.5763
612.90 0.576
613.00 0.5757
613.10 0.5754
613.20 0.575
613.30 0.5747
613.40 0.5744
613.50 0.574
613.60 0.5737
613.70 0.5734
613.80 0.573
613.90 0.5727
614.00 0.5724
614.10 0.572
614.20 0.5717
614.30 0.5714
614.40 0.571
614.50 0.5707
614.60 0.5704
614.70 0.57
614.80 0.5697
614.90 0.5694
615.00 0.569
615.10 0.5687
615.20 0.5684
615.30 0.568
615.40 0.5677
615.50 0.5674
615.60 0.567
615.70 0.5667
615.80 0.5664
615.90 0.566
616.00 0.5657
616.10 0.5654
616.20 0.5651
616.30 0.5647
616.40 0.5644
616.50 0.564
616.60 0.5637
616.70 0.5634
616.80 0.563
616.90 0.5627
617.00 0.5624
617.10 0.5621
617.20 0.5617
617.30 0.5614
617.40 0.561
617.50 0.5607
617.60 0.5604
617.70 0.56
617.80 0.5597
617.90 0.5594
618.00 0.559
618.10 0.5587
618.20 0.5584
618.30 0.558
618.40 0.5577
618.50 0.5574
618.60 0.557
618.70 0.5567
618.80 0.5564
618.90 0.556
619.00 0.5557
619.10 0.5554
619.20 0.555
619.30 0.5547
619.40 0.5543
619.50 0.554
619.60 0.5537
619.70 0.5533
619.80 0.553
619.90 0.5527
620.00 0.5523
620.10 0.552
620.20 0.5517
620.30 0.5513
620.40 0.551
620.50 0.5506
620.60 0.5503
620.70 0.55
620.80 0.5496
620.90 0.5493
621.00 0.5489
621.10 0.5486
621.20 0.5483
621.30 0.5479
621.40 0.5476
621.50 0.5472
621.60 0.5469
621.70 0.5466
621.80 0.5462
621.90 0.5459
622.00 0.5455
622.10 0.5452
622.20 0.5449
622.30 0.5445
622.40 0.5442
622.50 0.5438
622.60 0.5435
622.70 0.5431
622.80 0.5428
622.90 0.5424
623.00 0.5421
623.10 0.5418
623.20 0.5414
623.30 0.5411
623.40 0.5407
623.50 0.5404
623.60 0.54
623.70 0.5397
623.80 0.5393
623.90 0.539
624.00 0.5387
624.10 0.5383
624.20 0.538
624.30 0.5376
624.40 0.5373
624.50 0.5369
624.60 0.5366
624.70 0.5362
624.80 0.5359
624.90 0.5355
625.00 0.5352
625.10 0.5348
625.20 0.5345
625.30 0.5341
625.40 0.5338
625.50 0.5334
625.60 0.5331
625.70 0.5327
625.80 0.5324
625.90 0.532
626.00 0.5316
626.10 0.5313
626.20 0.5309
626.30 0.5306
626.40 0.5302
626.50 0.5299
626.60 0.5295
626.70 0.5292
626.80 0.5288
626.90 0.5284
627.00 0.5281
627.10 0.5277
627.20 0.5274
627.30 0.527
627.40 0.5266
627.50 0.5263
627.60 0.5259
627.70 0.5256
627.80 0.5252
627.90 0.5248
628.00 0.5245
628.10 0.5241
628.20 0.5238
628.30 0.5234
628.40 0.523
628.50 0.5226
628.60 0.5223
628.70 0.5219
628.80 0.5215
628.90 0.5212
629.00 0.5208
629.10 0.5204
629.20 0.5201
629.30 0.5197
629.40 0.5193
629.50 0.5189
629.60 0.5186
629.70 0.5182
629.80 0.5178
629.90 0.5174
630.00 0.5171
630.10 0.5167
630.20 0.5163
630.30 0.5159
630.40 0.5156
630.50 0.5152
630.60 0.5148
630.70 0.5144
630.80 0.514
630.90 0.5136
631.00 0.5133
631.10 0.5129
631.20 0.5125
631.30 0.5121
631.40 0.5117
631.50 0.5113
631.60 0.5109
631.70 0.5105
631.80 0.5101
631.90 0.5097
632.00 0.5093
632.10 0.5089
632.20 0.5086
632.30 0.5082
632.40 0.5078
632.50 0.5073
632.60 0.5069
632.70 0.5065
632.80 0.5061
632.90 0.5057
633.00 0.5053
633.10 0.5049
633.20 0.5045
633.30 0.5041
633.40 0.5037
633.50 0.5033
633.60 0.5029
633.70 0.5024
633.80 0.502
633.90 0.5016
634.00 0.5012
634.10 0.5008
634.20 0.5003
634.30 0.4999
634.40 0.4995
634.50 0.4991
634.60 0.4986
634.70 0.4982
634.80 0.4978
634.90 0.4973
635.00 0.4969
635.10 0.4965
635.20 0.496
635.30 0.4956
635.40 0.4951
635.50 0.4947
635.60 0.4942
635.70 0.4938
635.80 0.4933
635.90 0.4929
636.00 0.4924
636.10 0.492
636.20 0.4915
636.30 0.4911
636.40 0.4906
636.50 0.4902
636.60 0.4897
636.70 0.4892
636.80 0.4887
636.90 0.4883
637.00 0.4878
637.10 0.4873
637.20 0.4869
637.30 0.4864
637.40 0.4859
637.50 0.4854
637.60 0.4849
637.70 0.4844
637.80 0.484
637.90 0.4835
638.00 0.483
638.10 0.4825
638.20 0.482
638.30 0.4815
638.40 0.481
638.50 0.4805
638.60 0.48
638.70 0.4794
638.80 0.4789
638.90 0.4784
639.00 0.4779
639.10 0.4774
639.20 0.4769
639.30 0.4764
639.40 0.4758
639.50 0.4753
639.60 0.4747
639.70 0.4742
639.80 0.4737
639.90 0.4731
640.00 0.4726
640.10 0.472
640.20 0.4715
640.30 0.471
640.40 0.4704
640.50 0.4698
640.60 0.4692
640.70 0.4687
640.80 0.4681
640.90 0.4675
641.00 0.467
641.10 0.4664
641.20 0.4658
641.30 0.4653
641.40 0.4646
641.50 0.464
641.60 0.4634
641.70 0.4628
641.80 0.4622
641.90 0.4616
642.00 0.461
642.10 0.4604
642.20 0.4598
642.30 0.4592
642.40 0.4586
642.50 0.4579
642.60 0.4573
642.70 0.4566
642.80 0.456
642.90 0.4553
643.00 0.4547
643.10 0.454
643.20 0.4534
643.30 0.4528
643.40 0.4521
643.50 0.4514
643.60 0.4507
643.70 0.45
643.80 0.4493
643.90 0.4486
644.00 0.4479
644.10 0.4472
644.20 0.4465
644.30 0.4458
644.40 0.4451
644.50 0.4443
644.60 0.4436
644.70 0.4428
644.80 0.4421
644.90 0.4414
645.00 0.4406
645.10 0.4399
645.20 0.4391
645.30 0.4384
645.40 0.4376
645.50 0.4368
645.60 0.436
645.70 0.4352
645.80 0.4344
645.90 0.4336
646.00 0.4328
646.10 0.432
646.20 0.4312
646.30 0.4303
646.40 0.4295
646.50 0.4286
646.60 0.4277
646.70 0.4269
646.80 0.426
646.90 0.4251
647.00 0.4243
647.10 0.4234
647.20 0.4225
647.30 0.4216
647.40 0.4207
647.50 0.4197
647.60 0.4187
647.70 0.4177
647.80 0.4167
647.90 0.4158
648.00 0.4148
648.10 0.4138
648.20 0.4128
648.30 0.4118
648.40 0.4107
648.50 0.4096
648.60 0.4085
648.70 0.4074
648.80 0.4063
648.90 0.4052
649.00 0.4041
649.10 0.403
649.20 0.4019
649.30 0.4008
649.40 0.3995
649.50 0.3982
649.60 0.3969
649.70 0.3956
649.80 0.3943
649.90 0.3931
650.00 0.3918
650.10 0.3905
650.20 0.3892
650.30 0.3879
650.40 0.3864
650.50 0.3849
650.60 0.3834
650.70 0.382
650.80 0.3805
650.90 0.379
651.00 0.3775
651.10 0.376
651.20 0.3746
651.30 0.373
651.40 0.3713
651.50 0.3696
651.60 0.3678
651.70 0.3661
651.80 0.3644
651.90 0.3626
652.00 0.3609
652.10 0.3592
652.20 0.3575
652.30 0.3557
652.40 0.3536
652.50 0.3515
652.60 0.3495
652.70 0.3474
652.80 0.3453
652.90 0.3433
653.00 0.3412
653.10 0.3392
653.20 0.3371
653.30 0.335
653.40 0.3323
653.50 0.3297
653.60 0.3271
653.70 0.3245
653.80 0.3219
653.90 0.3193
654.00 0.3166
654.10 0.314
654.20 0.3114
654.30 0.3087
654.40 0.3058
654.50 0.3028
654.60 0.2998
654.70 0.2968
654.80 0.2938
654.90 0.2907
655.00 0.2875
655.10 0.2844
655.20 0.2813
655.30 0.2782
655.40 0.2749
655.50 0.2714
655.60 0.2676
655.70 0.2637
655.80 0.2589
655.90 0.2535
656.00 0.2449
656.10 0.2352
656.20 0.2132
656.30 0.1967
656.40 0.2232
656.50 0.2392
656.60 0.2476
656.70 0.2552
656.80 0.2597
656.90 0.264
657.00 0.2676
657.10 0.2711
657.20 0.2741
657.30 0.2772
657.40 0.28
657.50 0.2829
657.60 0.2857
657.70 0.2886
657.80 0.2914
657.90 0.2941
658.00 0.2968
658.10 0.2995
658.20 0.3022
658.30 0.3048
658.40 0.3071
658.50 0.3094
658.60 0.3117
658.70 0.314
658.80 0.3163
658.90 0.3186
659.00 0.3209
659.10 0.3232
659.20 0.3254
659.30 0.3276
659.40 0.3293
659.50 0.331
659.60 0.3327
659.70 0.3344
659.80 0.3362
659.90 0.3379
660.00 0.3396
660.10 0.3413
660.20 0.343
660.30 0.3446
660.40 0.346
660.50 0.3473
660.60 0.3487
660.70 0.35
660.80 0.3514
660.90 0.3527
661.00 0.3541
661.10 0.3554
661.20 0.3568
661.30 0.3581
661.40 0.3591
661.50 0.3602
661.60 0.3613
661.70 0.3624
661.80 0.3635
661.90 0.3645
662.00 0.3656
662.10 0.3667
662.20 0.3678
662.30 0.3688
662.40 0.3697
662.50 0.3706
662.60 0.3714
662.70 0.3723
662.80 0.3732
662.90 0.374
663.00 0.3749
663.10 0.3758
663.20 0.3766
663.30 0.3775
663.40 0.3781
663.50 0.3788
663.60 0.3795
663.70 0.3802
663.80 0.3808
663.90 0.3815
664.00 0.3822
664.10 0.3829
664.20 0.3835
664.30 0.3842
664.40 0.3847
664.50 0.3853
664.60 0.3858
664.70 0.3863
664.80 0.3869
664.90 0.3874
665.00 0.3879
665.10 0.3885
665.20 0.389
665.30 0.3895
665.40 0.39
665.50 0.3904
665.60 0.3908
665.70 0.3912
665.80 0.3917
665.90 0.3921
666.00 0.3925
666.10 0.3929
666.20 0.3933
666.30 0.3937
666.40 0.3941
666.50 0.3944
666.60 0.3948
666.70 0.3951
666.80 0.3955
666.90 0.3958
667.00 0.3962
667.10 0.3965
667.20 0.3969
667.30 0.3972
667.40 0.3975
667.50 0.3978
667.60 0.398
667.70 0.3983
667.80 0.3986
667.90 0.3989
668.00 0.3992
668.10 0.3995
668.20 0.3997
668.30 0.4
668.40 0.4002
668.50 0.4004
668.60 0.4007
668.70 0.4009
668.80 0.4011
668.90 0.4013
669.00 0.4016
669.10 0.4018
669.20 0.402
669.30 0.4022
669.40 0.4024
669.50 0.4026
669.60 0.4027
669.70 0.4029
669.80 0.4031
669.90 0.4032
670.00 0.4034
670.10 0.4036
670.20 0.4037
670.30 0.4039
670.40 0.404
670.50 0.4042
670.60 0.4043
670.70 0.4044
670.80 0.4045
670.90 0.4047
671.00 0.4048
671.10 0.4049
671.20 0.405
671.30 0.4052
671.40 0.4053
671.50 0.4053
671.60 0.4054
671.70 0.4055
671.80 0.4056
671.90 0.4057
672.00 0.4058
672.10 0.4059
672.20 0.406
672.30 0.406
672.40 0.4061
672.50 0.4062
672.60 0.4062
672.70 0.4063
672.80 0.4063
672.90 0.4064
673.00 0.4064
673.10 0.4065
673.20 0.4065
673.30 0.4066
673.40 0.4066
673.50 0.4066
673.60 0.4067
673.70 0.4067
673.80 0.4067
673.90 0.4067
674.00 0.4068
674.10 0.4068
674.20 0.4068
674.30 0.4068
674.40 0.4068
674.50 0.4068
674.60 0.4068
674.70 0.4068
674.80 0.4069
674.90 0.4069
675.00 0.4069
675.10 0.4069
675.20 0.4069
675.30 0.4068
675.40 0.4068
675.50 0.4068
675.60 0.4068
675.70 0.4068
675.80 0.4067
675.90 0.4067
676.00 0.4067
676.10 0.4067
676.20 0.4067
676.30 0.4066
676.40 0.4066
676.50 0.4065
676.60 0.4065
676.70 0.4065
676.80 0.4064
676.90 0.4064
677.00 0.4063
677.10 0.4063
677.20 0.4063
677.30 0.4062
677.40 0.4062
677.50 0.4061
677.60 0.406
677.70 0.406
677.80 0.4059
677.90 0.4059
678.00 0.4058
678.10 0.4057
678.20 0.4057
678.30 0.4056
678.40 0.4056
678.50 0.4055
678.60 0.4054
678.70 0.4053
678.80 0.4053
678.90 0.4052
679.00 0.4051
679.10 0.405
679.20 0.405
679.30 0.4049
679.40 0.4048
679.50 0.4047
679.60 0.4046
679.70 0.4045
679.80 0.4045
679.90 0.4044
680.00 0.4043
680.10 0.4042
680.20 0.4041
680.30 0.404
680.40 0.4039
680.50 0.4038
680.60 0.4037
680.70 0.4036
680.80 0.4035
680.90 0.4034
681.00 0.4033
681.10 0.4032
681.20 0.4031
681.30 0.403
681.40 0.4029
681.50 0.4028
681.60 0.4027
681.70 0.4026
681.80 0.4025
681.90 0.4024
682.00 0.4023
682.10 0.4022
682.20 0.4021
682.30 0.402
682.40 0.4018
682.50 0.4017
682.60 0.4016
682.70 0.4015
682.80 0.4014
682.90 0.4013
683.00 0.4012
683.10 0.401
683.20 0.4009
683.30 0.4008
683.40 0.4007
683.50 0.4006
683.60 0.4004
683.70 0.4003
683.80 0.4002
683.90 0.4001
684.00 0.3999
684.10 0.3998
684.20 0.3997
684.30 0.3996
684.40 0.3994
684.50 0.3993
684.60 0.3992
684.70 0.3991
684.80 0.3989
684.90 0.3988
685.00 0.3987
685.10 0.3985
685.20 0.3984
685.30 0.3983
685.40 0.3981
685.50 0.398
685.60 0.3979
685.70 0.3977
685.80 0.3976
685.90 0.3975
686.00 0.3973
686.10 0.3972
686.20 0.3971
686.30 0.3969
686.40 0.3968
686.50 0.3967
686.60 0.3965
686.70 0.3964
686.80 0.3962
686.90 0.3961
687.00 0.396
687.10 0.3958
687.20 0.3957
687.30 0.3956
687.40 0.3954
687.50 0.3953
687.60 0.3951
687.70 0.395
687.80 0.3948
687.90 0.3947
688.00 0.3946
688.10 0.3944
688.20 0.3943
688.30 0.3941
688.40 0.394
688.50 0.3938
688.60 0.3937
688.70 0.3936
688.80 0.3934
688.90 0.3933
689.00 0.3931
689.10 0.393
689.20 0.3928
689.30 0.3927
689.40 0.3925
689.50 0.3924
689.60 0.3922
689.70 0.392
689.80 0.3919
689.90 0.3917
690.00 0.3916
690.10 0.3914
690.20 0.3912
690.30 0.3911
690.40 0.3909
690.50 0.3908
690.60 0.3906
690.70 0.3904
690.80 0.3903
690.90 0.3901
691.00 0.39
691.10 0.3898
691.20 0.3896
691.30 0.3895
691.40 0.3893
691.50 0.3892
691.60 0.389
691.70 0.3888
691.80 0.3887
691.90 0.3885
692.00 0.3884
692.10 0.3882
692.20 0.388
692.30 0.3879
692.40 0.3877
692.50 0.3876
692.60 0.3874
692.70 0.3873
692.80 0.3871
692.90 0.3869
693.00 0.3868
693.10 0.3866
693.20 0.3865
693.30 0.3863
693.40 0.3861
693.50 0.386
693.60 0.3858
693.70 0.3857
693.80 0.3855
693.90 0.3854
694.00 0.3852
694.10 0.385
694.20 0.3849
694.30 0.3847
694.40 0.3846
694.50 0.3844
694.60 0.3843
694.70 0.3841
694.80 0.3839
694.90 0.3838
695.00 0.3836
695.10 0.3835
695.20 0.3833
695.30 0.3832
695.40 0.383
695.50 0.3828
695.60 0.3827
695.70 0.3825
695.80 0.3824
695.90 0.3822
696.00 0.3821
696.10 0.3819
696.20 0.3818
696.30 0.3816
696.40 0.3814
696.50 0.3813
696.60 0.3811
696.70 0.381
696.80 0.3808
696.90 0.3807
697.00 0.3805
697.10 0.3804
697.20 0.3802
697.30 0.38
697.40 0.3799
697.50 0.3797
697.60 0.3796
697.70 0.3794
697.80 0.3793
697.90 0.3791
698.00 0.379
698.10 0.3788
698.20 0.3787
698.30 0.3785
698.40 0.3784
698.50 0.3782
698.60 0.378
698.70 0.3779
698.80 0.3777
698.90 0.3776
699.00 0.3774
699.10 0.3773
699.20 0.3771
699.30 0.377
699.40 0.3768
699.50 0.3767
699.60 0.3765
699.70 0.3764
699.80 0.3762
699.90 0.376
700.00 0.3759
700.10 0.3757
700.20 0.3756
700.30 0.3754
700.40 0.3753
700.50 0.3751
700.60 0.375
700.70 0.3749
700.80 0.3747
700.90 0.3746
701.00 0.3744
701.10 0.3743
701.20 0.3741
701.30 0.374
701.40 0.3738
701.50 0.3737
701.60 0.3735
701.70 0.3734
701.80 0.3732
701.90 0.3731
702.00 0.3729
702.10 0.3728
702.20 0.3726
702.30 0.3725
702.40 0.3723
702.50 0.3722
702.60 0.372
702.70 0.3719
702.80 0.3717
702.90 0.3716
703.00 0.3714
703.10 0.3713
703.20 0.3711
703.30 0.371
703.40 0.3709
703.50 0.3707
703.60 0.3706
703.70 0.3704
703.80 0.3703
703.90 0.3701
704.00 0.37
704.10 0.3698
704.20 0.3697
704.30 0.3695
704.40 0.3694
704.50 0.3692
704.60 0.3691
704.70 0.3689
704.80 0.3688
704.90 0.3687
705.00 0.3685
705.10 0.3683
705.20 0.3682
705.30 0.368
705.40 0.3679
705.50 0.3677
705.60 0.3675
705.70 0.3674
705.80 0.3672
705.90 0.367
706.00 0.3669
706.10 0.3667
706.20 0.3665
706.30 0.3664
706.40 0.3662
706.50 0.3661
706.60 0.3659
706.70 0.3657
706.80 0.3656
706.90 0.3654
707.00 0.3652
707.10 0.3651
707.20 0.3649
707.30 0.3648
707.40 0.3646
707.50 0.3644
707.60 0.3643
707.70 0.3641
707.80 0.364
707.90 0.3638
708.00 0.3636
708.10 0.3635
708.20 0.3633
708.30 0.3631
708.40 0.363
708.50 0.3628
708.60 0.3627
708.70 0.3625
708.80 0.3623
708.90 0.3622
709.00 0.362
709.10 0.3619
709.20 0.3617
709.30 0.3615
709.40 0.3614
709.50 0.3612
709.60 0.3611
709.70 0.3609
709.80 0.3607
709.90 0.3606
710.00 0.3604
710.10 0.3603
710.20 0.3601
710.30 0.3599
710.40 0.3598
710.50 0.3596
710.60 0.3594
710.70 0.3593
710.80 0.3591
710.90 0.359
711.00 0.3588
711.10 0.3586
711.20 0.3585
711.30 0.3583
711.40 0.3582
711.50 0.358
711.60 0.3578
711.70 0.3577
711.80 0.3575
711.90 0.3574
712.00 0.3572
712.10 0.357
712.20 0.3569
712.30 0.3567
712.40 0.3566
712.50 0.3564
712.60 0.3562
712.70 0.3561
712.80 0.3559
712.90 0.3558
713.00 0.3556
713.10 0.3554
713.20 0.3553
713.30 0.3551
713.40 0.355
713.50 0.3548
713.60 0.3546
713.70 0.3545
713.80 0.3543
713.90 0.3542
714.00 0.354
714.10 0.3538
714.20 0.3537
714.30 0.3535
714.40 0.3534
714.50 0.3532
714.60 0.3531
714.70 0.3529
714.80 0.3527
714.90 0.3526
715.00 0.3524
715.10 0.3523
715.20 0.3521
715.30 0.352
715.40 0.3519
715.50 0.3517
715.60 0.3516
715.70 0.3514
715.80 0.3513
715.90 0.3511
716.00 0.351
716.10 0.3509
716.20 0.3507
716.30 0.3506
716.40 0.3504
716.50 0.3503
716.60 0.3502
716.70 0.35
716.80 0.3499
716.90 0.3497
717.00 0.3496
717.10 0.3495
717.20 0.3493
717.30 0.3492
717.40 0.349
717.50 0.3489
717.60 0.3488
717.70 0.3486
717.80 0.3485
717.90 0.3483
718.00 0.3482
718.10 0.3481
718.20 0.3479
718.30 0.3478
718.40 0.3476
718.50 0.3475
718.60 0.3474
718.70 0.3472
718.80 0.3471
718.90 0.3469
719.00 0.3468
719.10 0.3467
719.20 0.3465
719.30 0.3464
719.40 0.3463
719.50 0.3461
719.60 0.346
719.70 0.3458
719.80 0.3457
719.90 0.3456
720.00 0.3454
720.10 0.3453
720.20 0.3451
720.30 0.3449
720.40 0.3448
720.50 0.3446
720.60 0.3445
720.70 0.3443
720.80 0.3442
720.90 0.344
721.00 0.3438
721.10 0.3437
721.20 0.3435
721.30 0.3434
721.40 0.3432
721.50 0.343
721.60 0.3429
721.70 0.3427
721.80 0.3426
721.90 0.3424
722.00 0.3423
722.10 0.3421
722.20 0.3419
722.30 0.3418
722.40 0.3416
722.50 0.3415
722.60 0.3413
722.70 0.3412
722.80 0.341
722.90 0.3408
723.00 0.3407
723.10 0.3405
723.20 0.3404
723.30 0.3402
723.40 0.3401
723.50 0.3399
723.60 0.3397
723.70 0.3396
723.80 0.3394
723.90 0.3393
724.00 0.3391
724.10 0.339
724.20 0.3388
724.30 0.3386
724.40 0.3385
724.50 0.3383
724.60 0.3382
724.70 0.338
724.80 0.3379
724.90 0.3377
725.00 0.3376
725.10 0.3374
725.20 0.3372
725.30 0.3371
725.40 0.3369
725.50 0.3368
725.60 0.3366
725.70 0.3365
725.80 0.3363
725.90 0.3362
726.00 0.336
726.10 0.3359
726.20 0.3357
726.30 0.3356
726.40 0.3354
726.50 0.3352
726.60 0.3351
726.70 0.3349
726.80 0.3348
726.90 0.3346
727.00 0.3345
727.10 0.3343
727.20 0.3342
727.30 0.334
727.40 0.3339
727.50 0.3337
727.60 0.3336
727.70 0.3334
727.80 0.3333
727.90 0.3331
728.00 0.3329
728.10 0.3328
728.20 0.3326
728.30 0.3325
728.40 0.3323
728.50 0.3322
728.60 0.332
728.70 0.3319
728.80 0.3317
728.90 0.3316
729.00 0.3314
729.10 0.3313
729.20 0.3311
729.30 0.331
729.40 0.3308
729.50 0.3307
729.60 0.3305
729.70 0.3304
729.80 0.3302
729.90 0.3301
730.00 0.3299
730.10 0.3298
730.20 0.3296
730.30 0.3295
730.40 0.3293
730.50 0.3292
730.60 0.329
730.70 0.3289
730.80 0.3287
730.90 0.3286
731.00 0.3284
731.10 0.3283
731.20 0.3281
731.30 0.328
731.40 0.3278
731.50 0.3277
731.60 0.3275
731.70 0.3274
731.80 0.3272
731.90 0.3271
732.00 0.3269
732.10 0.3268
732.20 0.3266
732.30 0.3265
732.40 0.3263
732.50 0.3262
732.60 0.326
732.70 0.3259
732.80 0.3257
732.90 0.3256
733.00 0.3254
733.10 0.3253
733.20 0.3251
733.30 0.325
733.40 0.3249
733.50 0.3247
733.60 0.3246
733.70 0.3244
733.80 0.3243
733.90 0.3241
734.00 0.324
734.10 0.3238
734.20 0.3237
734.30 0.3235
734.40 0.3234
734.50 0.3232
734.60 0.3231
734.70 0.3229
734.80 0.3228
734.90 0.3226
735.00 0.3225
735.10 0.3224
735.20 0.3222
735.30 0.3221
735.40 0.3219
735.50 0.3218
735.60 0.3216
735.70 0.3215
735.80 0.3213
735.90 0.3212
736.00 0.321
736.10 0.3209
736.20 0.3207
736.30 0.3206
736.40 0.3205
736.50 0.3203
736.60 0.3202
736.70 0.32
736.80 0.3199
736.90 0.3197
737.00 0.3196
737.10 0.3194
737.20 0.3193
737.30 0.3191
737.40 0.319
737.50 0.3189
737.60 0.3187
737.70 0.3186
737.80 0.3184
737.90 0.3183
738.00 0.3181
738.10 0.318
738.20 0.3178
738.30 0.3177
738.40 0.3176
738.50 0.3174
738.60 0.3173
738.70 0.3171
738.80 0.317
738.90 0.3168
739.00 0.3167
739.10 0.3165
739.20 0.3164
739.30 0.3163
739.40 0.3161
739.50 0.316
739.60 0.3158
739.70 0.3157
739.80 0.3155
739.90 0.3154
740.00 0.3153
740.10 0.3151
740.20 0.315
740.30 0.3148
740.40 0.3147
740.50 0.3145
740.60 0.3144
740.70 0.3143
740.80 0.3141
740.90 0.314
741.00 0.3138
741.10 0.3137
741.20 0.3136
741.30 0.3134
741.40 0.3133
741.50 0.3131
741.60 0.313
741.70 0.3129
741.80 0.3127
741.90 0.3126
742.00 0.3124
742.10 0.3123
742.20 0.3121
742.30 0.312
742.40 0.3119
742.50 0.3117
742.60 0.3116
742.70 0.3114
742.80 0.3113
742.90 0.3112
743.00 0.311
743.10 0.3109
743.20 0.3107
743.30 0.3106
743.40 0.3105
743.50 0.3103
743.60 0.3102
743.70 0.31
743.80 0.3099
743.90 0.3098
744.00 0.3096
744.10 0.3095
744.20 0.3094
744.30 0.3092
744.40 0.3091
744.50 0.3089
744.60 0.3088
744.70 0.3087
744.80 0.3085
744.90 0.3084
745.00 0.3082
745.10 0.3081
745.20 0.308
745.30 0.3078
745.40 0.3077
745.50 0.3075
745.60 0.3074
745.70 0.3073
745.80 0.3071
745.90 0.307
746.00 0.3069
746.10 0.3067
746.20 0.3066
746.30 0.3064
746.40 0.3063
746.50 0.3062
746.60 0.306
746.70 0.3059
746.80 0.3058
746.90 0.3056
747.00 0.3055
747.10 0.3053
747.20 0.3052
747.30 0.3051
747.40 0.3049
747.50 0.3048
747.60 0.3047
747.70 0.3045
747.80 0.3044
747.90 0.3042
748.00 0.3041
748.10 0.304
748.20 0.3038
748.30 0.3037
748.40 0.3036
748.50 0.3034
748.60 0.3033
748.70 0.3032
748.80 0.303
748.90 0.3029
749.00 0.3027
749.10 0.3026
749.20 0.3025
749.30 0.3023
749.40 0.3022
749.50 0.3021
749.60 0.3019
749.70 0.3018
749.80 0.3017
749.90 0.3015
750.00 0.3014
750.10 0.3013
750.20 0.3011
750.30 0.301
750.40 0.3009
750.50 0.3007
750.60 0.3006
750.70 0.3004
750.80 0.3003
750.90 0.3002
751.00 0.3
751.10 0.2999
751.20 0.2998
751.30 0.2996
751.40 0.2995
751.50 0.2994
751.60 0.2992
751.70 0.2991
751.80 0.299
751.90 0.2988
752.00 0.2987
752.10 0.2986
752.20 0.2985
752.30 0.2983
752.40 0.2982
752.50 0.2981
752.60 0.2979
752.70 0.2978
752.80 0.2977
752.90 0.2975
753.00 0.2974
753.10 0.2973
753.20 0.2971
753.30 0.297
753.40 0.2969
753.50 0.2967
753.60 0.2966
753.70 0.2965
753.80 0.2963
753.90 0.2962
754.00 0.2961
754.10 0.2959
754.20 0.2958
754.30 0.2957
754.40 0.2955
754.50 0.2954
754.60 0.2953
754.70 0.2951
754.80 0.295
754.90 0.2949
755.00 0.2948
755.10 0.2946
755.20 0.2945
755.30 0.2944
755.40 0.2942
755.50 0.2941
755.60 0.294
755.70 0.2938
755.80 0.2937
755.90 0.2936
756.00 0.2934
756.10 0.2933
756.20 0.2932
756.30 0.2931
756.40 0.2929
756.50 0.2928
756.60 0.2927
756.70 0.2925
756.80 0.2924
756.90 0.2923
757.00 0.2921
757.10 0.292
757.20 0.2919
757.30 0.2918
757.40 0.2916
757.50 0.2915
757.60 0.2914
757.70 0.2912
757.80 0.2911
757.90 0.291
758.00 0.2908
758.10 0.2907
758.20 0.2906
758.30 0.2905
758.40 0.2903
758.50 0.2902
758.60 0.2901
758.70 0.2899
758.80 0.2898
758.90 0.2897
759.00 0.2896
759.10 0.2894
759.20 0.2893
759.30 0.2892
759.40 0.289
759.50 0.2889
759.60 0.2888
759.70 0.2887
759.80 0.2885
759.90 0.2884
760.00 0.2883
760.10 0.2881
760.20 0.288
760.30 0.2879
760.40 0.2878
760.50 0.2876
760.60 0.2875
760.70 0.2874
760.80 0.2873
760.90 0.2871
761.00 0.287
761.10 0.2869
761.20 0.2867
761.30 0.2866
761.40 0.2865
761.50 0.2864
761.60 0.2862
761.70 0.2861
761.80 0.286
761.90 0.2859
762.00 0.2857
762.10 0.2856
762.20 0.2855
762.30 0.2854
762.40 0.2852
762.50 0.2851
762.60 0.285
762.70 0.2849
762.80 0.2847
762.90 0.2846
763.00 0.2845
763.10 0.2844
763.20 0.2842
763.30 0.2841
763.40 0.284
763.50 0.2839
763.60 0.2837
763.70 0.2836
763.80 0.2835
763.90 0.2834
764.00 0.2832
764.10 0.2831
764.20 0.283
764.30 0.2829
764.40 0.2827
764.50 0.2826
764.60 0.2825
764.70 0.2824
764.80 0.2822
764.90 0.2821
765.00 0.282
765.10 0.2819
765.20 0.2817
765.30 0.2816
765.40 0.2815
765.50 0.2814
765.60 0.2812
765.70 0.2811
765.80 0.281
765.90 0.2809
766.00 0.2807
766.10 0.2806
766.20 0.2805
766.30 0.2804
766.40 0.2803
766.50 0.2801
766.60 0.28
766.70 0.2799
766.80 0.2798
766.90 0.2796
767.00 0.2795
767.10 0.2794
767.20 0.2793
767.30 0.2791
767.40 0.279
767.50 0.2789
767.60 0.2788
767.70 0.2787
767.80 0.2785
767.90 0.2784
768.00 0.2783
768.10 0.2782
768.20 0.278
768.30 0.2779
768.40 0.2778
768.50 0.2777
768.60 0.2775
768.70 0.2774
768.80 0.2773
768.90 0.2772
769.00 0.2771
769.10 0.2769
769.20 0.2768
769.30 0.2767
769.40 0.2766
769.50 0.2765
769.60 0.2763
769.70 0.2762
769.80 0.2761
769.90 0.276
770.00 0.2758
770.10 0.2757
770.20 0.2756
770.30 0.2755
770.40 0.2754
770.50 0.2752
770.60 0.2751
770.70 0.275
770.80 0.2749
770.90 0.2748
771.00 0.2746
771.10 0.2745
771.20 0.2744
771.30 0.2743
771.40 0.2742
771.50 0.274
771.60 0.2739
771.70 0.2738
771.80 0.2737
771.90 0.2736
772.00 0.2734
772.10 0.2733
772.20 0.2732
772.30 0.2731
772.40 0.273
772.50 0.2729
772.60 0.2727
772.70 0.2726
772.80 0.2725
772.90 0.2724
773.00 0.2723
773.10 0.2721
773.20 0.272
773.30 0.2719
773.40 0.2718
773.50 0.2717
773.60 0.2715
773.70 0.2714
773.80 0.2713
773.90 0.2712
774.00 0.2711
774.10 0.271
774.20 0.2708
774.30 0.2707
774.40 0.2706
774.50 0.2705
774.60 0.2704
774.70 0.2702
774.80 0.2701
774.90 0.27
775.00 0.2699
775.10 0.2698
775.20 0.2697
775.30 0.2695
775.40 0.2694
775.50 0.2693
775.60 0.2692
775.70 0.2691
775.80 0.269
775.90 0.2688
776.00 0.2687
776.10 0.2686
776.20 0.2685
776.30 0.2684
776.40 0.2683
776.50 0.2681
776.60 0.268
776.70 0.2679
776.80 0.2678
776.90 0.2677
777.00 0.2676
777.10 0.2674
777.20 0.2673
777.30 0.2672
777.40 0.2671
777.50 0.267
777.60 0.2669
777.70 0.2667
777.80 0.2666
777.90 0.2665
778.00 0.2664
778.10 0.2663
778.20 0.2662
778.30 0.266
778.40 0.2659
778.50 0.2658
778.60 0.2657
778.70 0.2656
778.80 0.2655
778.90 0.2653
779.00 0.2652
779.10 0.2651
779.20 0.265
779.30 0.2649
779.40 0.2648
779.50 0.2647
779.60 0.2645
779.70 0.2644
779.80 0.2643
779.90 0.2642
780.00 0.2641
780.10 0.264
780.20 0.2638
780.30 0.2637
780.40 0.2636
780.50 0.2635
780.60 0.2634
780.70 0.2633
780.80 0.2632
780.90 0.2631
781.00 0.2629
781.10 0.2628
781.20 0.2627
781.30 0.2626
781.40 0.2625
781.50 0.2624
781.60 0.2623
781.70 0.2621
781.80 0.262
781.90 0.2619
782.00 0.2618
782.10 0.2617
782.20 0.2616
782.30 0.2615
782.40 0.2614
782.50 0.2612
782.60 0.2611
782.70 0.261
782.80 0.2609
782.90 0.2608
783.00 0.2607
783.10 0.2606
783.20 0.2605
783.30 0.2603
783.40 0.2602
783.50 0.2601
783.60 0.26
783.70 0.2599
783.80 0.2598
783.90 0.2597
784.00 0.2596
784.10 0.2594
784.20 0.2593
784.30 0.2592
784.40 0.2591
784.50 0.259
784.60 0.2589
784.70 0.2588
784.80 0.2587
784.90 0.2585
785.00 0.2584
785.10 0.2583
785.20 0.2582
785.30 0.2581
785.40 0.258
785.50 0.2579
785.60 0.2578
785.70 0.2577
785.80 0.2575
785.90 0.2574
786.00 0.2573
786.10 0.2572
786.20 0.2571
786.30 0.257
786.40 0.2569
786.50 0.2568
786.60 0.2567
786.70 0.2565
786.80 0.2564
786.90 0.2563
787.00 0.2562
787.10 0.2561
787.20 0.256
787.30 0.2559
787.40 0.2558
787.50 0.2557
787.60 0.2556
787.70 0.2554
787.80 0.2553
787.90 0.2552
788.00 0.2551
788.10 0.255
788.20 0.2549
788.30 0.2548
788.40 0.2547
788.50 0.2546
788.60 0.2545
788.70 0.2543
788.80 0.2542
788.90 0.2541
789.00 0.254
789.10 0.2539
789.20 0.2538
789.30 0.2537
789.40 0.2536
789.50 0.2535
789.60 0.2534
789.70 0.2532
789.80 0.2531
789.90 0.253
790.00 0.2529
790.10 0.2528
790.20 0.2527
790.30 0.2526
790.40 0.2525
790.50 0.2524
790.60 0.2523
790.70 0.2522
790.80 0.2521
790.90 0.252
791.00 0.2518
791.10 0.2517
791.20 0.2516
791.30 0.2515
791.40 0.2514
791.50 0.2513
791.60 0.2512
791.70 0.2511
791.80 0.251
791.90 0.2509
792.00 0.2508
792.10 0.2507
792.20 0.2506
792.30 0.2504
792.40 0.2503
792.50 0.2502
792.60 0.2501
792.70 0.25
792.80 0.2499
792.90 0.2498
793.00 0.2497
793.10 0.2496
793.20 0.2495
793.30 0.2494
793.40 0.2493
793.50 0.2492
793.60 0.2491
793.70 0.249
793.80 0.2488
793.90 0.2487
794.00 0.2486
794.10 0.2485
794.20 0.2484
794.30 0.2483
794.40 0.2482
794.50 0.2481
794.60 0.248
794.70 0.2479
794.80 0.2478
794.90 0.2477
795.00 0.2476
795.10 0.2475
795.20 0.2474
795.30 0.2473
795.40 0.2472
795.50 0.247
795.60 0.2469
795.70 0.2468
795.80 0.2467
795.90 0.2466
796.00 0.2465
796.10 0.2464
796.20 0.2463
796.30 0.2462
796.40 0.2461
796.50 0.246
796.60 0.2459
796.70 0.2458
796.80 0.2457
796.90 0.2456
797.00 0.2455
797.10 0.2454
797.20 0.2453
797.30 0.2452
797.40 0.2451
797.50 0.2449
797.60 0.2448
797.70 0.2447
797.80 0.2446
797.90 0.2445
798.00 0.2444
798.10 0.2443
798.20 0.2442
798.30 0.2441
798.40 0.244
798.50 0.2439
798.60 0.2438
798.70 0.2437
798.80 0.2436
798.90 0.2435
799.00 0.2434
799.10 0.2433
799.20 0.2432
799.30 0.2431
799.40 0.243
799.50 0.2429
799.60 0.2428
799.70 0.2427
799.80 0.2426
799.90 0.2424
800.00 0.2423
800.10 0.2422
800.20 0.2421
800.30 0.242
800.40 0.2419
800.50 0.2418
800.60 0.2417
800.70 0.2416
800.80 0.2415
800.90 0.2414
801.00 0.2413
801.10 0.2412
801.20 0.2411
801.30 0.241
801.40 0.2409
801.50 0.2408
801.60 0.2407
801.70 0.2406
801.80 0.2405
801.90 0.2404
802.00 0.2403
802.10 0.2402
802.20 0.2401
802.30 0.24
802.40 0.2399
802.50 0.2398
802.60 0.2397
802.70 0.2396
802.80 0.2395
802.90 0.2394
803.00 0.2393
803.10 0.2392
803.20 0.2391
803.30 0.239
803.40 0.2389
803.50 0.2388
803.60 0.2387
803.70 0.2386
803.80 0.2385
803.90 0.2384
804.00 0.2383
804.10 0.2382
804.20 0.2381
804.30 0.238
804.40 0.2379
804.50 0.2378
804.60 0.2377
804.70 0.2376
804.80 0.2375
804.90 0.2374
805.00 0.2373
805.10 0.2372
805.20 0.2371
805.30 0.237
805.40 0.2369
805.50 0.2368
805.60 0.2367
805.70 0.2366
805.80 0.2365
805.90 0.2364
806.00 0.2363
806.10 0.2362
806.20 0.2361
806.30 0.236
806.40 0.2359
806.50 0.2358
806.60 0.2357
806.70 0.2356
806.80 0.2355
806.90 0.2354
807.00 0.2353
807.10 0.2352
807.20 0.2351
807.30 0.235
807.40 0.2349
807.50 0.2348
807.60 0.2347
807.70 0.2346
807.80 0.2345
807.90 0.2344
808.00 0.2343
808.10 0.2342
808.20 0.2341
808.30 0.234
808.40 0.2339
808.50 0.2338
808.60 0.2337
808.70 0.2336
808.80 0.2335
808.90 0.2334
809.00 0.2333
809.10 0.2332
809.20 0.2331
809.30 0.233
809.40 0.2329
809.50 0.2328
809.60 0.2327
809.70 0.2326
809.80 0.2325
809.90 0.2324
810.00 0.2323
810.10 0.2322
810.20 0.2321
810.30 0.232
810.40 0.2319
810.50 0.2318
810.60 0.2317
810.70 0.2316
810.80 0.2315
810.90 0.2314
811.00 0.2313
811.10 0.2312
811.20 0.2311
811.30 0.231
811.40 0.231
811.50 0.2309
811.60 0.2308
811.70 0.2307
811.80 0.2306
811.90 0.2305
812.00 0.2304
812.10 0.2303
812.20 0.2302
812.30 0.2301
812.40 0.23
812.50 0.2299
812.60 0.2298
812.70 0.2297
812.80 0.2296
812.90 0.2295
813.00 0.2294
813.10 0.2293
813.20 0.2292
813.30 0.2291
813.40 0.229
813.50 0.2289
813.60 0.2288
813.70 0.2287
813.80 0.2286
813.90 0.2285
814.00 0.2284
814.10 0.2284
814.20 0.2283
814.30 0.2282
814.40 0.2281
814.50 0.228
814.60 0.2279
814.70 0.2278
814.80 0.2277
814.90 0.2276
815.00 0.2275
815.10 0.2274
815.20 0.2273
815.30 0.2272
815.40 0.2271
815.50 0.227
815.60 0.2269
815.70 0.2268
815.80 0.2267
815.90 0.2266
816.00 0.2265
816.10 0.2264
816.20 0.2264
816.30 0.2263
816.40 0.2262
816.50 0.2261
816.60 0.226
816.70 0.2259
816.80 0.2258
816.90 0.2257
817.00 0.2256
817.10 0.2255
817.20 0.2254
817.30 0.2253
817.40 0.2252
817.50 0.2251
817.60 0.225
817.70 0.2249
817.80 0.2248
817.90 0.2247
818.00 0.2247
818.10 0.2246
818.20 0.2245
818.30 0.2244
818.40 0.2243
818.50 0.2242
818.60 0.2241
818.70 0.224
818.80 0.2239
818.90 0.2238
819.00 0.2237
819.10 0.2236
819.20 0.2235
819.30 0.2234
819.40 0.2233
819.50 0.2232
819.60 0.2232
819.70 0.2231
819.80 0.223
819.90 0.2229
820.00 0.2228
820.10 0.2227
820.20 0.2226
820.30 0.2225
820.40 0.2224
820.50 0.2224
820.60 0.2223
820.70 0.2222
820.80 0.2221
820.90 0.222
821.00 0.2219
821.10 0.2218
821.20 0.2217
821.30 0.2216
821.40 0.2215
821.50 0.2214
821.60 0.2213
821.70 0.2212
821.80 0.2212
821.90 0.2211
822.00 0.221
822.10 0.2209
822.20 0.2208
822.30 0.2207
822.40 0.2206
822.50 0.2205
822.60 0.2204
822.70 0.2203
822.80 0.2202
822.90 0.2201
823.00 0.2201
823.10 0.22
823.20 0.2199
823.30 0.2198
823.40 0.2197
823.50 0.2196
823.60 0.2195
823.70 0.2194
823.80 0.2193
823.90 0.2192
824.00 0.2191
824.10 0.2191
824.20 0.219
824.30 0.2189
824.40 0.2188
824.50 0.2187
824.60 0.2186
824.70 0.2185
824.80 0.2184
824.90 0.2183
825.00 0.2182
825.10 0.2181
825.20 0.2181
825.30 0.218
825.40 0.2179
825.50 0.2178
825.60 0.2177
825.70 0.2176
825.80 0.2175
825.90 0.2174
826.00 0.2173
826.10 0.2172
826.20 0.2172
826.30 0.2171
826.40 0.217
826.50 0.2169
826.60 0.2168
826.70 0.2167
826.80 0.2166
826.90 0.2165
827.00 0.2164
827.10 0.2163
827.20 0.2163
827.30 0.2162
827.40 0.2161
827.50 0.216
827.60 0.2159
827.70 0.2158
827.80 0.2157
827.90 0.2156
828.00 0.2155
828.10 0.2155
828.20 0.2154
828.30 0.2153
828.40 0.2152
828.50 0.2151
828.60 0.215
828.70 0.2149
828.80 0.2148
828.90 0.2147
829.00 0.2147
829.10 0.2146
829.20 0.2145
829.30 0.2144
829.40 0.2143
829.50 0.2142
829.60 0.2141
829.70 0.214
829.80 0.2139
829.90 0.2139
830.00 0.2138
830.10 0.2137
830.20 0.2136
830.30 0.2135
830.40 0.2134
830.50 0.2133
830.60 0.2132
830.70 0.2132
830.80 0.2131
830.90 0.213
831.00 0.2129
831.10 0.2128
831.20 0.2127
831.30 0.2126
831.40 0.2125
831.50 0.2124
831.60 0.2124
831.70 0.2123
831.80 0.2122
831.90 0.2121
832.00 0.212
832.10 0.2119
832.20 0.2118
832.30 0.2117
832.40 0.2117
832.50 0.2116
832.60 0.2115
832.70 0.2114
832.80 0.2113
832.90 0.2112
833.00 0.2111
833.10 0.2111
833.20 0.211
833.30 0.2109
833.40 0.2108
833.50 0.2107
833.60 0.2106
833.70 0.2105
833.80 0.2104
833.90 0.2104
834.00 0.2103
834.10 0.2102
834.20 0.2101
834.30 0.21
834.40 0.2099
834.50 0.2098
834.60 0.2098
834.70 0.2097
834.80 0.2096
834.90 0.2095
835.00 0.2094
835.10 0.2093
835.20 0.2092
835.30 0.2092
835.40 0.2091
835.50 0.209
835.60 0.2089
835.70 0.2088
835.80 0.2087
835.90 0.2086
836.00 0.2086
836.10 0.2085
836.20 0.2084
836.30 0.2083
836.40 0.2082
836.50 0.2081
836.60 0.208
836.70 0.208
836.80 0.2079
836.90 0.2078
837.00 0.2077
837.10 0.2076
837.20 0.2075
837.30 0.2074
837.40 0.2074
837.50 0.2073
837.60 0.2072
837.70 0.2071
837.80 0.207
837.90 0.2069
838.00 0.2068
838.10 0.2068
838.20 0.2067
838.30 0.2066
838.40 0.2065
838.50 0.2064
838.60 0.2063
838.70 0.2063
838.80 0.2062
838.90 0.2061
839.00 0.206
839.10 0.2059
839.20 0.2058
839.30 0.2058
839.40 0.2057
839.50 0.2056
839.60 0.2055
839.70 0.2054
839.80 0.2053
839.90 0.2052
840.00 0.2052
840.10 0.2051
840.20 0.205
840.30 0.2049
840.40 0.2048
840.50 0.2047
840.60 0.2047
840.70 0.2046
840.80 0.2045
840.90 0.2044
841.00 0.2043
841.10 0.2042
841.20 0.2042
841.30 0.2041
841.40 0.204
841.50 0.2039
841.60 0.2038
841.70 0.2037
841.80 0.2037
841.90 0.2036
842.00 0.2035
842.10 0.2034
842.20 0.2033
842.30 0.2032
842.40 0.2032
842.50 0.2031
842.60 0.203
842.70 0.2029
842.80 0.2028
842.90 0.2027
843.00 0.2027
843.10 0.2026
843.20 0.2025
843.30 0.2024
843.40 0.2023
843.50 0.2023
843.60 0.2022
843.70 0.2021
843.80 0.202
843.90 0.2019
844.00 0.2018
844.10 0.2018
844.20 0.2017
844.30 0.2016
844.40 0.2015
844.50 0.2014
844.60 0.2014
844.70 0.2013
844.80 0.2012
844.90 0.2011
845.00 0.201
845.10 0.2009
845.20 0.2009
845.30 0.2008
845.40 0.2007
845.50 0.2006
845.60 0.2005
845.70 0.2005
845.80 0.2004
845.90 0.2003
846.00 0.2002
846.10 0.2001
846.20 0.2
846.30 0.2
846.40 0.1999
846.50 0.1998
846.60 0.1997
846.70 0.1996
846.80 0.1996
846.90 0.1995
847.00 0.1994
847.10 0.1993
847.20 0.1992
847.30 0.1992
847.40 0.1991
847.50 0.199
847.60 0.1989
847.70 0.1988
847.80 0.1988
847.90 0.1987
848.00 0.1986
848.10 0.1985
848.20 0.1984
848.30 0.1984
848.40 0.1983
848.50 0.1982
848.60 0.1981
848.70 0.198
848.80 0.198
848.90 0.1979
849.00 0.1978
849.10 0.1977
849.20 0.1976
849.30 0.1976
849.40 0.1975
849.50 0.1974
849.60 0.1973
849.70 0.1972
849.80 0.1972
849.90 0.1971
850.00 0.197
850.10 0.1969
850.20 0.1968
850.30 0.1968
850.40 0.1967
850.50 0.1966
850.60 0.1965
850.70 0.1964
850.80 0.1964
850.90 0.1963
851.00 0.1962
851.10 0.1961
851.20 0.196
851.30 0.196
851.40 0.1959
851.50 0.1958
851.60 0.1957
851.70 0.1957
851.80 0.1956
851.90 0.1955
852.00 0.1954
852.10 0.1953
852.20 0.1953
852.30 0.1952
852.40 0.1951
852.50 0.195
852.60 0.1949
852.70 0.1949
852.80 0.1948
852.90 0.1947
853.00 0.1946
853.10 0.1946
853.20 0.1945
853.30 0.1944
853.40 0.1943
853.50 0.1942
853.60 0.1942
853.70 0.1941
853.80 0.194
853.90 0.1939
854.00 0.1939
854.10 0.1938
854.20 0.1937
854.30 0.1936
854.40 0.1935
854.50 0.1935
854.60 0.1934
854.70 0.1933
854.80 0.1932
854.90 0.1932
855.00 0.1931
855.10 0.193
855.20 0.1929
855.30 0.1929
855.40 0.1928
855.50 0.1927
855.60 0.1926
855.70 0.1925
855.80 0.1925
855.90 0.1924
856.00 0.1923
856.10 0.1922
856.20 0.1922
856.30 0.1921
856.40 0.192
856.50 0.1919
856.60 0.1919
856.70 0.1918
856.80 0.1917
856.90 0.1916
857.00 0.1915
857.10 0.1915
857.20 0.1914
857.30 0.1913
857.40 0.1912
857.50 0.1912
857.60 0.1911
857.70 0.191
857.80 0.1909
857.90 0.1909
858.00 0.1908
858.10 0.1907
858.20 0.1906
858.30 0.1906
858.40 0.1905
858.50 0.1904
858.60 0.1903
858.70 0.1903
858.80 0.1902
858.90 0.1901
859.00 0.19
859.10 0.19
859.20 0.1899
859.30 0.1898
859.40 0.1897
859.50 0.1897
859.60 0.1896
859.70 0.1895
859.80 0.1894
859.90 0.1894
860.00 0.1893
860.10 0.1892
860.20 0.1891
860.30 0.1891
860.40 0.189
860.50 0.1889
860.60 0.1888
860.70 0.1888
860.80 0.1887
860.90 0.1886
861.00 0.1885
861.10 0.1885
861.20 0.1884
861.30 0.1883
861.40 0.1882
861.50 0.1882
861.60 0.1881
861.70 0.188
861.80 0.1879
861.90 0.1879
862.00 0.1878
862.10 0.1877
862.20 0.1876
862.30 0.1876
862.40 0.1875
862.50 0.1874
862.60 0.1873
862.70 0.1873
862.80 0.1872
862.90 0.1871
863.00 0.187
863.10 0.187
863.20 0.1869
863.30 0.1868
863.40 0.1868
863.50 0.1867
863.60 0.1866
863.70 0.1865
863.80 0.1865
863.90 0.1864
864.00 0.1863
864.10 0.1862
864.20 0.1862
864.30 0.1861
864.40 0.186
864.50 0.1859
864.60 0.1859
864.70 0.1858
864.80 0.1857
864.90 0.1857
865.00 0.1856
865.10 0.1855
865.20 0.1854
865.30 0.1854
865.40 0.1853
865.50 0.1852
865.60 0.1851
865.70 0.1851
865.80 0.185
865.90 0.1849
866.00 0.1849
866.10 0.1848
866.20 0.1847
866.30 0.1846
866.40 0.1846
866.50 0.1845
866.60 0.1844
866.70 0.1843
866.80 0.1843
866.90 0.1842
867.00 0.1841
867.10 0.1841
867.20 0.184
867.30 0.1839
867.40 0.1838
867.50 0.1838
867.60 0.1837
867.70 0.1836
867.80 0.1836
867.90 0.1835
868.00 0.1834
868.10 0.1834
868.20 0.1833
868.30 0.1832
868.40 0.1831
868.50 0.1831
868.60 0.183
868.70 0.1829
868.80 0.1829
868.90 0.1828
869.00 0.1827
869.10 0.1826
869.20 0.1826
869.30 0.1825
869.40 0.1824
869.50 0.1824
869.60 0.1823
869.70 0.1822
869.80 0.1822
869.90 0.1821
870.00 0.182
870.10 0.1819
870.20 0.1819
870.30 0.1818
870.40 0.1817
870.50 0.1817
870.60 0.1816
870.70 0.1815
870.80 0.1815
870.90 0.1814
871.00 0.1813
871.10 0.1812
871.20 0.1812
871.30 0.1811
871.40 0.181
871.50 0.181
871.60 0.1809
871.70 0.1808
871.80 0.1808
871.90 0.1807
872.00 0.1806
872.10 0.1806
872.20 0.1805
872.30 0.1804
872.40 0.1803
872.50 0.1803
872.60 0.1802
872.70 0.1801
872.80 0.1801
872.90 0.18
873.00 0.1799
873.10 0.1799
873.20 0.1798
873.30 0.1797
873.40 0.1797
873.50 0.1796
873.60 0.1795
873.70 0.1794
873.80 0.1794
873.90 0.1793
874.00 0.1792
874.10 0.1792
874.20 0.1791
874.30 0.179
874.40 0.179
874.50 0.1789
874.60 0.1788
874.70 0.1788
874.80 0.1787
874.90 0.1786
875.00 0.1786
875.10 0.1785
875.20 0.1784
875.30 0.1784
875.40 0.1783
875.50 0.1782
875.60 0.1782
875.70 0.1781
875.80 0.178
875.90 0.1779
876.00 0.1779
876.10 0.1778
876.20 0.1777
876.30 0.1777
876.40 0.1776
876.50 0.1775
876.60 0.1775
876.70 0.1774
876.80 0.1773
876.90 0.1773
877.00 0.1772
877.10 0.1771
877.20 0.1771
877.30 0.177
877.40 0.1769
877.50 0.1769
877.60 0.1768
877.70 0.1767
877.80 0.1767
877.90 0.1766
878.00 0.1765
878.10 0.1765
878.20 0.1764
878.30 0.1763
878.40 0.1763
878.50 0.1762
878.60 0.1762
878.70 0.1761
878.80 0.176
878.90 0.176
879.00 0.1759
879.10 0.1758
879.20 0.1758
879.30 0.1757
879.40 0.1756
879.50 0.1756
879.60 0.1755
879.70 0.1754
879.80 0.1754
879.90 0.1753
880.00 0.1752
880.10 0.1752
880.20 0.1751
880.30 0.175
880.40 0.175
880.50 0.1749
880.60 0.1748
880.70 0.1748
880.80 0.1747
880.90 0.1747
881.00 0.1746
881.10 0.1745
881.20 0.1745
881.30 0.1744
881.40 0.1743
881.50 0.1743
881.60 0.1742
881.70 0.1741
881.80 0.1741
881.90 0.174
882.00 0.1739
882.10 0.1739
882.20 0.1738
882.30 0.1737
882.40 0.1737
882.50 0.1736
882.60 0.1735
882.70 0.1735
882.80 0.1734
882.90 0.1733
883.00 0.1733
883.10 0.1732
883.20 0.1731
883.30 0.1731
883.40 0.173
883.50 0.173
883.60 0.1729
883.70 0.1728
883.80 0.1728
883.90 0.1727
884.00 0.1726
884.10 0.1726
884.20 0.1725
884.30 0.1724
884.40 0.1724
884.50 0.1723
884.60 0.1722
884.70 0.1722
884.80 0.1721
884.90 0.172
885.00 0.172
885.10 0.1719
885.20 0.1718
885.30 0.1718
885.40 0.1717
885.50 0.1716
885.60 0.1716
885.70 0.1715
885.80 0.1714
885.90 0.1714
886.00 0.1713
886.10 0.1712
886.20 0.1712
886.30 0.1711
886.40 0.1711
886.50 0.171
886.60 0.1709
886.70 0.1709
886.80 0.1708
886.90 0.1707
887.00 0.1707
887.10 0.1706
887.20 0.1705
887.30 0.1705
887.40 0.1704
887.50 0.1704
887.60 0.1703
887.70 0.1702
887.80 0.1702
887.90 0.1701
888.00 0.1701
888.10 0.17
888.20 0.17
888.30 0.1699
888.40 0.1698
888.50 0.1698
888.60 0.1697
888.70 0.1697
888.80 0.1696
888.90 0.1695
889.00 0.1695
889.10 0.1694
889.20 0.1694
889.30 0.1693
889.40 0.1692
889.50 0.1692
889.60 0.1691
889.70 0.1691
889.80 0.169
889.90 0.169
890.00 0.1689
890.10 0.1688
890.20 0.1688
890.30 0.1687
890.40 0.1687
890.50 0.1686
890.60 0.1685
890.70 0.1685
890.80 0.1684
890.90 0.1684
891.00 0.1683
891.10 0.1682
891.20 0.1682
891.30 0.1681
891.40 0.1681
891.50 0.168
891.60 0.168
891.70 0.1679
891.80 0.1678
891.90 0.1678
892.00 0.1677
892.10 0.1677
892.20 0.1676
892.30 0.1675
892.40 0.1675
892.50 0.1674
892.60 0.1674
892.70 0.1673
892.80 0.1672
892.90 0.1672
893.00 0.1671
893.10 0.1671
893.20 0.167
893.30 0.1669
893.40 0.1669
893.50 0.1668
893.60 0.1668
893.70 0.1667
893.80 0.1667
893.90 0.1666
894.00 0.1665
894.10 0.1665
894.20 0.1664
894.30 0.1664
894.40 0.1663
894.50 0.1662
894.60 0.1662
894.70 0.1661
894.80 0.1661
894.90 0.166
895.00 0.1659
895.10 0.1659
895.20 0.1658
895.30 0.1658
895.40 0.1657
895.50 0.1656
895.60 0.1656
895.70 0.1655
895.80 0.1655
895.90 0.1654
896.00 0.1653
896.10 0.1653
896.20 0.1652
896.30 0.1652
896.40 0.1651
896.50 0.1651
896.60 0.165
896.70 0.1649
896.80 0.1649
896.90 0.1648
897.00 0.1648
897.10 0.1647
897.20 0.1646
897.30 0.1646
897.40 0.1645
897.50 0.1644
897.60 0.1644
897.70 0.1643
897.80 0.1642
897.90 0.1642
898.00 0.1641
898.10 0.164
898.20 0.164
898.30 0.1639
898.40 0.1638
898.50 0.1638
898.60 0.1637
898.70 0.1636
898.80 0.1636
898.90 0.1635
899.00 0.1634
899.10 0.1634
899.20 0.1633
899.30 0.1633
899.40 0.1632
899.50 0.1631
899.60 0.1631
899.70 0.163
899.80 0.1629
899.90 0.1629
900.00 0.1628
900.10 0.1627
900.20 0.1627
900.30 0.1626
900.40 0.1625
900.50 0.1625
900.60 0.1624
900.70 0.1623
900.80 0.1623
900.90 0.1622
901.00 0.1621
901.10 0.1621
901.20 0.162
901.30 0.162
901.40 0.1619
901.50 0.1618
901.60 0.1618
901.70 0.1617
901.80 0.1616
901.90 0.1616
902.00 0.1615
902.10 0.1615
902.20 0.1614
902.30 0.1614
902.40 0.1613
902.50 0.1613
902.60 0.1612
902.70 0.1612
902.80 0.1611
902.90 0.1611
903.00 0.161
903.10 0.161
903.20 0.1609
903.30 0.1609
903.40 0.1608
903.50 0.1608
903.60 0.1607
903.70 0.1607
903.80 0.1606
903.90 0.1606
904.00 0.1605
904.10 0.1605
904.20 0.1604
904.30 0.1604
904.40 0.1603
904.50 0.1603
904.60 0.1602
904.70 0.1602
904.80 0.1601
904.90 0.1601
905.00 0.16
905.10 0.16
905.20 0.1599
905.30 0.1599
905.40 0.1598
905.50 0.1598
905.60 0.1597
905.70 0.1597
905.80 0.1596
905.90 0.1596
906.00 0.1595
906.10 0.1595
906.20 0.1594
906.30 0.1594
906.40 0.1593
906.50 0.1593
906.60 0.1592
906.70 0.1592
906.80 0.1591
906.90 0.1591
907.00 0.159
907.10 0.159
907.20 0.1589
907.30 0.1589
907.40 0.1588
907.50 0.1588
907.60 0.1587
907.70 0.1587
907.80 0.1586
907.90 0.1586
908.00 0.1585
908.10 0.1585
908.20 0.1584
908.30 0.1584
908.40 0.1583
908.50 0.1583
908.60 0.1582
908.70 0.1582
908.80 0.1581
908.90 0.1581
909.00 0.158
909.10 0.158
909.20 0.1579
909.30 0.1579
909.40 0.1578
909.50 0.1577
909.60 0.1577
909.70 0.1576
909.80 0.1576
909.90 0.1575
910.00 0.1575
910.10 0.1574
910.20 0.1574
910.30 0.1573
910.40 0.1573
910.50 0.1572
910.60 0.1572
910.70 0.1571
910.80 0.1571
910.90 0.157
911.00 0.157
911.10 0.1569
911.20 0.1569
911.30 0.1568
911.40 0.1568
911.50 0.1567
911.60 0.1567
911.70 0.1566
911.80 0.1566
911.90 0.1565
912.00 0.1565
912.10 0.1564
912.20 0.1564
912.30 0.1563
912.40 0.1562
912.50 0.1562
912.60 0.1561
912.70 0.1561
912.80 0.156
912.90 0.156
913.00 0.1559
913.10 0.1559
913.20 0.1558
913.30 0.1557
913.40 0.1557
913.50 0.1556
913.60 0.1556
913.70 0.1555
913.80 0.1555
913.90 0.1554
914.00 0.1554
914.10 0.1553
914.20 0.1552
914.30 0.1552
914.40 0.1551
914.50 0.1551
914.60 0.155
914.70 0.155
914.80 0.1549
914.90 0.1549
915.00 0.1548
915.10 0.1548
915.20 0.1547
915.30 0.1546
915.40 0.1546
915.50 0.1545
915.60 0.1545
915.70 0.1544
915.80 0.1544
915.90 0.1543
916.00 0.1543
916.10 0.1542
916.20 0.1542
916.30 0.1541
916.40 0.154
916.50 0.154
916.60 0.1539
916.70 0.1539
916.80 0.1538
916.90 0.1538
917.00 0.1537
917.10 0.1537
917.20 0.1536
917.30 0.1535
917.40 0.1535
917.50 0.1534
917.60 0.1533
917.70 0.1533
917.80 0.1532
917.90 0.1532
918.00 0.1531
918.10 0.153
918.20 0.153
918.30 0.1529
918.40 0.1528
918.50 0.1528
918.60 0.1527
918.70 0.1527
918.80 0.1526
918.90 0.1525
919.00 0.1525
919.10 0.1524
919.20 0.1523
919.30 0.1523
919.40 0.1522
919.50 0.1522
919.60 0.1521
919.70 0.152
919.80 0.152
919.90 0.1519
920.00 0.1518
920.10 0.1518
920.20 0.1517
920.30 0.1517
920.40 0.1516
920.50 0.1515
920.60 0.1515
920.70 0.1514
920.80 0.1514
920.90 0.1513
921.00 0.1512
921.10 0.1512
921.20 0.1511
921.30 0.151
921.40 0.151
921.50 0.1509
921.60 0.1509
921.70 0.1508
921.80 0.1507
921.90 0.1507
922.00 0.1506
922.10 0.1505
922.20 0.1505
922.30 0.1504
922.40 0.1503
922.50 0.1503
922.60 0.1502
922.70 0.1501
922.80 0.1501
922.90 0.15
923.00 0.1499
923.10 0.1498
923.20 0.1498
923.30 0.1497
923.40 0.1496
923.50 0.1496
923.60 0.1495
923.70 0.1494
923.80 0.1494
923.90 0.1493
924.00 0.1492
924.10 0.1492
924.20 0.1491
924.30 0.149
924.40 0.1489
924.50 0.1489
924.60 0.1488
924.70 0.1487
924.80 0.1487
924.90 0.1486
925.00 0.1485
925.10 0.1485
925.20 0.1484
925.30 0.1483
925.40 0.1483
925.50 0.1482
925.60 0.1481
925.70 0.1481
925.80 0.148
925.90 0.1479
926.00 0.1478
926.10 0.1478
926.20 0.1477
926.30 0.1476
926.40 0.1476
926.50 0.1475
926.60 0.1474
926.70 0.1474
926.80 0.1473
926.90 0.1472
927.00 0.1472
927.10 0.1471
927.20 0.1471
927.30 0.1471
927.40 0.147
927.50 0.147
927.60 0.147
927.70 0.147
927.80 0.1469
927.90 0.1469
928.00 0.1469
928.10 0.1468
928.20 0.1468
928.30 0.1468
928.40 0.1468
928.50 0.1467
928.60 0.1467
928.70 0.1467
928.80 0.1466
928.90 0.1466
929.00 0.1466
929.10 0.1466
929.20 0.1465
929.30 0.1465
929.40 0.1465
929.50 0.1464
929.60 0.1464
929.70 0.1464
929.80 0.1464
929.90 0.1463
930.00 0.1463
930.10 0.1463
930.20 0.1462
930.30 0.1462
930.40 0.1462
930.50 0.1462
930.60 0.1461
930.70 0.1461
930.80 0.1461
930.90 0.146
931.00 0.146
931.10 0.146
931.20 0.146
931.30 0.1459
931.40 0.1459
931.50 0.1459
931.60 0.1458
931.70 0.1458
931.80 0.1458
931.90 0.1458
932.00 0.1457
932.10 0.1457
932.20 0.1456
932.30 0.1456
932.40 0.1456
932.50 0.1455
932.60 0.1455
932.70 0.1455
932.80 0.1454
932.90 0.1454
933.00 0.1453
933.10 0.1453
933.20 0.1453
933.30 0.1452
933.40 0.1452
933.50 0.1452
933.60 0.1451
933.70 0.1451
933.80 0.145
933.90 0.145
934.00 0.145
934.10 0.1449
934.20 0.1449
934.30 0.1449
934.40 0.1448
934.50 0.1448
934.60 0.1447
934.70 0.1447
934.80 0.1446
934.90 0.1446
935.00 0.1446
935.10 0.1445
935.20 0.1445
935.30 0.1444
935.40 0.1444
935.50 0.1443
935.60 0.1443
935.70 0.1443
935.80 0.1442
935.90 0.1442
936.00 0.1441
936.10 0.1441
936.20 0.144
936.30 0.144
936.40 0.144
936.50 0.1439
936.60 0.1439
936.70 0.1438
936.80 0.1438
936.90 0.1437
937.00 0.1437
937.10 0.1437
937.20 0.1436
937.30 0.1436
937.40 0.1435
937.50 0.1435
937.60 0.1434
937.70 0.1434
937.80 0.1433
937.90 0.1433
938.00 0.1432
938.10 0.1432
938.20 0.1432
938.30 0.1431
938.40 0.1431
938.50 0.143
938.60 0.143
938.70 0.1429
938.80 0.1429
938.90 0.1428
939.00 0.1428
939.10 0.1427
939.20 0.1427
939.30 0.1426
939.40 0.1426
939.50 0.1425
939.60 0.1425
939.70 0.1424
939.80 0.1424
939.90 0.1423
940.00 0.1423
940.10 0.1422
940.20 0.1422
940.30 0.1421
940.40 0.1421
940.50 0.142
940.60 0.142
940.70 0.1419
940.80 0.1419
940.90 0.1418
941.00 0.1418
941.10 0.1417
941.20 0.1417
941.30 0.1416
941.40 0.1416
941.50 0.1415
941.60 0.1415
941.70 0.1414
941.80 0.1414
941.90 0.1413
942.00 0.1413
942.10 0.1412
942.20 0.1411
942.30 0.1411
942.40 0.141
942.50 0.141
942.60 0.1409
942.70 0.1409
942.80 0.1408
942.90 0.1407
943.00 0.1407
943.10 0.1406
943.20 0.1406
943.30 0.1405
943.40 0.1404
943.50 0.1404
943.60 0.1403
943.70 0.1403
943.80 0.1402
943.90 0.1402
944.00 0.1401
944.10 0.14
944.20 0.14
944.30 0.1399
944.40 0.1399
944.50 0.1398
944.60 0.1397
944.70 0.1397
944.80 0.1396
944.90 0.1395
945.00 0.1395
945.10 0.1394
945.20 0.1393
945.30 0.1393
945.40 0.1392
945.50 0.1391
945.60 0.139
945.70 0.139
945.80 0.1389
945.90 0.1388
946.00 0.1388
946.10 0.1387
946.20 0.1386
946.30 0.1385
946.40 0.1385
946.50 0.1384
946.60 0.1383
946.70 0.1382
946.80 0.1382
946.90 0.1381
947.00 0.138
947.10 0.1379
947.20 0.1379
947.30 0.1378
947.40 0.1377
947.50 0.1376
947.60 0.1375
947.70 0.1374
947.80 0.1374
947.90 0.1373
948.00 0.1372
948.10 0.1371
948.20 0.137
948.30 0.1369
948.40 0.1368
948.50 0.1367
948.60 0.1367
948.70 0.1366
948.80 0.1365
948.90 0.1364
949.00 0.1363
949.10 0.1362
949.20 0.1361
949.30 0.1361
949.40 0.136
949.50 0.1359
949.60 0.1358
949.70 0.1357
949.80 0.1356
949.90 0.1355
950.00 0.1354
950.10 0.1353
950.20 0.1352
950.30 0.1351
950.40 0.1351
950.50 0.135
950.60 0.1349
950.70 0.1348
950.80 0.1347
950.90 0.1346
951.00 0.1345
951.10 0.1344
951.20 0.1343
951.30 0.1342
951.40 0.1342
951.50 0.1341
951.60 0.134
951.70 0.1339
951.80 0.1339
951.90 0.1338
952.00 0.1337
952.10 0.1336
952.20 0.1336
952.30 0.1335
952.40 0.1335
952.50 0.1334
952.60 0.1334
952.70 0.1333
952.80 0.1332
952.90 0.1332
953.00 0.1332
953.10 0.1332
953.20 0.1331
953.30 0.1331
953.40 0.1331
953.50 0.1331
953.60 0.1332
953.70 0.1333
953.80 0.1335
953.90 0.1336
954.00 0.1337
954.10 0.1338
954.20 0.1339
954.30 0.133
954.40 0.132
954.50 0.1318
954.60 0.1317
954.70 0.1315
954.80 0.1313
954.90 0.1311
955.00 0.1309
955.10 0.1306
955.20 0.1305
955.30 0.1304
955.40 0.1302
955.50 0.1301
955.60 0.13
955.70 0.1298
955.80 0.1297
955.90 0.1297
956.00 0.1296
956.10 0.1295
956.20 0.1295
956.30 0.1294
956.40 0.1294
956.50 0.1293
956.60 0.1292
956.70 0.1292
956.80 0.1291
956.90 0.1291
957.00 0.129
957.10 0.129
957.20 0.129
957.30 0.1289
957.40 0.1289
957.50 0.1289
957.60 0.1289
957.70 0.1289
957.80 0.1289
957.90 0.1289
958.00 0.1289
958.10 0.1289
958.20 0.1289
958.30 0.1289
958.40 0.1289
958.50 0.1289
958.60 0.1289
958.70 0.1289
958.80 0.1289
958.90 0.1289
959.00 0.1289
959.10 0.1289
959.20 0.1289
959.30 0.1289
959.40 0.1289
959.50 0.1289
959.60 0.1289
959.70 0.129
959.80 0.129
959.90 0.129
960.00 0.129
960.10 0.129
960.20 0.129
960.30 0.129
960.40 0.129
960.50 0.129
960.60 0.129
960.70 0.129
960.80 0.129
960.90 0.129
961.00 0.129
961.10 0.1291
961.20 0.1291
961.30 0.1291
961.40 0.1291
961.50 0.1291
961.60 0.1291
961.70 0.1291
961.80 0.1291
961.90 0.1291
962.00 0.1291
962.10 0.1291
962.20 0.1291
962.30 0.1291
962.40 0.1291
962.50 0.1291
962.60 0.1291
962.70 0.1291
962.80 0.1291
962.90 0.1291
963.00 0.1291
963.10 0.1291
963.20 0.1291
963.30 0.1291
963.40 0.1291
963.50 0.1291
963.60 0.1291
963.70 0.1291
963.80 0.1291
963.90 0.1291
964.00 0.1291
964.10 0.1291
964.20 0.1291
964.30 0.1291
964.40 0.1291
964.50 0.1291
964.60 0.1291
964.70 0.129
964.80 0.129
964.90 0.129
965.00 0.129
965.10 0.129
965.20 0.129
965.30 0.129
965.40 0.129
965.50 0.129
965.60 0.1289
965.70 0.1289
965.80 0.1289
965.90 0.1289
966.00 0.1289
966.10 0.1289
966.20 0.1289
966.30 0.1289
966.40 0.1289
966.50 0.1288
966.60 0.1288
966.70 0.1288
966.80 0.1288
966.90 0.1288
967.00 0.1288
967.10 0.1288
967.20 0.1287
967.30 0.1287
967.40 0.1287
967.50 0.1287
967.60 0.1287
967.70 0.1286
967.80 0.1286
967.90 0.1286
968.00 0.1286
968.10 0.1286
968.20 0.1285
968.30 0.1285
968.40 0.1285
968.50 0.1285
968.60 0.1284
968.70 0.1284
968.80 0.1284
968.90 0.1284
969.00 0.1284
969.10 0.1283
969.20 0.1283
969.30 0.1283
969.40 0.1283
969.50 0.1282
969.60 0.1282
969.70 0.1282
969.80 0.1282
969.90 0.1281
970.00 0.1281
970.10 0.1281
970.20 0.1281
970.30 0.128
970.40 0.128
970.50 0.128
970.60 0.128
970.70 0.1279
970.80 0.1279
970.90 0.1279
971.00 0.1278
971.10 0.1278
971.20 0.1278
971.30 0.1277
971.40 0.1277
971.50 0.1277
971.60 0.1277
971.70 0.1276
971.80 0.1276
971.90 0.1276
972.00 0.1275
972.10 0.1275
972.20 0.1275
972.30 0.1274
972.40 0.1274
972.50 0.1274
972.60 0.1273
972.70 0.1273
972.80 0.1273
972.90 0.1273
973.00 0.1272
973.10 0.1272
973.20 0.1272
973.30 0.1271
973.40 0.1271
973.50 0.1271
973.60 0.127
973.70 0.127
973.80 0.127
973.90 0.1269
974.00 0.1269
974.10 0.1269
974.20 0.1268
974.30 0.1268
974.40 0.1268
974.50 0.1267
974.60 0.1267
974.70 0.1266
974.80 0.1266
974.90 0.1266
975.00 0.1265
975.10 0.1265
975.20 0.1265
975.30 0.1264
975.40 0.1264
975.50 0.1263
975.60 0.1263
975.70 0.1263
975.80 0.1262
975.90 0.1262
976.00 0.1262
976.10 0.1261
976.20 0.1261
976.30 0.126
976.40 0.126
976.50 0.126
976.60 0.1259
976.70 0.1259
976.80 0.1259
976.90 0.1258
977.00 0.1258
977.10 0.1257
977.20 0.1257
977.30 0.1257
977.40 0.1256
977.50 0.1256
977.60 0.1255
977.70 0.1255
977.80 0.1254
977.90 0.1254
978.00 0.1254
978.10 0.1253
978.20 0.1253
978.30 0.1252
978.40 0.1252
978.50 0.1251
978.60 0.1251
978.70 0.1251
978.80 0.125
978.90 0.125
979.00 0.1249
979.10 0.1249
979.20 0.1248
979.30 0.1248
979.40 0.1248
979.50 0.1247
979.60 0.1247
979.70 0.1246
979.80 0.1246
979.90 0.1246
980.00 0.1245
980.10 0.1245
980.20 0.1244
980.30 0.1244
980.40 0.1243
980.50 0.1243
980.60 0.1243
980.70 0.1242
980.80 0.1242
980.90 0.1241
981.00 0.1241
981.10 0.124
981.20 0.124
981.30 0.124
981.40 0.1239
981.50 0.1239
981.60 0.1238
981.70 0.1238
981.80 0.1237
981.90 0.1237
982.00 0.1237
982.10 0.1236
982.20 0.1236
982.30 0.1235
982.40 0.1235
982.50 0.1234
982.60 0.1234
982.70 0.1233
982.80 0.1233
982.90 0.1232
983.00 0.1232
983.10 0.1231
983.20 0.1231
983.30 0.123
983.40 0.123
983.50 0.1229
983.60 0.1229
983.70 0.1228
983.80 0.1228
983.90 0.1227
984.00 0.1227
984.10 0.1226
984.20 0.1226
984.30 0.1225
984.40 0.1225
984.50 0.1224
984.60 0.1224
984.70 0.1223
984.80 0.1223
984.90 0.1222
985.00 0.1222
985.10 0.1221
985.20 0.122
985.30 0.122
985.40 0.1219
985.50 0.1219
985.60 0.1218
985.70 0.1218
985.80 0.1217
985.90 0.1217
986.00 0.1216
986.10 0.1216
986.20 0.1215
986.30 0.1214
986.40 0.1214
986.50 0.1213
986.60 0.1213
986.70 0.1212
986.80 0.1212
986.90 0.1211
987.00 0.1211
987.10 0.121
987.20 0.1209
987.30 0.1209
987.40 0.1208
987.50 0.1207
987.60 0.1207
987.70 0.1206
987.80 0.1206
987.90 0.1205
988.00 0.1204
988.10 0.1204
988.20 0.1203
988.30 0.1202
988.40 0.1202
988.50 0.1201
988.60 0.1201
988.70 0.12
988.80 0.1199
988.90 0.1198
989.00 0.1198
989.10 0.1197
989.20 0.1196
989.30 0.1196
989.40 0.1195
989.50 0.1194
989.60 0.1193
989.70 0.1193
989.80 0.1192
989.90 0.1191
990.00 0.119
990.10 0.119
990.20 0.1189
990.30 0.1188
990.40 0.1188
990.50 0.1187
990.60 0.1186
990.70 0.1185
990.80 0.1185
990.90 0.1184
991.00 0.1183
991.10 0.1182
991.20 0.1181
991.30 0.118
991.40 0.118
991.50 0.1179
991.60 0.1178
991.70 0.1177
991.80 0.1176
991.90 0.1176
992.00 0.1175
992.10 0.1174
992.20 0.1173
992.30 0.1172
992.40 0.1171
992.50 0.117
992.60 0.1169
992.70 0.1168
992.80 0.1167
992.90 0.1166
993.00 0.1165
993.10 0.1164
993.20 0.1163
993.30 0.1162
993.40 0.1161
993.50 0.116
993.60 0.1159
993.70 0.1158
993.80 0.1157
993.90 0.1156
994.00 0.1155
994.10 0.1154
994.20 0.1153
994.30 0.1152
994.40 0.1151
994.50 0.115
994.60 0.1149
994.70 0.1148
994.80 0.1147
994.90 0.1146
995.00 0.1144
995.10 0.1143
995.20 0.1142
995.30 0.1141
995.40 0.114
995.50 0.1139
995.60 0.1137
995.70 0.1136
995.80 0.1135
995.90 0.1134
996.00 0.1132
996.10 0.1131
996.20 0.113
996.30 0.1129
996.40 0.1127
996.50 0.1126
996.60 0.1125
996.70 0.1124
996.80 0.1122
996.90 0.1121
997.00 0.112
997.10 0.1118
997.20 0.1117
997.30 0.1116
997.40 0.1114
997.50 0.1113
997.60 0.1112
997.70 0.111
997.80 0.1109
997.90 0.1108
998.00 0.1106
998.10 0.1105
998.20 0.1103
998.30 0.1102
998.40 0.1101
998.50 0.1099
998.60 0.1098
998.70 0.1096
998.80 0.1095
998.90 0.1094
999.00 0.1092
999.10 0.1091
999.20 0.1089
999.30 0.1088
999.40 0.1087
999.50 0.1085
999.60 0.1084
999.70 0.1083
999.80 0.1081
999.90 0.108
1000.00 0.1079
1000.10 0.1078
1000.20 0.1076
1000.30 0.1075
1000.40 0.1074
1000.50 0.1073
1000.60 0.1071
1000.70 0.107
1000.80 0.1069
1000.90 0.1067
1001.00 0.1066
1001.10 0.1065
1001.20 0.1064
1001.30 0.1062
1001.40 0.1061
1001.50 0.106
1001.60 0.1059
1001.70 0.1058
1001.80 0.1057
1001.90 0.1056
1002.00 0.1055
1002.10 0.1054
1002.20 0.1054
1002.30 0.1053
1002.40 0.1053
1002.50 0.1052
1002.60 0.1051
1002.70 0.1051
1002.80 0.105
1002.90 0.105
1003.00 0.1049
1003.10 0.1049
1003.20 0.105
1003.30 0.1051
1003.40 0.1053
1003.50 0.1055
1003.60 0.1056
1003.70 0.1058
1003.80 0.106
1003.90 0.1062
1004.00 0.1064
1004.10 0.1066
1004.20 0.1067
1004.30 0.107
1004.40 0.1072
1004.50 0.1074
1004.60 0.1075
1004.70 0.1035
1004.80 0.1033
1004.90 0.1031
1005.00 0.1028
1005.10 0.1026
1005.20 0.1023
1005.30 0.1021
1005.40 0.1019
1005.50 0.1017
1005.60 0.1015
1005.70 0.1013
1005.80 0.1011
1005.90 0.1009
1006.00 0.1007
1006.10 0.1005
1006.20 0.1004
1006.30 0.1003
1006.40 0.1003
1006.50 0.1002
1006.60 0.1002
1006.70 0.1001
1006.80 0.1
1006.90 0.09997
1007.00 0.0999
1007.10 0.09986
1007.20 0.09981
1007.30 0.09977
1007.40 0.09972
1007.50 0.09967
1007.60 0.09963
1007.70 0.09963
1007.80 0.09964
1007.90 0.09965
1008.00 0.09967
1008.10 0.09968
1008.20 0.09969
1008.30 0.0997
1008.40 0.09972
1008.50 0.09973
1008.60 0.09974
1008.70 0.09976
1008.80 0.09977
1008.90 0.09978
1009.00 0.0998
1009.10 0.09981
1009.20 0.09982
1009.30 0.09983
1009.40 0.09985
1009.50 0.09986
1009.60 0.09987
1009.70 0.09991
1009.80 0.09995
1009.90 0.09999
1010.00 0.1
1010.10 0.1001
1010.20 0.1001
1010.30 0.1001
1010.40 0.1002
1010.50 0.1002
1010.60 0.1003
1010.70 0.1003
1010.80 0.1003
1010.90 0.1004
1011.00 0.1004
1011.10 0.1005
1011.20 0.1005
1011.30 0.1005
1011.40 0.1006
1011.50 0.1006
1011.60 0.1007
1011.70 0.1007
1011.80 0.1008
1011.90 0.1008
1012.00 0.1008
1012.10 0.1009
1012.20 0.1009
1012.30 0.1009
1012.40 0.101
1012.50 0.101
1012.60 0.1011
1012.70 0.1011
1012.80 0.1011
1012.90 0.1012
1013.00 0.1012
1013.10 0.1012
1013.20 0.1013
1013.30 0.1013
1013.40 0.1014
1013.50 0.1014
1013.60 0.1014
1013.70 0.1015
1013.80 0.1015
1013.90 0.1015
1014.00 0.1016
1014.10 0.1016
1014.20 0.1016
1014.30 0.1017
1014.40 0.1017
1014.50 0.1017
1014.60 0.1018
1014.70 0.1018
1014.80 0.1018
1014.90 0.1018
1015.00 0.1019
1015.10 0.1019
1015.20 0.1019
1015.30 0.1019
1015.40 0.102
1015.50 0.102
1015.60 0.102
1015.70 0.1021
1015.80 0.1021
1015.90 0.1021
1016.00 0.1021
1016.10 0.1022
1016.20 0.1022
1016.30 0.1022
1016.40 0.1022
1016.50 0.1023
1016.60 0.1023
1016.70 0.1023
1016.80 0.1023
1016.90 0.1023
1017.00 0.1024
1017.10 0.1024
1017.20 0.1024
1017.30 0.1024
1017.40 0.1024
1017.50 0.1025
1017.60 0.1025
1017.70 0.1025
1017.80 0.1025
1017.90 0.1025
1018.00 0.1025
1018.10 0.1026
1018.20 0.1026
1018.30 0.1026
1018.40 0.1026
1018.50 0.1026
1018.60 0.1026
1018.70 0.1027
1018.80 0.1027
1018.90 0.1027
1019.00 0.1027
1019.10 0.1027
1019.20 0.1027
1019.30 0.1027
1019.40 0.1027
1019.50 0.1027
1019.60 0.1027
1019.70 0.1028
1019.80 0.1028
1019.90 0.1028
1020.00 0.1028
1020.10 0.1028
1020.20 0.1028
1020.30 0.1028
1020.40 0.1028
1020.50 0.1028
1020.60 0.1029
1020.70 0.1029
1020.80 0.1029
1020.90 0.1029
1021.00 0.1029
1021.10 0.1029
1021.20 0.1029
1021.30 0.1029
1021.40 0.1029
1021.50 0.1029
1021.60 0.1029
1021.70 0.1029
1021.80 0.1029
1021.90 0.1029
1022.00 0.1029
1022.10 0.1029
1022.20 0.1029
1022.30 0.1029
1022.40 0.1029
1022.50 0.1029
1022.60 0.1029
1022.70 0.1029
1022.80 0.1029
1022.90 0.1029
1023.00 0.1029
1023.10 0.1029
1023.20 0.1029
1023.30 0.1029
1023.40 0.1029
1023.50 0.1029
1023.60 0.1029
1023.70 0.1029
1023.80 0.1029
1023.90 0.1029
1024.00 0.1029
1024.10 0.1029
1024.20 0.1029
1024.30 0.1029
1024.40 0.1029
1024.50 0.1029
1024.60 0.1029
1024.70 0.1029
1024.80 0.1029
1024.90 0.1029
1025.00 0.1029
1025.10 0.1029
1025.20 0.1029
1025.30 0.1029
1025.40 0.1029
1025.50 0.1029
1025.60 0.1028
1025.70 0.1028
1025.80 0.1028
1025.90 0.1028
1026.00 0.1028
1026.10 0.1028
1026.20 0.1028
1026.30 0.1028
1026.40 0.1028
1026.50 0.1028
1026.60 0.1028
1026.70 0.1028
1026.80 0.1028
1026.90 0.1028
1027.00 0.1028
1027.10 0.1027
1027.20 0.1027
1027.30 0.1027
1027.40 0.1027
1027.50 0.1027
1027.60 0.1027
1027.70 0.1027
1027.80 0.1026
1027.90 0.1026
1028.00 0.1026
1028.10 0.1026
1028.20 0.1026
1028.30 0.1026
1028.40 0.1026
1028.50 0.1025
1028.60 0.1025
1028.70 0.1025
1028.80 0.1025
1028.90 0.1025
1029.00 0.1025
1029.10 0.1025
1029.20 0.1025
1029.30 0.1024
1029.40 0.1024
1029.50 0.1024
1029.60 0.1024
1029.70 0.1024
1029.80 0.1024
1029.90 0.1024
1030.00 0.1023
1030.10 0.1023
1030.20 0.1023
1030.30 0.1023
1030.40 0.1023
1030.50 0.1023
1030.60 0.1023
1030.70 0.1022
1030.80 0.1022
1030.90 0.1022
1031.00 0.1022
1031.10 0.1022
1031.20 0.1022
1031.30 0.1022
1031.40 0.1022
1031.50 0.1021
1031.60 0.1021
1031.70 0.1021
1031.80 0.1021
1031.90 0.1021
1032.00 0.1021
1032.10 0.1021
1032.20 0.102
1032.30 0.102
1032.40 0.102
1032.50 0.102
1032.60 0.1019
1032.70 0.1019
1032.80 0.1019
1032.90 0.1019
1033.00 0.1019
1033.10 0.1018
1033.20 0.1018
1033.30 0.1018
1033.40 0.1018
1033.50 0.1018
1033.60 0.1017
1033.70 0.1017
1033.80 0.1017
1033.90 0.1017
1034.00 0.1017
1034.10 0.1016
1034.20 0.1016
1034.30 0.1016
1034.40 0.1016
1034.50 0.1015
1034.60 0.1015
1034.70 0.1015
1034.80 0.1015
1034.90 0.1015
1035.00 0.1014
1035.10 0.1014
1035.20 0.1014
1035.30 0.1014
1035.40 0.1014
1035.50 0.1013
1035.60 0.1013
1035.70 0.1013
1035.80 0.1013
1035.90 0.1013
1036.00 0.1012
1036.10 0.1012
1036.20 0.1012
1036.30 0.1012
1036.40 0.1012
1036.50 0.1011
1036.60 0.1011
1036.70 0.1011
1036.80 0.1011
1036.90 0.101
1037.00 0.101
1037.10 0.101
1037.20 0.101
1037.30 0.1009
1037.40 0.1009
1037.50 0.1009
1037.60 0.1009
1037.70 0.1008
1037.80 0.1008
1037.90 0.1008
1038.00 0.1008
1038.10 0.1007
1038.20 0.1007
1038.30 0.1007
1038.40 0.1007
1038.50 0.1006
1038.60 0.1006
1038.70 0.1006
1038.80 0.1005
1038.90 0.1005
1039.00 0.1005
1039.10 0.1005
1039.20 0.1004
1039.30 0.1004
1039.40 0.1004
1039.50 0.1004
1039.60 0.1003
1039.70 0.1003
1039.80 0.1003
1039.90 0.1003
1040.00 0.1002
1040.10 0.1002
1040.20 0.1002
1040.30 0.1001
1040.40 0.1001
1040.50 0.1001
1040.60 0.1001
1040.70 0.1
1040.80 0.1
1040.90 0.09999
1041.00 0.09996
1041.10 0.09993
1041.20 0.09991
1041.30 0.09988
1041.40 0.09985
1041.50 0.09983
1041.60 0.0998
1041.70 0.09977
1041.80 0.09975
1041.90 0.09972
1042.00 0.0997
1042.10 0.09966
1042.20 0.09963
1042.30 0.0996
1042.40 0.09957
1042.50 0.09954
1042.60 0.09951
1042.70 0.09948
1042.80 0.09945
1042.90 0.09941
1043.00 0.09938
1043.10 0.09935
1043.20 0.09932
1043.30 0.09929
1043.40 0.09926
1043.50 0.09923
1043.60 0.0992
1043.70 0.09917
1043.80 0.09913
1043.90 0.0991
1044.00 0.09907
1044.10 0.09904
1044.20 0.09901
1044.30 0.09898
1044.40 0.09895
1044.50 0.09892
1044.60 0.09889
1044.70 0.09886
1044.80 0.09882
1044.90 0.09879
1045.00 0.09876
1045.10 0.09873
1045.20 0.0987
1045.30 0.09867
1045.40 0.09864
1045.50 0.09861
1045.60 0.09858
1045.70 0.09855
1045.80 0.09852
1045.90 0.09848
1046.00 0.09845
1046.10 0.09842
1046.20 0.09839
1046.30 0.09836
1046.40 0.09833
1046.50 0.0983
1046.60 0.09827
1046.70 0.09824
1046.80 0.09821
1046.90 0.09818
1047.00 0.09815
1047.10 0.09811
1047.20 0.09807
1047.30 0.09804
1047.40 0.098
1047.50 0.09797
1047.60 0.09793
1047.70 0.0979
1047.80 0.09786
1047.90 0.09783
1048.00 0.09779
1048.10 0.09776
1048.20 0.09772
1048.30 0.09768
1048.40 0.09765
1048.50 0.09761
1048.60 0.09758
1048.70 0.09754
1048.80 0.09751
1048.90 0.09747
1049.00 0.09744
1049.10 0.0974
1049.20 0.09737
1049.30 0.09733
1049.40 0.0973
1049.50 0.09726
1049.60 0.09722
1049.70 0.09719
1049.80 0.09715
1049.90 0.09712
1050.00 0.09708
1050.10 0.09705
1050.20 0.09701
1050.30 0.09698
1050.40 0.09694
1050.50 0.09691
1050.60 0.09687
1050.70 0.09684
1050.80 0.0968
1050.90 0.09677
1051.00 0.09673
1051.10 0.0967
1051.20 0.09666
1051.30 0.09663
1051.40 0.09659
1051.50 0.09656
1051.60 0.09652
1051.70 0.09649
1051.80 0.09645
1051.90 0.09642
1052.00 0.09638
1052.10 0.09634
1052.20 0.0963
1052.30 0.09626
1052.40 0.09622
1052.50 0.09618
1052.60 0.09614
1052.70 0.0961
1052.80 0.09606
1052.90 0.09602
1053.00 0.09598
1053.10 0.09594
1053.20 0.0959
1053.30 0.09586
1053.40 0.09582
1053.50 0.09578
1053.60 0.09575
1053.70 0.09571
1053.80 0.09567
1053.90 0.09563
1054.00 0.09559
1054.10 0.09555
1054.20 0.09551
1054.30 0.09547
1054.40 0.09543
1054.50 0.09539
1054.60 0.09535
1054.70 0.09531
1054.80 0.09527
1054.90 0.09523
1055.00 0.09519
1055.10 0.09515
1055.20 0.09511
1055.30 0.09507
1055.40 0.09503
1055.50 0.095
1055.60 0.09496
1055.70 0.09492
1055.80 0.09488
1055.90 0.09484
1056.00 0.0948
1056.10 0.09476
1056.20 0.09472
1056.30 0.09468
1056.40 0.09464
1056.50 0.0946
1056.60 0.09456
1056.70 0.09452
1056.80 0.09448
1056.90 0.09445
1057.00 0.09441
1057.10 0.09436
1057.20 0.09432
1057.30 0.09427
1057.40 0.09423
1057.50 0.09418
1057.60 0.09414
1057.70 0.09409
1057.80 0.09405
1057.90 0.094
1058.00 0.09396
1058.10 0.09391
1058.20 0.09387
1058.30 0.09382
1058.40 0.09378
1058.50 0.09373
1058.60 0.09369
1058.70 0.09365
1058.80 0.0936
1058.90 0.09356
1059.00 0.09351
1059.10 0.09347
1059.20 0.09342
1059.30 0.09338
1059.40 0.09333
1059.50 0.09329
1059.60 0.09324
1059.70 0.0932
1059.80 0.09315
1059.90 0.09311
1060.00 0.09307
1060.10 0.09302
1060.20 0.09298
1060.30 0.09293
1060.40 0.09289
1060.50 0.09284
1060.60 0.0928
1060.70 0.09276
1060.80 0.09271
1060.90 0.09267
1061.00 0.09262
1061.10 0.09258
1061.20 0.09253
1061.30 0.09249
1061.40 0.09245
1061.50 0.0924
1061.60 0.09236
1061.70 0.09231
1061.80 0.09227
1061.90 0.09222
1062.00 0.09218
1062.10 0.09213
1062.20 0.09208
1062.30 0.09203
1062.40 0.09198
1062.50 0.09192
1062.60 0.09187
1062.70 0.09182
1062.80 0.09177
1062.90 0.09172
1063.00 0.09167
1063.10 0.09162
1063.20 0.09157
1063.30 0.09152
1063.40 0.09147
1063.50 0.09141
1063.60 0.09136
1063.70 0.09131
1063.80 0.09126
1063.90 0.09121
1064.00 0.09116
1064.10 0.09111
1064.20 0.09106
1064.30 0.09101
1064.40 0.09096
1064.50 0.09091
1064.60 0.09086
1064.70 0.09081
1064.80 0.09076
1064.90 0.0907
1065.00 0.09065
1065.10 0.0906
1065.20 0.09055
1065.30 0.0905
1065.40 0.09045
1065.50 0.0904
1065.60 0.09035
1065.70 0.0903
1065.80 0.09025
1065.90 0.0902
1066.00 0.09015
1066.10 0.0901
1066.20 0.09005
1066.30 0.09
1066.40 0.08995
1066.50 0.0899
1066.60 0.08985
1066.70 0.0898
1066.80 0.08975
1066.90 0.0897
1067.00 0.08965
1067.10 0.08959
1067.20 0.08953
1067.30 0.08947
1067.40 0.08941
1067.50 0.08935
1067.60 0.08929
1067.70 0.08923
1067.80 0.08917
1067.90 0.08911
1068.00 0.08905
1068.10 0.08899
1068.20 0.08893
1068.30 0.08888
1068.40 0.08882
1068.50 0.08876
1068.60 0.0887
1068.70 0.08864
1068.80 0.08858
1068.90 0.08852
1069.00 0.08846
1069.10 0.0884
1069.20 0.08834
1069.30 0.08829
1069.40 0.08823
1069.50 0.08817
1069.60 0.08811
1069.70 0.08805
1069.80 0.08799
1069.90 0.08793
1070.00 0.08787
1070.10 0.08782
1070.20 0.08776
1070.30 0.0877
1070.40 0.08764
1070.50 0.08758
1070.60 0.08752
1070.70 0.08746
1070.80 0.0874
1070.90 0.08735
1071.00 0.08729
1071.10 0.08723
1071.20 0.08717
1071.30 0.08711
1071.40 0.08705
1071.50 0.087
1071.60 0.08694
1071.70 0.08688
1071.80 0.08682
1071.90 0.08676
1072.00 0.0867
1072.10 0.08664
1072.20 0.08657
1072.30 0.08651
1072.40 0.08644
1072.50 0.08638
1072.60 0.08631
1072.70 0.08624
1072.80 0.08618
1072.90 0.08611
1073.00 0.08605
1073.10 0.08598
1073.20 0.08592
1073.30 0.08585
1073.40 0.08579
1073.50 0.08572
1073.60 0.08565
1073.70 0.08558
1073.80 0.0855
1073.90 0.08543
1074.00 0.08536
1074.10 0.08529
1074.20 0.08522
1074.30 0.08514
1074.40 0.08507
1074.50 0.085
1074.60 0.08493
1074.70 0.08486
1074.80 0.08478
1074.90 0.08471
1075.00 0.08464
1075.10 0.08457
1075.20 0.0845
1075.30 0.08443
1075.40 0.08435
1075.50 0.08428
1075.60 0.08421
1075.70 0.08414
1075.80 0.08407
1075.90 0.084
1076.00 0.08392
1076.10 0.08385
1076.20 0.08378
1076.30 0.08371
1076.40 0.08364
1076.50 0.08357
1076.60 0.0835
1076.70 0.08342
1076.80 0.08335
1076.90 0.08328
1077.00 0.08321
1077.10 0.08313
1077.20 0.08306
1077.30 0.08298
1077.40 0.0829
1077.50 0.08282
1077.60 0.08274
1077.70 0.08266
1077.80 0.08258
1077.90 0.0825
1078.00 0.08242
1078.10 0.08234
1078.20 0.08225
1078.30 0.08217
1078.40 0.08209
1078.50 0.08201
1078.60 0.08193
1078.70 0.08185
1078.80 0.08176
1078.90 0.08168
1079.00 0.0816
1079.10 0.08152
1079.20 0.08144
1079.30 0.08136
1079.40 0.08128
1079.50 0.08119
1079.60 0.0811
1079.70 0.08102
1079.80 0.08093
1079.90 0.08084
1080.00 0.08075
1080.10 0.08066
1080.20 0.08057
1080.30 0.08048
1080.40 0.08039
1080.50 0.08031
1080.60 0.08022
1080.70 0.08013
1080.80 0.08004
1080.90 0.07995
1081.00 0.07986
1081.10 0.07977
1081.20 0.07968
1081.30 0.0796
1081.40 0.07951
1081.50 0.07942
1081.60 0.07932
1081.70 0.07923
1081.80 0.07914
1081.90 0.07904
1082.00 0.07895
1082.10 0.07885
1082.20 0.07875
1082.30 0.07865
1082.40 0.07855
1082.50 0.07845
1082.60 0.07836
1082.70 0.07826
1082.80 0.07816
1082.90 0.07806
1083.00 0.07796
1083.10 0.07786
1083.20 0.07777
1083.30 0.07767
1083.40 0.07757
1083.50 0.07747
1083.60 0.07736
1083.70 0.07726
1083.80 0.07715
1083.90 0.07705
1084.00 0.07695
1084.10 0.07684
1084.20 0.07674
1084.30 0.07663
1084.40 0.07653
1084.50 0.07642
1084.60 0.07631
1084.70 0.0762
1084.80 0.07608
1084.90 0.07597
1085.00 0.07586
1085.10 0.07575
1085.20 0.07564
1085.30 0.07552
1085.40 0.07541
1085.50 0.0753
1085.60 0.07519
1085.70 0.07508
1085.80 0.07497
1085.90 0.07485
1086.00 0.07474
1086.10 0.07463
1086.20 0.07452
1086.30 0.07441
1086.40 0.0743
1086.50 0.07418
1086.60 0.07407
1086.70 0.07395
1086.80 0.07383
1086.90 0.07372
1087.00 0.0736
1087.10 0.07348
1087.20 0.07336
1087.30 0.07325
1087.40 0.07313
1087.50 0.07301
1087.60 0.07289
1087.70 0.07277
1087.80 0.07265
1087.90 0.07253
1088.00 0.07242
1088.10 0.0723
1088.20 0.07218
1088.30 0.07206
1088.40 0.07194
1088.50 0.07183
1088.60 0.07172
1088.70 0.07161
1088.80 0.07151
1088.90 0.0714
1089.00 0.07129
1089.10 0.07119
1089.20 0.07108
1089.30 0.07097
1089.40 0.07087
1089.50 0.07076
1089.60 0.07065
1089.70 0.07054
1089.80 0.07044
1089.90 0.07033
1090.00 0.07022
1090.10 0.07012
1090.20 0.07001
1090.30 0.0699
1090.40 0.0698
1090.50 0.06971
1090.60 0.06965
1090.70 0.06959
1090.80 0.06953
1090.90 0.06948
1091.00 0.06942
1091.10 0.06936
1091.20 0.06931
1091.30 0.06925
1091.40 0.06919
1091.50 0.06913
1091.60 0.06908
1091.70 0.06902
1091.80 0.06896
1091.90 0.0689
1092.00 0.06885
1092.10 0.06888
1092.20 0.06892
1092.30 0.06896
1092.40 0.069
1092.50 0.06903
1092.60 0.06907
1092.70 0.06914
1092.80 0.06928
1092.90 0.06942
1093.00 0.06955
1093.10 0.06971
1093.20 0.06992
1093.30 0.07013
1093.40 0.07031
1093.50 0.07037
1093.60 0.07018
1093.70 0.06991
1093.80 0.06967
1093.90 0.06944
1094.00 0.06926
1094.10 0.06908
1094.20 0.06891
1094.30 0.06876
1094.40 0.06869
1094.50 0.06861
1094.60 0.06854
1094.70 0.06846
1094.80 0.06839
1094.90 0.06832
1095.00 0.06827
1095.10 0.06829
1095.20 0.0683
1095.30 0.06832
1095.40 0.06833
1095.50 0.06835
1095.60 0.06836
1095.70 0.06838
1095.80 0.06839
1095.90 0.06841
1096.00 0.06842
1096.10 0.06844
1096.20 0.06845
1096.30 0.06847
1096.40 0.06848
1096.50 0.06851
1096.60 0.06855
1096.70 0.06859
1096.80 0.06864
1096.90 0.06868
1097.00 0.06873
1097.10 0.06879
1097.20 0.06886
1097.30 0.06893
1097.40 0.069
1097.50 0.06906
1097.60 0.06913
1097.70 0.0692
1097.80 0.06927
1097.90 0.06933
1098.00 0.0694
1098.10 0.06947
1098.20 0.06953
1098.30 0.0696
1098.40 0.06967
1098.50 0.06974
1098.60 0.06981
1098.70 0.06988
1098.80 0.06994
1098.90 0.07001
1099.00 0.07008
1099.10 0.07015
1099.20 0.07022
1099.30 0.07029
1099.40 0.07036
1099.50 0.07043
1099.60 0.0705
1099.70 0.07057
1099.80 0.07064
1099.90 0.07071
1100.00 0.07078
1100.10 0.07085
1100.20 0.07091
1100.30 0.07098
1100.40 0.07105
1100.50 0.07112
1100.60 0.07118
1100.70 0.07124
1100.80 0.0713
1100.90 0.07137
1101.00 0.07143
1101.10 0.07149
1101.20 0.07155
1101.30 0.07161
1101.40 0.07167
1101.50 0.07174
1101.60 0.0718
1101.70 0.07186
1101.80 0.07192
1101.90 0.07198
1102.00 0.07204
1102.10 0.0721
1102.20 0.07216
1102.30 0.07221
1102.40 0.07227
1102.50 0.07232
1102.60 0.07237
1102.70 0.07243
1102.80 0.07248
1102.90 0.07253
1103.00 0.07258
1103.10 0.07264
1103.20 0.07269
1103.30 0.07274
1103.40 0.07279
1103.50 0.07284
1103.60 0.07288
1103.70 0.07293
1103.80 0.07297
1103.90 0.07302
1104.00 0.07306
1104.10 0.0731
1104.20 0.07315
1104.30 0.07319
1104.40 0.07324
1104.50 0.07328
1104.60 0.07332
1104.70 0.07337
1104.80 0.07341
1104.90 0.07346
1105.00 0.0735
1105.10 0.07354
1105.20 0.07359
1105.30 0.07363
1105.40 0.07368
1105.50 0.07372
1105.60 0.07375
1105.70 0.07379
1105.80 0.07382
1105.90 0.07386
1106.00 0.07389
1106.10 0.07393
1106.20 0.07396
1106.30 0.074
1106.40 0.07403
1106.50 0.07407
1106.60 0.07411
1106.70 0.07414
1106.80 0.07418
1106.90 0.07421
1107.00 0.07425
1107.10 0.07428
1107.20 0.07431
1107.30 0.07434
1107.40 0.07437
1107.50 0.0744
1107.60 0.07443
1107.70 0.07445
1107.80 0.07448
1107.90 0.07451
1108.00 0.07453
1108.10 0.07456
1108.20 0.07458
1108.30 0.07461
1108.40 0.07464
1108.50 0.07466
1108.60 0.07469
1108.70 0.07471
1108.80 0.07474
1108.90 0.07477
1109.00 0.07479
1109.10 0.07482
1109.20 0.07485
1109.30 0.07487
1109.40 0.0749
1109.50 0.07492
1109.60 0.07494
1109.70 0.07496
1109.80 0.07498
1109.90 0.075
1110.00 0.07501
1110.10 0.07503
1110.20 0.07505
1110.30 0.07507
1110.40 0.07509
1110.50 0.07511
1110.60 0.07513
1110.70 0.07514
1110.80 0.07516
1110.90 0.07518
1111.00 0.0752
1111.10 0.07522
1111.20 0.07524
1111.30 0.07526
1111.40 0.07527
1111.50 0.07529
1111.60 0.07531
1111.70 0.07533
1111.80 0.07535
1111.90 0.07537
1112.00 0.07538
1112.10 0.0754
1112.20 0.07541
1112.30 0.07542
1112.40 0.07544
1112.50 0.07545
1112.60 0.07546
1112.70 0.07548
1112.80 0.07549
1112.90 0.0755
1113.00 0.07551
1113.10 0.07553
1113.20 0.07554
1113.30 0.07555
1113.40 0.07557
1113.50 0.07558
1113.60 0.07558
1113.70 0.07559
1113.80 0.0756
1113.90 0.0756
1114.00 0.07561
1114.10 0.07562
1114.20 0.07563
1114.30 0.07563
1114.40 0.07564
1114.50 0.07565
1114.60 0.07565
1114.70 0.07566
1114.80 0.07567
1114.90 0.07568
1115.00 0.07568
1115.10 0.07569
1115.20 0.0757
1115.30 0.0757
1115.40 0.07571
1115.50 0.07572
1115.60 0.07572
1115.70 0.07573
1115.80 0.07574
1115.90 0.07574
1116.00 0.07575
1116.10 0.07576
1116.20 0.07577
1116.30 0.07577
1116.40 0.07578
1116.50 0.07579
1116.60 0.07579
1116.70 0.0758
1116.80 0.07581
1116.90 0.07581
1117.00 0.07582
1117.10 0.07582
1117.20 0.07582
1117.30 0.07582
1117.40 0.07582
1117.50 0.07582
1117.60 0.07582
1117.70 0.07582
1117.80 0.07581
1117.90 0.07581
1118.00 0.07581
1118.10 0.07581
1118.20 0.07581
1118.30 0.07581
1118.40 0.07581
1118.50 0.07581
1118.60 0.07581
1118.70 0.07581
1118.80 0.07581
1118.90 0.07581
1119.00 0.07581
1119.10 0.0758
1119.20 0.0758
1119.30 0.0758
1119.40 0.0758
1119.50 0.0758
1119.60 0.0758
1119.70 0.0758
1119.80 0.0758
1119.90 0.0758
1120.00 0.0758
1120.10 0.0758
1120.20 0.0758
1120.30 0.07579
1120.40 0.07579
1120.50 0.07579
1120.60 0.07579
1120.70 0.07579
1120.80 0.07579
1120.90 0.07579
1121.00 0.07579
1121.10 0.07579
1121.20 0.07579
1121.30 0.07579
1121.40 0.07579
1121.50 0.07579
1121.60 0.07578
1121.70 0.07578
1121.80 0.07578
1121.90 0.07578
1122.00 0.07578
1122.10 0.07577
1122.20 0.07577
1122.30 0.07576
1122.40 0.07575
1122.50 0.07574
1122.60 0.07574
1122.70 0.07573
1122.80 0.07572
1122.90 0.07572
1123.00 0.07571
1123.10 0.0757
1123.20 0.07569
1123.30 0.07569
1123.40 0.07568
1123.50 0.07567
1123.60 0.07566
1123.70 0.07566
1123.80 0.07565
1123.90 0.07564
1124.00 0.07563
1124.10 0.07563
1124.20 0.07562
1124.30 0.07561
1124.40 0.07561
1124.50 0.0756
1124.60 0.07559
1124.70 0.07558
1124.80 0.07558
1124.90 0.07557
1125.00 0.07556
1125.10 0.07555
1125.20 0.07555
1125.30 0.07554
1125.40 0.07553
1125.50 0.07553
1125.60 0.07552
1125.70 0.07551
1125.80 0.0755
1125.90 0.0755
1126.00 0.07549
1126.10 0.07548
1126.20 0.07547
1126.30 0.07547
1126.40 0.07546
1126.50 0.07545
1126.60 0.07545
1126.70 0.07544
1126.80 0.07543
1126.90 0.07542
1127.00 0.07542
1127.10 0.0754
1127.20 0.07539
1127.30 0.07538
1127.40 0.07537
1127.50 0.07536
1127.60 0.07535
1127.70 0.07533
1127.80 0.07532
1127.90 0.07531
1128.00 0.0753
1128.10 0.07529
1128.20 0.07527
1128.30 0.07526
1128.40 0.07525
1128.50 0.07524
1128.60 0.07523
1128.70 0.07522
1128.80 0.0752
1128.90 0.07519
1129.00 0.07518
1129.10 0.07517
1129.20 0.07516
1129.30 0.07514
1129.40 0.07513
1129.50 0.07512
1129.60 0.07511
1129.70 0.0751
1129.80 0.07509
1129.90 0.07507
1130.00 0.07506
1130.10 0.07505
1130.20 0.07504
1130.30 0.07503
1130.40 0.07502
1130.50 0.075
1130.60 0.07499
1130.70 0.07498
1130.80 0.07497
1130.90 0.07496
1131.00 0.07494
1131.10 0.07493
1131.20 0.07492
1131.30 0.07491
1131.40 0.0749
1131.50 0.07489
1131.60 0.07487
1131.70 0.07486
1131.80 0.07485
1131.90 0.07484
1132.00 0.07483
1132.10 0.07481
1132.20 0.0748
1132.30 0.07478
1132.40 0.07477
1132.50 0.07475
1132.60 0.07474
1132.70 0.07472
1132.80 0.07471
1132.90 0.07469
1133.00 0.07468
1133.10 0.07466
1133.20 0.07465
1133.30 0.07463
1133.40 0.07462
1133.50 0.0746
1133.60 0.07459
1133.70 0.07458
1133.80 0.07456
1133.90 0.07455
1134.00 0.07453
1134.10 0.07452
1134.20 0.0745
1134.30 0.07449
1134.40 0.07447
1134.50 0.07446
1134.60 0.07444
1134.70 0.07443
1134.80 0.07441
1134.90 0.0744
1135.00 0.07438
1135.10 0.07437
1135.20 0.07435
1135.30 0.07434
1135.40 0.07432
1135.50 0.07431
1135.60 0.07429
1135.70 0.07428
1135.80 0.07426
1135.90 0.07425
1136.00 0.07423
1136.10 0.07422
1136.20 0.07421
1136.30 0.07419
1136.40 0.07418
1136.50 0.07416
1136.60 0.07415
1136.70 0.07413
1136.80 0.07412
1136.90 0.0741
1137.00 0.07409
1137.10 0.07407
1137.20 0.07405
1137.30 0.07404
1137.40 0.07402
1137.50 0.074
1137.60 0.07399
1137.70 0.07397
1137.80 0.07395
1137.90 0.07394
1138.00 0.07392
1138.10 0.0739
1138.20 0.07389
1138.30 0.07387
1138.40 0.07385
1138.50 0.07384
1138.60 0.07382
1138.70 0.0738
1138.80 0.07378
1138.90 0.07377
1139.00 0.07375
1139.10 0.07373
1139.20 0.07372
1139.30 0.0737
1139.40 0.07368
1139.50 0.07367
1139.60 0.07365
1139.70 0.07363
1139.80 0.07362
1139.90 0.0736
1140.00 0.07358
1140.10 0.07357
1140.20 0.07355
1140.30 0.07353
1140.40 0.07352
1140.50 0.0735
1140.60 0.07348
1140.70 0.07347
1140.80 0.07345
1140.90 0.07343
1141.00 0.07342
1141.10 0.0734
1141.20 0.07338
1141.30 0.07337
1141.40 0.07335
1141.50 0.07333
1141.60 0.07332
1141.70 0.0733
1141.80 0.07328
1141.90 0.07327
1142.00 0.07325
1142.10 0.07323
1142.20 0.07321
1142.30 0.07319
1142.40 0.07318
1142.50 0.07316
1142.60 0.07314
1142.70 0.07312
1142.80 0.0731
1142.90 0.07309
1143.00 0.07307
1143.10 0.07305
1143.20 0.07303
1143.30 0.07301
1143.40 0.07299
1143.50 0.07298
1143.60 0.07296
1143.70 0.07294
1143.80 0.07292
1143.90 0.0729
1144.00 0.07288
1144.10 0.07287
1144.20 0.07285
1144.30 0.07283
1144.40 0.07281
1144.50 0.07279
1144.60 0.07278
1144.70 0.07276
1144.80 0.07274
1144.90 0.07272
1145.00 0.0727
1145.10 0.07268
1145.20 0.07267
1145.30 0.07265
1145.40 0.07263
1145.50 0.07261
1145.60 0.07259
1145.70 0.07258
1145.80 0.07256
1145.90 0.07254
1146.00 0.07252
1146.10 0.0725
1146.20 0.07248
1146.30 0.07247
1146.40 0.07245
1146.50 0.07243
1146.60 0.07241
1146.70 0.07239
1146.80 0.07238
1146.90 0.07236
1147.00 0.07234
1147.10 0.07232
1147.20 0.0723
1147.30 0.07228
1147.40 0.07226
1147.50 0.07224
1147.60 0.07222
1147.70 0.07221
1147.80 0.07219
1147.90 0.07217
1148.00 0.07215
1148.10 0.07213
1148.20 0.07211
1148.30 0.07209
1148.40 0.07207
1148.50 0.07205
1148.60 0.07203
1148.70 0.07201
1148.80 0.07199
1148.90 0.07198
1149.00 0.07196
1149.10 0.07194
1149.20 0.07192
1149.30 0.0719
1149.40 0.07188
1149.50 0.07186
1149.60 0.07184
1149.70 0.07182
1149.80 0.0718
1149.90 0.07179
1150.00 0.07177
1150.10 0.07175
1150.20 0.07173
1150.30 0.07171
1150.40 0.07169
1150.50 0.07167
1150.60 0.07165
1150.70 0.07163
1150.80 0.07161
1150.90 0.07159
1151.00 0.07158
1151.10 0.07156
1151.20 0.07154
1151.30 0.07152
1151.40 0.0715
1151.50 0.07148
1151.60 0.07146
1151.70 0.07144
1151.80 0.07142
1151.90 0.07141
1152.00 0.07139
1152.10 0.07137
1152.20 0.07135
1152.30 0.07133
1152.40 0.07131
1152.50 0.07129
1152.60 0.07127
1152.70 0.07125
1152.80 0.07123
1152.90 0.07121
1153.00 0.07119
1153.10 0.07117
1153.20 0.07115
1153.30 0.07113
1153.40 0.07111
1153.50 0.07109
1153.60 0.07107
1153.70 0.07105
1153.80 0.07103
1153.90 0.07101
1154.00 0.07099
1154.10 0.07097
1154.20 0.07095
1154.30 0.07093
1154.40 0.07092
1154.50 0.0709
1154.60 0.07088
1154.70 0.07086
1154.80 0.07084
1154.90 0.07082
1155.00 0.0708
1155.10 0.07078
1155.20 0.07076
1155.30 0.07074
1155.40 0.07072
1155.50 0.0707
1155.60 0.07068
1155.70 0.07066
1155.80 0.07064
1155.90 0.07062
1156.00 0.0706
1156.10 0.07058
1156.20 0.07056
1156.30 0.07054
1156.40 0.07053
1156.50 0.07051
1156.60 0.07049
1156.70 0.07047
1156.80 0.07045
1156.90 0.07043
1157.00 0.07041
1157.10 0.07039
1157.20 0.07037
1157.30 0.07035
1157.40 0.07033
1157.50 0.07031
1157.60 0.07029
1157.70 0.07027
1157.80 0.07025
1157.90 0.07023
1158.00 0.07021
1158.10 0.07019
1158.20 0.07017
1158.30 0.07015
1158.40 0.07013
1158.50 0.07011
1158.60 0.07009
1158.70 0.07007
1158.80 0.07005
1158.90 0.07003
1159.00 0.07001
1159.10 0.06999
1159.20 0.06997
1159.30 0.06995
1159.40 0.06993
1159.50 0.06991
1159.60 0.06989
1159.70 0.06987
1159.80 0.06985
1159.90 0.06983
1160.00 0.06981
1160.10 0.06979
1160.20 0.06977
1160.30 0.06975
1160.40 0.06973
1160.50 0.06971
1160.60 0.06969
1160.70 0.06967
1160.80 0.06965
1160.90 0.06963
1161.00 0.06961
1161.10 0.06959
1161.20 0.06957
1161.30 0.06955
1161.40 0.06953
1161.50 0.06951
1161.60 0.06949
1161.70 0.06947
1161.80 0.06945
1161.90 0.06943
1162.00 0.06941
1162.10 0.06939
1162.20 0.06937
1162.30 0.06935
1162.40 0.06933
1162.50 0.06931
1162.60 0.06929
1162.70 0.06927
1162.80 0.06925
1162.90 0.06923
1163.00 0.06921
1163.10 0.06919
1163.20 0.06917
1163.30 0.06915
1163.40 0.06913
1163.50 0.06911
1163.60 0.06909
1163.70 0.06907
1163.80 0.06905
1163.90 0.06903
1164.00 0.06901
1164.10 0.06899
1164.20 0.06897
1164.30 0.06895
1164.40 0.06893
1164.50 0.06891
1164.60 0.06889
1164.70 0.06887
1164.80 0.06885
1164.90 0.06883
1165.00 0.06881
1165.10 0.06879
1165.20 0.06877
1165.30 0.06875
1165.40 0.06873
1165.50 0.06871
1165.60 0.06869
1165.70 0.06867
1165.80 0.06865
1165.90 0.06863
1166.00 0.06861
1166.10 0.06859
1166.20 0.06857
1166.30 0.06855
1166.40 0.06853
1166.50 0.06851
1166.60 0.06849
1166.70 0.06847
1166.80 0.06845
1166.90 0.06843
1167.00 0.06841
1167.10 0.06839
1167.20 0.06837
1167.30 0.06835
1167.40 0.06833
1167.50 0.06831
1167.60 0.06829
1167.70 0.06827
1167.80 0.06825
1167.90 0.06823
1168.00 0.06821
1168.10 0.06819
1168.20 0.06817
1168.30 0.06815
1168.40 0.06813
1168.50 0.06811
1168.60 0.06809
1168.70 0.06806
1168.80 0.06804
1168.90 0.06802
1169.00 0.068
1169.10 0.06798
1169.20 0.06796
1169.30 0.06794
1169.40 0.06792
1169.50 0.0679
1169.60 0.06788
1169.70 0.06786
1169.80 0.06784
1169.90 0.06782
1170.00 0.0678
1170.10 0.06778
1170.20 0.06776
1170.30 0.06774
1170.40 0.06772
1170.50 0.0677
1170.60 0.06768
1170.70 0.06766
1170.80 0.06764
1170.90 0.06762
1171.00 0.0676
1171.10 0.06758
1171.20 0.06756
1171.30 0.06754
1171.40 0.06752
1171.50 0.0675
1171.60 0.06748
1171.70 0.06746
1171.80 0.06744
1171.90 0.06742
1172.00 0.0674
1172.10 0.06738
1172.20 0.06736
1172.30 0.06734
1172.40 0.06732
1172.50 0.0673
1172.60 0.06728
1172.70 0.06726
1172.80 0.06724
1172.90 0.06722
1173.00 0.0672
1173.10 0.06718
1173.20 0.06716
1173.30 0.06714
1173.40 0.06712
1173.50 0.0671
1173.60 0.06708
1173.70 0.06706
1173.80 0.06704
1173.90 0.06702
1174.00 0.067
1174.10 0.06698
1174.20 0.06696
1174.30 0.06694
1174.40 0.06692
1174.50 0.0669
1174.60 0.06688
1174.70 0.06686
1174.80 0.06684
1174.90 0.06682
1175.00 0.0668
1175.10 0.06678
1175.20 0.06676
1175.30 0.06674
1175.40 0.06672
1175.50 0.0667
1175.60 0.06668
1175.70 0.06666
1175.80 0.06664
1175.90 0.06662
1176.00 0.0666
1176.10 0.06658
1176.20 0.06656
1176.30 0.06654
1176.40 0.06652
1176.50 0.0665
1176.60 0.06648
1176.70 0.06646
1176.80 0.06644
1176.90 0.06642
1177.00 0.0664
1177.10 0.06638
1177.20 0.06636
1177.30 0.06634
1177.40 0.06632
1177.50 0.0663
1177.60 0.06628
1177.70 0.06626
1177.80 0.06624
1177.90 0.06622
1178.00 0.0662
1178.10 0.06618
1178.20 0.06616
1178.30 0.06614
1178.40 0.06612
1178.50 0.0661
1178.60 0.06608
1178.70 0.06606
1178.80 0.06603
1178.90 0.06601
1179.00 0.06599
1179.10 0.06597
1179.20 0.06595
1179.30 0.06593
1179.40 0.06591
1179.50 0.06589
1179.60 0.06587
1179.70 0.06585
1179.80 0.06583
1179.90 0.06581
1180.00 0.06579
1180.10 0.06577
1180.20 0.06575
1180.30 0.06573
1180.40 0.06571
1180.50 0.06569
1180.60 0.06567
1180.70 0.06565
1180.80 0.06563
1180.90 0.06561
1181.00 0.06559
1181.10 0.06557
1181.20 0.06555
1181.30 0.06553
1181.40 0.06551
1181.50 0.06549
1181.60 0.06547
1181.70 0.06545
1181.80 0.06543
1181.90 0.06541
1182.00 0.06539
1182.10 0.06537
1182.20 0.06535
1182.30 0.06533
1182.40 0.06531
1182.50 0.06529
1182.60 0.06527
1182.70 0.06525
1182.80 0.06523
1182.90 0.06521
1183.00 0.06519
1183.10 0.06517
1183.20 0.06515
1183.30 0.06513
1183.40 0.06511
1183.50 0.06509
1183.60 0.06507
1183.70 0.06505
1183.80 0.06503
1183.90 0.06501
1184.00 0.06499
1184.10 0.06497
1184.20 0.06495
1184.30 0.06493
1184.40 0.06491
1184.50 0.06489
1184.60 0.06487
1184.70 0.06485
1184.80 0.06483
1184.90 0.06481
1185.00 0.06479
1185.10 0.06477
1185.20 0.06475
1185.30 0.06473
1185.40 0.06471
1185.50 0.06469
1185.60 0.06467
1185.70 0.06465
1185.80 0.06463
1185.90 0.06461
1186.00 0.06459
1186.10 0.06457
1186.20 0.06455
1186.30 0.06453
1186.40 0.06451
1186.50 0.06449
1186.60 0.06447
1186.70 0.06445
1186.80 0.06443
1186.90 0.06441
1187.00 0.06439
1187.10 0.06437
1187.20 0.06435
1187.30 0.06433
1187.40 0.06431
1187.50 0.06429
1187.60 0.06427
1187.70 0.06425
1187.80 0.06423
1187.90 0.06421
1188.00 0.0642
1188.10 0.06418
1188.20 0.06416
1188.30 0.06414
1188.40 0.06412
1188.50 0.0641
1188.60 0.06408
1188.70 0.06406
1188.80 0.06404
1188.90 0.06402
1189.00 0.064
1189.10 0.06398
1189.20 0.06396
1189.30 0.06394
1189.40 0.06392
1189.50 0.0639
1189.60 0.06388
1189.70 0.06386
1189.80 0.06384
1189.90 0.06382
1190.00 0.0638
1190.10 0.06378
1190.20 0.06376
1190.30 0.06374
1190.40 0.06372
1190.50 0.0637
1190.60 0.06368
1190.70 0.06366
1190.80 0.06364
1190.90 0.06362
1191.00 0.0636
1191.10 0.06358
1191.20 0.06356
1191.30 0.06354
1191.40 0.06352
1191.50 0.0635
1191.60 0.06348
1191.70 0.06346
1191.80 0.06344
1191.90 0.06342
1192.00 0.0634
1192.10 0.06338
1192.20 0.06336
1192.30 0.06334
1192.40 0.06332
1192.50 0.0633
1192.60 0.06328
1192.70 0.06326
1192.80 0.06324
1192.90 0.06322
1193.00 0.0632
1193.10 0.06318
1193.20 0.06316
1193.30 0.06314
1193.40 0.06312
1193.50 0.0631
1193.60 0.06308
1193.70 0.06306
1193.80 0.06304
1193.90 0.06302
1194.00 0.063
1194.10 0.06298
1194.20 0.06296
1194.30 0.06294
1194.40 0.06292
1194.50 0.0629
1194.60 0.06288
1194.70 0.06286
1194.80 0.06284
1194.90 0.06282
1195.00 0.06281
1195.10 0.06279
1195.20 0.06277
1195.30 0.06275
1195.40 0.06273
1195.50 0.06271
1195.60 0.06269
1195.70 0.06267
1195.80 0.06265
1195.90 0.06263
1196.00 0.06261
1196.10 0.06259
1196.20 0.06257
1196.30 0.06255
1196.40 0.06253
1196.50 0.06251
1196.60 0.06249
1196.70 0.06247
1196.80 0.06245
1196.90 0.06243
1197.00 0.06241
1197.10 0.06239
1197.20 0.06237
1197.30 0.06235
1197.40 0.06233
1197.50 0.06231
1197.60 0.06229
1197.70 0.06227
1197.80 0.06225
1197.90 0.06223
1198.00 0.06221
1198.10 0.06219
1198.20 0.06217
1198.30 0.06215
1198.40 0.06213
1198.50 0.06211
1198.60 0.06209
1198.70 0.06207
1198.80 0.06205
1198.90 0.06203
1199.00 0.06201
1199.10 0.06199
1199.20 0.06197
1199.30 0.06195
1199.40 0.06193
1199.50 0.06191
1199.60 0.06189
1199.70 0.06187
1199.80 0.06185
1199.90 0.06183
1200.00 0
