# Version 2.1 - nm, norm@500 to 1, cut digits, bergeron_80000_75.dat_80000
# Wavelength(nm)  Flambda(ergs/cm^s/s/nm)
300.00 6.662
300.10 6.654
300.20 6.645
300.30 6.637
300.40 6.629
300.50 6.621
300.60 6.612
300.70 6.604
300.80 6.596
300.90 6.588
301.00 6.58
301.10 6.572
301.20 6.563
301.30 6.555
301.40 6.547
301.50 6.539
301.60 6.531
301.70 6.523
301.80 6.515
301.90 6.507
302.00 6.499
302.10 6.491
302.20 6.483
302.30 6.475
302.40 6.467
302.50 6.459
302.60 6.451
302.70 6.443
302.80 6.435
302.90 6.427
303.00 6.419
303.10 6.411
303.20 6.404
303.30 6.396
303.40 6.388
303.50 6.38
303.60 6.372
303.70 6.364
303.80 6.356
303.90 6.349
304.00 6.341
304.10 6.333
304.20 6.325
304.30 6.318
304.40 6.31
304.50 6.302
304.60 6.294
304.70 6.287
304.80 6.279
304.90 6.271
305.00 6.264
305.10 6.256
305.20 6.248
305.30 6.241
305.40 6.233
305.50 6.226
305.60 6.218
305.70 6.21
305.80 6.203
305.90 6.195
306.00 6.188
306.10 6.18
306.20 6.173
306.30 6.165
306.40 6.158
306.50 6.15
306.60 6.143
306.70 6.135
306.80 6.128
306.90 6.12
307.00 6.113
307.10 6.106
307.20 6.098
307.30 6.091
307.40 6.083
307.50 6.076
307.60 6.069
307.70 6.061
307.80 6.054
307.90 6.047
308.00 6.039
308.10 6.032
308.20 6.025
308.30 6.017
308.40 6.01
308.50 6.003
308.60 5.996
308.70 5.988
308.80 5.981
308.90 5.974
309.00 5.967
309.10 5.959
309.20 5.952
309.30 5.945
309.40 5.938
309.50 5.931
309.60 5.924
309.70 5.916
309.80 5.909
309.90 5.902
310.00 5.895
310.10 5.888
310.20 5.881
310.30 5.874
310.40 5.867
310.50 5.86
310.60 5.853
310.70 5.846
310.80 5.839
310.90 5.832
311.00 5.825
311.10 5.818
311.20 5.811
311.30 5.804
311.40 5.797
311.50 5.79
311.60 5.783
311.70 5.776
311.80 5.769
311.90 5.762
312.00 5.755
312.10 5.748
312.20 5.742
312.30 5.735
312.40 5.728
312.50 5.721
312.60 5.714
312.70 5.707
312.80 5.701
312.90 5.694
313.00 5.687
313.10 5.68
313.20 5.673
313.30 5.667
313.40 5.66
313.50 5.653
313.60 5.646
313.70 5.64
313.80 5.633
313.90 5.626
314.00 5.62
314.10 5.613
314.20 5.606
314.30 5.6
314.40 5.593
314.50 5.586
314.60 5.58
314.70 5.573
314.80 5.566
314.90 5.56
315.00 5.553
315.10 5.547
315.20 5.54
315.30 5.534
315.40 5.527
315.50 5.52
315.60 5.514
315.70 5.507
315.80 5.501
315.90 5.494
316.00 5.488
316.10 5.481
316.20 5.475
316.30 5.468
316.40 5.462
316.50 5.456
316.60 5.449
316.70 5.443
316.80 5.436
316.90 5.43
317.00 5.423
317.10 5.417
317.20 5.411
317.30 5.404
317.40 5.398
317.50 5.392
317.60 5.385
317.70 5.379
317.80 5.373
317.90 5.366
318.00 5.36
318.10 5.354
318.20 5.347
318.30 5.341
318.40 5.335
318.50 5.329
318.60 5.322
318.70 5.316
318.80 5.31
318.90 5.304
319.00 5.298
319.10 5.291
319.20 5.285
319.30 5.279
319.40 5.273
319.50 5.267
319.60 5.26
319.70 5.254
319.80 5.248
319.90 5.242
320.00 5.236
320.10 5.23
320.20 5.224
320.30 5.218
320.40 5.212
320.50 5.205
320.60 5.199
320.70 5.193
320.80 5.187
320.90 5.181
321.00 5.175
321.10 5.169
321.20 5.163
321.30 5.157
321.40 5.151
321.50 5.145
321.60 5.139
321.70 5.133
321.80 5.127
321.90 5.121
322.00 5.115
322.10 5.109
322.20 5.103
322.30 5.098
322.40 5.092
322.50 5.086
322.60 5.08
322.70 5.074
322.80 5.068
322.90 5.062
323.00 5.056
323.10 5.051
323.20 5.045
323.30 5.039
323.40 5.033
323.50 5.027
323.60 5.021
323.70 5.016
323.80 5.01
323.90 5.004
324.00 4.998
324.10 4.993
324.20 4.987
324.30 4.981
324.40 4.975
324.50 4.97
324.60 4.964
324.70 4.958
324.80 4.952
324.90 4.947
325.00 4.941
325.10 4.935
325.20 4.93
325.30 4.924
325.40 4.918
325.50 4.913
325.60 4.907
325.70 4.901
325.80 4.896
325.90 4.89
326.00 4.885
326.10 4.879
326.20 4.873
326.30 4.868
326.40 4.862
326.50 4.857
326.60 4.851
326.70 4.845
326.80 4.84
326.90 4.834
327.00 4.829
327.10 4.823
327.20 4.818
327.30 4.812
327.40 4.807
327.50 4.801
327.60 4.796
327.70 4.79
327.80 4.785
327.90 4.779
328.00 4.774
328.10 4.769
328.20 4.763
328.30 4.758
328.40 4.752
328.50 4.747
328.60 4.741
328.70 4.736
328.80 4.731
328.90 4.725
329.00 4.72
329.10 4.715
329.20 4.709
329.30 4.704
329.40 4.698
329.50 4.693
329.60 4.688
329.70 4.683
329.80 4.677
329.90 4.672
330.00 4.667
330.10 4.661
330.20 4.656
330.30 4.651
330.40 4.646
330.50 4.64
330.60 4.635
330.70 4.63
330.80 4.625
330.90 4.619
331.00 4.614
331.10 4.609
331.20 4.604
331.30 4.598
331.40 4.593
331.50 4.588
331.60 4.583
331.70 4.578
331.80 4.573
331.90 4.567
332.00 4.562
332.10 4.557
332.20 4.552
332.30 4.547
332.40 4.542
332.50 4.537
332.60 4.532
332.70 4.526
332.80 4.521
332.90 4.516
333.00 4.511
333.10 4.506
333.20 4.501
333.30 4.496
333.40 4.491
333.50 4.486
333.60 4.481
333.70 4.476
333.80 4.471
333.90 4.466
334.00 4.461
334.10 4.456
334.20 4.451
334.30 4.446
334.40 4.441
334.50 4.436
334.60 4.431
334.70 4.426
334.80 4.421
334.90 4.416
335.00 4.411
335.10 4.406
335.20 4.401
335.30 4.396
335.40 4.391
335.50 4.387
335.60 4.382
335.70 4.377
335.80 4.372
335.90 4.367
336.00 4.362
336.10 4.357
336.20 4.352
336.30 4.348
336.40 4.343
336.50 4.338
336.60 4.333
336.70 4.328
336.80 4.323
336.90 4.319
337.00 4.314
337.10 4.309
337.20 4.304
337.30 4.299
337.40 4.295
337.50 4.29
337.60 4.285
337.70 4.28
337.80 4.276
337.90 4.271
338.00 4.266
338.10 4.261
338.20 4.257
338.30 4.252
338.40 4.247
338.50 4.243
338.60 4.238
338.70 4.233
338.80 4.229
338.90 4.224
339.00 4.219
339.10 4.215
339.20 4.21
339.30 4.205
339.40 4.201
339.50 4.196
339.60 4.191
339.70 4.187
339.80 4.182
339.90 4.177
340.00 4.173
340.10 4.168
340.20 4.164
340.30 4.159
340.40 4.155
340.50 4.15
340.60 4.145
340.70 4.141
340.80 4.136
340.90 4.132
341.00 4.127
341.10 4.123
341.20 4.118
341.30 4.114
341.40 4.109
341.50 4.105
341.60 4.1
341.70 4.096
341.80 4.091
341.90 4.087
342.00 4.082
342.10 4.078
342.20 4.073
342.30 4.069
342.40 4.064
342.50 4.06
342.60 4.055
342.70 4.051
342.80 4.046
342.90 4.042
343.00 4.038
343.10 4.033
343.20 4.029
343.30 4.024
343.40 4.02
343.50 4.016
343.60 4.011
343.70 4.007
343.80 4.002
343.90 3.998
344.00 3.994
344.10 3.989
344.20 3.985
344.30 3.981
344.40 3.976
344.50 3.972
344.60 3.968
344.70 3.963
344.80 3.959
344.90 3.955
345.00 3.951
345.10 3.946
345.20 3.942
345.30 3.938
345.40 3.933
345.50 3.929
345.60 3.925
345.70 3.921
345.80 3.916
345.90 3.912
346.00 3.908
346.10 3.904
346.20 3.899
346.30 3.895
346.40 3.891
346.50 3.887
346.60 3.883
346.70 3.878
346.80 3.874
346.90 3.87
347.00 3.866
347.10 3.862
347.20 3.857
347.30 3.853
347.40 3.849
347.50 3.845
347.60 3.841
347.70 3.837
347.80 3.832
347.90 3.828
348.00 3.824
348.10 3.82
348.20 3.816
348.30 3.812
348.40 3.808
348.50 3.804
348.60 3.8
348.70 3.796
348.80 3.791
348.90 3.787
349.00 3.783
349.10 3.779
349.20 3.775
349.30 3.771
349.40 3.767
349.50 3.763
349.60 3.759
349.70 3.755
349.80 3.751
349.90 3.747
350.00 3.743
350.10 3.739
350.20 3.735
350.30 3.731
350.40 3.727
350.50 3.723
350.60 3.719
350.70 3.715
350.80 3.711
350.90 3.707
351.00 3.703
351.10 3.699
351.20 3.695
351.30 3.691
351.40 3.687
351.50 3.683
351.60 3.679
351.70 3.675
351.80 3.671
351.90 3.668
352.00 3.664
352.10 3.66
352.20 3.656
352.30 3.652
352.40 3.648
352.50 3.644
352.60 3.64
352.70 3.636
352.80 3.633
352.90 3.629
353.00 3.625
353.10 3.621
353.20 3.617
353.30 3.613
353.40 3.609
353.50 3.606
353.60 3.602
353.70 3.598
353.80 3.594
353.90 3.59
354.00 3.586
354.10 3.583
354.20 3.579
354.30 3.575
354.40 3.571
354.50 3.568
354.60 3.564
354.70 3.56
354.80 3.556
354.90 3.552
355.00 3.549
355.10 3.545
355.20 3.541
355.30 3.537
355.40 3.534
355.50 3.53
355.60 3.526
355.70 3.523
355.80 3.519
355.90 3.515
356.00 3.511
356.10 3.508
356.20 3.504
356.30 3.5
356.40 3.497
356.50 3.493
356.60 3.489
356.70 3.486
356.80 3.482
356.90 3.478
357.00 3.475
357.10 3.471
357.20 3.467
357.30 3.464
357.40 3.46
357.50 3.456
357.60 3.453
357.70 3.449
357.80 3.445
357.90 3.442
358.00 3.438
358.10 3.435
358.20 3.431
358.30 3.427
358.40 3.424
358.50 3.42
358.60 3.417
358.70 3.413
358.80 3.41
358.90 3.406
359.00 3.402
359.10 3.399
359.20 3.395
359.30 3.392
359.40 3.388
359.50 3.385
359.60 3.381
359.70 3.378
359.80 3.374
359.90 3.37
360.00 3.367
360.10 3.363
360.20 3.36
360.30 3.356
360.40 3.353
360.50 3.349
360.60 3.346
360.70 3.342
360.80 3.339
360.90 3.336
361.00 3.332
361.10 3.329
361.20 3.325
361.30 3.322
361.40 3.318
361.50 3.315
361.60 3.311
361.70 3.308
361.80 3.304
361.90 3.301
362.00 3.298
362.10 3.294
362.20 3.291
362.30 3.287
362.40 3.284
362.50 3.28
362.60 3.277
362.70 3.274
362.80 3.27
362.90 3.267
363.00 3.264
363.10 3.26
363.20 3.257
363.30 3.253
363.40 3.25
363.50 3.247
363.60 3.243
363.70 3.24
363.80 3.237
363.90 3.233
364.00 3.23
364.10 3.227
364.20 3.223
364.30 3.22
364.40 3.217
364.50 3.213
364.60 3.21
364.70 3.207
364.80 3.203
364.90 3.2
365.00 3.197
365.10 3.193
365.20 3.19
365.30 3.187
365.40 3.184
365.50 3.18
365.60 3.177
365.70 3.174
365.80 3.171
365.90 3.167
366.00 3.164
366.10 3.161
366.20 3.157
366.30 3.154
366.40 3.151
366.50 3.148
366.60 3.144
366.70 3.141
366.80 3.138
366.90 3.134
367.00 3.131
367.10 3.128
367.20 3.125
367.30 3.121
367.40 3.118
367.50 3.115
367.60 3.112
367.70 3.108
367.80 3.105
367.90 3.102
368.00 3.099
368.10 3.095
368.20 3.092
368.30 3.089
368.40 3.086
368.50 3.082
368.60 3.079
368.70 3.076
368.80 3.073
368.90 3.07
369.00 3.066
369.10 3.063
369.20 3.06
369.30 3.057
369.40 3.054
369.50 3.05
369.60 3.047
369.70 3.044
369.80 3.041
369.90 3.038
370.00 3.035
370.10 3.031
370.20 3.028
370.30 3.025
370.40 3.022
370.50 3.019
370.60 3.016
370.70 3.013
370.80 3.01
370.90 3.006
371.00 3.003
371.10 3
371.20 2.997
371.30 2.994
371.40 2.991
371.50 2.988
371.60 2.985
371.70 2.982
371.80 2.979
371.90 2.975
372.00 2.972
372.10 2.969
372.20 2.966
372.30 2.963
372.40 2.96
372.50 2.957
372.60 2.954
372.70 2.951
372.80 2.948
372.90 2.945
373.00 2.942
373.10 2.939
373.20 2.936
373.30 2.933
373.40 2.93
373.50 2.927
373.60 2.924
373.70 2.921
373.80 2.918
373.90 2.915
374.00 2.912
374.10 2.909
374.20 2.906
374.30 2.903
374.40 2.901
374.50 2.898
374.60 2.895
374.70 2.892
374.80 2.889
374.90 2.886
375.00 2.883
375.10 2.88
375.20 2.877
375.30 2.874
375.40 2.871
375.50 2.869
375.60 2.866
375.70 2.863
375.80 2.86
375.90 2.857
376.00 2.854
376.10 2.851
376.20 2.848
376.30 2.846
376.40 2.843
376.50 2.84
376.60 2.837
376.70 2.834
376.80 2.832
376.90 2.829
377.00 2.826
377.10 2.823
377.20 2.821
377.30 2.818
377.40 2.815
377.50 2.812
377.60 2.81
377.70 2.807
377.80 2.804
377.90 2.802
378.00 2.799
378.10 2.796
378.20 2.793
378.30 2.791
378.40 2.788
378.50 2.785
378.60 2.783
378.70 2.78
378.80 2.777
378.90 2.774
379.00 2.772
379.10 2.769
379.20 2.766
379.30 2.764
379.40 2.761
379.50 2.758
379.60 2.756
379.70 2.753
379.80 2.751
379.90 2.748
380.00 2.745
380.10 2.743
380.20 2.74
380.30 2.738
380.40 2.736
380.50 2.733
380.60 2.731
380.70 2.728
380.80 2.726
380.90 2.723
381.00 2.721
381.10 2.718
381.20 2.716
381.30 2.713
381.40 2.711
381.50 2.708
381.60 2.705
381.70 2.703
381.80 2.7
381.90 2.697
382.00 2.695
382.10 2.692
382.20 2.689
382.30 2.686
382.40 2.683
382.50 2.68
382.60 2.677
382.70 2.674
382.80 2.672
382.90 2.669
383.00 2.666
383.10 2.663
383.20 2.66
383.30 2.657
383.40 2.655
383.50 2.652
383.60 2.65
383.70 2.648
383.80 2.646
383.90 2.644
384.00 2.642
384.10 2.64
384.20 2.638
384.30 2.637
384.40 2.635
384.50 2.633
384.60 2.631
384.70 2.629
384.80 2.627
384.90 2.625
385.00 2.623
385.10 2.621
385.20 2.619
385.30 2.617
385.40 2.615
385.50 2.612
385.60 2.61
385.70 2.608
385.80 2.605
385.90 2.603
386.00 2.6
386.10 2.597
386.20 2.595
386.30 2.592
386.40 2.589
386.50 2.586
386.60 2.583
386.70 2.58
386.80 2.576
386.90 2.573
387.00 2.57
387.10 2.566
387.20 2.563
387.30 2.559
387.40 2.556
387.50 2.552
387.60 2.548
387.70 2.544
387.80 2.54
387.90 2.537
388.00 2.533
388.10 2.529
388.20 2.525
388.30 2.521
388.40 2.517
388.50 2.513
388.60 2.51
388.70 2.507
388.80 2.504
388.90 2.502
389.00 2.5
389.10 2.498
389.20 2.497
389.30 2.496
389.40 2.495
389.50 2.495
389.60 2.495
389.70 2.494
389.80 2.494
389.90 2.493
390.00 2.493
390.10 2.493
390.20 2.492
390.30 2.492
390.40 2.491
390.50 2.49
390.60 2.49
390.70 2.489
390.80 2.488
390.90 2.487
391.00 2.486
391.10 2.485
391.20 2.484
391.30 2.483
391.40 2.481
391.50 2.48
391.60 2.478
391.70 2.477
391.80 2.475
391.90 2.473
392.00 2.471
392.10 2.47
392.20 2.468
392.30 2.466
392.40 2.463
392.50 2.461
392.60 2.459
392.70 2.456
392.80 2.454
392.90 2.451
393.00 2.449
393.10 2.446
393.20 2.443
393.30 2.44
393.40 2.437
393.50 2.434
393.60 2.431
393.70 2.428
393.80 2.424
393.90 2.421
394.00 2.417
394.10 2.413
394.20 2.409
394.30 2.405
394.40 2.401
394.50 2.397
394.60 2.393
394.70 2.388
394.80 2.384
394.90 2.379
395.00 2.374
395.10 2.369
395.20 2.364
395.30 2.359
395.40 2.353
395.50 2.348
395.60 2.342
395.70 2.336
395.80 2.33
395.90 2.324
396.00 2.318
396.10 2.312
396.20 2.306
396.30 2.299
396.40 2.293
396.50 2.287
396.60 2.28
396.70 2.274
396.80 2.268
396.90 2.262
397.00 2.257
397.10 2.258
397.20 2.259
397.30 2.261
397.40 2.264
397.50 2.266
397.60 2.268
397.70 2.27
397.80 2.273
397.90 2.275
398.00 2.277
398.10 2.279
398.20 2.281
398.30 2.283
398.40 2.284
398.50 2.286
398.60 2.287
398.70 2.289
398.80 2.29
398.90 2.291
399.00 2.292
399.10 2.293
399.20 2.293
399.30 2.294
399.40 2.294
399.50 2.295
399.60 2.295
399.70 2.295
399.80 2.295
399.90 2.295
400.00 2.294
400.10 2.294
400.20 2.294
400.30 2.293
400.40 2.293
400.50 2.292
400.60 2.291
400.70 2.29
400.80 2.289
400.90 2.289
401.00 2.288
401.10 2.286
401.20 2.285
401.30 2.284
401.40 2.283
401.50 2.281
401.60 2.28
401.70 2.279
401.80 2.277
401.90 2.276
402.00 2.274
402.10 2.273
402.20 2.271
402.30 2.269
402.40 2.268
402.50 2.266
402.60 2.264
402.70 2.262
402.80 2.26
402.90 2.258
403.00 2.256
403.10 2.254
403.20 2.252
403.30 2.25
403.40 2.248
403.50 2.246
403.60 2.244
403.70 2.242
403.80 2.24
403.90 2.237
404.00 2.235
404.10 2.233
404.20 2.23
404.30 2.228
404.40 2.226
404.50 2.223
404.60 2.221
404.70 2.218
404.80 2.215
404.90 2.213
405.00 2.21
405.10 2.207
405.20 2.205
405.30 2.202
405.40 2.199
405.50 2.196
405.60 2.193
405.70 2.19
405.80 2.187
405.90 2.183
406.00 2.18
406.10 2.177
406.20 2.173
406.30 2.17
406.40 2.166
406.50 2.162
406.60 2.159
406.70 2.155
406.80 2.151
406.90 2.146
407.00 2.142
407.10 2.138
407.20 2.133
407.30 2.129
407.40 2.124
407.50 2.119
407.60 2.114
407.70 2.108
407.80 2.103
407.90 2.097
408.00 2.091
408.10 2.085
408.20 2.079
408.30 2.073
408.40 2.066
408.50 2.059
408.60 2.052
408.70 2.045
408.80 2.037
408.90 2.029
409.00 2.021
409.10 2.013
409.20 2.004
409.30 1.996
409.40 1.987
409.50 1.978
409.60 1.969
409.70 1.96
409.80 1.951
409.90 1.943
410.00 1.939
410.10 1.937
410.20 1.939
410.30 1.934
410.40 1.933
410.50 1.936
410.60 1.941
410.70 1.947
410.80 1.952
410.90 1.957
411.00 1.963
411.10 1.968
411.20 1.973
411.30 1.977
411.40 1.982
411.50 1.986
411.60 1.99
411.70 1.994
411.80 1.997
411.90 2
412.00 2.003
412.10 2.006
412.20 2.009
412.30 2.011
412.40 2.013
412.50 2.015
412.60 2.017
412.70 2.018
412.80 2.02
412.90 2.021
413.00 2.022
413.10 2.023
413.20 2.023
413.30 2.024
413.40 2.024
413.50 2.025
413.60 2.025
413.70 2.025
413.80 2.025
413.90 2.025
414.00 2.025
414.10 2.024
414.20 2.024
414.30 2.024
414.40 2.023
414.50 2.023
414.60 2.022
414.70 2.021
414.80 2.02
414.90 2.02
415.00 2.019
415.10 2.018
415.20 2.017
415.30 2.016
415.40 2.015
415.50 2.014
415.60 2.012
415.70 2.011
415.80 2.01
415.90 2.009
416.00 2.008
416.10 2.006
416.20 2.005
416.30 2.004
416.40 2.002
416.50 2.001
416.60 2
416.70 1.998
416.80 1.997
416.90 1.995
417.00 1.994
417.10 1.992
417.20 1.991
417.30 1.989
417.40 1.988
417.50 1.986
417.60 1.985
417.70 1.983
417.80 1.982
417.90 1.98
418.00 1.978
418.10 1.977
418.20 1.975
418.30 1.974
418.40 1.972
418.50 1.97
418.60 1.969
418.70 1.967
418.80 1.966
418.90 1.964
419.00 1.962
419.10 1.961
419.20 1.959
419.30 1.957
419.40 1.956
419.50 1.954
419.60 1.952
419.70 1.951
419.80 1.949
419.90 1.947
420.00 1.946
420.10 1.944
420.20 1.942
420.30 1.94
420.40 1.939
420.50 1.937
420.60 1.935
420.70 1.934
420.80 1.932
420.90 1.93
421.00 1.929
421.10 1.927
421.20 1.925
421.30 1.923
421.40 1.922
421.50 1.92
421.60 1.918
421.70 1.916
421.80 1.915
421.90 1.913
422.00 1.911
422.10 1.91
422.20 1.908
422.30 1.906
422.40 1.904
422.50 1.903
422.60 1.901
422.70 1.899
422.80 1.897
422.90 1.896
423.00 1.894
423.10 1.892
423.20 1.891
423.30 1.889
423.40 1.887
423.50 1.885
423.60 1.884
423.70 1.882
423.80 1.88
423.90 1.878
424.00 1.877
424.10 1.875
424.20 1.873
424.30 1.871
424.40 1.869
424.50 1.868
424.60 1.866
424.70 1.864
424.80 1.862
424.90 1.861
425.00 1.859
425.10 1.857
425.20 1.855
425.30 1.853
425.40 1.852
425.50 1.85
425.60 1.848
425.70 1.846
425.80 1.844
425.90 1.843
426.00 1.841
426.10 1.839
426.20 1.837
426.30 1.835
426.40 1.833
426.50 1.831
426.60 1.83
426.70 1.828
426.80 1.826
426.90 1.824
427.00 1.822
427.10 1.82
427.20 1.818
427.30 1.816
427.40 1.814
427.50 1.812
427.60 1.81
427.70 1.808
427.80 1.806
427.90 1.804
428.00 1.802
428.10 1.8
428.20 1.798
428.30 1.796
428.40 1.793
428.50 1.791
428.60 1.789
428.70 1.787
428.80 1.785
428.90 1.782
429.00 1.78
429.10 1.777
429.20 1.775
429.30 1.773
429.40 1.77
429.50 1.767
429.60 1.765
429.70 1.762
429.80 1.759
429.90 1.757
430.00 1.754
430.10 1.751
430.20 1.748
430.30 1.745
430.40 1.741
430.50 1.738
430.60 1.735
430.70 1.731
430.80 1.727
430.90 1.724
431.00 1.72
431.10 1.716
431.20 1.712
431.30 1.707
431.40 1.703
431.50 1.698
431.60 1.693
431.70 1.688
431.80 1.683
431.90 1.677
432.00 1.672
432.10 1.666
432.20 1.659
432.30 1.653
432.40 1.646
432.50 1.639
432.60 1.632
432.70 1.625
432.80 1.617
432.90 1.609
433.00 1.601
433.10 1.592
433.20 1.583
433.30 1.575
433.40 1.566
433.50 1.557
433.60 1.548
433.70 1.539
433.80 1.53
433.90 1.522
434.00 1.515
434.10 1.514
434.20 1.518
434.30 1.524
434.40 1.53
434.50 1.537
434.60 1.543
434.70 1.549
434.80 1.555
434.90 1.561
435.00 1.567
435.10 1.573
435.20 1.579
435.30 1.584
435.40 1.589
435.50 1.593
435.60 1.597
435.70 1.601
435.80 1.605
435.90 1.609
436.00 1.612
436.10 1.615
436.20 1.617
436.30 1.62
436.40 1.622
436.50 1.624
436.60 1.626
436.70 1.628
436.80 1.629
436.90 1.63
437.00 1.631
437.10 1.632
437.20 1.633
437.30 1.634
437.40 1.634
437.50 1.635
437.60 1.635
437.70 1.635
437.80 1.636
437.90 1.636
438.00 1.636
438.10 1.635
438.20 1.635
438.30 1.635
438.40 1.635
438.50 1.634
438.60 1.634
438.70 1.633
438.80 1.633
438.90 1.632
439.00 1.631
439.10 1.631
439.20 1.63
439.30 1.629
439.40 1.628
439.50 1.628
439.60 1.627
439.70 1.626
439.80 1.625
439.90 1.624
440.00 1.623
440.10 1.622
440.20 1.621
440.30 1.62
440.40 1.619
440.50 1.618
440.60 1.617
440.70 1.616
440.80 1.615
440.90 1.614
441.00 1.613
441.10 1.611
441.20 1.61
441.30 1.609
441.40 1.608
441.50 1.607
441.60 1.606
441.70 1.604
441.80 1.603
441.90 1.602
442.00 1.601
442.10 1.6
442.20 1.598
442.30 1.597
442.40 1.596
442.50 1.595
442.60 1.593
442.70 1.592
442.80 1.591
442.90 1.59
443.00 1.588
443.10 1.587
443.20 1.586
443.30 1.585
443.40 1.583
443.50 1.582
443.60 1.581
443.70 1.58
443.80 1.578
443.90 1.577
444.00 1.576
444.10 1.574
444.20 1.573
444.30 1.572
444.40 1.571
444.50 1.569
444.60 1.568
444.70 1.567
444.80 1.565
444.90 1.564
445.00 1.563
445.10 1.562
445.20 1.56
445.30 1.559
445.40 1.558
445.50 1.556
445.60 1.555
445.70 1.554
445.80 1.553
445.90 1.551
446.00 1.55
446.10 1.549
446.20 1.547
446.30 1.546
446.40 1.545
446.50 1.544
446.60 1.542
446.70 1.541
446.80 1.54
446.90 1.538
447.00 1.537
447.10 1.536
447.20 1.535
447.30 1.533
447.40 1.532
447.50 1.531
447.60 1.529
447.70 1.528
447.80 1.527
447.90 1.526
448.00 1.524
448.10 1.523
448.20 1.522
448.30 1.52
448.40 1.519
448.50 1.518
448.60 1.517
448.70 1.515
448.80 1.514
448.90 1.513
449.00 1.511
449.10 1.51
449.20 1.509
449.30 1.508
449.40 1.506
449.50 1.505
449.60 1.504
449.70 1.503
449.80 1.501
449.90 1.5
450.00 1.499
450.10 1.498
450.20 1.496
450.30 1.495
450.40 1.494
450.50 1.492
450.60 1.491
450.70 1.49
450.80 1.489
450.90 1.487
451.00 1.486
451.10 1.485
451.20 1.484
451.30 1.482
451.40 1.481
451.50 1.48
451.60 1.479
451.70 1.477
451.80 1.476
451.90 1.475
452.00 1.474
452.10 1.472
452.20 1.471
452.30 1.47
452.40 1.469
452.50 1.468
452.60 1.466
452.70 1.465
452.80 1.464
452.90 1.463
453.00 1.461
453.10 1.46
453.20 1.459
453.30 1.458
453.40 1.456
453.50 1.455
453.60 1.454
453.70 1.453
453.80 1.452
453.90 1.45
454.00 1.449
454.10 1.448
454.20 1.447
454.30 1.445
454.40 1.444
454.50 1.443
454.60 1.442
454.70 1.441
454.80 1.439
454.90 1.438
455.00 1.437
455.10 1.436
455.20 1.435
455.30 1.433
455.40 1.432
455.50 1.431
455.60 1.43
455.70 1.429
455.80 1.427
455.90 1.426
456.00 1.425
456.10 1.424
456.20 1.423
456.30 1.421
456.40 1.42
456.50 1.419
456.60 1.418
456.70 1.417
456.80 1.415
456.90 1.414
457.00 1.413
457.10 1.412
457.20 1.411
457.30 1.41
457.40 1.408
457.50 1.407
457.60 1.406
457.70 1.405
457.80 1.404
457.90 1.402
458.00 1.401
458.10 1.4
458.20 1.399
458.30 1.398
458.40 1.397
458.50 1.395
458.60 1.394
458.70 1.393
458.80 1.392
458.90 1.391
459.00 1.39
459.10 1.388
459.20 1.387
459.30 1.386
459.40 1.385
459.50 1.384
459.60 1.383
459.70 1.382
459.80 1.38
459.90 1.379
460.00 1.378
460.10 1.377
460.20 1.376
460.30 1.375
460.40 1.373
460.50 1.372
460.60 1.371
460.70 1.37
460.80 1.369
460.90 1.368
461.00 1.367
461.10 1.365
461.20 1.364
461.30 1.363
461.40 1.362
461.50 1.361
461.60 1.36
461.70 1.359
461.80 1.358
461.90 1.356
462.00 1.355
462.10 1.354
462.20 1.353
462.30 1.352
462.40 1.351
462.50 1.35
462.60 1.349
462.70 1.347
462.80 1.346
462.90 1.345
463.00 1.344
463.10 1.343
463.20 1.342
463.30 1.341
463.40 1.34
463.50 1.338
463.60 1.337
463.70 1.336
463.80 1.335
463.90 1.334
464.00 1.333
464.10 1.332
464.20 1.331
464.30 1.33
464.40 1.329
464.50 1.327
464.60 1.326
464.70 1.325
464.80 1.324
464.90 1.323
465.00 1.322
465.10 1.321
465.20 1.32
465.30 1.319
465.40 1.318
465.50 1.316
465.60 1.315
465.70 1.314
465.80 1.313
465.90 1.312
466.00 1.311
466.10 1.31
466.20 1.309
466.30 1.308
466.40 1.307
466.50 1.306
466.60 1.305
466.70 1.303
466.80 1.302
466.90 1.301
467.00 1.3
467.10 1.299
467.20 1.298
467.30 1.297
467.40 1.296
467.50 1.295
467.60 1.294
467.70 1.293
467.80 1.292
467.90 1.291
468.00 1.289
468.10 1.288
468.20 1.287
468.30 1.286
468.40 1.285
468.50 1.284
468.60 1.283
468.70 1.282
468.80 1.281
468.90 1.28
469.00 1.279
469.10 1.278
469.20 1.277
469.30 1.276
469.40 1.275
469.50 1.274
469.60 1.273
469.70 1.271
469.80 1.27
469.90 1.269
470.00 1.268
470.10 1.267
470.20 1.266
470.30 1.265
470.40 1.264
470.50 1.263
470.60 1.262
470.70 1.261
470.80 1.26
470.90 1.259
471.00 1.258
471.10 1.257
471.20 1.256
471.30 1.255
471.40 1.254
471.50 1.253
471.60 1.252
471.70 1.251
471.80 1.25
471.90 1.248
472.00 1.247
472.10 1.246
472.20 1.245
472.30 1.244
472.40 1.243
472.50 1.242
472.60 1.241
472.70 1.24
472.80 1.239
472.90 1.238
473.00 1.237
473.10 1.236
473.20 1.235
473.30 1.234
473.40 1.233
473.50 1.232
473.60 1.231
473.70 1.23
473.80 1.229
473.90 1.228
474.00 1.227
474.10 1.226
474.20 1.225
474.30 1.224
474.40 1.223
474.50 1.222
474.60 1.221
474.70 1.22
474.80 1.219
474.90 1.218
475.00 1.216
475.10 1.215
475.20 1.214
475.30 1.213
475.40 1.212
475.50 1.211
475.60 1.21
475.70 1.209
475.80 1.208
475.90 1.207
476.00 1.206
476.10 1.205
476.20 1.204
476.30 1.203
476.40 1.202
476.50 1.201
476.60 1.2
476.70 1.199
476.80 1.198
476.90 1.197
477.00 1.196
477.10 1.195
477.20 1.194
477.30 1.192
477.40 1.191
477.50 1.19
477.60 1.189
477.70 1.188
477.80 1.187
477.90 1.186
478.00 1.185
478.10 1.184
478.20 1.183
478.30 1.182
478.40 1.181
478.50 1.179
478.60 1.178
478.70 1.177
478.80 1.176
478.90 1.175
479.00 1.174
479.10 1.173
479.20 1.172
479.30 1.17
479.40 1.169
479.50 1.168
479.60 1.167
479.70 1.166
479.80 1.165
479.90 1.163
480.00 1.162
480.10 1.161
480.20 1.16
480.30 1.158
480.40 1.157
480.50 1.156
480.60 1.154
480.70 1.153
480.80 1.152
480.90 1.15
481.00 1.149
481.10 1.148
481.20 1.146
481.30 1.145
481.40 1.143
481.50 1.142
481.60 1.14
481.70 1.138
481.80 1.137
481.90 1.135
482.00 1.134
482.10 1.132
482.20 1.13
482.30 1.128
482.40 1.126
482.50 1.124
482.60 1.122
482.70 1.12
482.80 1.118
482.90 1.116
483.00 1.114
483.10 1.112
483.20 1.109
483.30 1.106
483.40 1.103
483.50 1.1
483.60 1.097
483.70 1.094
483.80 1.091
483.90 1.088
484.00 1.085
484.10 1.082
484.20 1.078
484.30 1.074
484.40 1.07
484.50 1.066
484.60 1.062
484.70 1.057
484.80 1.052
484.90 1.047
485.00 1.043
485.10 1.038
485.20 1.032
485.30 1.027
485.40 1.021
485.50 1.015
485.60 1.009
485.70 1.003
485.80 0.9962
485.90 0.9893
486.00 0.9832
486.10 0.9916
486.20 0.9847
486.30 0.9823
486.40 0.9876
486.50 0.993
486.60 0.9979
486.70 1.003
486.80 1.007
486.90 1.011
487.00 1.015
487.10 1.019
487.20 1.023
487.30 1.026
487.40 1.029
487.50 1.032
487.60 1.036
487.70 1.038
487.80 1.041
487.90 1.043
488.00 1.045
488.10 1.048
488.20 1.049
488.30 1.051
488.40 1.052
488.50 1.053
488.60 1.054
488.70 1.055
488.80 1.057
488.90 1.058
489.00 1.059
489.10 1.06
489.20 1.061
489.30 1.061
489.40 1.061
489.50 1.062
489.60 1.062
489.70 1.062
489.80 1.062
489.90 1.063
490.00 1.063
490.10 1.063
490.20 1.063
490.30 1.063
490.40 1.063
490.50 1.063
490.60 1.062
490.70 1.062
490.80 1.062
490.90 1.062
491.00 1.061
491.10 1.061
491.20 1.061
491.30 1.06
491.40 1.06
491.50 1.059
491.60 1.059
491.70 1.058
491.80 1.058
491.90 1.058
492.00 1.057
492.10 1.057
492.20 1.056
492.30 1.055
492.40 1.055
492.50 1.054
492.60 1.054
492.70 1.053
492.80 1.052
492.90 1.052
493.00 1.051
493.10 1.051
493.20 1.05
493.30 1.049
493.40 1.049
493.50 1.048
493.60 1.047
493.70 1.047
493.80 1.046
493.90 1.045
494.00 1.045
494.10 1.044
494.20 1.043
494.30 1.042
494.40 1.042
494.50 1.041
494.60 1.04
494.70 1.04
494.80 1.039
494.90 1.038
495.00 1.037
495.10 1.037
495.20 1.036
495.30 1.035
495.40 1.034
495.50 1.034
495.60 1.033
495.70 1.032
495.80 1.032
495.90 1.031
496.00 1.03
496.10 1.029
496.20 1.029
496.30 1.028
496.40 1.027
496.50 1.026
496.60 1.026
496.70 1.025
496.80 1.024
496.90 1.023
497.00 1.023
497.10 1.022
497.20 1.021
497.30 1.02
497.40 1.02
497.50 1.019
497.60 1.018
497.70 1.017
497.80 1.017
497.90 1.016
498.00 1.015
498.10 1.014
498.20 1.014
498.30 1.013
498.40 1.012
498.50 1.011
498.60 1.011
498.70 1.01
498.80 1.009
498.90 1.008
499.00 1.008
499.10 1.007
499.20 1.006
499.30 1.005
499.40 1.005
499.50 1.004
499.60 1.003
499.70 1.002
499.80 1.002
499.90 1.001
500.00 1
500.10 0.9992
500.20 0.9985
500.30 0.9977
500.40 0.997
500.50 0.9962
500.60 0.9955
500.70 0.9947
500.80 0.994
500.90 0.9932
501.00 0.9925
501.10 0.9917
501.20 0.991
501.30 0.9903
501.40 0.9895
501.50 0.9888
501.60 0.988
501.70 0.9873
501.80 0.9865
501.90 0.9858
502.00 0.985
502.10 0.9843
502.20 0.9836
502.30 0.9828
502.40 0.9821
502.50 0.9813
502.60 0.9806
502.70 0.9798
502.80 0.9791
502.90 0.9784
503.00 0.9776
503.10 0.9769
503.20 0.9761
503.30 0.9754
503.40 0.9747
503.50 0.9739
503.60 0.9732
503.70 0.9725
503.80 0.9717
503.90 0.971
504.00 0.9703
504.10 0.9695
504.20 0.9688
504.30 0.9681
504.40 0.9673
504.50 0.9666
504.60 0.9659
504.70 0.9651
504.80 0.9644
504.90 0.9637
505.00 0.963
505.10 0.9622
505.20 0.9615
505.30 0.9608
505.40 0.9601
505.50 0.9593
505.60 0.9586
505.70 0.9579
505.80 0.9572
505.90 0.9564
506.00 0.9557
506.10 0.955
506.20 0.9543
506.30 0.9535
506.40 0.9528
506.50 0.9521
506.60 0.9514
506.70 0.9507
506.80 0.95
506.90 0.9492
507.00 0.9485
507.10 0.9478
507.20 0.9471
507.30 0.9464
507.40 0.9457
507.50 0.945
507.60 0.9442
507.70 0.9435
507.80 0.9428
507.90 0.9421
508.00 0.9414
508.10 0.9407
508.20 0.94
508.30 0.9393
508.40 0.9386
508.50 0.9379
508.60 0.9372
508.70 0.9364
508.80 0.9357
508.90 0.935
509.00 0.9343
509.10 0.9336
509.20 0.9329
509.30 0.9322
509.40 0.9315
509.50 0.9308
509.60 0.9301
509.70 0.9294
509.80 0.9287
509.90 0.928
510.00 0.9273
510.10 0.9266
510.20 0.9259
510.30 0.9252
510.40 0.9245
510.50 0.9238
510.60 0.9232
510.70 0.9225
510.80 0.9218
510.90 0.9211
511.00 0.9204
511.10 0.9197
511.20 0.919
511.30 0.9183
511.40 0.9176
511.50 0.9169
511.60 0.9163
511.70 0.9156
511.80 0.9149
511.90 0.9142
512.00 0.9135
512.10 0.9128
512.20 0.9121
512.30 0.9115
512.40 0.9108
512.50 0.9101
512.60 0.9094
512.70 0.9087
512.80 0.9081
512.90 0.9074
513.00 0.9067
513.10 0.906
513.20 0.9053
513.30 0.9047
513.40 0.904
513.50 0.9033
513.60 0.9026
513.70 0.902
513.80 0.9013
513.90 0.9006
514.00 0.8999
514.10 0.8993
514.20 0.8986
514.30 0.8979
514.40 0.8973
514.50 0.8966
514.60 0.8959
514.70 0.8953
514.80 0.8946
514.90 0.8939
515.00 0.8933
515.10 0.8926
515.20 0.8919
515.30 0.8913
515.40 0.8906
515.50 0.8899
515.60 0.8893
515.70 0.8886
515.80 0.8879
515.90 0.8873
516.00 0.8866
516.10 0.886
516.20 0.8853
516.30 0.8846
516.40 0.884
516.50 0.8833
516.60 0.8827
516.70 0.882
516.80 0.8814
516.90 0.8807
517.00 0.88
517.10 0.8794
517.20 0.8787
517.30 0.8781
517.40 0.8774
517.50 0.8768
517.60 0.8761
517.70 0.8755
517.80 0.8748
517.90 0.8742
518.00 0.8735
518.10 0.8729
518.20 0.8722
518.30 0.8716
518.40 0.8709
518.50 0.8703
518.60 0.8697
518.70 0.869
518.80 0.8684
518.90 0.8677
519.00 0.8671
519.10 0.8664
519.20 0.8658
519.30 0.8652
519.40 0.8645
519.50 0.8639
519.60 0.8632
519.70 0.8626
519.80 0.862
519.90 0.8613
520.00 0.8607
520.10 0.8601
520.20 0.8594
520.30 0.8588
520.40 0.8582
520.50 0.8575
520.60 0.8569
520.70 0.8563
520.80 0.8556
520.90 0.855
521.00 0.8544
521.10 0.8537
521.20 0.8531
521.30 0.8525
521.40 0.8518
521.50 0.8512
521.60 0.8506
521.70 0.85
521.80 0.8493
521.90 0.8487
522.00 0.8481
522.10 0.8475
522.20 0.8468
522.30 0.8462
522.40 0.8456
522.50 0.845
522.60 0.8443
522.70 0.8437
522.80 0.8431
522.90 0.8425
523.00 0.8419
523.10 0.8412
523.20 0.8406
523.30 0.84
523.40 0.8394
523.50 0.8388
523.60 0.8382
523.70 0.8375
523.80 0.8369
523.90 0.8363
524.00 0.8357
524.10 0.8351
524.20 0.8345
524.30 0.8339
524.40 0.8332
524.50 0.8326
524.60 0.832
524.70 0.8314
524.80 0.8308
524.90 0.8302
525.00 0.8296
525.10 0.829
525.20 0.8284
525.30 0.8278
525.40 0.8272
525.50 0.8266
525.60 0.826
525.70 0.8253
525.80 0.8247
525.90 0.8241
526.00 0.8235
526.10 0.8229
526.20 0.8223
526.30 0.8217
526.40 0.8211
526.50 0.8205
526.60 0.8199
526.70 0.8193
526.80 0.8187
526.90 0.8181
527.00 0.8175
527.10 0.8169
527.20 0.8163
527.30 0.8158
527.40 0.8152
527.50 0.8146
527.60 0.814
527.70 0.8134
527.80 0.8128
527.90 0.8122
528.00 0.8116
528.10 0.811
528.20 0.8104
528.30 0.8098
528.40 0.8092
528.50 0.8087
528.60 0.8081
528.70 0.8075
528.80 0.8069
528.90 0.8063
529.00 0.8057
529.10 0.8051
529.20 0.8045
529.30 0.804
529.40 0.8034
529.50 0.8028
529.60 0.8022
529.70 0.8016
529.80 0.801
529.90 0.8005
530.00 0.7999
530.10 0.7993
530.20 0.7987
530.30 0.7981
530.40 0.7976
530.50 0.797
530.60 0.7964
530.70 0.7958
530.80 0.7952
530.90 0.7947
531.00 0.7941
531.10 0.7935
531.20 0.7929
531.30 0.7924
531.40 0.7918
531.50 0.7912
531.60 0.7906
531.70 0.7901
531.80 0.7895
531.90 0.7889
532.00 0.7884
532.10 0.7878
532.20 0.7872
532.30 0.7867
532.40 0.7861
532.50 0.7855
532.60 0.785
532.70 0.7844
532.80 0.7838
532.90 0.7833
533.00 0.7827
533.10 0.7821
533.20 0.7816
533.30 0.781
533.40 0.7804
533.50 0.7799
533.60 0.7793
533.70 0.7787
533.80 0.7782
533.90 0.7776
534.00 0.7771
534.10 0.7765
534.20 0.7759
534.30 0.7754
534.40 0.7748
534.50 0.7743
534.60 0.7737
534.70 0.7732
534.80 0.7726
534.90 0.772
535.00 0.7715
535.10 0.7709
535.20 0.7704
535.30 0.7698
535.40 0.7693
535.50 0.7687
535.60 0.7682
535.70 0.7676
535.80 0.7671
535.90 0.7665
536.00 0.766
536.10 0.7654
536.20 0.7649
536.30 0.7643
536.40 0.7638
536.50 0.7632
536.60 0.7627
536.70 0.7621
536.80 0.7616
536.90 0.761
537.00 0.7605
537.10 0.7599
537.20 0.7594
537.30 0.7588
537.40 0.7583
537.50 0.7578
537.60 0.7572
537.70 0.7567
537.80 0.7561
537.90 0.7556
538.00 0.755
538.10 0.7545
538.20 0.754
538.30 0.7534
538.40 0.7529
538.50 0.7524
538.60 0.7518
538.70 0.7513
538.80 0.7507
538.90 0.7502
539.00 0.7497
539.10 0.7491
539.20 0.7486
539.30 0.7481
539.40 0.7475
539.50 0.747
539.60 0.7465
539.70 0.7459
539.80 0.7454
539.90 0.7449
540.00 0.7443
540.10 0.7438
540.20 0.7433
540.30 0.7427
540.40 0.7422
540.50 0.7417
540.60 0.7412
540.70 0.7406
540.80 0.7401
540.90 0.7396
541.00 0.7391
541.10 0.7385
541.20 0.738
541.30 0.7375
541.40 0.737
541.50 0.7364
541.60 0.7359
541.70 0.7354
541.80 0.7349
541.90 0.7343
542.00 0.7338
542.10 0.7333
542.20 0.7328
542.30 0.7322
542.40 0.7317
542.50 0.7312
542.60 0.7307
542.70 0.7302
542.80 0.7297
542.90 0.7291
543.00 0.7286
543.10 0.7281
543.20 0.7276
543.30 0.7271
543.40 0.7266
543.50 0.726
543.60 0.7255
543.70 0.725
543.80 0.7245
543.90 0.724
544.00 0.7235
544.10 0.723
544.20 0.7225
544.30 0.7219
544.40 0.7214
544.50 0.7209
544.60 0.7204
544.70 0.7199
544.80 0.7194
544.90 0.7189
545.00 0.7184
545.10 0.7179
545.20 0.7174
545.30 0.7169
545.40 0.7163
545.50 0.7158
545.60 0.7153
545.70 0.7148
545.80 0.7143
545.90 0.7138
546.00 0.7133
546.10 0.7128
546.20 0.7123
546.30 0.7118
546.40 0.7113
546.50 0.7108
546.60 0.7103
546.70 0.7098
546.80 0.7093
546.90 0.7088
547.00 0.7083
547.10 0.7078
547.20 0.7073
547.30 0.7068
547.40 0.7063
547.50 0.7058
547.60 0.7053
547.70 0.7048
547.80 0.7043
547.90 0.7038
548.00 0.7033
548.10 0.7028
548.20 0.7024
548.30 0.7019
548.40 0.7014
548.50 0.7009
548.60 0.7004
548.70 0.6999
548.80 0.6994
548.90 0.6989
549.00 0.6984
549.10 0.6979
549.20 0.6974
549.30 0.6969
549.40 0.6965
549.50 0.696
549.60 0.6955
549.70 0.695
549.80 0.6945
549.90 0.694
550.00 0.6935
550.10 0.6931
550.20 0.6926
550.30 0.6921
550.40 0.6916
550.50 0.6911
550.60 0.6906
550.70 0.6901
550.80 0.6897
550.90 0.6892
551.00 0.6887
551.10 0.6882
551.20 0.6877
551.30 0.6873
551.40 0.6868
551.50 0.6863
551.60 0.6858
551.70 0.6853
551.80 0.6849
551.90 0.6844
552.00 0.6839
552.10 0.6834
552.20 0.683
552.30 0.6825
552.40 0.682
552.50 0.6815
552.60 0.681
552.70 0.6806
552.80 0.6801
552.90 0.6796
553.00 0.6791
553.10 0.6787
553.20 0.6782
553.30 0.6777
553.40 0.6773
553.50 0.6768
553.60 0.6763
553.70 0.6758
553.80 0.6754
553.90 0.6749
554.00 0.6744
554.10 0.674
554.20 0.6735
554.30 0.673
554.40 0.6726
554.50 0.6721
554.60 0.6716
554.70 0.6712
554.80 0.6707
554.90 0.6702
555.00 0.6698
555.10 0.6693
555.20 0.6688
555.30 0.6684
555.40 0.6679
555.50 0.6674
555.60 0.667
555.70 0.6665
555.80 0.6661
555.90 0.6656
556.00 0.6651
556.10 0.6647
556.20 0.6642
556.30 0.6638
556.40 0.6633
556.50 0.6628
556.60 0.6624
556.70 0.6619
556.80 0.6615
556.90 0.661
557.00 0.6605
557.10 0.6601
557.20 0.6596
557.30 0.6592
557.40 0.6587
557.50 0.6583
557.60 0.6578
557.70 0.6574
557.80 0.6569
557.90 0.6564
558.00 0.656
558.10 0.6555
558.20 0.6551
558.30 0.6546
558.40 0.6542
558.50 0.6537
558.60 0.6533
558.70 0.6528
558.80 0.6524
558.90 0.6519
559.00 0.6515
559.10 0.651
559.20 0.6506
559.30 0.6501
559.40 0.6497
559.50 0.6492
559.60 0.6488
559.70 0.6483
559.80 0.6479
559.90 0.6475
560.00 0.647
560.10 0.6466
560.20 0.6461
560.30 0.6457
560.40 0.6452
560.50 0.6448
560.60 0.6443
560.70 0.6439
560.80 0.6435
560.90 0.643
561.00 0.6426
561.10 0.6421
561.20 0.6417
561.30 0.6412
561.40 0.6408
561.50 0.6404
561.60 0.6399
561.70 0.6395
561.80 0.6391
561.90 0.6386
562.00 0.6382
562.10 0.6377
562.20 0.6373
562.30 0.6369
562.40 0.6364
562.50 0.636
562.60 0.6356
562.70 0.6351
562.80 0.6347
562.90 0.6342
563.00 0.6338
563.10 0.6334
563.20 0.6329
563.30 0.6325
563.40 0.6321
563.50 0.6316
563.60 0.6312
563.70 0.6308
563.80 0.6304
563.90 0.6299
564.00 0.6295
564.10 0.6291
564.20 0.6286
564.30 0.6282
564.40 0.6278
564.50 0.6273
564.60 0.6269
564.70 0.6265
564.80 0.6261
564.90 0.6256
565.00 0.6252
565.10 0.6248
565.20 0.6244
565.30 0.6239
565.40 0.6235
565.50 0.6231
565.60 0.6227
565.70 0.6222
565.80 0.6218
565.90 0.6214
566.00 0.621
566.10 0.6205
566.20 0.6201
566.30 0.6197
566.40 0.6193
566.50 0.6188
566.60 0.6184
566.70 0.618
566.80 0.6176
566.90 0.6172
567.00 0.6167
567.10 0.6163
567.20 0.6159
567.30 0.6155
567.40 0.6151
567.50 0.6147
567.60 0.6142
567.70 0.6138
567.80 0.6134
567.90 0.613
568.00 0.6126
568.10 0.6122
568.20 0.6117
568.30 0.6113
568.40 0.6109
568.50 0.6105
568.60 0.6101
568.70 0.6097
568.80 0.6093
568.90 0.6088
569.00 0.6084
569.10 0.608
569.20 0.6076
569.30 0.6072
569.40 0.6068
569.50 0.6064
569.60 0.606
569.70 0.6055
569.80 0.6051
569.90 0.6047
570.00 0.6043
570.10 0.6039
570.20 0.6035
570.30 0.6031
570.40 0.6027
570.50 0.6023
570.60 0.6019
570.70 0.6015
570.80 0.6011
570.90 0.6007
571.00 0.6002
571.10 0.5998
571.20 0.5994
571.30 0.599
571.40 0.5986
571.50 0.5982
571.60 0.5978
571.70 0.5974
571.80 0.597
571.90 0.5966
572.00 0.5962
572.10 0.5958
572.20 0.5954
572.30 0.595
572.40 0.5946
572.50 0.5942
572.60 0.5938
572.70 0.5934
572.80 0.593
572.90 0.5926
573.00 0.5922
573.10 0.5918
573.20 0.5914
573.30 0.591
573.40 0.5906
573.50 0.5902
573.60 0.5898
573.70 0.5894
573.80 0.589
573.90 0.5886
574.00 0.5882
574.10 0.5878
574.20 0.5874
574.30 0.5871
574.40 0.5867
574.50 0.5863
574.60 0.5859
574.70 0.5855
574.80 0.5851
574.90 0.5847
575.00 0.5843
575.10 0.5839
575.20 0.5835
575.30 0.5831
575.40 0.5827
575.50 0.5823
575.60 0.582
575.70 0.5816
575.80 0.5812
575.90 0.5808
576.00 0.5804
576.10 0.58
576.20 0.5796
576.30 0.5792
576.40 0.5788
576.50 0.5785
576.60 0.5781
576.70 0.5777
576.80 0.5773
576.90 0.5769
577.00 0.5765
577.10 0.5761
577.20 0.5758
577.30 0.5754
577.40 0.575
577.50 0.5746
577.60 0.5742
577.70 0.5738
577.80 0.5735
577.90 0.5731
578.00 0.5727
578.10 0.5723
578.20 0.5719
578.30 0.5715
578.40 0.5712
578.50 0.5708
578.60 0.5704
578.70 0.57
578.80 0.5696
578.90 0.5693
579.00 0.5689
579.10 0.5685
579.20 0.5681
579.30 0.5677
579.40 0.5674
579.50 0.567
579.60 0.5666
579.70 0.5662
579.80 0.5659
579.90 0.5655
580.00 0.5651
580.10 0.5647
580.20 0.5644
580.30 0.564
580.40 0.5636
580.50 0.5632
580.60 0.5629
580.70 0.5625
580.80 0.5621
580.90 0.5617
581.00 0.5614
581.10 0.561
581.20 0.5606
581.30 0.5602
581.40 0.5599
581.50 0.5595
581.60 0.5591
581.70 0.5588
581.80 0.5584
581.90 0.558
582.00 0.5576
582.10 0.5573
582.20 0.5569
582.30 0.5565
582.40 0.5562
582.50 0.5558
582.60 0.5554
582.70 0.5551
582.80 0.5547
582.90 0.5543
583.00 0.554
583.10 0.5536
583.20 0.5532
583.30 0.5529
583.40 0.5525
583.50 0.5521
583.60 0.5518
583.70 0.5514
583.80 0.551
583.90 0.5507
584.00 0.5503
584.10 0.5499
584.20 0.5496
584.30 0.5492
584.40 0.5489
584.50 0.5485
584.60 0.5481
584.70 0.5478
584.80 0.5474
584.90 0.5471
585.00 0.5467
585.10 0.5463
585.20 0.546
585.30 0.5456
585.40 0.5453
585.50 0.5449
585.60 0.5445
585.70 0.5442
585.80 0.5438
585.90 0.5435
586.00 0.5431
586.10 0.5427
586.20 0.5424
586.30 0.542
586.40 0.5417
586.50 0.5413
586.60 0.541
586.70 0.5406
586.80 0.5402
586.90 0.5399
587.00 0.5395
587.10 0.5392
587.20 0.5388
587.30 0.5385
587.40 0.5381
587.50 0.5378
587.60 0.5374
587.70 0.5371
587.80 0.5367
587.90 0.5364
588.00 0.536
588.10 0.5357
588.20 0.5353
588.30 0.5349
588.40 0.5346
588.50 0.5342
588.60 0.5339
588.70 0.5335
588.80 0.5332
588.90 0.5328
589.00 0.5325
589.10 0.5322
589.20 0.5318
589.30 0.5315
589.40 0.5311
589.50 0.5308
589.60 0.5304
589.70 0.5301
589.80 0.5297
589.90 0.5294
590.00 0.529
590.10 0.5287
590.20 0.5283
590.30 0.528
590.40 0.5276
590.50 0.5273
590.60 0.527
590.70 0.5266
590.80 0.5263
590.90 0.5259
591.00 0.5256
591.10 0.5252
591.20 0.5249
591.30 0.5245
591.40 0.5242
591.50 0.5239
591.60 0.5235
591.70 0.5232
591.80 0.5228
591.90 0.5225
592.00 0.5222
592.10 0.5218
592.20 0.5215
592.30 0.5211
592.40 0.5208
592.50 0.5205
592.60 0.5201
592.70 0.5198
592.80 0.5194
592.90 0.5191
593.00 0.5188
593.10 0.5184
593.20 0.5181
593.30 0.5178
593.40 0.5174
593.50 0.5171
593.60 0.5167
593.70 0.5164
593.80 0.5161
593.90 0.5157
594.00 0.5154
594.10 0.5151
594.20 0.5147
594.30 0.5144
594.40 0.5141
594.50 0.5137
594.60 0.5134
594.70 0.5131
594.80 0.5127
594.90 0.5124
595.00 0.5121
595.10 0.5117
595.20 0.5114
595.30 0.5111
595.40 0.5107
595.50 0.5104
595.60 0.5101
595.70 0.5097
595.80 0.5094
595.90 0.5091
596.00 0.5088
596.10 0.5084
596.20 0.5081
596.30 0.5078
596.40 0.5074
596.50 0.5071
596.60 0.5068
596.70 0.5065
596.80 0.5061
596.90 0.5058
597.00 0.5055
597.10 0.5051
597.20 0.5048
597.30 0.5045
597.40 0.5042
597.50 0.5038
597.60 0.5035
597.70 0.5032
597.80 0.5029
597.90 0.5025
598.00 0.5022
598.10 0.5019
598.20 0.5016
598.30 0.5012
598.40 0.5009
598.50 0.5006
598.60 0.5003
598.70 0.5
598.80 0.4996
598.90 0.4993
599.00 0.499
599.10 0.4987
599.20 0.4983
599.30 0.498
599.40 0.4977
599.50 0.4974
599.60 0.4971
599.70 0.4967
599.80 0.4964
599.90 0.4961
600.00 0.4958
600.10 0.4955
600.20 0.4951
600.30 0.4948
600.40 0.4945
600.50 0.4942
600.60 0.4939
600.70 0.4936
600.80 0.4932
600.90 0.4929
601.00 0.4926
601.10 0.4923
601.20 0.492
601.30 0.4917
601.40 0.4913
601.50 0.491
601.60 0.4907
601.70 0.4904
601.80 0.4901
601.90 0.4898
602.00 0.4895
602.10 0.4891
602.20 0.4888
602.30 0.4885
602.40 0.4882
602.50 0.4879
602.60 0.4876
602.70 0.4873
602.80 0.4869
602.90 0.4866
603.00 0.4863
603.10 0.486
603.20 0.4857
603.30 0.4854
603.40 0.4851
603.50 0.4848
603.60 0.4845
603.70 0.4841
603.80 0.4838
603.90 0.4835
604.00 0.4832
604.10 0.4829
604.20 0.4826
604.30 0.4823
604.40 0.482
604.50 0.4817
604.60 0.4814
604.70 0.4811
604.80 0.4808
604.90 0.4804
605.00 0.4801
605.10 0.4798
605.20 0.4795
605.30 0.4792
605.40 0.4789
605.50 0.4786
605.60 0.4783
605.70 0.478
605.80 0.4777
605.90 0.4774
606.00 0.4771
606.10 0.4768
606.20 0.4765
606.30 0.4762
606.40 0.4759
606.50 0.4756
606.60 0.4753
606.70 0.475
606.80 0.4747
606.90 0.4744
607.00 0.4741
607.10 0.4738
607.20 0.4735
607.30 0.4732
607.40 0.4729
607.50 0.4726
607.60 0.4723
607.70 0.472
607.80 0.4717
607.90 0.4714
608.00 0.4711
608.10 0.4708
608.20 0.4705
608.30 0.4702
608.40 0.4699
608.50 0.4696
608.60 0.4693
608.70 0.469
608.80 0.4687
608.90 0.4684
609.00 0.4681
609.10 0.4678
609.20 0.4675
609.30 0.4672
609.40 0.4669
609.50 0.4666
609.60 0.4663
609.70 0.466
609.80 0.4657
609.90 0.4654
610.00 0.4651
610.10 0.4648
610.20 0.4645
610.30 0.4642
610.40 0.4639
610.50 0.4636
610.60 0.4633
610.70 0.4631
610.80 0.4628
610.90 0.4625
611.00 0.4622
611.10 0.4619
611.20 0.4616
611.30 0.4613
611.40 0.461
611.50 0.4607
611.60 0.4604
611.70 0.4601
611.80 0.4598
611.90 0.4596
612.00 0.4593
612.10 0.459
612.20 0.4587
612.30 0.4584
612.40 0.4581
612.50 0.4578
612.60 0.4575
612.70 0.4572
612.80 0.457
612.90 0.4567
613.00 0.4564
613.10 0.4561
613.20 0.4558
613.30 0.4555
613.40 0.4552
613.50 0.4549
613.60 0.4547
613.70 0.4544
613.80 0.4541
613.90 0.4538
614.00 0.4535
614.10 0.4532
614.20 0.4529
614.30 0.4527
614.40 0.4524
614.50 0.4521
614.60 0.4518
614.70 0.4515
614.80 0.4512
614.90 0.4509
615.00 0.4507
615.10 0.4504
615.20 0.4501
615.30 0.4498
615.40 0.4495
615.50 0.4493
615.60 0.449
615.70 0.4487
615.80 0.4484
615.90 0.4481
616.00 0.4478
616.10 0.4476
616.20 0.4473
616.30 0.447
616.40 0.4467
616.50 0.4464
616.60 0.4462
616.70 0.4459
616.80 0.4456
616.90 0.4453
617.00 0.445
617.10 0.4448
617.20 0.4445
617.30 0.4442
617.40 0.4439
617.50 0.4437
617.60 0.4434
617.70 0.4431
617.80 0.4428
617.90 0.4425
618.00 0.4423
618.10 0.442
618.20 0.4417
618.30 0.4414
618.40 0.4412
618.50 0.4409
618.60 0.4406
618.70 0.4403
618.80 0.4401
618.90 0.4398
619.00 0.4395
619.10 0.4392
619.20 0.439
619.30 0.4387
619.40 0.4384
619.50 0.4381
619.60 0.4379
619.70 0.4376
619.80 0.4373
619.90 0.437
620.00 0.4368
620.10 0.4365
620.20 0.4362
620.30 0.436
620.40 0.4357
620.50 0.4354
620.60 0.4351
620.70 0.4349
620.80 0.4346
620.90 0.4343
621.00 0.4341
621.10 0.4338
621.20 0.4335
621.30 0.4332
621.40 0.433
621.50 0.4327
621.60 0.4324
621.70 0.4322
621.80 0.4319
621.90 0.4316
622.00 0.4314
622.10 0.4311
622.20 0.4308
622.30 0.4306
622.40 0.4303
622.50 0.43
622.60 0.4298
622.70 0.4295
622.80 0.4292
622.90 0.429
623.00 0.4287
623.10 0.4284
623.20 0.4282
623.30 0.4279
623.40 0.4276
623.50 0.4274
623.60 0.4271
623.70 0.4268
623.80 0.4266
623.90 0.4263
624.00 0.426
624.10 0.4258
624.20 0.4255
624.30 0.4252
624.40 0.425
624.50 0.4247
624.60 0.4245
624.70 0.4242
624.80 0.4239
624.90 0.4237
625.00 0.4234
625.10 0.4231
625.20 0.4229
625.30 0.4226
625.40 0.4224
625.50 0.4221
625.60 0.4218
625.70 0.4216
625.80 0.4213
625.90 0.4211
626.00 0.4208
626.10 0.4205
626.20 0.4203
626.30 0.42
626.40 0.4198
626.50 0.4195
626.60 0.4192
626.70 0.419
626.80 0.4187
626.90 0.4185
627.00 0.4182
627.10 0.4179
627.20 0.4177
627.30 0.4174
627.40 0.4172
627.50 0.4169
627.60 0.4167
627.70 0.4164
627.80 0.4161
627.90 0.4159
628.00 0.4156
628.10 0.4154
628.20 0.4151
628.30 0.4149
628.40 0.4146
628.50 0.4143
628.60 0.4141
628.70 0.4138
628.80 0.4136
628.90 0.4133
629.00 0.4131
629.10 0.4128
629.20 0.4126
629.30 0.4123
629.40 0.4121
629.50 0.4118
629.60 0.4116
629.70 0.4113
629.80 0.411
629.90 0.4108
630.00 0.4105
630.10 0.4103
630.20 0.41
630.30 0.4098
630.40 0.4095
630.50 0.4093
630.60 0.409
630.70 0.4088
630.80 0.4085
630.90 0.4083
631.00 0.408
631.10 0.4078
631.20 0.4075
631.30 0.4073
631.40 0.407
631.50 0.4068
631.60 0.4065
631.70 0.4063
631.80 0.406
631.90 0.4058
632.00 0.4055
632.10 0.4053
632.20 0.405
632.30 0.4048
632.40 0.4045
632.50 0.4043
632.60 0.404
632.70 0.4038
632.80 0.4035
632.90 0.4033
633.00 0.403
633.10 0.4028
633.20 0.4025
633.30 0.4023
633.40 0.4021
633.50 0.4018
633.60 0.4016
633.70 0.4013
633.80 0.4011
633.90 0.4008
634.00 0.4006
634.10 0.4003
634.20 0.4001
634.30 0.3998
634.40 0.3996
634.50 0.3994
634.60 0.3991
634.70 0.3989
634.80 0.3986
634.90 0.3984
635.00 0.3981
635.10 0.3979
635.20 0.3976
635.30 0.3974
635.40 0.3972
635.50 0.3969
635.60 0.3967
635.70 0.3964
635.80 0.3962
635.90 0.3959
636.00 0.3957
636.10 0.3955
636.20 0.3952
636.30 0.395
636.40 0.3947
636.50 0.3945
636.60 0.3943
636.70 0.394
636.80 0.3938
636.90 0.3935
637.00 0.3933
637.10 0.393
637.20 0.3928
637.30 0.3926
637.40 0.3923
637.50 0.3921
637.60 0.3918
637.70 0.3916
637.80 0.3914
637.90 0.3911
638.00 0.3909
638.10 0.3907
638.20 0.3904
638.30 0.3902
638.40 0.3899
638.50 0.3897
638.60 0.3895
638.70 0.3892
638.80 0.389
638.90 0.3887
639.00 0.3885
639.10 0.3883
639.20 0.388
639.30 0.3878
639.40 0.3876
639.50 0.3873
639.60 0.3871
639.70 0.3868
639.80 0.3866
639.90 0.3864
640.00 0.3861
640.10 0.3859
640.20 0.3857
640.30 0.3854
640.40 0.3852
640.50 0.385
640.60 0.3847
640.70 0.3845
640.80 0.3842
640.90 0.384
641.00 0.3838
641.10 0.3835
641.20 0.3833
641.30 0.3831
641.40 0.3828
641.50 0.3826
641.60 0.3824
641.70 0.3821
641.80 0.3819
641.90 0.3817
642.00 0.3814
642.10 0.3812
642.20 0.381
642.30 0.3807
642.40 0.3805
642.50 0.3802
642.60 0.38
642.70 0.3798
642.80 0.3795
642.90 0.3793
643.00 0.3791
643.10 0.3788
643.20 0.3786
643.30 0.3784
643.40 0.3781
643.50 0.3779
643.60 0.3777
643.70 0.3774
643.80 0.3772
643.90 0.377
644.00 0.3767
644.10 0.3765
644.20 0.3763
644.30 0.376
644.40 0.3758
644.50 0.3756
644.60 0.3753
644.70 0.3751
644.80 0.3749
644.90 0.3746
645.00 0.3744
645.10 0.3742
645.20 0.3739
645.30 0.3737
645.40 0.3735
645.50 0.3732
645.60 0.373
645.70 0.3727
645.80 0.3725
645.90 0.3723
646.00 0.372
646.10 0.3718
646.20 0.3716
646.30 0.3713
646.40 0.3711
646.50 0.3709
646.60 0.3706
646.70 0.3704
646.80 0.3701
646.90 0.3699
647.00 0.3697
647.10 0.3694
647.20 0.3692
647.30 0.3689
647.40 0.3687
647.50 0.3684
647.60 0.3682
647.70 0.368
647.80 0.3677
647.90 0.3675
648.00 0.3672
648.10 0.367
648.20 0.3667
648.30 0.3665
648.40 0.3662
648.50 0.366
648.60 0.3657
648.70 0.3655
648.80 0.3652
648.90 0.365
649.00 0.3647
649.10 0.3645
649.20 0.3642
649.30 0.364
649.40 0.3637
649.50 0.3634
649.60 0.3631
649.70 0.3629
649.80 0.3626
649.90 0.3623
650.00 0.3621
650.10 0.3618
650.20 0.3615
650.30 0.3612
650.40 0.3609
650.50 0.3606
650.60 0.3603
650.70 0.36
650.80 0.3597
650.90 0.3594
651.00 0.3591
651.10 0.3588
651.20 0.3585
651.30 0.3582
651.40 0.3579
651.50 0.3575
651.60 0.3572
651.70 0.3568
651.80 0.3564
651.90 0.3561
652.00 0.3557
652.10 0.3554
652.20 0.355
652.30 0.3546
652.40 0.3542
652.50 0.3537
652.60 0.3532
652.70 0.3527
652.80 0.3523
652.90 0.3518
653.00 0.3513
653.10 0.3509
653.20 0.3504
653.30 0.3499
653.40 0.3492
653.50 0.3485
653.60 0.3478
653.70 0.3471
653.80 0.3464
653.90 0.3457
654.00 0.345
654.10 0.3444
654.20 0.3437
654.30 0.3429
654.40 0.342
654.50 0.341
654.60 0.34
654.70 0.3391
654.80 0.338
654.90 0.3368
655.00 0.3356
655.10 0.3344
655.20 0.3331
655.30 0.3319
655.40 0.3304
655.50 0.3289
655.60 0.3272
655.70 0.3255
655.80 0.3234
655.90 0.321
656.00 0.3177
656.10 0.3143
656.20 0.3176
656.30 0.331
656.40 0.3134
656.50 0.3148
656.60 0.3178
656.70 0.3205
656.80 0.3222
656.90 0.3239
657.00 0.3252
657.10 0.3264
657.20 0.3275
657.30 0.3285
657.40 0.3293
657.50 0.3302
657.60 0.331
657.70 0.3318
657.80 0.3326
657.90 0.3332
658.00 0.3337
658.10 0.3343
658.20 0.3348
658.30 0.3353
658.40 0.3356
658.50 0.3359
658.60 0.3362
658.70 0.3364
658.80 0.3367
658.90 0.337
659.00 0.3373
659.10 0.3375
659.20 0.3378
659.30 0.3381
659.40 0.3381
659.50 0.3382
659.60 0.3382
659.70 0.3383
659.80 0.3383
659.90 0.3384
660.00 0.3384
660.10 0.3385
660.20 0.3385
660.30 0.3385
660.40 0.3385
660.50 0.3384
660.60 0.3384
660.70 0.3383
660.80 0.3382
660.90 0.3382
661.00 0.3381
661.10 0.3381
661.20 0.338
661.30 0.3379
661.40 0.3378
661.50 0.3377
661.60 0.3376
661.70 0.3374
661.80 0.3373
661.90 0.3372
662.00 0.3371
662.10 0.337
662.20 0.3369
662.30 0.3367
662.40 0.3366
662.50 0.3364
662.60 0.3363
662.70 0.3361
662.80 0.336
662.90 0.3358
663.00 0.3357
663.10 0.3356
663.20 0.3354
663.30 0.3353
663.40 0.3351
663.50 0.3349
663.60 0.3348
663.70 0.3346
663.80 0.3344
663.90 0.3343
664.00 0.3341
664.10 0.3339
664.20 0.3338
664.30 0.3336
664.40 0.3334
664.50 0.3333
664.60 0.3331
664.70 0.3329
664.80 0.3328
664.90 0.3326
665.00 0.3324
665.10 0.3322
665.20 0.3321
665.30 0.3319
665.40 0.3317
665.50 0.3315
665.60 0.3314
665.70 0.3312
665.80 0.331
665.90 0.3308
666.00 0.3306
666.10 0.3305
666.20 0.3303
666.30 0.3301
666.40 0.3299
666.50 0.3297
666.60 0.3296
666.70 0.3294
666.80 0.3292
666.90 0.329
667.00 0.3288
667.10 0.3287
667.20 0.3285
667.30 0.3283
667.40 0.3281
667.50 0.3279
667.60 0.3278
667.70 0.3276
667.80 0.3274
667.90 0.3272
668.00 0.327
668.10 0.3268
668.20 0.3267
668.30 0.3265
668.40 0.3263
668.50 0.3261
668.60 0.3259
668.70 0.3258
668.80 0.3256
668.90 0.3254
669.00 0.3252
669.10 0.325
669.20 0.3248
669.30 0.3247
669.40 0.3245
669.50 0.3243
669.60 0.3241
669.70 0.3239
669.80 0.3237
669.90 0.3236
670.00 0.3234
670.10 0.3232
670.20 0.323
670.30 0.3228
670.40 0.3227
670.50 0.3225
670.60 0.3223
670.70 0.3221
670.80 0.3219
670.90 0.3217
671.00 0.3216
671.10 0.3214
671.20 0.3212
671.30 0.321
671.40 0.3208
671.50 0.3206
671.60 0.3205
671.70 0.3203
671.80 0.3201
671.90 0.3199
672.00 0.3197
672.10 0.3196
672.20 0.3194
672.30 0.3192
672.40 0.319
672.50 0.3188
672.60 0.3187
672.70 0.3185
672.80 0.3183
672.90 0.3181
673.00 0.3179
673.10 0.3177
673.20 0.3176
673.30 0.3174
673.40 0.3172
673.50 0.317
673.60 0.3168
673.70 0.3167
673.80 0.3165
673.90 0.3163
674.00 0.3161
674.10 0.3159
674.20 0.3158
674.30 0.3156
674.40 0.3154
674.50 0.3152
674.60 0.315
674.70 0.3149
674.80 0.3147
674.90 0.3145
675.00 0.3143
675.10 0.3142
675.20 0.314
675.30 0.3138
675.40 0.3136
675.50 0.3134
675.60 0.3133
675.70 0.3131
675.80 0.3129
675.90 0.3127
676.00 0.3125
676.10 0.3124
676.20 0.3122
676.30 0.312
676.40 0.3118
676.50 0.3117
676.60 0.3115
676.70 0.3113
676.80 0.3111
676.90 0.311
677.00 0.3108
677.10 0.3106
677.20 0.3104
677.30 0.3102
677.40 0.3101
677.50 0.3099
677.60 0.3097
677.70 0.3095
677.80 0.3094
677.90 0.3092
678.00 0.309
678.10 0.3088
678.20 0.3087
678.30 0.3085
678.40 0.3083
678.50 0.3081
678.60 0.308
678.70 0.3078
678.80 0.3076
678.90 0.3074
679.00 0.3073
679.10 0.3071
679.20 0.3069
679.30 0.3067
679.40 0.3066
679.50 0.3064
679.60 0.3062
679.70 0.306
679.80 0.3059
679.90 0.3057
680.00 0.3055
680.10 0.3054
680.20 0.3052
680.30 0.305
680.40 0.3048
680.50 0.3047
680.60 0.3045
680.70 0.3043
680.80 0.3041
680.90 0.304
681.00 0.3038
681.10 0.3036
681.20 0.3035
681.30 0.3033
681.40 0.3031
681.50 0.3029
681.60 0.3028
681.70 0.3026
681.80 0.3024
681.90 0.3023
682.00 0.3021
682.10 0.3019
682.20 0.3017
682.30 0.3016
682.40 0.3014
682.50 0.3012
682.60 0.3011
682.70 0.3009
682.80 0.3007
682.90 0.3005
683.00 0.3004
683.10 0.3002
683.20 0.3
683.30 0.2999
683.40 0.2997
683.50 0.2995
683.60 0.2994
683.70 0.2992
683.80 0.299
683.90 0.2989
684.00 0.2987
684.10 0.2985
684.20 0.2983
684.30 0.2982
684.40 0.298
684.50 0.2978
684.60 0.2977
684.70 0.2975
684.80 0.2973
684.90 0.2972
685.00 0.297
685.10 0.2968
685.20 0.2967
685.30 0.2965
685.40 0.2963
685.50 0.2962
685.60 0.296
685.70 0.2958
685.80 0.2957
685.90 0.2955
686.00 0.2953
686.10 0.2952
686.20 0.295
686.30 0.2948
686.40 0.2947
686.50 0.2945
686.60 0.2943
686.70 0.2942
686.80 0.294
686.90 0.2938
687.00 0.2937
687.10 0.2935
687.20 0.2933
687.30 0.2932
687.40 0.293
687.50 0.2928
687.60 0.2927
687.70 0.2925
687.80 0.2924
687.90 0.2922
688.00 0.292
688.10 0.2919
688.20 0.2917
688.30 0.2915
688.40 0.2914
688.50 0.2912
688.60 0.291
688.70 0.2909
688.80 0.2907
688.90 0.2906
689.00 0.2904
689.10 0.2902
689.20 0.2901
689.30 0.2899
689.40 0.2897
689.50 0.2896
689.60 0.2894
689.70 0.2893
689.80 0.2891
689.90 0.2889
690.00 0.2888
690.10 0.2886
690.20 0.2884
690.30 0.2883
690.40 0.2881
690.50 0.288
690.60 0.2878
690.70 0.2876
690.80 0.2875
690.90 0.2873
691.00 0.2872
691.10 0.287
691.20 0.2868
691.30 0.2867
691.40 0.2865
691.50 0.2864
691.60 0.2862
691.70 0.286
691.80 0.2859
691.90 0.2857
692.00 0.2856
692.10 0.2854
692.20 0.2852
692.30 0.2851
692.40 0.2849
692.50 0.2848
692.60 0.2846
692.70 0.2844
692.80 0.2843
692.90 0.2841
693.00 0.284
693.10 0.2838
693.20 0.2837
693.30 0.2835
693.40 0.2833
693.50 0.2832
693.60 0.283
693.70 0.2829
693.80 0.2827
693.90 0.2825
694.00 0.2824
694.10 0.2822
694.20 0.2821
694.30 0.2819
694.40 0.2818
694.50 0.2816
694.60 0.2814
694.70 0.2813
694.80 0.2811
694.90 0.281
695.00 0.2808
695.10 0.2807
695.20 0.2805
695.30 0.2803
695.40 0.2802
695.50 0.28
695.60 0.2799
695.70 0.2797
695.80 0.2796
695.90 0.2794
696.00 0.2793
696.10 0.2791
696.20 0.2789
696.30 0.2788
696.40 0.2786
696.50 0.2785
696.60 0.2783
696.70 0.2782
696.80 0.278
696.90 0.2779
697.00 0.2777
697.10 0.2776
697.20 0.2774
697.30 0.2772
697.40 0.2771
697.50 0.2769
697.60 0.2768
697.70 0.2766
697.80 0.2765
697.90 0.2763
698.00 0.2762
698.10 0.276
698.20 0.2759
698.30 0.2757
698.40 0.2756
698.50 0.2754
698.60 0.2753
698.70 0.2751
698.80 0.275
698.90 0.2748
699.00 0.2746
699.10 0.2745
699.20 0.2743
699.30 0.2742
699.40 0.274
699.50 0.2739
699.60 0.2737
699.70 0.2736
699.80 0.2734
699.90 0.2733
700.00 0.2731
700.10 0.273
700.20 0.2728
700.30 0.2727
700.40 0.2725
700.50 0.2724
700.60 0.2722
700.70 0.2721
700.80 0.2719
700.90 0.2718
701.00 0.2716
701.10 0.2715
701.20 0.2713
701.30 0.2712
701.40 0.271
701.50 0.2709
701.60 0.2707
701.70 0.2706
701.80 0.2704
701.90 0.2703
702.00 0.2701
702.10 0.27
702.20 0.2698
702.30 0.2697
702.40 0.2695
702.50 0.2694
702.60 0.2692
702.70 0.2691
702.80 0.2689
702.90 0.2688
703.00 0.2686
703.10 0.2685
703.20 0.2683
703.30 0.2682
703.40 0.2681
703.50 0.2679
703.60 0.2678
703.70 0.2676
703.80 0.2675
703.90 0.2673
704.00 0.2672
704.10 0.267
704.20 0.2669
704.30 0.2667
704.40 0.2666
704.50 0.2664
704.60 0.2663
704.70 0.2661
704.80 0.266
704.90 0.2658
705.00 0.2657
705.10 0.2656
705.20 0.2654
705.30 0.2653
705.40 0.2651
705.50 0.265
705.60 0.2648
705.70 0.2647
705.80 0.2645
705.90 0.2644
706.00 0.2642
706.10 0.2641
706.20 0.264
706.30 0.2638
706.40 0.2637
706.50 0.2635
706.60 0.2634
706.70 0.2632
706.80 0.2631
706.90 0.2629
707.00 0.2628
707.10 0.2627
707.20 0.2625
707.30 0.2624
707.40 0.2622
707.50 0.2621
707.60 0.2619
707.70 0.2618
707.80 0.2617
707.90 0.2615
708.00 0.2614
708.10 0.2612
708.20 0.2611
708.30 0.2609
708.40 0.2608
708.50 0.2607
708.60 0.2605
708.70 0.2604
708.80 0.2602
708.90 0.2601
709.00 0.2599
709.10 0.2598
709.20 0.2597
709.30 0.2595
709.40 0.2594
709.50 0.2592
709.60 0.2591
709.70 0.2589
709.80 0.2588
709.90 0.2587
710.00 0.2585
710.10 0.2584
710.20 0.2582
710.30 0.2581
710.40 0.258
710.50 0.2578
710.60 0.2577
710.70 0.2575
710.80 0.2574
710.90 0.2573
711.00 0.2571
711.10 0.257
711.20 0.2568
711.30 0.2567
711.40 0.2566
711.50 0.2564
711.60 0.2563
711.70 0.2561
711.80 0.256
711.90 0.2559
712.00 0.2557
712.10 0.2556
712.20 0.2555
712.30 0.2553
712.40 0.2552
712.50 0.255
712.60 0.2549
712.70 0.2548
712.80 0.2546
712.90 0.2545
713.00 0.2543
713.10 0.2542
713.20 0.2541
713.30 0.2539
713.40 0.2538
713.50 0.2537
713.60 0.2535
713.70 0.2534
713.80 0.2532
713.90 0.2531
714.00 0.253
714.10 0.2528
714.20 0.2527
714.30 0.2525
714.40 0.2524
714.50 0.2523
714.60 0.2521
714.70 0.252
714.80 0.2519
714.90 0.2517
715.00 0.2516
715.10 0.2515
715.20 0.2513
715.30 0.2512
715.40 0.251
715.50 0.2509
715.60 0.2508
715.70 0.2506
715.80 0.2505
715.90 0.2504
716.00 0.2502
716.10 0.2501
716.20 0.25
716.30 0.2498
716.40 0.2497
716.50 0.2496
716.60 0.2494
716.70 0.2493
716.80 0.2492
716.90 0.249
717.00 0.2489
717.10 0.2488
717.20 0.2486
717.30 0.2485
717.40 0.2483
717.50 0.2482
717.60 0.2481
717.70 0.2479
717.80 0.2478
717.90 0.2477
718.00 0.2475
718.10 0.2474
718.20 0.2473
718.30 0.2471
718.40 0.247
718.50 0.2469
718.60 0.2467
718.70 0.2466
718.80 0.2465
718.90 0.2463
719.00 0.2462
719.10 0.2461
719.20 0.2459
719.30 0.2458
719.40 0.2457
719.50 0.2455
719.60 0.2454
719.70 0.2453
719.80 0.2451
719.90 0.245
720.00 0.2449
720.10 0.2448
720.20 0.2446
720.30 0.2445
720.40 0.2444
720.50 0.2442
720.60 0.2441
720.70 0.244
720.80 0.2438
720.90 0.2437
721.00 0.2436
721.10 0.2434
721.20 0.2433
721.30 0.2432
721.40 0.2431
721.50 0.2429
721.60 0.2428
721.70 0.2427
721.80 0.2425
721.90 0.2424
722.00 0.2423
722.10 0.2421
722.20 0.242
722.30 0.2419
722.40 0.2418
722.50 0.2416
722.60 0.2415
722.70 0.2414
722.80 0.2412
722.90 0.2411
723.00 0.241
723.10 0.2408
723.20 0.2407
723.30 0.2406
723.40 0.2405
723.50 0.2403
723.60 0.2402
723.70 0.2401
723.80 0.2399
723.90 0.2398
724.00 0.2397
724.10 0.2396
724.20 0.2394
724.30 0.2393
724.40 0.2392
724.50 0.239
724.60 0.2389
724.70 0.2388
724.80 0.2387
724.90 0.2385
725.00 0.2384
725.10 0.2383
725.20 0.2381
725.30 0.238
725.40 0.2379
725.50 0.2378
725.60 0.2376
725.70 0.2375
725.80 0.2374
725.90 0.2373
726.00 0.2371
726.10 0.237
726.20 0.2369
726.30 0.2368
726.40 0.2366
726.50 0.2365
726.60 0.2364
726.70 0.2363
726.80 0.2361
726.90 0.236
727.00 0.2359
727.10 0.2358
727.20 0.2356
727.30 0.2355
727.40 0.2354
727.50 0.2353
727.60 0.2351
727.70 0.235
727.80 0.2349
727.90 0.2347
728.00 0.2346
728.10 0.2345
728.20 0.2344
728.30 0.2342
728.40 0.2341
728.50 0.234
728.60 0.2339
728.70 0.2338
728.80 0.2336
728.90 0.2335
729.00 0.2334
729.10 0.2333
729.20 0.2331
729.30 0.233
729.40 0.2329
729.50 0.2328
729.60 0.2326
729.70 0.2325
729.80 0.2324
729.90 0.2323
730.00 0.2321
730.10 0.232
730.20 0.2319
730.30 0.2318
730.40 0.2316
730.50 0.2315
730.60 0.2314
730.70 0.2313
730.80 0.2312
730.90 0.231
731.00 0.2309
731.10 0.2308
731.20 0.2307
731.30 0.2306
731.40 0.2304
731.50 0.2303
731.60 0.2302
731.70 0.2301
731.80 0.2299
731.90 0.2298
732.00 0.2297
732.10 0.2296
732.20 0.2295
732.30 0.2293
732.40 0.2292
732.50 0.2291
732.60 0.229
732.70 0.2289
732.80 0.2287
732.90 0.2286
733.00 0.2285
733.10 0.2284
733.20 0.2283
733.30 0.2281
733.40 0.228
733.50 0.2279
733.60 0.2278
733.70 0.2277
733.80 0.2275
733.90 0.2274
734.00 0.2273
734.10 0.2272
734.20 0.2271
734.30 0.2269
734.40 0.2268
734.50 0.2267
734.60 0.2266
734.70 0.2265
734.80 0.2263
734.90 0.2262
735.00 0.2261
735.10 0.226
735.20 0.2259
735.30 0.2257
735.40 0.2256
735.50 0.2255
735.60 0.2254
735.70 0.2253
735.80 0.2251
735.90 0.225
736.00 0.2249
736.10 0.2248
736.20 0.2247
736.30 0.2246
736.40 0.2244
736.50 0.2243
736.60 0.2242
736.70 0.2241
736.80 0.224
736.90 0.2238
737.00 0.2237
737.10 0.2236
737.20 0.2235
737.30 0.2234
737.40 0.2233
737.50 0.2231
737.60 0.223
737.70 0.2229
737.80 0.2228
737.90 0.2227
738.00 0.2225
738.10 0.2224
738.20 0.2223
738.30 0.2222
738.40 0.2221
738.50 0.222
738.60 0.2218
738.70 0.2217
738.80 0.2216
738.90 0.2215
739.00 0.2214
739.10 0.2213
739.20 0.2211
739.30 0.221
739.40 0.2209
739.50 0.2208
739.60 0.2207
739.70 0.2206
739.80 0.2204
739.90 0.2203
740.00 0.2202
740.10 0.2201
740.20 0.22
740.30 0.2199
740.40 0.2197
740.50 0.2196
740.60 0.2195
740.70 0.2194
740.80 0.2193
740.90 0.2192
741.00 0.2191
741.10 0.219
741.20 0.2188
741.30 0.2187
741.40 0.2186
741.50 0.2185
741.60 0.2184
741.70 0.2183
741.80 0.2182
741.90 0.218
742.00 0.2179
742.10 0.2178
742.20 0.2177
742.30 0.2176
742.40 0.2175
742.50 0.2174
742.60 0.2173
742.70 0.2171
742.80 0.217
742.90 0.2169
743.00 0.2168
743.10 0.2167
743.20 0.2166
743.30 0.2165
743.40 0.2163
743.50 0.2162
743.60 0.2161
743.70 0.216
743.80 0.2159
743.90 0.2158
744.00 0.2157
744.10 0.2156
744.20 0.2155
744.30 0.2153
744.40 0.2152
744.50 0.2151
744.60 0.215
744.70 0.2149
744.80 0.2148
744.90 0.2147
745.00 0.2146
745.10 0.2144
745.20 0.2143
745.30 0.2142
745.40 0.2141
745.50 0.214
745.60 0.2139
745.70 0.2138
745.80 0.2137
745.90 0.2136
746.00 0.2134
746.10 0.2133
746.20 0.2132
746.30 0.2131
746.40 0.213
746.50 0.2129
746.60 0.2128
746.70 0.2127
746.80 0.2126
746.90 0.2124
747.00 0.2123
747.10 0.2122
747.20 0.2121
747.30 0.212
747.40 0.2119
747.50 0.2118
747.60 0.2117
747.70 0.2116
747.80 0.2114
747.90 0.2113
748.00 0.2112
748.10 0.2111
748.20 0.211
748.30 0.2109
748.40 0.2108
748.50 0.2107
748.60 0.2106
748.70 0.2105
748.80 0.2103
748.90 0.2102
749.00 0.2101
749.10 0.21
749.20 0.2099
749.30 0.2098
749.40 0.2097
749.50 0.2096
749.60 0.2095
749.70 0.2094
749.80 0.2093
749.90 0.2091
750.00 0.209
750.10 0.2089
750.20 0.2088
750.30 0.2087
750.40 0.2086
750.50 0.2085
750.60 0.2084
750.70 0.2083
750.80 0.2082
750.90 0.2081
751.00 0.208
751.10 0.2079
751.20 0.2078
751.30 0.2076
751.40 0.2075
751.50 0.2074
751.60 0.2073
751.70 0.2072
751.80 0.2071
751.90 0.207
752.00 0.2069
752.10 0.2068
752.20 0.2067
752.30 0.2066
752.40 0.2065
752.50 0.2064
752.60 0.2063
752.70 0.2062
752.80 0.2061
752.90 0.2059
753.00 0.2058
753.10 0.2057
753.20 0.2056
753.30 0.2055
753.40 0.2054
753.50 0.2053
753.60 0.2052
753.70 0.2051
753.80 0.205
753.90 0.2049
754.00 0.2048
754.10 0.2047
754.20 0.2046
754.30 0.2045
754.40 0.2044
754.50 0.2043
754.60 0.2042
754.70 0.2041
754.80 0.2039
754.90 0.2038
755.00 0.2037
755.10 0.2036
755.20 0.2035
755.30 0.2034
755.40 0.2033
755.50 0.2032
755.60 0.2031
755.70 0.203
755.80 0.2029
755.90 0.2028
756.00 0.2027
756.10 0.2026
756.20 0.2025
756.30 0.2024
756.40 0.2023
756.50 0.2022
756.60 0.2021
756.70 0.202
756.80 0.2019
756.90 0.2018
757.00 0.2017
757.10 0.2016
757.20 0.2014
757.30 0.2013
757.40 0.2012
757.50 0.2011
757.60 0.201
757.70 0.2009
757.80 0.2008
757.90 0.2007
758.00 0.2006
758.10 0.2005
758.20 0.2004
758.30 0.2003
758.40 0.2002
758.50 0.2001
758.60 0.2
758.70 0.1999
758.80 0.1998
758.90 0.1997
759.00 0.1996
759.10 0.1995
759.20 0.1994
759.30 0.1993
759.40 0.1992
759.50 0.1991
759.60 0.199
759.70 0.1989
759.80 0.1988
759.90 0.1987
760.00 0.1986
760.10 0.1985
760.20 0.1984
760.30 0.1983
760.40 0.1982
760.50 0.1981
760.60 0.198
760.70 0.1979
760.80 0.1978
760.90 0.1977
761.00 0.1976
761.10 0.1975
761.20 0.1974
761.30 0.1973
761.40 0.1972
761.50 0.1971
761.60 0.197
761.70 0.1969
761.80 0.1968
761.90 0.1967
762.00 0.1966
762.10 0.1965
762.20 0.1964
762.30 0.1963
762.40 0.1962
762.50 0.1961
762.60 0.196
762.70 0.1959
762.80 0.1958
762.90 0.1957
763.00 0.1956
763.10 0.1955
763.20 0.1954
763.30 0.1953
763.40 0.1952
763.50 0.1951
763.60 0.195
763.70 0.1949
763.80 0.1948
763.90 0.1947
764.00 0.1946
764.10 0.1945
764.20 0.1944
764.30 0.1943
764.40 0.1942
764.50 0.1941
764.60 0.194
764.70 0.1939
764.80 0.1938
764.90 0.1937
765.00 0.1936
765.10 0.1935
765.20 0.1934
765.30 0.1933
765.40 0.1932
765.50 0.1931
765.60 0.193
765.70 0.1929
765.80 0.1928
765.90 0.1927
766.00 0.1926
766.10 0.1925
766.20 0.1924
766.30 0.1923
766.40 0.1922
766.50 0.1921
766.60 0.192
766.70 0.1919
766.80 0.1918
766.90 0.1917
767.00 0.1916
767.10 0.1915
767.20 0.1914
767.30 0.1914
767.40 0.1913
767.50 0.1912
767.60 0.1911
767.70 0.191
767.80 0.1909
767.90 0.1908
768.00 0.1907
768.10 0.1906
768.20 0.1905
768.30 0.1904
768.40 0.1903
768.50 0.1902
768.60 0.1901
768.70 0.19
768.80 0.1899
768.90 0.1898
769.00 0.1897
769.10 0.1896
769.20 0.1895
769.30 0.1894
769.40 0.1893
769.50 0.1892
769.60 0.1891
769.70 0.189
769.80 0.1889
769.90 0.1888
770.00 0.1887
770.10 0.1886
770.20 0.1886
770.30 0.1885
770.40 0.1884
770.50 0.1883
770.60 0.1882
770.70 0.1881
770.80 0.188
770.90 0.1879
771.00 0.1878
771.10 0.1877
771.20 0.1876
771.30 0.1875
771.40 0.1874
771.50 0.1873
771.60 0.1872
771.70 0.1871
771.80 0.1871
771.90 0.187
772.00 0.1869
772.10 0.1868
772.20 0.1867
772.30 0.1866
772.40 0.1865
772.50 0.1864
772.60 0.1863
772.70 0.1862
772.80 0.1861
772.90 0.186
773.00 0.1859
773.10 0.1858
773.20 0.1857
773.30 0.1857
773.40 0.1856
773.50 0.1855
773.60 0.1854
773.70 0.1853
773.80 0.1852
773.90 0.1851
774.00 0.185
774.10 0.1849
774.20 0.1848
774.30 0.1847
774.40 0.1846
774.50 0.1845
774.60 0.1845
774.70 0.1844
774.80 0.1843
774.90 0.1842
775.00 0.1841
775.10 0.184
775.20 0.1839
775.30 0.1838
775.40 0.1837
775.50 0.1836
775.60 0.1835
775.70 0.1834
775.80 0.1833
775.90 0.1833
776.00 0.1832
776.10 0.1831
776.20 0.183
776.30 0.1829
776.40 0.1828
776.50 0.1827
776.60 0.1826
776.70 0.1825
776.80 0.1824
776.90 0.1823
777.00 0.1822
777.10 0.1822
777.20 0.1821
777.30 0.182
777.40 0.1819
777.50 0.1818
777.60 0.1817
777.70 0.1816
777.80 0.1815
777.90 0.1814
778.00 0.1813
778.10 0.1812
778.20 0.1812
778.30 0.1811
778.40 0.181
778.50 0.1809
778.60 0.1808
778.70 0.1807
778.80 0.1806
778.90 0.1805
779.00 0.1804
779.10 0.1803
779.20 0.1802
779.30 0.1802
779.40 0.1801
779.50 0.18
779.60 0.1799
779.70 0.1798
779.80 0.1797
779.90 0.1796
780.00 0.1795
780.10 0.1794
780.20 0.1793
780.30 0.1793
780.40 0.1792
780.50 0.1791
780.60 0.179
780.70 0.1789
780.80 0.1788
780.90 0.1787
781.00 0.1786
781.10 0.1786
781.20 0.1785
781.30 0.1784
781.40 0.1783
781.50 0.1782
781.60 0.1781
781.70 0.178
781.80 0.1779
781.90 0.1778
782.00 0.1778
782.10 0.1777
782.20 0.1776
782.30 0.1775
782.40 0.1774
782.50 0.1773
782.60 0.1772
782.70 0.1771
782.80 0.1771
782.90 0.177
783.00 0.1769
783.10 0.1768
783.20 0.1767
783.30 0.1766
783.40 0.1765
783.50 0.1764
783.60 0.1764
783.70 0.1763
783.80 0.1762
783.90 0.1761
784.00 0.176
784.10 0.1759
784.20 0.1758
784.30 0.1758
784.40 0.1757
784.50 0.1756
784.60 0.1755
784.70 0.1754
784.80 0.1753
784.90 0.1752
785.00 0.1751
785.10 0.1751
785.20 0.175
785.30 0.1749
785.40 0.1748
785.50 0.1747
785.60 0.1746
785.70 0.1745
785.80 0.1745
785.90 0.1744
786.00 0.1743
786.10 0.1742
786.20 0.1741
786.30 0.174
786.40 0.1739
786.50 0.1738
786.60 0.1738
786.70 0.1737
786.80 0.1736
786.90 0.1735
787.00 0.1734
787.10 0.1733
787.20 0.1732
787.30 0.1732
787.40 0.1731
787.50 0.173
787.60 0.1729
787.70 0.1728
787.80 0.1727
787.90 0.1726
788.00 0.1726
788.10 0.1725
788.20 0.1724
788.30 0.1723
788.40 0.1722
788.50 0.1721
788.60 0.1721
788.70 0.172
788.80 0.1719
788.90 0.1718
789.00 0.1717
789.10 0.1716
789.20 0.1715
789.30 0.1715
789.40 0.1714
789.50 0.1713
789.60 0.1712
789.70 0.1711
789.80 0.171
789.90 0.1709
790.00 0.1709
790.10 0.1708
790.20 0.1707
790.30 0.1706
790.40 0.1705
790.50 0.1704
790.60 0.1704
790.70 0.1703
790.80 0.1702
790.90 0.1701
791.00 0.17
791.10 0.1699
791.20 0.1699
791.30 0.1698
791.40 0.1697
791.50 0.1696
791.60 0.1695
791.70 0.1695
791.80 0.1694
791.90 0.1693
792.00 0.1692
792.10 0.1691
792.20 0.169
792.30 0.169
792.40 0.1689
792.50 0.1688
792.60 0.1687
792.70 0.1686
792.80 0.1685
792.90 0.1685
793.00 0.1684
793.10 0.1683
793.20 0.1682
793.30 0.1681
793.40 0.1681
793.50 0.168
793.60 0.1679
793.70 0.1678
793.80 0.1677
793.90 0.1676
794.00 0.1676
794.10 0.1675
794.20 0.1674
794.30 0.1673
794.40 0.1672
794.50 0.1672
794.60 0.1671
794.70 0.167
794.80 0.1669
794.90 0.1668
795.00 0.1667
795.10 0.1667
795.20 0.1666
795.30 0.1665
795.40 0.1664
795.50 0.1663
795.60 0.1663
795.70 0.1662
795.80 0.1661
795.90 0.166
796.00 0.1659
796.10 0.1659
796.20 0.1658
796.30 0.1657
796.40 0.1656
796.50 0.1655
796.60 0.1654
796.70 0.1654
796.80 0.1653
796.90 0.1652
797.00 0.1651
797.10 0.165
797.20 0.165
797.30 0.1649
797.40 0.1648
797.50 0.1647
797.60 0.1646
797.70 0.1646
797.80 0.1645
797.90 0.1644
798.00 0.1643
798.10 0.1642
798.20 0.1642
798.30 0.1641
798.40 0.164
798.50 0.1639
798.60 0.1638
798.70 0.1638
798.80 0.1637
798.90 0.1636
799.00 0.1635
799.10 0.1634
799.20 0.1634
799.30 0.1633
799.40 0.1632
799.50 0.1631
799.60 0.163
799.70 0.163
799.80 0.1629
799.90 0.1628
800.00 0.1627
800.10 0.1626
800.20 0.1626
800.30 0.1625
800.40 0.1624
800.50 0.1623
800.60 0.1622
800.70 0.1622
800.80 0.1621
800.90 0.162
801.00 0.1619
801.10 0.1619
801.20 0.1618
801.30 0.1617
801.40 0.1616
801.50 0.1615
801.60 0.1615
801.70 0.1614
801.80 0.1613
801.90 0.1612
802.00 0.1612
802.10 0.1611
802.20 0.161
802.30 0.1609
802.40 0.1608
802.50 0.1608
802.60 0.1607
802.70 0.1606
802.80 0.1605
802.90 0.1605
803.00 0.1604
803.10 0.1603
803.20 0.1602
803.30 0.1602
803.40 0.1601
803.50 0.16
803.60 0.1599
803.70 0.1598
803.80 0.1598
803.90 0.1597
804.00 0.1596
804.10 0.1595
804.20 0.1595
804.30 0.1594
804.40 0.1593
804.50 0.1592
804.60 0.1591
804.70 0.1591
804.80 0.159
804.90 0.1589
805.00 0.1588
805.10 0.1588
805.20 0.1587
805.30 0.1586
805.40 0.1585
805.50 0.1585
805.60 0.1584
805.70 0.1583
805.80 0.1582
805.90 0.1582
806.00 0.1581
806.10 0.158
806.20 0.1579
806.30 0.1578
806.40 0.1578
806.50 0.1577
806.60 0.1576
806.70 0.1575
806.80 0.1575
806.90 0.1574
807.00 0.1573
807.10 0.1572
807.20 0.1572
807.30 0.1571
807.40 0.157
807.50 0.1569
807.60 0.1569
807.70 0.1568
807.80 0.1567
807.90 0.1566
808.00 0.1566
808.10 0.1565
808.20 0.1564
808.30 0.1563
808.40 0.1563
808.50 0.1562
808.60 0.1561
808.70 0.156
808.80 0.156
808.90 0.1559
809.00 0.1558
809.10 0.1557
809.20 0.1557
809.30 0.1556
809.40 0.1555
809.50 0.1554
809.60 0.1554
809.70 0.1553
809.80 0.1552
809.90 0.1551
810.00 0.1551
810.10 0.155
810.20 0.1549
810.30 0.1548
810.40 0.1548
810.50 0.1547
810.60 0.1546
810.70 0.1545
810.80 0.1545
810.90 0.1544
811.00 0.1543
811.10 0.1542
811.20 0.1542
811.30 0.1541
811.40 0.154
811.50 0.1539
811.60 0.1539
811.70 0.1538
811.80 0.1537
811.90 0.1537
812.00 0.1536
812.10 0.1535
812.20 0.1534
812.30 0.1534
812.40 0.1533
812.50 0.1532
812.60 0.1531
812.70 0.1531
812.80 0.153
812.90 0.1529
813.00 0.1529
813.10 0.1528
813.20 0.1527
813.30 0.1526
813.40 0.1526
813.50 0.1525
813.60 0.1524
813.70 0.1523
813.80 0.1523
813.90 0.1522
814.00 0.1521
814.10 0.1521
814.20 0.152
814.30 0.1519
814.40 0.1518
814.50 0.1518
814.60 0.1517
814.70 0.1516
814.80 0.1515
814.90 0.1515
815.00 0.1514
815.10 0.1513
815.20 0.1513
815.30 0.1512
815.40 0.1511
815.50 0.151
815.60 0.151
815.70 0.1509
815.80 0.1508
815.90 0.1508
816.00 0.1507
816.10 0.1506
816.20 0.1505
816.30 0.1505
816.40 0.1504
816.50 0.1503
816.60 0.1503
816.70 0.1502
816.80 0.1501
816.90 0.15
817.00 0.15
817.10 0.1499
817.20 0.1498
817.30 0.1498
817.40 0.1497
817.50 0.1496
817.60 0.1495
817.70 0.1495
817.80 0.1494
817.90 0.1493
818.00 0.1493
818.10 0.1492
818.20 0.1491
818.30 0.149
818.40 0.149
818.50 0.1489
818.60 0.1488
818.70 0.1488
818.80 0.1487
818.90 0.1486
819.00 0.1485
819.10 0.1485
819.20 0.1484
819.30 0.1483
819.40 0.1483
819.50 0.1482
819.60 0.1481
819.70 0.148
819.80 0.148
819.90 0.1479
820.00 0.1478
820.10 0.1478
820.20 0.1477
820.30 0.1476
820.40 0.1476
820.50 0.1475
820.60 0.1474
820.70 0.1473
820.80 0.1473
820.90 0.1472
821.00 0.1471
821.10 0.1471
821.20 0.147
821.30 0.1469
821.40 0.1469
821.50 0.1468
821.60 0.1467
821.70 0.1466
821.80 0.1466
821.90 0.1465
822.00 0.1464
822.10 0.1464
822.20 0.1463
822.30 0.1462
822.40 0.1462
822.50 0.1461
822.60 0.146
822.70 0.146
822.80 0.1459
822.90 0.1458
823.00 0.1458
823.10 0.1457
823.20 0.1456
823.30 0.1455
823.40 0.1455
823.50 0.1454
823.60 0.1453
823.70 0.1453
823.80 0.1452
823.90 0.1451
824.00 0.1451
824.10 0.145
824.20 0.1449
824.30 0.1449
824.40 0.1448
824.50 0.1447
824.60 0.1447
824.70 0.1446
824.80 0.1445
824.90 0.1445
825.00 0.1444
825.10 0.1443
825.20 0.1443
825.30 0.1442
825.40 0.1441
825.50 0.144
825.60 0.144
825.70 0.1439
825.80 0.1438
825.90 0.1438
826.00 0.1437
826.10 0.1436
826.20 0.1436
826.30 0.1435
826.40 0.1434
826.50 0.1434
826.60 0.1433
826.70 0.1432
826.80 0.1432
826.90 0.1431
827.00 0.143
827.10 0.143
827.20 0.1429
827.30 0.1428
827.40 0.1428
827.50 0.1427
827.60 0.1426
827.70 0.1426
827.80 0.1425
827.90 0.1424
828.00 0.1424
828.10 0.1423
828.20 0.1422
828.30 0.1422
828.40 0.1421
828.50 0.142
828.60 0.142
828.70 0.1419
828.80 0.1418
828.90 0.1418
829.00 0.1417
829.10 0.1416
829.20 0.1416
829.30 0.1415
829.40 0.1414
829.50 0.1414
829.60 0.1413
829.70 0.1412
829.80 0.1412
829.90 0.1411
830.00 0.141
830.10 0.141
830.20 0.1409
830.30 0.1408
830.40 0.1408
830.50 0.1407
830.60 0.1406
830.70 0.1406
830.80 0.1405
830.90 0.1404
831.00 0.1404
831.10 0.1403
831.20 0.1402
831.30 0.1402
831.40 0.1401
831.50 0.14
831.60 0.14
831.70 0.1399
831.80 0.1399
831.90 0.1398
832.00 0.1397
832.10 0.1397
832.20 0.1396
832.30 0.1395
832.40 0.1395
832.50 0.1394
832.60 0.1393
832.70 0.1393
832.80 0.1392
832.90 0.1391
833.00 0.1391
833.10 0.139
833.20 0.1389
833.30 0.1389
833.40 0.1388
833.50 0.1387
833.60 0.1387
833.70 0.1386
833.80 0.1386
833.90 0.1385
834.00 0.1384
834.10 0.1384
834.20 0.1383
834.30 0.1382
834.40 0.1382
834.50 0.1381
834.60 0.138
834.70 0.138
834.80 0.1379
834.90 0.1378
835.00 0.1378
835.10 0.1377
835.20 0.1376
835.30 0.1376
835.40 0.1375
835.50 0.1375
835.60 0.1374
835.70 0.1373
835.80 0.1373
835.90 0.1372
836.00 0.1371
836.10 0.1371
836.20 0.137
836.30 0.1369
836.40 0.1369
836.50 0.1368
836.60 0.1368
836.70 0.1367
836.80 0.1366
836.90 0.1366
837.00 0.1365
837.10 0.1364
837.20 0.1364
837.30 0.1363
837.40 0.1362
837.50 0.1362
837.60 0.1361
837.70 0.1361
837.80 0.136
837.90 0.1359
838.00 0.1359
838.10 0.1358
838.20 0.1357
838.30 0.1357
838.40 0.1356
838.50 0.1356
838.60 0.1355
838.70 0.1354
838.80 0.1354
838.90 0.1353
839.00 0.1352
839.10 0.1352
839.20 0.1351
839.30 0.135
839.40 0.135
839.50 0.1349
839.60 0.1349
839.70 0.1348
839.80 0.1347
839.90 0.1347
840.00 0.1346
840.10 0.1345
840.20 0.1345
840.30 0.1344
840.40 0.1344
840.50 0.1343
840.60 0.1342
840.70 0.1342
840.80 0.1341
840.90 0.134
841.00 0.134
841.10 0.1339
841.20 0.1339
841.30 0.1338
841.40 0.1337
841.50 0.1337
841.60 0.1336
841.70 0.1336
841.80 0.1335
841.90 0.1334
842.00 0.1334
842.10 0.1333
842.20 0.1332
842.30 0.1332
842.40 0.1331
842.50 0.1331
842.60 0.133
842.70 0.1329
842.80 0.1329
842.90 0.1328
843.00 0.1328
843.10 0.1327
843.20 0.1326
843.30 0.1326
843.40 0.1325
843.50 0.1324
843.60 0.1324
843.70 0.1323
843.80 0.1323
843.90 0.1322
844.00 0.1321
844.10 0.1321
844.20 0.132
844.30 0.132
844.40 0.1319
844.50 0.1318
844.60 0.1318
844.70 0.1317
844.80 0.1317
844.90 0.1316
845.00 0.1315
845.10 0.1315
845.20 0.1314
845.30 0.1314
845.40 0.1313
845.50 0.1312
845.60 0.1312
845.70 0.1311
845.80 0.1311
845.90 0.131
846.00 0.1309
846.10 0.1309
846.20 0.1308
846.30 0.1307
846.40 0.1307
846.50 0.1306
846.60 0.1306
846.70 0.1305
846.80 0.1304
846.90 0.1304
847.00 0.1303
847.10 0.1303
847.20 0.1302
847.30 0.1301
847.40 0.1301
847.50 0.13
847.60 0.13
847.70 0.1299
847.80 0.1299
847.90 0.1298
848.00 0.1297
848.10 0.1297
848.20 0.1296
848.30 0.1296
848.40 0.1295
848.50 0.1294
848.60 0.1294
848.70 0.1293
848.80 0.1293
848.90 0.1292
849.00 0.1291
849.10 0.1291
849.20 0.129
849.30 0.129
849.40 0.1289
849.50 0.1288
849.60 0.1288
849.70 0.1287
849.80 0.1287
849.90 0.1286
850.00 0.1285
850.10 0.1285
850.20 0.1284
850.30 0.1284
850.40 0.1283
850.50 0.1283
850.60 0.1282
850.70 0.1281
850.80 0.1281
850.90 0.128
851.00 0.128
851.10 0.1279
851.20 0.1278
851.30 0.1278
851.40 0.1277
851.50 0.1277
851.60 0.1276
851.70 0.1275
851.80 0.1275
851.90 0.1274
852.00 0.1274
852.10 0.1273
852.20 0.1273
852.30 0.1272
852.40 0.1271
852.50 0.1271
852.60 0.127
852.70 0.127
852.80 0.1269
852.90 0.1269
853.00 0.1268
853.10 0.1267
853.20 0.1267
853.30 0.1266
853.40 0.1266
853.50 0.1265
853.60 0.1264
853.70 0.1264
853.80 0.1263
853.90 0.1263
854.00 0.1262
854.10 0.1262
854.20 0.1261
854.30 0.126
854.40 0.126
854.50 0.1259
854.60 0.1259
854.70 0.1258
854.80 0.1258
854.90 0.1257
855.00 0.1256
855.10 0.1256
855.20 0.1255
855.30 0.1255
855.40 0.1254
855.50 0.1254
855.60 0.1253
855.70 0.1252
855.80 0.1252
855.90 0.1251
856.00 0.1251
856.10 0.125
856.20 0.125
856.30 0.1249
856.40 0.1248
856.50 0.1248
856.60 0.1247
856.70 0.1247
856.80 0.1246
856.90 0.1246
857.00 0.1245
857.10 0.1244
857.20 0.1244
857.30 0.1243
857.40 0.1243
857.50 0.1242
857.60 0.1242
857.70 0.1241
857.80 0.1241
857.90 0.124
858.00 0.1239
858.10 0.1239
858.20 0.1238
858.30 0.1238
858.40 0.1237
858.50 0.1237
858.60 0.1236
858.70 0.1236
858.80 0.1235
858.90 0.1234
859.00 0.1234
859.10 0.1233
859.20 0.1233
859.30 0.1232
859.40 0.1232
859.50 0.1231
859.60 0.123
859.70 0.123
859.80 0.1229
859.90 0.1229
860.00 0.1228
860.10 0.1228
860.20 0.1227
860.30 0.1227
860.40 0.1226
860.50 0.1225
860.60 0.1225
860.70 0.1224
860.80 0.1224
860.90 0.1223
861.00 0.1223
861.10 0.1222
861.20 0.1222
861.30 0.1221
861.40 0.122
861.50 0.122
861.60 0.1219
861.70 0.1219
861.80 0.1218
861.90 0.1218
862.00 0.1217
862.10 0.1217
862.20 0.1216
862.30 0.1216
862.40 0.1215
862.50 0.1214
862.60 0.1214
862.70 0.1213
862.80 0.1213
862.90 0.1212
863.00 0.1212
863.10 0.1211
863.20 0.1211
863.30 0.121
863.40 0.121
863.50 0.1209
863.60 0.1208
863.70 0.1208
863.80 0.1207
863.90 0.1207
864.00 0.1206
864.10 0.1206
864.20 0.1205
864.30 0.1205
864.40 0.1204
864.50 0.1204
864.60 0.1203
864.70 0.1202
864.80 0.1202
864.90 0.1201
865.00 0.1201
865.10 0.12
865.20 0.12
865.30 0.1199
865.40 0.1199
865.50 0.1198
865.60 0.1198
865.70 0.1197
865.80 0.1197
865.90 0.1196
866.00 0.1195
866.10 0.1195
866.20 0.1194
866.30 0.1194
866.40 0.1193
866.50 0.1193
866.60 0.1192
866.70 0.1192
866.80 0.1191
866.90 0.1191
867.00 0.119
867.10 0.119
867.20 0.1189
867.30 0.1188
867.40 0.1188
867.50 0.1187
867.60 0.1187
867.70 0.1186
867.80 0.1186
867.90 0.1185
868.00 0.1185
868.10 0.1184
868.20 0.1184
868.30 0.1183
868.40 0.1183
868.50 0.1182
868.60 0.1182
868.70 0.1181
868.80 0.1181
868.90 0.118
869.00 0.1179
869.10 0.1179
869.20 0.1178
869.30 0.1178
869.40 0.1177
869.50 0.1177
869.60 0.1176
869.70 0.1176
869.80 0.1175
869.90 0.1175
870.00 0.1174
870.10 0.1174
870.20 0.1173
870.30 0.1173
870.40 0.1172
870.50 0.1172
870.60 0.1171
870.70 0.1171
870.80 0.117
870.90 0.117
871.00 0.1169
871.10 0.1168
871.20 0.1168
871.30 0.1167
871.40 0.1167
871.50 0.1166
871.60 0.1166
871.70 0.1165
871.80 0.1165
871.90 0.1164
872.00 0.1164
872.10 0.1163
872.20 0.1163
872.30 0.1162
872.40 0.1162
872.50 0.1161
872.60 0.1161
872.70 0.116
872.80 0.116
872.90 0.1159
873.00 0.1159
873.10 0.1158
873.20 0.1158
873.30 0.1157
873.40 0.1157
873.50 0.1156
873.60 0.1156
873.70 0.1155
873.80 0.1154
873.90 0.1154
874.00 0.1153
874.10 0.1153
874.20 0.1152
874.30 0.1152
874.40 0.1151
874.50 0.1151
874.60 0.115
874.70 0.115
874.80 0.1149
874.90 0.1149
875.00 0.1148
875.10 0.1148
875.20 0.1147
875.30 0.1147
875.40 0.1146
875.50 0.1146
875.60 0.1145
875.70 0.1145
875.80 0.1144
875.90 0.1144
876.00 0.1143
876.10 0.1143
876.20 0.1142
876.30 0.1142
876.40 0.1141
876.50 0.1141
876.60 0.114
876.70 0.114
876.80 0.1139
876.90 0.1139
877.00 0.1138
877.10 0.1138
877.20 0.1137
877.30 0.1137
877.40 0.1136
877.50 0.1136
877.60 0.1135
877.70 0.1135
877.80 0.1134
877.90 0.1134
878.00 0.1133
878.10 0.1133
878.20 0.1132
878.30 0.1132
878.40 0.1131
878.50 0.1131
878.60 0.113
878.70 0.113
878.80 0.1129
878.90 0.1129
879.00 0.1128
879.10 0.1128
879.20 0.1127
879.30 0.1127
879.40 0.1126
879.50 0.1126
879.60 0.1125
879.70 0.1125
879.80 0.1124
879.90 0.1124
880.00 0.1123
880.10 0.1123
880.20 0.1122
880.30 0.1122
880.40 0.1121
880.50 0.1121
880.60 0.112
880.70 0.112
880.80 0.1119
880.90 0.1119
881.00 0.1118
881.10 0.1118
881.20 0.1117
881.30 0.1117
881.40 0.1116
881.50 0.1116
881.60 0.1115
881.70 0.1115
881.80 0.1114
881.90 0.1114
882.00 0.1113
882.10 0.1113
882.20 0.1112
882.30 0.1112
882.40 0.1111
882.50 0.1111
882.60 0.111
882.70 0.111
882.80 0.1109
882.90 0.1109
883.00 0.1108
883.10 0.1108
883.20 0.1107
883.30 0.1107
883.40 0.1107
883.50 0.1106
883.60 0.1106
883.70 0.1105
883.80 0.1105
883.90 0.1104
884.00 0.1104
884.10 0.1103
884.20 0.1103
884.30 0.1102
884.40 0.1102
884.50 0.1101
884.60 0.1101
884.70 0.11
884.80 0.11
884.90 0.1099
885.00 0.1099
885.10 0.1098
885.20 0.1098
885.30 0.1097
885.40 0.1097
885.50 0.1096
885.60 0.1096
885.70 0.1095
885.80 0.1095
885.90 0.1095
886.00 0.1094
886.10 0.1094
886.20 0.1093
886.30 0.1093
886.40 0.1092
886.50 0.1092
886.60 0.1091
886.70 0.1091
886.80 0.109
886.90 0.109
887.00 0.1089
887.10 0.1089
887.20 0.1088
887.30 0.1088
887.40 0.1087
887.50 0.1087
887.60 0.1086
887.70 0.1086
887.80 0.1085
887.90 0.1085
888.00 0.1084
888.10 0.1084
888.20 0.1084
888.30 0.1083
888.40 0.1083
888.50 0.1082
888.60 0.1082
888.70 0.1081
888.80 0.1081
888.90 0.108
889.00 0.108
889.10 0.1079
889.20 0.1079
889.30 0.1078
889.40 0.1078
889.50 0.1077
889.60 0.1077
889.70 0.1076
889.80 0.1076
889.90 0.1076
890.00 0.1075
890.10 0.1075
890.20 0.1074
890.30 0.1074
890.40 0.1073
890.50 0.1073
890.60 0.1072
890.70 0.1072
890.80 0.1071
890.90 0.1071
891.00 0.107
891.10 0.107
891.20 0.1069
891.30 0.1069
891.40 0.1068
891.50 0.1068
891.60 0.1068
891.70 0.1067
891.80 0.1067
891.90 0.1066
892.00 0.1066
892.10 0.1065
892.20 0.1065
892.30 0.1064
892.40 0.1064
892.50 0.1063
892.60 0.1063
892.70 0.1062
892.80 0.1062
892.90 0.1061
893.00 0.1061
893.10 0.1061
893.20 0.106
893.30 0.106
893.40 0.1059
893.50 0.1059
893.60 0.1058
893.70 0.1058
893.80 0.1057
893.90 0.1057
894.00 0.1056
894.10 0.1056
894.20 0.1056
894.30 0.1055
894.40 0.1055
894.50 0.1054
894.60 0.1054
894.70 0.1053
894.80 0.1053
894.90 0.1052
895.00 0.1052
895.10 0.1051
895.20 0.1051
895.30 0.105
895.40 0.105
895.50 0.105
895.60 0.1049
895.70 0.1049
895.80 0.1048
895.90 0.1048
896.00 0.1047
896.10 0.1047
896.20 0.1046
896.30 0.1046
896.40 0.1045
896.50 0.1045
896.60 0.1045
896.70 0.1044
896.80 0.1044
896.90 0.1043
897.00 0.1043
897.10 0.1042
897.20 0.1042
897.30 0.1041
897.40 0.1041
897.50 0.1041
897.60 0.104
897.70 0.104
897.80 0.1039
897.90 0.1039
898.00 0.1038
898.10 0.1038
898.20 0.1037
898.30 0.1037
898.40 0.1037
898.50 0.1036
898.60 0.1036
898.70 0.1035
898.80 0.1035
898.90 0.1034
899.00 0.1034
899.10 0.1033
899.20 0.1033
899.30 0.1033
899.40 0.1032
899.50 0.1032
899.60 0.1031
899.70 0.1031
899.80 0.103
899.90 0.103
900.00 0.1029
900.10 0.1029
900.20 0.1029
900.30 0.1028
900.40 0.1028
900.50 0.1027
900.60 0.1027
900.70 0.1026
900.80 0.1026
900.90 0.1026
901.00 0.1025
901.10 0.1025
901.20 0.1024
901.30 0.1024
901.40 0.1023
901.50 0.1023
901.60 0.1022
901.70 0.1022
901.80 0.1022
901.90 0.1021
902.00 0.1021
902.10 0.102
902.20 0.102
902.30 0.1019
902.40 0.1019
902.50 0.1019
902.60 0.1018
902.70 0.1018
902.80 0.1017
902.90 0.1017
903.00 0.1016
903.10 0.1016
903.20 0.1015
903.30 0.1015
903.40 0.1015
903.50 0.1014
903.60 0.1014
903.70 0.1013
903.80 0.1013
903.90 0.1012
904.00 0.1012
904.10 0.1012
904.20 0.1011
904.30 0.1011
904.40 0.101
904.50 0.101
904.60 0.1009
904.70 0.1009
904.80 0.1008
904.90 0.1008
905.00 0.1008
905.10 0.1007
905.20 0.1007
905.30 0.1006
905.40 0.1006
905.50 0.1005
905.60 0.1005
905.70 0.1005
905.80 0.1004
905.90 0.1004
906.00 0.1003
906.10 0.1003
906.20 0.1002
906.30 0.1002
906.40 0.1002
906.50 0.1001
906.60 0.1001
906.70 0.1
906.80 0.09998
906.90 0.09994
907.00 0.09989
907.10 0.09985
907.20 0.09981
907.30 0.09977
907.40 0.09972
907.50 0.09968
907.60 0.09964
907.70 0.09959
907.80 0.09955
907.90 0.09951
908.00 0.09947
908.10 0.09942
908.20 0.09938
908.30 0.09934
908.40 0.0993
908.50 0.09925
908.60 0.09921
908.70 0.09917
908.80 0.09913
908.90 0.09909
909.00 0.09904
909.10 0.099
909.20 0.09896
909.30 0.09892
909.40 0.09887
909.50 0.09883
909.60 0.09879
909.70 0.09875
909.80 0.0987
909.90 0.09866
910.00 0.09862
910.10 0.09858
910.20 0.09854
910.30 0.09849
910.40 0.09845
910.50 0.09841
910.60 0.09837
910.70 0.09833
910.80 0.09828
910.90 0.09824
911.00 0.0982
911.10 0.09816
911.20 0.09812
911.30 0.09807
911.40 0.09803
911.50 0.09799
911.60 0.09795
911.70 0.09791
911.80 0.09786
911.90 0.09782
912.00 0.09778
912.10 0.09774
912.20 0.0977
912.30 0.09765
912.40 0.09761
912.50 0.09757
912.60 0.09753
912.70 0.09749
912.80 0.09744
912.90 0.0974
913.00 0.09736
913.10 0.09732
913.20 0.09728
913.30 0.09724
913.40 0.09719
913.50 0.09715
913.60 0.09711
913.70 0.09707
913.80 0.09703
913.90 0.09699
914.00 0.09694
914.10 0.0969
914.20 0.09686
914.30 0.09682
914.40 0.09678
914.50 0.09674
914.60 0.09669
914.70 0.09665
914.80 0.09661
914.90 0.09657
915.00 0.09653
915.10 0.09649
915.20 0.09644
915.30 0.0964
915.40 0.09636
915.50 0.09632
915.60 0.09628
915.70 0.09624
915.80 0.0962
915.90 0.09615
916.00 0.09611
916.10 0.09607
916.20 0.09603
916.30 0.09599
916.40 0.09595
916.50 0.09591
916.60 0.09587
916.70 0.09582
916.80 0.09578
916.90 0.09574
917.00 0.0957
917.10 0.09566
917.20 0.09562
917.30 0.09558
917.40 0.09554
917.50 0.0955
917.60 0.09546
917.70 0.09542
917.80 0.09538
917.90 0.09534
918.00 0.0953
918.10 0.09526
918.20 0.09522
918.30 0.09518
918.40 0.09514
918.50 0.0951
918.60 0.09506
918.70 0.09502
918.80 0.09498
918.90 0.09494
919.00 0.0949
919.10 0.09486
919.20 0.09482
919.30 0.09478
919.40 0.09474
919.50 0.0947
919.60 0.09466
919.70 0.09462
919.80 0.09458
919.90 0.09454
920.00 0.0945
920.10 0.09446
920.20 0.09442
920.30 0.09438
920.40 0.09434
920.50 0.0943
920.60 0.09426
920.70 0.09422
920.80 0.09418
920.90 0.09414
921.00 0.0941
921.10 0.09406
921.20 0.09402
921.30 0.09398
921.40 0.09394
921.50 0.0939
921.60 0.09386
921.70 0.09382
921.80 0.09378
921.90 0.09374
922.00 0.09371
922.10 0.09367
922.20 0.09363
922.30 0.09359
922.40 0.09355
922.50 0.09351
922.60 0.09347
922.70 0.09343
922.80 0.09339
922.90 0.09335
923.00 0.09331
923.10 0.09327
923.20 0.09324
923.30 0.0932
923.40 0.09316
923.50 0.09312
923.60 0.09308
923.70 0.09304
923.80 0.093
923.90 0.09296
924.00 0.09292
924.10 0.09288
924.20 0.09285
924.30 0.09281
924.40 0.09277
924.50 0.09273
924.60 0.09269
924.70 0.09265
924.80 0.09261
924.90 0.09257
925.00 0.09253
925.10 0.0925
925.20 0.09246
925.30 0.09242
925.40 0.09238
925.50 0.09234
925.60 0.0923
925.70 0.09226
925.80 0.09222
925.90 0.09219
926.00 0.09215
926.10 0.09211
926.20 0.09207
926.30 0.09203
926.40 0.09199
926.50 0.09195
926.60 0.09191
926.70 0.09188
926.80 0.09184
926.90 0.0918
927.00 0.09176
927.10 0.09172
927.20 0.09169
927.30 0.09165
927.40 0.09161
927.50 0.09157
927.60 0.09154
927.70 0.0915
927.80 0.09146
927.90 0.09142
928.00 0.09139
928.10 0.09135
928.20 0.09131
928.30 0.09128
928.40 0.09124
928.50 0.0912
928.60 0.09116
928.70 0.09113
928.80 0.09109
928.90 0.09105
929.00 0.09102
929.10 0.09098
929.20 0.09094
929.30 0.0909
929.40 0.09087
929.50 0.09083
929.60 0.09079
929.70 0.09076
929.80 0.09072
929.90 0.09068
930.00 0.09064
930.10 0.09061
930.20 0.09057
930.30 0.09053
930.40 0.0905
930.50 0.09046
930.60 0.09042
930.70 0.09039
930.80 0.09035
930.90 0.09031
931.00 0.09028
931.10 0.09024
931.20 0.0902
931.30 0.09016
931.40 0.09013
931.50 0.09009
931.60 0.09005
931.70 0.09002
931.80 0.08998
931.90 0.08994
932.00 0.08991
932.10 0.08987
932.20 0.08983
932.30 0.0898
932.40 0.08976
932.50 0.08972
932.60 0.08969
932.70 0.08965
932.80 0.08961
932.90 0.08958
933.00 0.08954
933.10 0.0895
933.20 0.08947
933.30 0.08943
933.40 0.08939
933.50 0.08936
933.60 0.08932
933.70 0.08928
933.80 0.08925
933.90 0.08921
934.00 0.08917
934.10 0.08914
934.20 0.0891
934.30 0.08906
934.40 0.08903
934.50 0.08899
934.60 0.08895
934.70 0.08892
934.80 0.08888
934.90 0.08884
935.00 0.08881
935.10 0.08877
935.20 0.08873
935.30 0.0887
935.40 0.08866
935.50 0.08862
935.60 0.08859
935.70 0.08855
935.80 0.08851
935.90 0.08848
936.00 0.08844
936.10 0.0884
936.20 0.08837
936.30 0.08833
936.40 0.08829
936.50 0.08826
936.60 0.08822
936.70 0.08818
936.80 0.08815
936.90 0.08811
937.00 0.08807
937.10 0.08804
937.20 0.088
937.30 0.08796
937.40 0.08793
937.50 0.08789
937.60 0.08785
937.70 0.08782
937.80 0.08778
937.90 0.08774
938.00 0.08771
938.10 0.08767
938.20 0.08763
938.30 0.0876
938.40 0.08756
938.50 0.08752
938.60 0.08749
938.70 0.08745
938.80 0.08741
938.90 0.08738
939.00 0.08734
939.10 0.0873
939.20 0.08727
939.30 0.08723
939.40 0.08719
939.50 0.08716
939.60 0.08712
939.70 0.08708
939.80 0.08705
939.90 0.08701
940.00 0.08697
940.10 0.08694
940.20 0.0869
940.30 0.08686
940.40 0.08683
940.50 0.08679
940.60 0.08675
940.70 0.08672
940.80 0.08668
940.90 0.08664
941.00 0.08661
941.10 0.08657
941.20 0.08653
941.30 0.0865
941.40 0.08646
941.50 0.08642
941.60 0.08639
941.70 0.08635
941.80 0.08631
941.90 0.08628
942.00 0.08624
942.10 0.0862
942.20 0.08617
942.30 0.08613
942.40 0.08609
942.50 0.08606
942.60 0.08602
942.70 0.08598
942.80 0.08594
942.90 0.08591
943.00 0.08587
943.10 0.08583
943.20 0.0858
943.30 0.08576
943.40 0.08572
943.50 0.08569
943.60 0.08565
943.70 0.08561
943.80 0.08558
943.90 0.08554
944.00 0.0855
944.10 0.08547
944.20 0.08543
944.30 0.08539
944.40 0.08536
944.50 0.08532
944.60 0.08528
944.70 0.08525
944.80 0.08521
944.90 0.08517
945.00 0.08514
945.10 0.0851
945.20 0.08506
945.30 0.08503
945.40 0.08499
945.50 0.08495
945.60 0.08492
945.70 0.08488
945.80 0.08484
945.90 0.0848
946.00 0.08477
946.10 0.08473
946.20 0.08469
946.30 0.08466
946.40 0.08462
946.50 0.08458
946.60 0.08455
946.70 0.08451
946.80 0.08447
946.90 0.08444
947.00 0.0844
947.10 0.08436
947.20 0.08433
947.30 0.08429
947.40 0.08425
947.50 0.08422
947.60 0.08418
947.70 0.08414
947.80 0.0841
947.90 0.08407
948.00 0.08403
948.10 0.08399
948.20 0.08396
948.30 0.08392
948.40 0.08388
948.50 0.08385
948.60 0.08381
948.70 0.08377
948.80 0.08374
948.90 0.0837
949.00 0.08366
949.10 0.08363
949.20 0.08359
949.30 0.08355
949.40 0.08352
949.50 0.08348
949.60 0.08344
949.70 0.08341
949.80 0.08337
949.90 0.08334
950.00 0.0833
950.10 0.08326
950.20 0.08323
950.30 0.08319
950.40 0.08315
950.50 0.08312
950.60 0.08308
950.70 0.08305
950.80 0.08301
950.90 0.08297
951.00 0.08294
951.10 0.0829
951.20 0.08286
951.30 0.08283
951.40 0.08279
951.50 0.08276
951.60 0.08272
951.70 0.08269
951.80 0.08265
951.90 0.08262
952.00 0.08258
952.10 0.08255
952.20 0.08251
952.30 0.08248
952.40 0.08244
952.50 0.08241
952.60 0.08238
952.70 0.08234
952.80 0.08231
952.90 0.08228
953.00 0.08224
953.10 0.08221
953.20 0.08218
953.30 0.08215
953.40 0.08211
953.50 0.08208
953.60 0.08205
953.70 0.08202
953.80 0.08199
953.90 0.08196
954.00 0.08193
954.10 0.0819
954.20 0.08187
954.30 0.08184
954.40 0.08182
954.50 0.08179
954.60 0.08176
954.70 0.08172
954.80 0.08168
954.90 0.08165
955.00 0.08161
955.10 0.08157
955.20 0.08153
955.30 0.0815
955.40 0.08146
955.50 0.08143
955.60 0.08139
955.70 0.08135
955.80 0.08132
955.90 0.08129
956.00 0.08125
956.10 0.08122
956.20 0.08119
956.30 0.08115
956.40 0.08112
956.50 0.08109
956.60 0.08106
956.70 0.08102
956.80 0.08099
956.90 0.08096
957.00 0.08092
957.10 0.08089
957.20 0.08086
957.30 0.08083
957.40 0.0808
957.50 0.08077
957.60 0.08074
957.70 0.08071
957.80 0.08068
957.90 0.08065
958.00 0.08062
958.10 0.08059
958.20 0.08056
958.30 0.08053
958.40 0.08049
958.50 0.08046
958.60 0.08043
958.70 0.0804
958.80 0.08037
958.90 0.08034
959.00 0.08031
959.10 0.08028
959.20 0.08025
959.30 0.08022
959.40 0.08019
959.50 0.08016
959.60 0.08013
959.70 0.0801
959.80 0.08007
959.90 0.08004
960.00 0.08001
960.10 0.07998
960.20 0.07995
960.30 0.07992
960.40 0.07989
960.50 0.07986
960.60 0.07983
960.70 0.0798
960.80 0.07977
960.90 0.07974
961.00 0.07972
961.10 0.07969
961.20 0.07966
961.30 0.07963
961.40 0.0796
961.50 0.07957
961.60 0.07954
961.70 0.07951
961.80 0.07948
961.90 0.07945
962.00 0.07942
962.10 0.07939
962.20 0.07936
962.30 0.07933
962.40 0.0793
962.50 0.07927
962.60 0.07924
962.70 0.07921
962.80 0.07918
962.90 0.07915
963.00 0.07912
963.10 0.07909
963.20 0.07906
963.30 0.07903
963.40 0.079
963.50 0.07897
963.60 0.07894
963.70 0.07891
963.80 0.07888
963.90 0.07885
964.00 0.07882
964.10 0.07879
964.20 0.07876
964.30 0.07873
964.40 0.0787
964.50 0.07867
964.60 0.07864
964.70 0.07861
964.80 0.07858
964.90 0.07855
965.00 0.07852
965.10 0.07849
965.20 0.07846
965.30 0.07843
965.40 0.0784
965.50 0.07838
965.60 0.07835
965.70 0.07832
965.80 0.07829
965.90 0.07826
966.00 0.07823
966.10 0.0782
966.20 0.07817
966.30 0.07814
966.40 0.07811
966.50 0.07808
966.60 0.07805
966.70 0.07802
966.80 0.07799
966.90 0.07796
967.00 0.07793
967.10 0.0779
967.20 0.07787
967.30 0.07784
967.40 0.07781
967.50 0.07778
967.60 0.07775
967.70 0.07772
967.80 0.07769
967.90 0.07766
968.00 0.07763
968.10 0.0776
968.20 0.07757
968.30 0.07754
968.40 0.07751
968.50 0.07748
968.60 0.07745
968.70 0.07742
968.80 0.07739
968.90 0.07736
969.00 0.07733
969.10 0.0773
969.20 0.07727
969.30 0.07724
969.40 0.07721
969.50 0.07718
969.60 0.07715
969.70 0.07712
969.80 0.07709
969.90 0.07706
970.00 0.07703
970.10 0.077
970.20 0.07697
970.30 0.07694
970.40 0.07691
970.50 0.07688
970.60 0.07685
970.70 0.07682
970.80 0.07679
970.90 0.07676
971.00 0.07673
971.10 0.0767
971.20 0.07667
971.30 0.07664
971.40 0.07661
971.50 0.07658
971.60 0.07655
971.70 0.07652
971.80 0.07649
971.90 0.07646
972.00 0.07643
972.10 0.0764
972.20 0.07637
972.30 0.07634
972.40 0.07631
972.50 0.07628
972.60 0.07625
972.70 0.07622
972.80 0.07619
972.90 0.07616
973.00 0.07613
973.10 0.0761
973.20 0.07607
973.30 0.07604
973.40 0.07601
973.50 0.07598
973.60 0.07595
973.70 0.07592
973.80 0.07589
973.90 0.07586
974.00 0.07583
974.10 0.0758
974.20 0.07577
974.30 0.07574
974.40 0.07571
974.50 0.07568
974.60 0.07565
974.70 0.07562
974.80 0.07559
974.90 0.07556
975.00 0.07553
975.10 0.0755
975.20 0.07547
975.30 0.07544
975.40 0.07541
975.50 0.07538
975.60 0.07535
975.70 0.07532
975.80 0.07529
975.90 0.07526
976.00 0.07523
976.10 0.0752
976.20 0.07517
976.30 0.07514
976.40 0.07511
976.50 0.07508
976.60 0.07505
976.70 0.07502
976.80 0.07499
976.90 0.07497
977.00 0.07494
977.10 0.07491
977.20 0.07488
977.30 0.07485
977.40 0.07482
977.50 0.07479
977.60 0.07476
977.70 0.07473
977.80 0.0747
977.90 0.07467
978.00 0.07464
978.10 0.07461
978.20 0.07458
978.30 0.07455
978.40 0.07452
978.50 0.07449
978.60 0.07446
978.70 0.07443
978.80 0.0744
978.90 0.07437
979.00 0.07434
979.10 0.07431
979.20 0.07428
979.30 0.07425
979.40 0.07422
979.50 0.07419
979.60 0.07416
979.70 0.07413
979.80 0.0741
979.90 0.07407
980.00 0.07404
980.10 0.07401
980.20 0.07399
980.30 0.07396
980.40 0.07393
980.50 0.0739
980.60 0.07387
980.70 0.07384
980.80 0.07381
980.90 0.07378
981.00 0.07375
981.10 0.07372
981.20 0.07369
981.30 0.07366
981.40 0.07363
981.50 0.0736
981.60 0.07357
981.70 0.07354
981.80 0.07351
981.90 0.07348
982.00 0.07346
982.10 0.07343
982.20 0.0734
982.30 0.07337
982.40 0.07334
982.50 0.07331
982.60 0.07328
982.70 0.07325
982.80 0.07322
982.90 0.07319
983.00 0.07316
983.10 0.07313
983.20 0.0731
983.30 0.07307
983.40 0.07304
983.50 0.07301
983.60 0.07298
983.70 0.07295
983.80 0.07292
983.90 0.0729
984.00 0.07287
984.10 0.07284
984.20 0.07281
984.30 0.07278
984.40 0.07275
984.50 0.07272
984.60 0.07269
984.70 0.07266
984.80 0.07263
984.90 0.0726
985.00 0.07257
985.10 0.07254
985.20 0.07251
985.30 0.07248
985.40 0.07245
985.50 0.07242
985.60 0.0724
985.70 0.07237
985.80 0.07234
985.90 0.07231
986.00 0.07228
986.10 0.07225
986.20 0.07222
986.30 0.07219
986.40 0.07216
986.50 0.07213
986.60 0.0721
986.70 0.07207
986.80 0.07204
986.90 0.07201
987.00 0.07198
987.10 0.07196
987.20 0.07193
987.30 0.0719
987.40 0.07187
987.50 0.07184
987.60 0.07181
987.70 0.07178
987.80 0.07175
987.90 0.07172
988.00 0.07169
988.10 0.07166
988.20 0.07163
988.30 0.0716
988.40 0.07157
988.50 0.07154
988.60 0.07151
988.70 0.07148
988.80 0.07146
988.90 0.07143
989.00 0.0714
989.10 0.07137
989.20 0.07134
989.30 0.07131
989.40 0.07128
989.50 0.07125
989.60 0.07122
989.70 0.07119
989.80 0.07116
989.90 0.07113
990.00 0.0711
990.10 0.07107
990.20 0.07104
990.30 0.07101
990.40 0.07098
990.50 0.07095
990.60 0.07092
990.70 0.07089
990.80 0.07086
990.90 0.07083
991.00 0.0708
991.10 0.07077
991.20 0.07074
991.30 0.07072
991.40 0.07069
991.50 0.07066
991.60 0.07063
991.70 0.0706
991.80 0.07057
991.90 0.07054
992.00 0.07051
992.10 0.07048
992.20 0.07045
992.30 0.07042
992.40 0.07039
992.50 0.07036
992.60 0.07033
992.70 0.0703
992.80 0.07027
992.90 0.07024
993.00 0.07021
993.10 0.07018
993.20 0.07015
993.30 0.07012
993.40 0.07009
993.50 0.07006
993.60 0.07003
993.70 0.07
993.80 0.06997
993.90 0.06994
994.00 0.06991
994.10 0.06988
994.20 0.06984
994.30 0.06981
994.40 0.06978
994.50 0.06975
994.60 0.06972
994.70 0.06969
994.80 0.06966
994.90 0.06963
995.00 0.0696
995.10 0.06957
995.20 0.06954
995.30 0.06951
995.40 0.06948
995.50 0.06945
995.60 0.06942
995.70 0.06939
995.80 0.06936
995.90 0.06933
996.00 0.06929
996.10 0.06926
996.20 0.06923
996.30 0.0692
996.40 0.06917
996.50 0.06914
996.60 0.06911
996.70 0.06908
996.80 0.06905
996.90 0.06902
997.00 0.06898
997.10 0.06895
997.20 0.06892
997.30 0.06889
997.40 0.06886
997.50 0.06883
997.60 0.0688
997.70 0.06877
997.80 0.06873
997.90 0.0687
998.00 0.06867
998.10 0.06864
998.20 0.06861
998.30 0.06857
998.40 0.06854
998.50 0.06851
998.60 0.06848
998.70 0.06845
998.80 0.06842
998.90 0.06838
999.00 0.06835
999.10 0.06832
999.20 0.06829
999.30 0.06826
999.40 0.06822
999.50 0.06819
999.60 0.06816
999.70 0.06813
999.80 0.0681
999.90 0.06806
1000.00 0.06803
1000.10 0.068
1000.20 0.06796
1000.30 0.06793
1000.40 0.0679
1000.50 0.06787
1000.60 0.06783
1000.70 0.0678
1000.80 0.06777
1000.90 0.06773
1001.00 0.0677
1001.10 0.06767
1001.20 0.06763
1001.30 0.0676
1001.40 0.06757
1001.50 0.06754
1001.60 0.0675
1001.70 0.06747
1001.80 0.06744
1001.90 0.06741
1002.00 0.06738
1002.10 0.06735
1002.20 0.06732
1002.30 0.06729
1002.40 0.06726
1002.50 0.06724
1002.60 0.06721
1002.70 0.06718
1002.80 0.06715
1002.90 0.06712
1003.00 0.06709
1003.10 0.06706
1003.20 0.06704
1003.30 0.06702
1003.40 0.06699
1003.50 0.06697
1003.60 0.06695
1003.70 0.06692
1003.80 0.0669
1003.90 0.06688
1004.00 0.06687
1004.10 0.06685
1004.20 0.06684
1004.30 0.06683
1004.40 0.06682
1004.50 0.06681
1004.60 0.06681
1004.70 0.0668
1004.80 0.06679
1004.90 0.06676
1005.00 0.06674
1005.10 0.0667
1005.20 0.06666
1005.30 0.06662
1005.40 0.06658
1005.50 0.06654
1005.60 0.0665
1005.70 0.06646
1005.80 0.06642
1005.90 0.06639
1006.00 0.06635
1006.10 0.06631
1006.20 0.06628
1006.30 0.06625
1006.40 0.06623
1006.50 0.0662
1006.60 0.06617
1006.70 0.06615
1006.80 0.06612
1006.90 0.06609
1007.00 0.06607
1007.10 0.06604
1007.20 0.06602
1007.30 0.066
1007.40 0.06598
1007.50 0.06595
1007.60 0.06593
1007.70 0.06591
1007.80 0.06589
1007.90 0.06587
1008.00 0.06585
1008.10 0.06583
1008.20 0.06581
1008.30 0.06579
1008.40 0.06577
1008.50 0.06575
1008.60 0.06573
1008.70 0.06571
1008.80 0.06569
1008.90 0.06567
1009.00 0.06565
1009.10 0.06563
1009.20 0.06561
1009.30 0.06559
1009.40 0.06557
1009.50 0.06555
1009.60 0.06553
1009.70 0.06551
1009.80 0.06549
1009.90 0.06547
1010.00 0.06545
1010.10 0.06543
1010.20 0.06541
1010.30 0.06539
1010.40 0.06537
1010.50 0.06535
1010.60 0.06533
1010.70 0.06531
1010.80 0.06529
1010.90 0.06527
1011.00 0.06525
1011.10 0.06523
1011.20 0.06521
1011.30 0.06519
1011.40 0.06517
1011.50 0.06515
1011.60 0.06513
1011.70 0.06511
1011.80 0.06508
1011.90 0.06506
1012.00 0.06504
1012.10 0.06502
1012.20 0.065
1012.30 0.06498
1012.40 0.06496
1012.50 0.06494
1012.60 0.06492
1012.70 0.0649
1012.80 0.06488
1012.90 0.06485
1013.00 0.06483
1013.10 0.06481
1013.20 0.06479
1013.30 0.06477
1013.40 0.06475
1013.50 0.06473
1013.60 0.06471
1013.70 0.06469
1013.80 0.06466
1013.90 0.06464
1014.00 0.06462
1014.10 0.0646
1014.20 0.06458
1014.30 0.06456
1014.40 0.06454
1014.50 0.06451
1014.60 0.06449
1014.70 0.06447
1014.80 0.06445
1014.90 0.06443
1015.00 0.0644
1015.10 0.06438
1015.20 0.06436
1015.30 0.06434
1015.40 0.06432
1015.50 0.06429
1015.60 0.06427
1015.70 0.06425
1015.80 0.06423
1015.90 0.06421
1016.00 0.06418
1016.10 0.06416
1016.20 0.06414
1016.30 0.06412
1016.40 0.0641
1016.50 0.06407
1016.60 0.06405
1016.70 0.06403
1016.80 0.06401
1016.90 0.06399
1017.00 0.06396
1017.10 0.06394
1017.20 0.06392
1017.30 0.0639
1017.40 0.06387
1017.50 0.06385
1017.60 0.06383
1017.70 0.06381
1017.80 0.06378
1017.90 0.06376
1018.00 0.06374
1018.10 0.06372
1018.20 0.06369
1018.30 0.06367
1018.40 0.06365
1018.50 0.06363
1018.60 0.0636
1018.70 0.06358
1018.80 0.06356
1018.90 0.06353
1019.00 0.06351
1019.10 0.06349
1019.20 0.06347
1019.30 0.06344
1019.40 0.06342
1019.50 0.0634
1019.60 0.06337
1019.70 0.06335
1019.80 0.06333
1019.90 0.06331
1020.00 0.06328
1020.10 0.06326
1020.20 0.06324
1020.30 0.06322
1020.40 0.06319
1020.50 0.06317
1020.60 0.06315
1020.70 0.06312
1020.80 0.0631
1020.90 0.06308
1021.00 0.06306
1021.10 0.06303
1021.20 0.06301
1021.30 0.06299
1021.40 0.06296
1021.50 0.06294
1021.60 0.06292
1021.70 0.06289
1021.80 0.06287
1021.90 0.06285
1022.00 0.06283
1022.10 0.0628
1022.20 0.06278
1022.30 0.06276
1022.40 0.06273
1022.50 0.06271
1022.60 0.06269
1022.70 0.06266
1022.80 0.06264
1022.90 0.06262
1023.00 0.0626
1023.10 0.06257
1023.20 0.06255
1023.30 0.06253
1023.40 0.0625
1023.50 0.06248
1023.60 0.06246
1023.70 0.06243
1023.80 0.06241
1023.90 0.06239
1024.00 0.06237
1024.10 0.06234
1024.20 0.06232
1024.30 0.0623
1024.40 0.06227
1024.50 0.06225
1024.60 0.06223
1024.70 0.0622
1024.80 0.06218
1024.90 0.06216
1025.00 0.06214
1025.10 0.06211
1025.20 0.06209
1025.30 0.06207
1025.40 0.06204
1025.50 0.06202
1025.60 0.062
1025.70 0.06197
1025.80 0.06195
1025.90 0.06193
1026.00 0.06191
1026.10 0.06188
1026.20 0.06186
1026.30 0.06184
1026.40 0.06181
1026.50 0.06179
1026.60 0.06177
1026.70 0.06174
1026.80 0.06172
1026.90 0.0617
1027.00 0.06168
1027.10 0.06165
1027.20 0.06163
1027.30 0.06161
1027.40 0.06158
1027.50 0.06156
1027.60 0.06154
1027.70 0.06151
1027.80 0.06149
1027.90 0.06147
1028.00 0.06145
1028.10 0.06142
1028.20 0.0614
1028.30 0.06138
1028.40 0.06135
1028.50 0.06133
1028.60 0.06131
1028.70 0.06129
1028.80 0.06126
1028.90 0.06124
1029.00 0.06122
1029.10 0.06119
1029.20 0.06117
1029.30 0.06115
1029.40 0.06113
1029.50 0.0611
1029.60 0.06108
1029.70 0.06106
1029.80 0.06103
1029.90 0.06101
1030.00 0.06099
1030.10 0.06097
1030.20 0.06094
1030.30 0.06092
1030.40 0.0609
1030.50 0.06088
1030.60 0.06085
1030.70 0.06083
1030.80 0.06081
1030.90 0.06078
1031.00 0.06076
1031.10 0.06074
1031.20 0.06072
1031.30 0.06069
1031.40 0.06067
1031.50 0.06065
1031.60 0.06063
1031.70 0.0606
1031.80 0.06058
1031.90 0.06056
1032.00 0.06054
1032.10 0.06051
1032.20 0.06049
1032.30 0.06047
1032.40 0.06044
1032.50 0.06042
1032.60 0.0604
1032.70 0.06038
1032.80 0.06035
1032.90 0.06033
1033.00 0.06031
1033.10 0.06029
1033.20 0.06026
1033.30 0.06024
1033.40 0.06022
1033.50 0.0602
1033.60 0.06017
1033.70 0.06015
1033.80 0.06013
1033.90 0.06011
1034.00 0.06008
1034.10 0.06006
1034.20 0.06004
1034.30 0.06002
1034.40 0.05999
1034.50 0.05997
1034.60 0.05995
1034.70 0.05993
1034.80 0.0599
1034.90 0.05988
1035.00 0.05986
1035.10 0.05984
1035.20 0.05981
1035.30 0.05979
1035.40 0.05977
1035.50 0.05975
1035.60 0.05973
1035.70 0.0597
1035.80 0.05968
1035.90 0.05966
1036.00 0.05964
1036.10 0.05961
1036.20 0.05959
1036.30 0.05957
1036.40 0.05955
1036.50 0.05952
1036.60 0.0595
1036.70 0.05948
1036.80 0.05946
1036.90 0.05944
1037.00 0.05941
1037.10 0.05939
1037.20 0.05937
1037.30 0.05935
1037.40 0.05932
1037.50 0.0593
1037.60 0.05928
1037.70 0.05926
1037.80 0.05924
1037.90 0.05921
1038.00 0.05919
1038.10 0.05917
1038.20 0.05915
1038.30 0.05913
1038.40 0.0591
1038.50 0.05908
1038.60 0.05906
1038.70 0.05904
1038.80 0.05901
1038.90 0.05899
1039.00 0.05897
1039.10 0.05895
1039.20 0.05893
1039.30 0.0589
1039.40 0.05888
1039.50 0.05886
1039.60 0.05884
1039.70 0.05882
1039.80 0.05879
1039.90 0.05877
1040.00 0.05875
1040.10 0.05873
1040.20 0.05871
1040.30 0.05868
1040.40 0.05866
1040.50 0.05864
1040.60 0.05862
1040.70 0.0586
1040.80 0.05858
1040.90 0.05855
1041.00 0.05853
1041.10 0.05851
1041.20 0.05849
1041.30 0.05847
1041.40 0.05844
1041.50 0.05842
1041.60 0.0584
1041.70 0.05838
1041.80 0.05836
1041.90 0.05833
1042.00 0.05831
1042.10 0.05829
1042.20 0.05827
1042.30 0.05825
1042.40 0.05823
1042.50 0.0582
1042.60 0.05818
1042.70 0.05816
1042.80 0.05814
1042.90 0.05812
1043.00 0.0581
1043.10 0.05807
1043.20 0.05805
1043.30 0.05803
1043.40 0.05801
1043.50 0.05799
1043.60 0.05797
1043.70 0.05794
1043.80 0.05792
1043.90 0.0579
1044.00 0.05788
1044.10 0.05786
1044.20 0.05784
1044.30 0.05781
1044.40 0.05779
1044.50 0.05777
1044.60 0.05775
1044.70 0.05773
1044.80 0.05771
1044.90 0.05769
1045.00 0.05766
1045.10 0.05764
1045.20 0.05762
1045.30 0.0576
1045.40 0.05758
1045.50 0.05756
1045.60 0.05754
1045.70 0.05751
1045.80 0.05749
1045.90 0.05747
1046.00 0.05745
1046.10 0.05743
1046.20 0.05741
1046.30 0.05738
1046.40 0.05736
1046.50 0.05734
1046.60 0.05732
1046.70 0.0573
1046.80 0.05728
1046.90 0.05726
1047.00 0.05724
1047.10 0.05721
1047.20 0.05719
1047.30 0.05717
1047.40 0.05715
1047.50 0.05713
1047.60 0.05711
1047.70 0.05709
1047.80 0.05707
1047.90 0.05704
1048.00 0.05702
1048.10 0.057
1048.20 0.05698
1048.30 0.05696
1048.40 0.05694
1048.50 0.05692
1048.60 0.0569
1048.70 0.05687
1048.80 0.05685
1048.90 0.05683
1049.00 0.05681
1049.10 0.05679
1049.20 0.05677
1049.30 0.05675
1049.40 0.05673
1049.50 0.05671
1049.60 0.05668
1049.70 0.05666
1049.80 0.05664
1049.90 0.05662
1050.00 0.0566
1050.10 0.05658
1050.20 0.05656
1050.30 0.05654
1050.40 0.05652
1050.50 0.05649
1050.60 0.05647
1050.70 0.05645
1050.80 0.05643
1050.90 0.05641
1051.00 0.05639
1051.10 0.05637
1051.20 0.05635
1051.30 0.05633
1051.40 0.05631
1051.50 0.05629
1051.60 0.05626
1051.70 0.05624
1051.80 0.05622
1051.90 0.0562
1052.00 0.05618
1052.10 0.05616
1052.20 0.05614
1052.30 0.05612
1052.40 0.0561
1052.50 0.05608
1052.60 0.05606
1052.70 0.05603
1052.80 0.05601
1052.90 0.05599
1053.00 0.05597
1053.10 0.05595
1053.20 0.05593
1053.30 0.05591
1053.40 0.05589
1053.50 0.05587
1053.60 0.05585
1053.70 0.05583
1053.80 0.05581
1053.90 0.05579
1054.00 0.05577
1054.10 0.05574
1054.20 0.05572
1054.30 0.0557
1054.40 0.05568
1054.50 0.05566
1054.60 0.05564
1054.70 0.05562
1054.80 0.0556
1054.90 0.05558
1055.00 0.05556
1055.10 0.05554
1055.20 0.05552
1055.30 0.0555
1055.40 0.05548
1055.50 0.05546
1055.60 0.05544
1055.70 0.05541
1055.80 0.05539
1055.90 0.05537
1056.00 0.05535
1056.10 0.05533
1056.20 0.05531
1056.30 0.05529
1056.40 0.05527
1056.50 0.05525
1056.60 0.05523
1056.70 0.05521
1056.80 0.05519
1056.90 0.05517
1057.00 0.05515
1057.10 0.05513
1057.20 0.05511
1057.30 0.05509
1057.40 0.05507
1057.50 0.05505
1057.60 0.05503
1057.70 0.05501
1057.80 0.05498
1057.90 0.05496
1058.00 0.05494
1058.10 0.05492
1058.20 0.0549
1058.30 0.05488
1058.40 0.05486
1058.50 0.05484
1058.60 0.05482
1058.70 0.0548
1058.80 0.05478
1058.90 0.05476
1059.00 0.05474
1059.10 0.05472
1059.20 0.0547
1059.30 0.05468
1059.40 0.05466
1059.50 0.05464
1059.60 0.05462
1059.70 0.0546
1059.80 0.05458
1059.90 0.05456
1060.00 0.05454
1060.10 0.05452
1060.20 0.0545
1060.30 0.05448
1060.40 0.05446
1060.50 0.05444
1060.60 0.05442
1060.70 0.0544
1060.80 0.05438
1060.90 0.05436
1061.00 0.05434
1061.10 0.05432
1061.20 0.0543
1061.30 0.05428
1061.40 0.05426
1061.50 0.05424
1061.60 0.05422
1061.70 0.0542
1061.80 0.05418
1061.90 0.05416
1062.00 0.05414
1062.10 0.05412
1062.20 0.0541
1062.30 0.05408
1062.40 0.05406
1062.50 0.05404
1062.60 0.05402
1062.70 0.054
1062.80 0.05398
1062.90 0.05396
1063.00 0.05394
1063.10 0.05392
1063.20 0.0539
1063.30 0.05388
1063.40 0.05386
1063.50 0.05384
1063.60 0.05382
1063.70 0.0538
1063.80 0.05378
1063.90 0.05376
1064.00 0.05374
1064.10 0.05372
1064.20 0.0537
1064.30 0.05368
1064.40 0.05366
1064.50 0.05364
1064.60 0.05362
1064.70 0.0536
1064.80 0.05358
1064.90 0.05356
1065.00 0.05354
1065.10 0.05352
1065.20 0.0535
1065.30 0.05348
1065.40 0.05346
1065.50 0.05344
1065.60 0.05342
1065.70 0.0534
1065.80 0.05338
1065.90 0.05336
1066.00 0.05334
1066.10 0.05332
1066.20 0.0533
1066.30 0.05328
1066.40 0.05326
1066.50 0.05324
1066.60 0.05322
1066.70 0.0532
1066.80 0.05318
1066.90 0.05316
1067.00 0.05314
1067.10 0.05312
1067.20 0.0531
1067.30 0.05308
1067.40 0.05306
1067.50 0.05304
1067.60 0.05303
1067.70 0.05301
1067.80 0.05299
1067.90 0.05297
1068.00 0.05295
1068.10 0.05293
1068.20 0.05291
1068.30 0.05289
1068.40 0.05287
1068.50 0.05285
1068.60 0.05283
1068.70 0.05281
1068.80 0.05279
1068.90 0.05277
1069.00 0.05275
1069.10 0.05273
1069.20 0.05271
1069.30 0.05269
1069.40 0.05267
1069.50 0.05265
1069.60 0.05263
1069.70 0.05261
1069.80 0.05259
1069.90 0.05257
1070.00 0.05255
1070.10 0.05253
1070.20 0.05251
1070.30 0.0525
1070.40 0.05248
1070.50 0.05246
1070.60 0.05244
1070.70 0.05242
1070.80 0.0524
1070.90 0.05238
1071.00 0.05236
1071.10 0.05234
1071.20 0.05232
1071.30 0.0523
1071.40 0.05228
1071.50 0.05226
1071.60 0.05224
1071.70 0.05222
1071.80 0.0522
1071.90 0.05218
1072.00 0.05216
1072.10 0.05214
1072.20 0.05213
1072.30 0.05211
1072.40 0.05209
1072.50 0.05207
1072.60 0.05205
1072.70 0.05203
1072.80 0.05201
1072.90 0.05199
1073.00 0.05197
1073.10 0.05195
1073.20 0.05193
1073.30 0.05191
1073.40 0.05189
1073.50 0.05187
1073.60 0.05185
1073.70 0.05183
1073.80 0.05181
1073.90 0.05179
1074.00 0.05177
1074.10 0.05175
1074.20 0.05173
1074.30 0.05172
1074.40 0.0517
1074.50 0.05168
1074.60 0.05166
1074.70 0.05164
1074.80 0.05162
1074.90 0.0516
1075.00 0.05158
1075.10 0.05156
1075.20 0.05154
1075.30 0.05152
1075.40 0.0515
1075.50 0.05148
1075.60 0.05146
1075.70 0.05144
1075.80 0.05142
1075.90 0.0514
1076.00 0.05138
1076.10 0.05136
1076.20 0.05134
1076.30 0.05132
1076.40 0.05131
1076.50 0.05129
1076.60 0.05127
1076.70 0.05125
1076.80 0.05123
1076.90 0.05121
1077.00 0.05119
1077.10 0.05117
1077.20 0.05115
1077.30 0.05113
1077.40 0.05111
1077.50 0.05109
1077.60 0.05107
1077.70 0.05105
1077.80 0.05103
1077.90 0.05101
1078.00 0.05099
1078.10 0.05097
1078.20 0.05095
1078.30 0.05093
1078.40 0.05091
1078.50 0.05089
1078.60 0.05087
1078.70 0.05085
1078.80 0.05083
1078.90 0.05081
1079.00 0.05079
1079.10 0.05077
1079.20 0.05075
1079.30 0.05073
1079.40 0.05071
1079.50 0.05069
1079.60 0.05067
1079.70 0.05065
1079.80 0.05063
1079.90 0.05061
1080.00 0.05059
1080.10 0.05057
1080.20 0.05055
1080.30 0.05053
1080.40 0.05051
1080.50 0.05049
1080.60 0.05047
1080.70 0.05045
1080.80 0.05043
1080.90 0.05041
1081.00 0.05039
1081.10 0.05037
1081.20 0.05035
1081.30 0.05033
1081.40 0.05031
1081.50 0.05029
1081.60 0.05027
1081.70 0.05025
1081.80 0.05023
1081.90 0.05021
1082.00 0.05019
1082.10 0.05017
1082.20 0.05015
1082.30 0.05013
1082.40 0.05011
1082.50 0.05009
1082.60 0.05006
1082.70 0.05004
1082.80 0.05002
1082.90 0.05
1083.00 0.04998
1083.10 0.04996
1083.20 0.04994
1083.30 0.04992
1083.40 0.0499
1083.50 0.04988
1083.60 0.04986
1083.70 0.04983
1083.80 0.04981
1083.90 0.04979
1084.00 0.04977
1084.10 0.04975
1084.20 0.04973
1084.30 0.04971
1084.40 0.04968
1084.50 0.04966
1084.60 0.04964
1084.70 0.04962
1084.80 0.0496
1084.90 0.04957
1085.00 0.04955
1085.10 0.04953
1085.20 0.04951
1085.30 0.04948
1085.40 0.04946
1085.50 0.04944
1085.60 0.04942
1085.70 0.0494
1085.80 0.04937
1085.90 0.04935
1086.00 0.04933
1086.10 0.04931
1086.20 0.04928
1086.30 0.04926
1086.40 0.04924
1086.50 0.04922
1086.60 0.04919
1086.70 0.04917
1086.80 0.04915
1086.90 0.04913
1087.00 0.0491
1087.10 0.04908
1087.20 0.04905
1087.30 0.04903
1087.40 0.04901
1087.50 0.04898
1087.60 0.04896
1087.70 0.04894
1087.80 0.04891
1087.90 0.04889
1088.00 0.04887
1088.10 0.04884
1088.20 0.04882
1088.30 0.04879
1088.40 0.04877
1088.50 0.04875
1088.60 0.04872
1088.70 0.0487
1088.80 0.04867
1088.90 0.04865
1089.00 0.04863
1089.10 0.0486
1089.20 0.04858
1089.30 0.04855
1089.40 0.04853
1089.50 0.04851
1089.60 0.04848
1089.70 0.04846
1089.80 0.04843
1089.90 0.04841
1090.00 0.04839
1090.10 0.04836
1090.20 0.04834
1090.30 0.04831
1090.40 0.04829
1090.50 0.04827
1090.60 0.04825
1090.70 0.04823
1090.80 0.0482
1090.90 0.04818
1091.00 0.04816
1091.10 0.04814
1091.20 0.04812
1091.30 0.0481
1091.40 0.04808
1091.50 0.04806
1091.60 0.04804
1091.70 0.04802
1091.80 0.04799
1091.90 0.04797
1092.00 0.04795
1092.10 0.04794
1092.20 0.04793
1092.30 0.04791
1092.40 0.0479
1092.50 0.04789
1092.60 0.04787
1092.70 0.04786
1092.80 0.04785
1092.90 0.04785
1093.00 0.04784
1093.10 0.04783
1093.20 0.04783
1093.30 0.04783
1093.40 0.04783
1093.50 0.04785
1093.60 0.04788
1093.70 0.04791
1093.80 0.04792
1093.90 0.04791
1094.00 0.04785
1094.10 0.04778
1094.20 0.04772
1094.30 0.04767
1094.40 0.04764
1094.50 0.04761
1094.60 0.04758
1094.70 0.04755
1094.80 0.04752
1094.90 0.04749
1095.00 0.04747
1095.10 0.04745
1095.20 0.04743
1095.30 0.04742
1095.40 0.0474
1095.50 0.04738
1095.60 0.04737
1095.70 0.04735
1095.80 0.04734
1095.90 0.04732
1096.00 0.0473
1096.10 0.04729
1096.20 0.04727
1096.30 0.04725
1096.40 0.04724
1096.50 0.04722
1096.60 0.04721
1096.70 0.0472
1096.80 0.04719
1096.90 0.04717
1097.00 0.04716
1097.10 0.04715
1097.20 0.04714
1097.30 0.04713
1097.40 0.04712
1097.50 0.04711
1097.60 0.0471
1097.70 0.04709
1097.80 0.04708
1097.90 0.04707
1098.00 0.04706
1098.10 0.04705
1098.20 0.04704
1098.30 0.04703
1098.40 0.04702
1098.50 0.04701
1098.60 0.047
1098.70 0.04699
1098.80 0.04698
1098.90 0.04697
1099.00 0.04696
1099.10 0.04695
1099.20 0.04694
1099.30 0.04693
1099.40 0.04692
1099.50 0.04691
1099.60 0.0469
1099.70 0.04689
1099.80 0.04688
1099.90 0.04687
1100.00 0.04685
1100.10 0.04684
1100.20 0.04683
1100.30 0.04682
1100.40 0.04681
1100.50 0.0468
1100.60 0.04679
1100.70 0.04678
1100.80 0.04677
1100.90 0.04676
1101.00 0.04674
1101.10 0.04673
1101.20 0.04672
1101.30 0.04671
1101.40 0.0467
1101.50 0.04669
1101.60 0.04667
1101.70 0.04666
1101.80 0.04665
1101.90 0.04664
1102.00 0.04663
1102.10 0.04662
1102.20 0.0466
1102.30 0.04659
1102.40 0.04658
1102.50 0.04657
1102.60 0.04655
1102.70 0.04654
1102.80 0.04653
1102.90 0.04651
1103.00 0.0465
1103.10 0.04649
1103.20 0.04648
1103.30 0.04646
1103.40 0.04645
1103.50 0.04644
1103.60 0.04642
1103.70 0.04641
1103.80 0.0464
1103.90 0.04638
1104.00 0.04637
1104.10 0.04635
1104.20 0.04634
1104.30 0.04633
1104.40 0.04631
1104.50 0.0463
1104.60 0.04629
1104.70 0.04627
1104.80 0.04626
1104.90 0.04625
1105.00 0.04623
1105.10 0.04622
1105.20 0.04621
1105.30 0.04619
1105.40 0.04618
1105.50 0.04616
1105.60 0.04615
1105.70 0.04614
1105.80 0.04612
1105.90 0.04611
1106.00 0.04609
1106.10 0.04608
1106.20 0.04606
1106.30 0.04605
1106.40 0.04604
1106.50 0.04602
1106.60 0.04601
1106.70 0.04599
1106.80 0.04598
1106.90 0.04596
1107.00 0.04595
1107.10 0.04594
1107.20 0.04592
1107.30 0.04591
1107.40 0.04589
1107.50 0.04588
1107.60 0.04586
1107.70 0.04585
1107.80 0.04583
1107.90 0.04582
1108.00 0.0458
1108.10 0.04579
1108.20 0.04577
1108.30 0.04576
1108.40 0.04574
1108.50 0.04573
1108.60 0.04571
1108.70 0.0457
1108.80 0.04568
1108.90 0.04567
1109.00 0.04565
1109.10 0.04564
1109.20 0.04563
1109.30 0.04561
1109.40 0.0456
1109.50 0.04558
1109.60 0.04557
1109.70 0.04555
1109.80 0.04554
1109.90 0.04552
1110.00 0.04551
1110.10 0.04549
1110.20 0.04547
1110.30 0.04546
1110.40 0.04544
1110.50 0.04543
1110.60 0.04541
1110.70 0.0454
1110.80 0.04538
1110.90 0.04537
1111.00 0.04535
1111.10 0.04534
1111.20 0.04532
1111.30 0.04531
1111.40 0.04529
1111.50 0.04528
1111.60 0.04526
1111.70 0.04525
1111.80 0.04523
1111.90 0.04522
1112.00 0.0452
1112.10 0.04519
1112.20 0.04517
1112.30 0.04516
1112.40 0.04514
1112.50 0.04513
1112.60 0.04511
1112.70 0.0451
1112.80 0.04508
1112.90 0.04507
1113.00 0.04505
1113.10 0.04504
1113.20 0.04502
1113.30 0.04501
1113.40 0.04499
1113.50 0.04498
1113.60 0.04496
1113.70 0.04494
1113.80 0.04493
1113.90 0.04491
1114.00 0.0449
1114.10 0.04488
1114.20 0.04487
1114.30 0.04485
1114.40 0.04484
1114.50 0.04482
1114.60 0.04481
1114.70 0.04479
1114.80 0.04478
1114.90 0.04476
1115.00 0.04475
1115.10 0.04473
1115.20 0.04472
1115.30 0.0447
1115.40 0.04469
1115.50 0.04467
1115.60 0.04466
1115.70 0.04464
1115.80 0.04462
1115.90 0.04461
1116.00 0.04459
1116.10 0.04458
1116.20 0.04456
1116.30 0.04455
1116.40 0.04453
1116.50 0.04452
1116.60 0.0445
1116.70 0.04449
1116.80 0.04447
1116.90 0.04446
1117.00 0.04444
1117.10 0.04443
1117.20 0.04441
1117.30 0.0444
1117.40 0.04438
1117.50 0.04437
1117.60 0.04435
1117.70 0.04434
1117.80 0.04432
1117.90 0.04431
1118.00 0.04429
1118.10 0.04427
1118.20 0.04426
1118.30 0.04424
1118.40 0.04423
1118.50 0.04421
1118.60 0.0442
1118.70 0.04418
1118.80 0.04417
1118.90 0.04415
1119.00 0.04414
1119.10 0.04412
1119.20 0.04411
1119.30 0.04409
1119.40 0.04408
1119.50 0.04406
1119.60 0.04405
1119.70 0.04403
1119.80 0.04402
1119.90 0.044
1120.00 0.04399
1120.10 0.04397
1120.20 0.04396
1120.30 0.04394
1120.40 0.04393
1120.50 0.04391
1120.60 0.0439
1120.70 0.04388
1120.80 0.04387
1120.90 0.04385
1121.00 0.04384
1121.10 0.04382
1121.20 0.04381
1121.30 0.04379
1121.40 0.04378
1121.50 0.04376
1121.60 0.04375
1121.70 0.04373
1121.80 0.04372
1121.90 0.0437
1122.00 0.04369
1122.10 0.04367
1122.20 0.04366
1122.30 0.04364
1122.40 0.04363
1122.50 0.04361
1122.60 0.0436
1122.70 0.04358
1122.80 0.04357
1122.90 0.04355
1123.00 0.04354
1123.10 0.04352
1123.20 0.04351
1123.30 0.04349
1123.40 0.04348
1123.50 0.04346
1123.60 0.04345
1123.70 0.04343
1123.80 0.04342
1123.90 0.0434
1124.00 0.04339
1124.10 0.04337
1124.20 0.04336
1124.30 0.04334
1124.40 0.04333
1124.50 0.04331
1124.60 0.0433
1124.70 0.04328
1124.80 0.04327
1124.90 0.04325
1125.00 0.04324
1125.10 0.04322
1125.20 0.04321
1125.30 0.04319
1125.40 0.04318
1125.50 0.04316
1125.60 0.04315
1125.70 0.04313
1125.80 0.04312
1125.90 0.0431
1126.00 0.04309
1126.10 0.04307
1126.20 0.04306
1126.30 0.04304
1126.40 0.04303
1126.50 0.04301
1126.60 0.043
1126.70 0.04298
1126.80 0.04297
1126.90 0.04295
1127.00 0.04294
1127.10 0.04292
1127.20 0.04291
1127.30 0.0429
1127.40 0.04288
1127.50 0.04287
1127.60 0.04285
1127.70 0.04284
1127.80 0.04282
1127.90 0.04281
1128.00 0.04279
1128.10 0.04278
1128.20 0.04276
1128.30 0.04275
1128.40 0.04273
1128.50 0.04272
1128.60 0.0427
1128.70 0.04269
1128.80 0.04267
1128.90 0.04266
1129.00 0.04264
1129.10 0.04263
1129.20 0.04262
1129.30 0.0426
1129.40 0.04259
1129.50 0.04257
1129.60 0.04256
1129.70 0.04254
1129.80 0.04253
1129.90 0.04251
1130.00 0.0425
1130.10 0.04248
1130.20 0.04247
1130.30 0.04245
1130.40 0.04244
1130.50 0.04243
1130.60 0.04241
1130.70 0.0424
1130.80 0.04238
1130.90 0.04237
1131.00 0.04235
1131.10 0.04234
1131.20 0.04232
1131.30 0.04231
1131.40 0.04229
1131.50 0.04228
1131.60 0.04227
1131.70 0.04225
1131.80 0.04224
1131.90 0.04222
1132.00 0.04221
1132.10 0.04219
1132.20 0.04218
1132.30 0.04216
1132.40 0.04215
1132.50 0.04213
1132.60 0.04212
1132.70 0.04211
1132.80 0.04209
1132.90 0.04208
1133.00 0.04206
1133.10 0.04205
1133.20 0.04203
1133.30 0.04202
1133.40 0.042
1133.50 0.04199
1133.60 0.04198
1133.70 0.04196
1133.80 0.04195
1133.90 0.04193
1134.00 0.04192
1134.10 0.0419
1134.20 0.04189
1134.30 0.04188
1134.40 0.04186
1134.50 0.04185
1134.60 0.04183
1134.70 0.04182
1134.80 0.0418
1134.90 0.04179
1135.00 0.04177
1135.10 0.04176
1135.20 0.04175
1135.30 0.04173
1135.40 0.04172
1135.50 0.0417
1135.60 0.04169
1135.70 0.04167
1135.80 0.04166
1135.90 0.04165
1136.00 0.04163
1136.10 0.04162
1136.20 0.0416
1136.30 0.04159
1136.40 0.04157
1136.50 0.04156
1136.60 0.04155
1136.70 0.04153
1136.80 0.04152
1136.90 0.0415
1137.00 0.04149
1137.10 0.04147
1137.20 0.04146
1137.30 0.04145
1137.40 0.04143
1137.50 0.04142
1137.60 0.0414
1137.70 0.04139
1137.80 0.04138
1137.90 0.04136
1138.00 0.04135
1138.10 0.04133
1138.20 0.04132
1138.30 0.0413
1138.40 0.04129
1138.50 0.04128
1138.60 0.04126
1138.70 0.04125
1138.80 0.04123
1138.90 0.04122
1139.00 0.04121
1139.10 0.04119
1139.20 0.04118
1139.30 0.04116
1139.40 0.04115
1139.50 0.04114
1139.60 0.04112
1139.70 0.04111
1139.80 0.04109
1139.90 0.04108
1140.00 0.04107
1140.10 0.04105
1140.20 0.04104
1140.30 0.04102
1140.40 0.04101
1140.50 0.04099
1140.60 0.04098
1140.70 0.04097
1140.80 0.04095
1140.90 0.04094
1141.00 0.04092
1141.10 0.04091
1141.20 0.0409
1141.30 0.04088
1141.40 0.04087
1141.50 0.04085
1141.60 0.04084
1141.70 0.04083
1141.80 0.04081
1141.90 0.0408
1142.00 0.04078
1142.10 0.04077
1142.20 0.04076
1142.30 0.04074
1142.40 0.04073
1142.50 0.04072
1142.60 0.0407
1142.70 0.04069
1142.80 0.04067
1142.90 0.04066
1143.00 0.04065
1143.10 0.04063
1143.20 0.04062
1143.30 0.0406
1143.40 0.04059
1143.50 0.04058
1143.60 0.04056
1143.70 0.04055
1143.80 0.04054
1143.90 0.04052
1144.00 0.04051
1144.10 0.04049
1144.20 0.04048
1144.30 0.04047
1144.40 0.04045
1144.50 0.04044
1144.60 0.04043
1144.70 0.04041
1144.80 0.0404
1144.90 0.04038
1145.00 0.04037
1145.10 0.04036
1145.20 0.04034
1145.30 0.04033
1145.40 0.04031
1145.50 0.0403
1145.60 0.04029
1145.70 0.04027
1145.80 0.04026
1145.90 0.04025
1146.00 0.04023
1146.10 0.04022
1146.20 0.04021
1146.30 0.04019
1146.40 0.04018
1146.50 0.04016
1146.60 0.04015
1146.70 0.04014
1146.80 0.04012
1146.90 0.04011
1147.00 0.0401
1147.10 0.04008
1147.20 0.04007
1147.30 0.04005
1147.40 0.04004
1147.50 0.04003
1147.60 0.04001
1147.70 0.04
1147.80 0.03999
1147.90 0.03997
1148.00 0.03996
1148.10 0.03995
1148.20 0.03993
1148.30 0.03992
1148.40 0.03991
1148.50 0.03989
1148.60 0.03988
1148.70 0.03986
1148.80 0.03985
1148.90 0.03984
1149.00 0.03982
1149.10 0.03981
1149.20 0.0398
1149.30 0.03978
1149.40 0.03977
1149.50 0.03976
1149.60 0.03974
1149.70 0.03973
1149.80 0.03972
1149.90 0.0397
1150.00 0.03969
1150.10 0.03968
1150.20 0.03966
1150.30 0.03965
1150.40 0.03964
1150.50 0.03962
1150.60 0.03961
1150.70 0.03959
1150.80 0.03958
1150.90 0.03957
1151.00 0.03955
1151.10 0.03954
1151.20 0.03953
1151.30 0.03951
1151.40 0.0395
1151.50 0.03949
1151.60 0.03947
1151.70 0.03946
1151.80 0.03945
1151.90 0.03943
1152.00 0.03942
1152.10 0.03941
1152.20 0.03939
1152.30 0.03938
1152.40 0.03937
1152.50 0.03935
1152.60 0.03934
1152.70 0.03933
1152.80 0.03931
1152.90 0.0393
1153.00 0.03929
1153.10 0.03927
1153.20 0.03926
1153.30 0.03925
1153.40 0.03923
1153.50 0.03922
1153.60 0.03921
1153.70 0.03919
1153.80 0.03918
1153.90 0.03917
1154.00 0.03915
1154.10 0.03914
1154.20 0.03913
1154.30 0.03912
1154.40 0.0391
1154.50 0.03909
1154.60 0.03908
1154.70 0.03906
1154.80 0.03905
1154.90 0.03904
1155.00 0.03902
1155.10 0.03901
1155.20 0.039
1155.30 0.03898
1155.40 0.03897
1155.50 0.03896
1155.60 0.03894
1155.70 0.03893
1155.80 0.03892
1155.90 0.0389
1156.00 0.03889
1156.10 0.03888
1156.20 0.03886
1156.30 0.03885
1156.40 0.03884
1156.50 0.03883
1156.60 0.03881
1156.70 0.0388
1156.80 0.03879
1156.90 0.03877
1157.00 0.03876
1157.10 0.03875
1157.20 0.03873
1157.30 0.03872
1157.40 0.03871
1157.50 0.03869
1157.60 0.03868
1157.70 0.03867
1157.80 0.03866
1157.90 0.03864
1158.00 0.03863
1158.10 0.03862
1158.20 0.0386
1158.30 0.03859
1158.40 0.03858
1158.50 0.03856
1158.60 0.03855
1158.70 0.03854
1158.80 0.03853
1158.90 0.03851
1159.00 0.0385
1159.10 0.03849
1159.20 0.03847
1159.30 0.03846
1159.40 0.03845
1159.50 0.03843
1159.60 0.03842
1159.70 0.03841
1159.80 0.0384
1159.90 0.03838
1160.00 0.03837
1160.10 0.03836
1160.20 0.03834
1160.30 0.03833
1160.40 0.03832
1160.50 0.03831
1160.60 0.03829
1160.70 0.03828
1160.80 0.03827
1160.90 0.03825
1161.00 0.03824
1161.10 0.03823
1161.20 0.03822
1161.30 0.0382
1161.40 0.03819
1161.50 0.03818
1161.60 0.03816
1161.70 0.03815
1161.80 0.03814
1161.90 0.03812
1162.00 0.03811
1162.10 0.0381
1162.20 0.03809
1162.30 0.03807
1162.40 0.03806
1162.50 0.03805
1162.60 0.03804
1162.70 0.03802
1162.80 0.03801
1162.90 0.038
1163.00 0.03798
1163.10 0.03797
1163.20 0.03796
1163.30 0.03795
1163.40 0.03793
1163.50 0.03792
1163.60 0.03791
1163.70 0.0379
1163.80 0.03788
1163.90 0.03787
1164.00 0.03786
1164.10 0.03784
1164.20 0.03783
1164.30 0.03782
1164.40 0.03781
1164.50 0.03779
1164.60 0.03778
1164.70 0.03777
1164.80 0.03776
1164.90 0.03774
1165.00 0.03773
1165.10 0.03772
1165.20 0.03771
1165.30 0.03769
1165.40 0.03768
1165.50 0.03767
1165.60 0.03765
1165.70 0.03764
1165.80 0.03763
1165.90 0.03762
1166.00 0.0376
1166.10 0.03759
1166.20 0.03758
1166.30 0.03757
1166.40 0.03755
1166.50 0.03754
1166.60 0.03753
1166.70 0.03752
1166.80 0.0375
1166.90 0.03749
1167.00 0.03748
1167.10 0.03747
1167.20 0.03745
1167.30 0.03744
1167.40 0.03743
1167.50 0.03742
1167.60 0.0374
1167.70 0.03739
1167.80 0.03738
1167.90 0.03737
1168.00 0.03735
1168.10 0.03734
1168.20 0.03733
1168.30 0.03732
1168.40 0.0373
1168.50 0.03729
1168.60 0.03728
1168.70 0.03727
1168.80 0.03725
1168.90 0.03724
1169.00 0.03723
1169.10 0.03722
1169.20 0.0372
1169.30 0.03719
1169.40 0.03718
1169.50 0.03717
1169.60 0.03715
1169.70 0.03714
1169.80 0.03713
1169.90 0.03712
1170.00 0.0371
1170.10 0.03709
1170.20 0.03708
1170.30 0.03707
1170.40 0.03705
1170.50 0.03704
1170.60 0.03703
1170.70 0.03702
1170.80 0.03701
1170.90 0.03699
1171.00 0.03698
1171.10 0.03697
1171.20 0.03696
1171.30 0.03694
1171.40 0.03693
1171.50 0.03692
1171.60 0.03691
1171.70 0.03689
1171.80 0.03688
1171.90 0.03687
1172.00 0.03686
1172.10 0.03685
1172.20 0.03683
1172.30 0.03682
1172.40 0.03681
1172.50 0.0368
1172.60 0.03678
1172.70 0.03677
1172.80 0.03676
1172.90 0.03675
1173.00 0.03673
1173.10 0.03672
1173.20 0.03671
1173.30 0.0367
1173.40 0.03669
1173.50 0.03667
1173.60 0.03666
1173.70 0.03665
1173.80 0.03664
1173.90 0.03663
1174.00 0.03661
1174.10 0.0366
1174.20 0.03659
1174.30 0.03658
1174.40 0.03656
1174.50 0.03655
1174.60 0.03654
1174.70 0.03653
1174.80 0.03652
1174.90 0.0365
1175.00 0.03649
1175.10 0.03648
1175.20 0.03647
1175.30 0.03645
1175.40 0.03644
1175.50 0.03643
1175.60 0.03642
1175.70 0.03641
1175.80 0.03639
1175.90 0.03638
1176.00 0.03637
1176.10 0.03636
1176.20 0.03635
1176.30 0.03633
1176.40 0.03632
1176.50 0.03631
1176.60 0.0363
1176.70 0.03629
1176.80 0.03627
1176.90 0.03626
1177.00 0.03625
1177.10 0.03624
1177.20 0.03623
1177.30 0.03621
1177.40 0.0362
1177.50 0.03619
1177.60 0.03618
1177.70 0.03617
1177.80 0.03615
1177.90 0.03614
1178.00 0.03613
1178.10 0.03612
1178.20 0.03611
1178.30 0.03609
1178.40 0.03608
1178.50 0.03607
1178.60 0.03606
1178.70 0.03605
1178.80 0.03603
1178.90 0.03602
1179.00 0.03601
1179.10 0.036
1179.20 0.03599
1179.30 0.03597
1179.40 0.03596
1179.50 0.03595
1179.60 0.03594
1179.70 0.03593
1179.80 0.03591
1179.90 0.0359
1180.00 0.03589
1180.10 0.03588
1180.20 0.03587
1180.30 0.03586
1180.40 0.03584
1180.50 0.03583
1180.60 0.03582
1180.70 0.03581
1180.80 0.0358
1180.90 0.03578
1181.00 0.03577
1181.10 0.03576
1181.20 0.03575
1181.30 0.03574
1181.40 0.03572
1181.50 0.03571
1181.60 0.0357
1181.70 0.03569
1181.80 0.03568
1181.90 0.03567
1182.00 0.03565
1182.10 0.03564
1182.20 0.03563
1182.30 0.03562
1182.40 0.03561
1182.50 0.0356
1182.60 0.03558
1182.70 0.03557
1182.80 0.03556
1182.90 0.03555
1183.00 0.03554
1183.10 0.03552
1183.20 0.03551
1183.30 0.0355
1183.40 0.03549
1183.50 0.03548
1183.60 0.03547
1183.70 0.03545
1183.80 0.03544
1183.90 0.03543
1184.00 0.03542
1184.10 0.03541
1184.20 0.0354
1184.30 0.03538
1184.40 0.03537
1184.50 0.03536
1184.60 0.03535
1184.70 0.03534
1184.80 0.03533
1184.90 0.03531
1185.00 0.0353
1185.10 0.03529
1185.20 0.03528
1185.30 0.03527
1185.40 0.03526
1185.50 0.03524
1185.60 0.03523
1185.70 0.03522
1185.80 0.03521
1185.90 0.0352
1186.00 0.03519
1186.10 0.03517
1186.20 0.03516
1186.30 0.03515
1186.40 0.03514
1186.50 0.03513
1186.60 0.03512
1186.70 0.03511
1186.80 0.03509
1186.90 0.03508
1187.00 0.03507
1187.10 0.03506
1187.20 0.03505
1187.30 0.03504
1187.40 0.03502
1187.50 0.03501
1187.60 0.035
1187.70 0.03499
1187.80 0.03498
1187.90 0.03497
1188.00 0.03496
1188.10 0.03494
1188.20 0.03493
1188.30 0.03492
1188.40 0.03491
1188.50 0.0349
1188.60 0.03489
1188.70 0.03488
1188.80 0.03486
1188.90 0.03485
1189.00 0.03484
1189.10 0.03483
1189.20 0.03482
1189.30 0.03481
1189.40 0.0348
1189.50 0.03478
1189.60 0.03477
1189.70 0.03476
1189.80 0.03475
1189.90 0.03474
1190.00 0.03473
1190.10 0.03472
1190.20 0.0347
1190.30 0.03469
1190.40 0.03468
1190.50 0.03467
1190.60 0.03466
1190.70 0.03465
1190.80 0.03464
1190.90 0.03462
1191.00 0.03461
1191.10 0.0346
1191.20 0.03459
1191.30 0.03458
1191.40 0.03457
1191.50 0.03456
1191.60 0.03454
1191.70 0.03453
1191.80 0.03452
1191.90 0.03451
1192.00 0.0345
1192.10 0.03449
1192.20 0.03448
1192.30 0.03447
1192.40 0.03445
1192.50 0.03444
1192.60 0.03443
1192.70 0.03442
1192.80 0.03441
1192.90 0.0344
1193.00 0.03439
1193.10 0.03438
1193.20 0.03436
1193.30 0.03435
1193.40 0.03434
1193.50 0.03433
1193.60 0.03432
1193.70 0.03431
1193.80 0.0343
1193.90 0.03429
1194.00 0.03427
1194.10 0.03426
1194.20 0.03425
1194.30 0.03424
1194.40 0.03423
1194.50 0.03422
1194.60 0.03421
1194.70 0.0342
1194.80 0.03418
1194.90 0.03417
1195.00 0.03416
1195.10 0.03415
1195.20 0.03414
1195.30 0.03413
1195.40 0.03412
1195.50 0.03411
1195.60 0.03409
1195.70 0.03408
1195.80 0.03407
1195.90 0.03406
1196.00 0.03405
1196.10 0.03404
1196.20 0.03403
1196.30 0.03402
1196.40 0.03401
1196.50 0.03399
1196.60 0.03398
1196.70 0.03397
1196.80 0.03396
1196.90 0.03395
1197.00 0.03394
1197.10 0.03393
1197.20 0.03392
1197.30 0.03391
1197.40 0.03389
1197.50 0.03388
1197.60 0.03387
1197.70 0.03386
1197.80 0.03385
1197.90 0.03384
1198.00 0.03383
1198.10 0.03382
1198.20 0.03381
1198.30 0.0338
1198.40 0.03378
1198.50 0.03377
1198.60 0.03376
1198.70 0.03375
1198.80 0.03374
1198.90 0.03373
1199.00 0.03372
1199.10 0.03371
1199.20 0.0337
1199.30 0.03369
1199.40 0.03367
1199.50 0.03366
1199.60 0.03365
1199.70 0.03364
1199.80 0.03363
1199.90 0.03362
1200.00 0
