# Version 2.1 - nm, norm@500 to 1, cut digits, bergeron_40000_80.dat_40000
# Wavelength(nm)  Flambda(ergs/cm^s/s/nm)
300.00 5.846
300.10 5.839
300.20 5.833
300.30 5.826
300.40 5.819
300.50 5.812
300.60 5.805
300.70 5.798
300.80 5.791
300.90 5.785
301.00 5.778
301.10 5.771
301.20 5.764
301.30 5.757
301.40 5.751
301.50 5.744
301.60 5.737
301.70 5.73
301.80 5.723
301.90 5.717
302.00 5.71
302.10 5.703
302.20 5.697
302.30 5.69
302.40 5.683
302.50 5.677
302.60 5.67
302.70 5.663
302.80 5.657
302.90 5.65
303.00 5.643
303.10 5.637
303.20 5.63
303.30 5.624
303.40 5.617
303.50 5.61
303.60 5.604
303.70 5.597
303.80 5.591
303.90 5.584
304.00 5.578
304.10 5.571
304.20 5.565
304.30 5.558
304.40 5.552
304.50 5.545
304.60 5.539
304.70 5.532
304.80 5.526
304.90 5.519
305.00 5.513
305.10 5.507
305.20 5.5
305.30 5.494
305.40 5.487
305.50 5.481
305.60 5.475
305.70 5.468
305.80 5.462
305.90 5.455
306.00 5.449
306.10 5.443
306.20 5.436
306.30 5.43
306.40 5.424
306.50 5.418
306.60 5.411
306.70 5.405
306.80 5.399
306.90 5.392
307.00 5.386
307.10 5.38
307.20 5.374
307.30 5.368
307.40 5.361
307.50 5.355
307.60 5.349
307.70 5.343
307.80 5.337
307.90 5.33
308.00 5.324
308.10 5.318
308.20 5.312
308.30 5.306
308.40 5.3
308.50 5.294
308.60 5.287
308.70 5.281
308.80 5.275
308.90 5.269
309.00 5.263
309.10 5.257
309.20 5.251
309.30 5.245
309.40 5.239
309.50 5.233
309.60 5.227
309.70 5.221
309.80 5.215
309.90 5.209
310.00 5.203
310.10 5.197
310.20 5.191
310.30 5.185
310.40 5.179
310.50 5.173
310.60 5.167
310.70 5.161
310.80 5.155
310.90 5.15
311.00 5.144
311.10 5.138
311.20 5.132
311.30 5.126
311.40 5.12
311.50 5.114
311.60 5.108
311.70 5.103
311.80 5.097
311.90 5.091
312.00 5.085
312.10 5.079
312.20 5.074
312.30 5.068
312.40 5.062
312.50 5.056
312.60 5.05
312.70 5.045
312.80 5.039
312.90 5.033
313.00 5.027
313.10 5.022
313.20 5.016
313.30 5.01
313.40 5.005
313.50 4.999
313.60 4.993
313.70 4.988
313.80 4.982
313.90 4.976
314.00 4.971
314.10 4.965
314.20 4.959
314.30 4.954
314.40 4.948
314.50 4.943
314.60 4.937
314.70 4.931
314.80 4.926
314.90 4.92
315.00 4.915
315.10 4.909
315.20 4.903
315.30 4.898
315.40 4.892
315.50 4.887
315.60 4.881
315.70 4.876
315.80 4.87
315.90 4.865
316.00 4.859
316.10 4.854
316.20 4.848
316.30 4.843
316.40 4.837
316.50 4.832
316.60 4.827
316.70 4.821
316.80 4.816
316.90 4.81
317.00 4.805
317.10 4.799
317.20 4.794
317.30 4.789
317.40 4.783
317.50 4.778
317.60 4.773
317.70 4.767
317.80 4.762
317.90 4.757
318.00 4.751
318.10 4.746
318.20 4.741
318.30 4.735
318.40 4.73
318.50 4.725
318.60 4.719
318.70 4.714
318.80 4.709
318.90 4.703
319.00 4.698
319.10 4.693
319.20 4.688
319.30 4.683
319.40 4.677
319.50 4.672
319.60 4.667
319.70 4.662
319.80 4.656
319.90 4.651
320.00 4.646
320.10 4.641
320.20 4.636
320.30 4.631
320.40 4.625
320.50 4.62
320.60 4.615
320.70 4.61
320.80 4.605
320.90 4.6
321.00 4.595
321.10 4.589
321.20 4.584
321.30 4.579
321.40 4.574
321.50 4.569
321.60 4.564
321.70 4.559
321.80 4.554
321.90 4.549
322.00 4.544
322.10 4.539
322.20 4.534
322.30 4.529
322.40 4.524
322.50 4.519
322.60 4.514
322.70 4.509
322.80 4.504
322.90 4.499
323.00 4.494
323.10 4.489
323.20 4.484
323.30 4.479
323.40 4.474
323.50 4.469
323.60 4.464
323.70 4.459
323.80 4.454
323.90 4.449
324.00 4.444
324.10 4.439
324.20 4.435
324.30 4.43
324.40 4.425
324.50 4.42
324.60 4.415
324.70 4.41
324.80 4.405
324.90 4.4
325.00 4.396
325.10 4.391
325.20 4.386
325.30 4.381
325.40 4.376
325.50 4.372
325.60 4.367
325.70 4.362
325.80 4.357
325.90 4.352
326.00 4.348
326.10 4.343
326.20 4.338
326.30 4.333
326.40 4.329
326.50 4.324
326.60 4.319
326.70 4.314
326.80 4.31
326.90 4.305
327.00 4.3
327.10 4.296
327.20 4.291
327.30 4.286
327.40 4.281
327.50 4.277
327.60 4.272
327.70 4.267
327.80 4.263
327.90 4.258
328.00 4.254
328.10 4.249
328.20 4.244
328.30 4.24
328.40 4.235
328.50 4.23
328.60 4.226
328.70 4.221
328.80 4.217
328.90 4.212
329.00 4.207
329.10 4.203
329.20 4.198
329.30 4.194
329.40 4.189
329.50 4.185
329.60 4.18
329.70 4.176
329.80 4.171
329.90 4.166
330.00 4.162
330.10 4.157
330.20 4.153
330.30 4.148
330.40 4.144
330.50 4.14
330.60 4.135
330.70 4.131
330.80 4.126
330.90 4.122
331.00 4.117
331.10 4.113
331.20 4.108
331.30 4.104
331.40 4.099
331.50 4.095
331.60 4.091
331.70 4.086
331.80 4.082
331.90 4.077
332.00 4.073
332.10 4.069
332.20 4.064
332.30 4.06
332.40 4.055
332.50 4.051
332.60 4.047
332.70 4.042
332.80 4.038
332.90 4.034
333.00 4.029
333.10 4.025
333.20 4.021
333.30 4.016
333.40 4.012
333.50 4.008
333.60 4.003
333.70 3.999
333.80 3.995
333.90 3.99
334.00 3.986
334.10 3.982
334.20 3.978
334.30 3.973
334.40 3.969
334.50 3.965
334.60 3.961
334.70 3.956
334.80 3.952
334.90 3.948
335.00 3.944
335.10 3.94
335.20 3.935
335.30 3.931
335.40 3.927
335.50 3.923
335.60 3.918
335.70 3.914
335.80 3.91
335.90 3.906
336.00 3.902
336.10 3.898
336.20 3.893
336.30 3.889
336.40 3.885
336.50 3.881
336.60 3.877
336.70 3.873
336.80 3.869
336.90 3.865
337.00 3.86
337.10 3.856
337.20 3.852
337.30 3.848
337.40 3.844
337.50 3.84
337.60 3.836
337.70 3.832
337.80 3.828
337.90 3.824
338.00 3.82
338.10 3.816
338.20 3.812
338.30 3.807
338.40 3.803
338.50 3.799
338.60 3.795
338.70 3.791
338.80 3.787
338.90 3.783
339.00 3.779
339.10 3.775
339.20 3.771
339.30 3.767
339.40 3.763
339.50 3.759
339.60 3.755
339.70 3.751
339.80 3.748
339.90 3.744
340.00 3.74
340.10 3.736
340.20 3.732
340.30 3.728
340.40 3.724
340.50 3.72
340.60 3.716
340.70 3.712
340.80 3.708
340.90 3.704
341.00 3.7
341.10 3.697
341.20 3.693
341.30 3.689
341.40 3.685
341.50 3.681
341.60 3.677
341.70 3.673
341.80 3.669
341.90 3.666
342.00 3.662
342.10 3.658
342.20 3.654
342.30 3.65
342.40 3.646
342.50 3.643
342.60 3.639
342.70 3.635
342.80 3.631
342.90 3.627
343.00 3.624
343.10 3.62
343.20 3.616
343.30 3.612
343.40 3.608
343.50 3.605
343.60 3.601
343.70 3.597
343.80 3.593
343.90 3.59
344.00 3.586
344.10 3.582
344.20 3.578
344.30 3.575
344.40 3.571
344.50 3.567
344.60 3.563
344.70 3.56
344.80 3.556
344.90 3.552
345.00 3.549
345.10 3.545
345.20 3.541
345.30 3.538
345.40 3.534
345.50 3.53
345.60 3.526
345.70 3.523
345.80 3.519
345.90 3.515
346.00 3.512
346.10 3.508
346.20 3.505
346.30 3.501
346.40 3.497
346.50 3.494
346.60 3.49
346.70 3.486
346.80 3.483
346.90 3.479
347.00 3.476
347.10 3.472
347.20 3.468
347.30 3.465
347.40 3.461
347.50 3.458
347.60 3.454
347.70 3.451
347.80 3.447
347.90 3.443
348.00 3.44
348.10 3.436
348.20 3.433
348.30 3.429
348.40 3.426
348.50 3.422
348.60 3.419
348.70 3.415
348.80 3.412
348.90 3.408
349.00 3.405
349.10 3.401
349.20 3.398
349.30 3.394
349.40 3.391
349.50 3.387
349.60 3.384
349.70 3.38
349.80 3.377
349.90 3.373
350.00 3.37
350.10 3.366
350.20 3.363
350.30 3.359
350.40 3.356
350.50 3.352
350.60 3.349
350.70 3.346
350.80 3.342
350.90 3.339
351.00 3.335
351.10 3.332
351.20 3.328
351.30 3.325
351.40 3.322
351.50 3.318
351.60 3.315
351.70 3.311
351.80 3.308
351.90 3.305
352.00 3.301
352.10 3.298
352.20 3.295
352.30 3.291
352.40 3.288
352.50 3.284
352.60 3.281
352.70 3.278
352.80 3.274
352.90 3.271
353.00 3.268
353.10 3.264
353.20 3.261
353.30 3.258
353.40 3.254
353.50 3.251
353.60 3.248
353.70 3.244
353.80 3.241
353.90 3.238
354.00 3.235
354.10 3.231
354.20 3.228
354.30 3.225
354.40 3.221
354.50 3.218
354.60 3.215
354.70 3.212
354.80 3.208
354.90 3.205
355.00 3.202
355.10 3.199
355.20 3.195
355.30 3.192
355.40 3.189
355.50 3.186
355.60 3.182
355.70 3.179
355.80 3.176
355.90 3.173
356.00 3.17
356.10 3.166
356.20 3.163
356.30 3.16
356.40 3.157
356.50 3.154
356.60 3.15
356.70 3.147
356.80 3.144
356.90 3.141
357.00 3.138
357.10 3.135
357.20 3.131
357.30 3.128
357.40 3.125
357.50 3.122
357.60 3.119
357.70 3.116
357.80 3.113
357.90 3.109
358.00 3.106
358.10 3.103
358.20 3.1
358.30 3.097
358.40 3.094
358.50 3.091
358.60 3.088
358.70 3.084
358.80 3.081
358.90 3.078
359.00 3.075
359.10 3.072
359.20 3.069
359.30 3.066
359.40 3.063
359.50 3.06
359.60 3.057
359.70 3.054
359.80 3.051
359.90 3.048
360.00 3.044
360.10 3.041
360.20 3.038
360.30 3.035
360.40 3.032
360.50 3.029
360.60 3.026
360.70 3.023
360.80 3.02
360.90 3.017
361.00 3.014
361.10 3.011
361.20 3.008
361.30 3.005
361.40 3.002
361.50 2.999
361.60 2.996
361.70 2.993
361.80 2.99
361.90 2.987
362.00 2.984
362.10 2.981
362.20 2.978
362.30 2.975
362.40 2.972
362.50 2.969
362.60 2.966
362.70 2.964
362.80 2.961
362.90 2.958
363.00 2.955
363.10 2.952
363.20 2.949
363.30 2.946
363.40 2.943
363.50 2.94
363.60 2.937
363.70 2.934
363.80 2.931
363.90 2.928
364.00 2.926
364.10 2.923
364.20 2.92
364.30 2.917
364.40 2.914
364.50 2.911
364.60 2.908
364.70 2.905
364.80 2.902
364.90 2.9
365.00 2.897
365.10 2.894
365.20 2.891
365.30 2.888
365.40 2.885
365.50 2.882
365.60 2.88
365.70 2.877
365.80 2.874
365.90 2.871
366.00 2.868
366.10 2.865
366.20 2.862
366.30 2.859
366.40 2.856
366.50 2.853
366.60 2.85
366.70 2.848
366.80 2.845
366.90 2.842
367.00 2.839
367.10 2.836
367.20 2.833
367.30 2.83
367.40 2.827
367.50 2.824
367.60 2.821
367.70 2.818
367.80 2.815
367.90 2.812
368.00 2.809
368.10 2.807
368.20 2.804
368.30 2.801
368.40 2.798
368.50 2.795
368.60 2.792
368.70 2.789
368.80 2.786
368.90 2.783
369.00 2.78
369.10 2.778
369.20 2.775
369.30 2.772
369.40 2.769
369.50 2.766
369.60 2.763
369.70 2.76
369.80 2.757
369.90 2.755
370.00 2.752
370.10 2.749
370.20 2.746
370.30 2.743
370.40 2.74
370.50 2.738
370.60 2.735
370.70 2.732
370.80 2.729
370.90 2.726
371.00 2.724
371.10 2.721
371.20 2.718
371.30 2.715
371.40 2.713
371.50 2.71
371.60 2.707
371.70 2.704
371.80 2.701
371.90 2.699
372.00 2.696
372.10 2.693
372.20 2.691
372.30 2.688
372.40 2.685
372.50 2.683
372.60 2.68
372.70 2.677
372.80 2.675
372.90 2.672
373.00 2.669
373.10 2.667
373.20 2.664
373.30 2.661
373.40 2.659
373.50 2.656
373.60 2.653
373.70 2.651
373.80 2.648
373.90 2.645
374.00 2.643
374.10 2.64
374.20 2.638
374.30 2.635
374.40 2.633
374.50 2.63
374.60 2.627
374.70 2.625
374.80 2.622
374.90 2.62
375.00 2.617
375.10 2.615
375.20 2.612
375.30 2.61
375.40 2.607
375.50 2.605
375.60 2.602
375.70 2.599
375.80 2.597
375.90 2.594
376.00 2.592
376.10 2.589
376.20 2.587
376.30 2.585
376.40 2.582
376.50 2.58
376.60 2.577
376.70 2.575
376.80 2.572
376.90 2.57
377.00 2.567
377.10 2.565
377.20 2.563
377.30 2.561
377.40 2.559
377.50 2.556
377.60 2.554
377.70 2.552
377.80 2.55
377.90 2.547
378.00 2.545
378.10 2.543
378.20 2.541
378.30 2.538
378.40 2.536
378.50 2.534
378.60 2.531
378.70 2.529
378.80 2.527
378.90 2.524
379.00 2.522
379.10 2.52
379.20 2.518
379.30 2.515
379.40 2.513
379.50 2.511
379.60 2.509
379.70 2.507
379.80 2.504
379.90 2.502
380.00 2.5
380.10 2.498
380.20 2.496
380.30 2.495
380.40 2.493
380.50 2.491
380.60 2.489
380.70 2.487
380.80 2.486
380.90 2.484
381.00 2.482
381.10 2.48
381.20 2.478
381.30 2.476
381.40 2.474
381.50 2.472
381.60 2.469
381.70 2.467
381.80 2.465
381.90 2.462
382.00 2.46
382.10 2.457
382.20 2.455
382.30 2.452
382.40 2.449
382.50 2.446
382.60 2.443
382.70 2.44
382.80 2.437
382.90 2.435
383.00 2.432
383.10 2.429
383.20 2.426
383.30 2.423
383.40 2.421
383.50 2.419
383.60 2.417
383.70 2.416
383.80 2.415
383.90 2.414
384.00 2.414
384.10 2.413
384.20 2.412
384.30 2.412
384.40 2.411
384.50 2.411
384.60 2.41
384.70 2.409
384.80 2.408
384.90 2.407
385.00 2.406
385.10 2.405
385.20 2.403
385.30 2.402
385.40 2.4
385.50 2.399
385.60 2.397
385.70 2.395
385.80 2.393
385.90 2.39
386.00 2.388
386.10 2.386
386.20 2.383
386.30 2.38
386.40 2.377
386.50 2.374
386.60 2.371
386.70 2.367
386.80 2.364
386.90 2.36
387.00 2.356
387.10 2.352
387.20 2.348
387.30 2.344
387.40 2.339
387.50 2.335
387.60 2.33
387.70 2.325
387.80 2.32
387.90 2.315
388.00 2.31
388.10 2.305
388.20 2.3
388.30 2.295
388.40 2.29
388.50 2.286
388.60 2.281
388.70 2.278
388.80 2.275
388.90 2.272
389.00 2.271
389.10 2.271
389.20 2.272
389.30 2.273
389.40 2.275
389.50 2.277
389.60 2.279
389.70 2.281
389.80 2.283
389.90 2.285
390.00 2.287
390.10 2.289
390.20 2.29
390.30 2.292
390.40 2.294
390.50 2.295
390.60 2.296
390.70 2.297
390.80 2.298
390.90 2.299
391.00 2.3
391.10 2.3
391.20 2.301
391.30 2.301
391.40 2.301
391.50 2.301
391.60 2.3
391.70 2.3
391.80 2.299
391.90 2.298
392.00 2.297
392.10 2.296
392.20 2.295
392.30 2.293
392.40 2.291
392.50 2.289
392.60 2.287
392.70 2.285
392.80 2.283
392.90 2.28
393.00 2.277
393.10 2.274
393.20 2.271
393.30 2.268
393.40 2.264
393.50 2.26
393.60 2.256
393.70 2.252
393.80 2.248
393.90 2.243
394.00 2.238
394.10 2.233
394.20 2.228
394.30 2.222
394.40 2.216
394.50 2.21
394.60 2.204
394.70 2.198
394.80 2.191
394.90 2.184
395.00 2.177
395.10 2.169
395.20 2.162
395.30 2.154
395.40 2.145
395.50 2.137
395.60 2.128
395.70 2.119
395.80 2.11
395.90 2.101
396.00 2.091
396.10 2.081
396.20 2.072
396.30 2.062
396.40 2.052
396.50 2.042
396.60 2.032
396.70 2.022
396.80 2.012
396.90 2.003
397.00 1.995
397.10 2
397.20 2.005
397.30 2.011
397.40 2.018
397.50 2.025
397.60 2.032
397.70 2.039
397.80 2.046
397.90 2.052
398.00 2.059
398.10 2.065
398.20 2.072
398.30 2.078
398.40 2.083
398.50 2.089
398.60 2.094
398.70 2.1
398.80 2.105
398.90 2.109
399.00 2.114
399.10 2.118
399.20 2.122
399.30 2.126
399.40 2.129
399.50 2.133
399.60 2.136
399.70 2.139
399.80 2.141
399.90 2.144
400.00 2.146
400.10 2.148
400.20 2.15
400.30 2.152
400.40 2.154
400.50 2.155
400.60 2.157
400.70 2.158
400.80 2.159
400.90 2.16
401.00 2.16
401.10 2.161
401.20 2.161
401.30 2.162
401.40 2.162
401.50 2.162
401.60 2.162
401.70 2.162
401.80 2.161
401.90 2.161
402.00 2.161
402.10 2.16
402.20 2.159
402.30 2.158
402.40 2.157
402.50 2.156
402.60 2.155
402.70 2.154
402.80 2.153
402.90 2.151
403.00 2.15
403.10 2.148
403.20 2.146
403.30 2.144
403.40 2.143
403.50 2.141
403.60 2.138
403.70 2.136
403.80 2.134
403.90 2.131
404.00 2.129
404.10 2.126
404.20 2.124
404.30 2.121
404.40 2.118
404.50 2.115
404.60 2.112
404.70 2.109
404.80 2.105
404.90 2.102
405.00 2.098
405.10 2.094
405.20 2.091
405.30 2.087
405.40 2.082
405.50 2.078
405.60 2.074
405.70 2.069
405.80 2.064
405.90 2.06
406.00 2.055
406.10 2.049
406.20 2.044
406.30 2.039
406.40 2.033
406.50 2.027
406.60 2.021
406.70 2.014
406.80 2.008
406.90 2.001
407.00 1.994
407.10 1.987
407.20 1.98
407.30 1.972
407.40 1.964
407.50 1.956
407.60 1.947
407.70 1.938
407.80 1.929
407.90 1.92
408.00 1.91
408.10 1.9
408.20 1.89
408.30 1.879
408.40 1.868
408.50 1.857
408.60 1.845
408.70 1.833
408.80 1.82
408.90 1.808
409.00 1.795
409.10 1.781
409.20 1.767
409.30 1.753
409.40 1.739
409.50 1.724
409.60 1.71
409.70 1.695
409.80 1.681
409.90 1.668
410.00 1.66
410.10 1.656
410.20 1.658
410.30 1.655
410.40 1.658
410.50 1.666
410.60 1.677
410.70 1.689
410.80 1.7
410.90 1.712
411.00 1.723
411.10 1.735
411.20 1.745
411.30 1.756
411.40 1.766
411.50 1.776
411.60 1.785
411.70 1.794
411.80 1.803
411.90 1.811
412.00 1.819
412.10 1.827
412.20 1.834
412.30 1.841
412.40 1.847
412.50 1.854
412.60 1.859
412.70 1.865
412.80 1.87
412.90 1.875
413.00 1.88
413.10 1.884
413.20 1.889
413.30 1.893
413.40 1.896
413.50 1.9
413.60 1.903
413.70 1.906
413.80 1.909
413.90 1.912
414.00 1.914
414.10 1.917
414.20 1.919
414.30 1.921
414.40 1.923
414.50 1.924
414.60 1.926
414.70 1.927
414.80 1.929
414.90 1.93
415.00 1.931
415.10 1.932
415.20 1.933
415.30 1.933
415.40 1.934
415.50 1.934
415.60 1.935
415.70 1.935
415.80 1.935
415.90 1.936
416.00 1.936
416.10 1.936
416.20 1.936
416.30 1.936
416.40 1.935
416.50 1.935
416.60 1.935
416.70 1.934
416.80 1.934
416.90 1.934
417.00 1.933
417.10 1.933
417.20 1.932
417.30 1.931
417.40 1.931
417.50 1.93
417.60 1.929
417.70 1.928
417.80 1.927
417.90 1.926
418.00 1.926
418.10 1.925
418.20 1.924
418.30 1.923
418.40 1.922
418.50 1.921
418.60 1.92
418.70 1.918
418.80 1.917
418.90 1.916
419.00 1.915
419.10 1.914
419.20 1.913
419.30 1.911
419.40 1.91
419.50 1.909
419.60 1.907
419.70 1.906
419.80 1.905
419.90 1.903
420.00 1.902
420.10 1.901
420.20 1.899
420.30 1.898
420.40 1.896
420.50 1.895
420.60 1.894
420.70 1.892
420.80 1.891
420.90 1.889
421.00 1.888
421.10 1.886
421.20 1.885
421.30 1.883
421.40 1.881
421.50 1.88
421.60 1.878
421.70 1.877
421.80 1.875
421.90 1.873
422.00 1.872
422.10 1.87
422.20 1.869
422.30 1.867
422.40 1.865
422.50 1.864
422.60 1.862
422.70 1.86
422.80 1.858
422.90 1.857
423.00 1.855
423.10 1.853
423.20 1.852
423.30 1.85
423.40 1.848
423.50 1.846
423.60 1.844
423.70 1.843
423.80 1.841
423.90 1.839
424.00 1.837
424.10 1.835
424.20 1.833
424.30 1.831
424.40 1.829
424.50 1.827
424.60 1.826
424.70 1.824
424.80 1.822
424.90 1.82
425.00 1.818
425.10 1.816
425.20 1.813
425.30 1.811
425.40 1.809
425.50 1.807
425.60 1.805
425.70 1.803
425.80 1.801
425.90 1.798
426.00 1.796
426.10 1.794
426.20 1.792
426.30 1.789
426.40 1.787
426.50 1.785
426.60 1.782
426.70 1.78
426.80 1.777
426.90 1.775
427.00 1.772
427.10 1.77
427.20 1.767
427.30 1.764
427.40 1.761
427.50 1.759
427.60 1.756
427.70 1.753
427.80 1.75
427.90 1.747
428.00 1.744
428.10 1.741
428.20 1.738
428.30 1.734
428.40 1.731
428.50 1.727
428.60 1.724
428.70 1.72
428.80 1.717
428.90 1.713
429.00 1.709
429.10 1.705
429.20 1.701
429.30 1.697
429.40 1.693
429.50 1.688
429.60 1.684
429.70 1.679
429.80 1.674
429.90 1.669
430.00 1.664
430.10 1.659
430.20 1.653
430.30 1.648
430.40 1.642
430.50 1.636
430.60 1.63
430.70 1.624
430.80 1.617
430.90 1.611
431.00 1.604
431.10 1.597
431.20 1.589
431.30 1.582
431.40 1.574
431.50 1.566
431.60 1.557
431.70 1.549
431.80 1.54
431.90 1.53
432.00 1.52
432.10 1.511
432.20 1.5
432.30 1.489
432.40 1.478
432.50 1.467
432.60 1.455
432.70 1.443
432.80 1.43
432.90 1.417
433.00 1.404
433.10 1.39
433.20 1.376
433.30 1.361
433.40 1.347
433.50 1.332
433.60 1.317
433.70 1.303
433.80 1.289
433.90 1.275
434.00 1.259
434.10 1.258
434.20 1.273
434.30 1.285
434.40 1.297
434.50 1.309
434.60 1.322
434.70 1.334
434.80 1.347
434.90 1.359
435.00 1.371
435.10 1.382
435.20 1.393
435.30 1.404
435.40 1.414
435.50 1.423
435.60 1.433
435.70 1.442
435.80 1.45
435.90 1.458
436.00 1.466
436.10 1.473
436.20 1.48
436.30 1.487
436.40 1.493
436.50 1.499
436.60 1.504
436.70 1.51
436.80 1.515
436.90 1.52
437.00 1.524
437.10 1.528
437.20 1.532
437.30 1.536
437.40 1.54
437.50 1.543
437.60 1.546
437.70 1.549
437.80 1.552
437.90 1.555
438.00 1.557
438.10 1.559
438.20 1.561
438.30 1.563
438.40 1.565
438.50 1.567
438.60 1.568
438.70 1.57
438.80 1.571
438.90 1.572
439.00 1.573
439.10 1.574
439.20 1.575
439.30 1.576
439.40 1.577
439.50 1.577
439.60 1.578
439.70 1.578
439.80 1.579
439.90 1.579
440.00 1.579
440.10 1.579
440.20 1.58
440.30 1.58
440.40 1.58
440.50 1.579
440.60 1.579
440.70 1.579
440.80 1.579
440.90 1.579
441.00 1.578
441.10 1.578
441.20 1.578
441.30 1.577
441.40 1.577
441.50 1.576
441.60 1.576
441.70 1.575
441.80 1.575
441.90 1.574
442.00 1.573
442.10 1.573
442.20 1.572
442.30 1.571
442.40 1.571
442.50 1.57
442.60 1.569
442.70 1.568
442.80 1.567
442.90 1.567
443.00 1.566
443.10 1.565
443.20 1.564
443.30 1.563
443.40 1.562
443.50 1.561
443.60 1.56
443.70 1.559
443.80 1.558
443.90 1.557
444.00 1.556
444.10 1.556
444.20 1.555
444.30 1.554
444.40 1.553
444.50 1.551
444.60 1.55
444.70 1.549
444.80 1.548
444.90 1.547
445.00 1.546
445.10 1.545
445.20 1.544
445.30 1.543
445.40 1.542
445.50 1.541
445.60 1.54
445.70 1.539
445.80 1.538
445.90 1.536
446.00 1.535
446.10 1.534
446.20 1.533
446.30 1.532
446.40 1.531
446.50 1.53
446.60 1.529
446.70 1.528
446.80 1.526
446.90 1.525
447.00 1.524
447.10 1.523
447.20 1.522
447.30 1.521
447.40 1.519
447.50 1.518
447.60 1.517
447.70 1.516
447.80 1.515
447.90 1.514
448.00 1.513
448.10 1.511
448.20 1.51
448.30 1.509
448.40 1.508
448.50 1.507
448.60 1.506
448.70 1.504
448.80 1.503
448.90 1.502
449.00 1.501
449.10 1.5
449.20 1.498
449.30 1.497
449.40 1.496
449.50 1.495
449.60 1.494
449.70 1.493
449.80 1.491
449.90 1.49
450.00 1.489
450.10 1.488
450.20 1.487
450.30 1.486
450.40 1.484
450.50 1.483
450.60 1.482
450.70 1.481
450.80 1.48
450.90 1.478
451.00 1.477
451.10 1.476
451.20 1.475
451.30 1.474
451.40 1.472
451.50 1.471
451.60 1.47
451.70 1.469
451.80 1.468
451.90 1.467
452.00 1.465
452.10 1.464
452.20 1.463
452.30 1.462
452.40 1.461
452.50 1.459
452.60 1.458
452.70 1.457
452.80 1.456
452.90 1.455
453.00 1.454
453.10 1.452
453.20 1.451
453.30 1.45
453.40 1.449
453.50 1.448
453.60 1.447
453.70 1.445
453.80 1.444
453.90 1.443
454.00 1.442
454.10 1.441
454.20 1.44
454.30 1.438
454.40 1.437
454.50 1.436
454.60 1.435
454.70 1.434
454.80 1.432
454.90 1.431
455.00 1.43
455.10 1.429
455.20 1.428
455.30 1.427
455.40 1.426
455.50 1.424
455.60 1.423
455.70 1.422
455.80 1.421
455.90 1.42
456.00 1.419
456.10 1.417
456.20 1.416
456.30 1.415
456.40 1.414
456.50 1.413
456.60 1.412
456.70 1.41
456.80 1.409
456.90 1.408
457.00 1.407
457.10 1.406
457.20 1.405
457.30 1.404
457.40 1.402
457.50 1.401
457.60 1.4
457.70 1.399
457.80 1.398
457.90 1.397
458.00 1.396
458.10 1.394
458.20 1.393
458.30 1.392
458.40 1.391
458.50 1.39
458.60 1.389
458.70 1.388
458.80 1.386
458.90 1.385
459.00 1.384
459.10 1.383
459.20 1.382
459.30 1.381
459.40 1.38
459.50 1.378
459.60 1.377
459.70 1.376
459.80 1.375
459.90 1.374
460.00 1.373
460.10 1.372
460.20 1.371
460.30 1.369
460.40 1.368
460.50 1.367
460.60 1.366
460.70 1.365
460.80 1.364
460.90 1.363
461.00 1.362
461.10 1.36
461.20 1.359
461.30 1.358
461.40 1.357
461.50 1.356
461.60 1.355
461.70 1.354
461.80 1.353
461.90 1.351
462.00 1.35
462.10 1.349
462.20 1.348
462.30 1.347
462.40 1.346
462.50 1.345
462.60 1.344
462.70 1.343
462.80 1.342
462.90 1.34
463.00 1.339
463.10 1.338
463.20 1.337
463.30 1.336
463.40 1.335
463.50 1.334
463.60 1.333
463.70 1.332
463.80 1.33
463.90 1.329
464.00 1.328
464.10 1.327
464.20 1.326
464.30 1.325
464.40 1.324
464.50 1.323
464.60 1.322
464.70 1.321
464.80 1.32
464.90 1.318
465.00 1.317
465.10 1.316
465.20 1.315
465.30 1.314
465.40 1.313
465.50 1.312
465.60 1.311
465.70 1.31
465.80 1.309
465.90 1.308
466.00 1.306
466.10 1.305
466.20 1.304
466.30 1.303
466.40 1.302
466.50 1.301
466.60 1.3
466.70 1.299
466.80 1.298
466.90 1.297
467.00 1.296
467.10 1.295
467.20 1.293
467.30 1.292
467.40 1.291
467.50 1.29
467.60 1.289
467.70 1.288
467.80 1.287
467.90 1.286
468.00 1.285
468.10 1.284
468.20 1.283
468.30 1.282
468.40 1.28
468.50 1.279
468.60 1.278
468.70 1.277
468.80 1.276
468.90 1.275
469.00 1.274
469.10 1.273
469.20 1.272
469.30 1.271
469.40 1.27
469.50 1.269
469.60 1.268
469.70 1.266
469.80 1.265
469.90 1.264
470.00 1.263
470.10 1.262
470.20 1.261
470.30 1.26
470.40 1.259
470.50 1.258
470.60 1.257
470.70 1.256
470.80 1.255
470.90 1.253
471.00 1.252
471.10 1.251
471.20 1.25
471.30 1.249
471.40 1.248
471.50 1.247
471.60 1.246
471.70 1.245
471.80 1.244
471.90 1.243
472.00 1.241
472.10 1.24
472.20 1.239
472.30 1.238
472.40 1.237
472.50 1.236
472.60 1.235
472.70 1.234
472.80 1.233
472.90 1.232
473.00 1.23
473.10 1.229
473.20 1.228
473.30 1.227
473.40 1.226
473.50 1.225
473.60 1.224
473.70 1.223
473.80 1.221
473.90 1.22
474.00 1.219
474.10 1.218
474.20 1.217
474.30 1.216
474.40 1.215
474.50 1.213
474.60 1.212
474.70 1.211
474.80 1.21
474.90 1.209
475.00 1.208
475.10 1.206
475.20 1.205
475.30 1.204
475.40 1.203
475.50 1.202
475.60 1.2
475.70 1.199
475.80 1.198
475.90 1.197
476.00 1.196
476.10 1.194
476.20 1.193
476.30 1.192
476.40 1.191
476.50 1.189
476.60 1.188
476.70 1.187
476.80 1.185
476.90 1.184
477.00 1.183
477.10 1.182
477.20 1.18
477.30 1.179
477.40 1.177
477.50 1.176
477.60 1.175
477.70 1.173
477.80 1.172
477.90 1.17
478.00 1.169
478.10 1.168
478.20 1.166
478.30 1.165
478.40 1.163
478.50 1.162
478.60 1.16
478.70 1.158
478.80 1.157
478.90 1.155
479.00 1.154
479.10 1.152
479.20 1.15
479.30 1.149
479.40 1.147
479.50 1.145
479.60 1.143
479.70 1.141
479.80 1.14
479.90 1.138
480.00 1.136
480.10 1.134
480.20 1.132
480.30 1.13
480.40 1.128
480.50 1.125
480.60 1.123
480.70 1.121
480.80 1.119
480.90 1.117
481.00 1.114
481.10 1.112
481.20 1.11
481.30 1.107
481.40 1.104
481.50 1.101
481.60 1.098
481.70 1.095
481.80 1.093
481.90 1.09
482.00 1.087
482.10 1.084
482.20 1.081
482.30 1.077
482.40 1.073
482.50 1.069
482.60 1.066
482.70 1.062
482.80 1.058
482.90 1.054
483.00 1.05
483.10 1.047
483.20 1.042
483.30 1.037
483.40 1.031
483.50 1.026
483.60 1.021
483.70 1.016
483.80 1.01
483.90 1.005
484.00 0.9998
484.10 0.9945
484.20 0.9882
484.30 0.9814
484.40 0.9746
484.50 0.9678
484.60 0.961
484.70 0.9534
484.80 0.9453
484.90 0.9373
485.00 0.9292
485.10 0.9212
485.20 0.9125
485.30 0.9034
485.40 0.8941
485.50 0.8845
485.60 0.8747
485.70 0.8648
485.80 0.8548
485.90 0.8449
486.00 0.8355
486.10 0.8365
486.20 0.832
486.30 0.8366
486.40 0.8451
486.50 0.8538
486.60 0.8625
486.70 0.8712
486.80 0.8796
486.90 0.8878
487.00 0.8956
487.10 0.9032
487.20 0.9101
487.30 0.9167
487.40 0.9233
487.50 0.9299
487.60 0.9365
487.70 0.9422
487.80 0.9475
487.90 0.9527
488.00 0.9579
488.10 0.9631
488.20 0.9673
488.30 0.9709
488.40 0.9745
488.50 0.9781
488.60 0.9817
488.70 0.9853
488.80 0.9889
488.90 0.9925
489.00 0.9961
489.10 0.9997
489.20 1.002
489.30 1.004
489.40 1.006
489.50 1.008
489.60 1.01
489.70 1.012
489.80 1.015
489.90 1.017
490.00 1.019
490.10 1.021
490.20 1.022
490.30 1.023
490.40 1.024
490.50 1.025
490.60 1.026
490.70 1.027
490.80 1.028
490.90 1.029
491.00 1.03
491.10 1.031
491.20 1.032
491.30 1.032
491.40 1.033
491.50 1.033
491.60 1.034
491.70 1.034
491.80 1.034
491.90 1.035
492.00 1.035
492.10 1.036
492.20 1.036
492.30 1.036
492.40 1.036
492.50 1.036
492.60 1.036
492.70 1.036
492.80 1.036
492.90 1.036
493.00 1.036
493.10 1.036
493.20 1.036
493.30 1.035
493.40 1.035
493.50 1.035
493.60 1.035
493.70 1.034
493.80 1.034
493.90 1.034
494.00 1.034
494.10 1.033
494.20 1.033
494.30 1.033
494.40 1.032
494.50 1.032
494.60 1.032
494.70 1.031
494.80 1.031
494.90 1.03
495.00 1.03
495.10 1.029
495.20 1.029
495.30 1.029
495.40 1.028
495.50 1.027
495.60 1.027
495.70 1.026
495.80 1.026
495.90 1.025
496.00 1.025
496.10 1.024
496.20 1.024
496.30 1.023
496.40 1.023
496.50 1.022
496.60 1.022
496.70 1.021
496.80 1.02
496.90 1.02
497.00 1.019
497.10 1.019
497.20 1.018
497.30 1.017
497.40 1.017
497.50 1.016
497.60 1.016
497.70 1.015
497.80 1.014
497.90 1.014
498.00 1.013
498.10 1.013
498.20 1.012
498.30 1.011
498.40 1.011
498.50 1.01
498.60 1.009
498.70 1.009
498.80 1.008
498.90 1.007
499.00 1.007
499.10 1.006
499.20 1.005
499.30 1.005
499.40 1.004
499.50 1.003
499.60 1.003
499.70 1.002
499.80 1.001
499.90 1.001
500.00 1
500.10 0.9993
500.20 0.9987
500.30 0.998
500.40 0.9973
500.50 0.9966
500.60 0.9959
500.70 0.9952
500.80 0.9945
500.90 0.9939
501.00 0.9932
501.10 0.9925
501.20 0.9918
501.30 0.9911
501.40 0.9904
501.50 0.9897
501.60 0.989
501.70 0.9884
501.80 0.9877
501.90 0.987
502.00 0.9863
502.10 0.9856
502.20 0.9849
502.30 0.9842
502.40 0.9835
502.50 0.9828
502.60 0.9821
502.70 0.9814
502.80 0.9807
502.90 0.98
503.00 0.9793
503.10 0.9786
503.20 0.978
503.30 0.9773
503.40 0.9766
503.50 0.9759
503.60 0.9752
503.70 0.9745
503.80 0.9738
503.90 0.9731
504.00 0.9724
504.10 0.9717
504.20 0.971
504.30 0.9703
504.40 0.9696
504.50 0.9689
504.60 0.9682
504.70 0.9675
504.80 0.9668
504.90 0.9661
505.00 0.9654
505.10 0.9647
505.20 0.964
505.30 0.9633
505.40 0.9626
505.50 0.9619
505.60 0.9612
505.70 0.9605
505.80 0.9598
505.90 0.9591
506.00 0.9585
506.10 0.9578
506.20 0.9571
506.30 0.9564
506.40 0.9557
506.50 0.955
506.60 0.9543
506.70 0.9536
506.80 0.9529
506.90 0.9522
507.00 0.9515
507.10 0.9508
507.20 0.9501
507.30 0.9495
507.40 0.9488
507.50 0.9481
507.60 0.9474
507.70 0.9467
507.80 0.946
507.90 0.9453
508.00 0.9446
508.10 0.9439
508.20 0.9433
508.30 0.9426
508.40 0.9419
508.50 0.9412
508.60 0.9405
508.70 0.9398
508.80 0.9391
508.90 0.9385
509.00 0.9378
509.10 0.9371
509.20 0.9364
509.30 0.9357
509.40 0.935
509.50 0.9344
509.60 0.9337
509.70 0.933
509.80 0.9323
509.90 0.9316
510.00 0.931
510.10 0.9303
510.20 0.9296
510.30 0.9289
510.40 0.9282
510.50 0.9276
510.60 0.9269
510.70 0.9262
510.80 0.9255
510.90 0.9249
511.00 0.9242
511.10 0.9235
511.20 0.9228
511.30 0.9222
511.40 0.9215
511.50 0.9208
511.60 0.9201
511.70 0.9195
511.80 0.9188
511.90 0.9181
512.00 0.9175
512.10 0.9168
512.20 0.9161
512.30 0.9154
512.40 0.9148
512.50 0.9141
512.60 0.9134
512.70 0.9128
512.80 0.9121
512.90 0.9114
513.00 0.9108
513.10 0.9101
513.20 0.9095
513.30 0.9088
513.40 0.9081
513.50 0.9075
513.60 0.9068
513.70 0.9061
513.80 0.9055
513.90 0.9048
514.00 0.9042
514.10 0.9035
514.20 0.9028
514.30 0.9022
514.40 0.9015
514.50 0.9009
514.60 0.9002
514.70 0.8996
514.80 0.8989
514.90 0.8982
515.00 0.8976
515.10 0.8969
515.20 0.8963
515.30 0.8956
515.40 0.895
515.50 0.8943
515.60 0.8937
515.70 0.893
515.80 0.8924
515.90 0.8917
516.00 0.8911
516.10 0.8904
516.20 0.8898
516.30 0.8891
516.40 0.8885
516.50 0.8878
516.60 0.8872
516.70 0.8865
516.80 0.8859
516.90 0.8853
517.00 0.8846
517.10 0.884
517.20 0.8833
517.30 0.8827
517.40 0.882
517.50 0.8814
517.60 0.8808
517.70 0.8801
517.80 0.8795
517.90 0.8788
518.00 0.8782
518.10 0.8776
518.20 0.8769
518.30 0.8763
518.40 0.8757
518.50 0.875
518.60 0.8744
518.70 0.8737
518.80 0.8731
518.90 0.8725
519.00 0.8718
519.10 0.8712
519.20 0.8706
519.30 0.8699
519.40 0.8693
519.50 0.8687
519.60 0.8681
519.70 0.8674
519.80 0.8668
519.90 0.8662
520.00 0.8655
520.10 0.8649
520.20 0.8643
520.30 0.8637
520.40 0.863
520.50 0.8624
520.60 0.8618
520.70 0.8612
520.80 0.8605
520.90 0.8599
521.00 0.8593
521.10 0.8587
521.20 0.858
521.30 0.8574
521.40 0.8568
521.50 0.8562
521.60 0.8556
521.70 0.8549
521.80 0.8543
521.90 0.8537
522.00 0.8531
522.10 0.8525
522.20 0.8519
522.30 0.8512
522.40 0.8506
522.50 0.85
522.60 0.8494
522.70 0.8488
522.80 0.8482
522.90 0.8476
523.00 0.847
523.10 0.8463
523.20 0.8457
523.30 0.8451
523.40 0.8445
523.50 0.8439
523.60 0.8433
523.70 0.8427
523.80 0.8421
523.90 0.8415
524.00 0.8409
524.10 0.8403
524.20 0.8397
524.30 0.8391
524.40 0.8384
524.50 0.8378
524.60 0.8372
524.70 0.8366
524.80 0.836
524.90 0.8354
525.00 0.8348
525.10 0.8342
525.20 0.8336
525.30 0.833
525.40 0.8324
525.50 0.8318
525.60 0.8312
525.70 0.8306
525.80 0.83
525.90 0.8294
526.00 0.8288
526.10 0.8283
526.20 0.8277
526.30 0.8271
526.40 0.8265
526.50 0.8259
526.60 0.8253
526.70 0.8247
526.80 0.8241
526.90 0.8235
527.00 0.8229
527.10 0.8223
527.20 0.8217
527.30 0.8211
527.40 0.8206
527.50 0.82
527.60 0.8194
527.70 0.8188
527.80 0.8182
527.90 0.8176
528.00 0.817
528.10 0.8165
528.20 0.8159
528.30 0.8153
528.40 0.8147
528.50 0.8141
528.60 0.8135
528.70 0.813
528.80 0.8124
528.90 0.8118
529.00 0.8112
529.10 0.8106
529.20 0.8101
529.30 0.8095
529.40 0.8089
529.50 0.8083
529.60 0.8077
529.70 0.8072
529.80 0.8066
529.90 0.806
530.00 0.8054
530.10 0.8049
530.20 0.8043
530.30 0.8037
530.40 0.8031
530.50 0.8026
530.60 0.802
530.70 0.8014
530.80 0.8009
530.90 0.8003
531.00 0.7997
531.10 0.7991
531.20 0.7986
531.30 0.798
531.40 0.7974
531.50 0.7969
531.60 0.7963
531.70 0.7957
531.80 0.7952
531.90 0.7946
532.00 0.794
532.10 0.7935
532.20 0.7929
532.30 0.7923
532.40 0.7918
532.50 0.7912
532.60 0.7907
532.70 0.7901
532.80 0.7895
532.90 0.789
533.00 0.7884
533.10 0.7878
533.20 0.7873
533.30 0.7867
533.40 0.7862
533.50 0.7856
533.60 0.7851
533.70 0.7845
533.80 0.7839
533.90 0.7834
534.00 0.7828
534.10 0.7823
534.20 0.7817
534.30 0.7812
534.40 0.7806
534.50 0.7801
534.60 0.7795
534.70 0.779
534.80 0.7784
534.90 0.7779
535.00 0.7773
535.10 0.7767
535.20 0.7762
535.30 0.7757
535.40 0.7751
535.50 0.7746
535.60 0.774
535.70 0.7735
535.80 0.7729
535.90 0.7724
536.00 0.7718
536.10 0.7713
536.20 0.7707
536.30 0.7702
536.40 0.7696
536.50 0.7691
536.60 0.7686
536.70 0.768
536.80 0.7675
536.90 0.7669
537.00 0.7664
537.10 0.7658
537.20 0.7653
537.30 0.7648
537.40 0.7642
537.50 0.7637
537.60 0.7632
537.70 0.7626
537.80 0.7621
537.90 0.7615
538.00 0.761
538.10 0.7605
538.20 0.7599
538.30 0.7594
538.40 0.7589
538.50 0.7583
538.60 0.7578
538.70 0.7573
538.80 0.7567
538.90 0.7562
539.00 0.7557
539.10 0.7551
539.20 0.7546
539.30 0.7541
539.40 0.7535
539.50 0.753
539.60 0.7525
539.70 0.752
539.80 0.7514
539.90 0.7509
540.00 0.7504
540.10 0.7498
540.20 0.7493
540.30 0.7488
540.40 0.7483
540.50 0.7477
540.60 0.7472
540.70 0.7467
540.80 0.7462
540.90 0.7457
541.00 0.7451
541.10 0.7446
541.20 0.7441
541.30 0.7436
541.40 0.743
541.50 0.7425
541.60 0.742
541.70 0.7415
541.80 0.741
541.90 0.7404
542.00 0.7399
542.10 0.7394
542.20 0.7389
542.30 0.7384
542.40 0.7379
542.50 0.7373
542.60 0.7368
542.70 0.7363
542.80 0.7358
542.90 0.7353
543.00 0.7348
543.10 0.7343
543.20 0.7337
543.30 0.7332
543.40 0.7327
543.50 0.7322
543.60 0.7317
543.70 0.7312
543.80 0.7307
543.90 0.7302
544.00 0.7297
544.10 0.7292
544.20 0.7286
544.30 0.7281
544.40 0.7276
544.50 0.7271
544.60 0.7266
544.70 0.7261
544.80 0.7256
544.90 0.7251
545.00 0.7246
545.10 0.7241
545.20 0.7236
545.30 0.7231
545.40 0.7226
545.50 0.7221
545.60 0.7216
545.70 0.7211
545.80 0.7206
545.90 0.7201
546.00 0.7196
546.10 0.7191
546.20 0.7186
546.30 0.7181
546.40 0.7176
546.50 0.7171
546.60 0.7166
546.70 0.7161
546.80 0.7156
546.90 0.7151
547.00 0.7146
547.10 0.7141
547.20 0.7136
547.30 0.7131
547.40 0.7126
547.50 0.7121
547.60 0.7116
547.70 0.7111
547.80 0.7106
547.90 0.7101
548.00 0.7097
548.10 0.7092
548.20 0.7087
548.30 0.7082
548.40 0.7077
548.50 0.7072
548.60 0.7067
548.70 0.7062
548.80 0.7057
548.90 0.7052
549.00 0.7048
549.10 0.7043
549.20 0.7038
549.30 0.7033
549.40 0.7028
549.50 0.7023
549.60 0.7018
549.70 0.7014
549.80 0.7009
549.90 0.7004
550.00 0.6999
550.10 0.6994
550.20 0.6989
550.30 0.6985
550.40 0.698
550.50 0.6975
550.60 0.697
550.70 0.6965
550.80 0.6961
550.90 0.6956
551.00 0.6951
551.10 0.6946
551.20 0.6941
551.30 0.6937
551.40 0.6932
551.50 0.6927
551.60 0.6922
551.70 0.6918
551.80 0.6913
551.90 0.6908
552.00 0.6903
552.10 0.6899
552.20 0.6894
552.30 0.6889
552.40 0.6884
552.50 0.688
552.60 0.6875
552.70 0.687
552.80 0.6865
552.90 0.6861
553.00 0.6856
553.10 0.6851
553.20 0.6847
553.30 0.6842
553.40 0.6837
553.50 0.6833
553.60 0.6828
553.70 0.6823
553.80 0.6818
553.90 0.6814
554.00 0.6809
554.10 0.6804
554.20 0.68
554.30 0.6795
554.40 0.679
554.50 0.6786
554.60 0.6781
554.70 0.6777
554.80 0.6772
554.90 0.6767
555.00 0.6763
555.10 0.6758
555.20 0.6753
555.30 0.6749
555.40 0.6744
555.50 0.674
555.60 0.6735
555.70 0.673
555.80 0.6726
555.90 0.6721
556.00 0.6717
556.10 0.6712
556.20 0.6707
556.30 0.6703
556.40 0.6698
556.50 0.6694
556.60 0.6689
556.70 0.6685
556.80 0.668
556.90 0.6675
557.00 0.6671
557.10 0.6666
557.20 0.6662
557.30 0.6657
557.40 0.6653
557.50 0.6648
557.60 0.6644
557.70 0.6639
557.80 0.6635
557.90 0.663
558.00 0.6626
558.10 0.6621
558.20 0.6617
558.30 0.6612
558.40 0.6608
558.50 0.6603
558.60 0.6599
558.70 0.6594
558.80 0.659
558.90 0.6585
559.00 0.6581
559.10 0.6576
559.20 0.6572
559.30 0.6567
559.40 0.6563
559.50 0.6558
559.60 0.6554
559.70 0.6549
559.80 0.6545
559.90 0.654
560.00 0.6536
560.10 0.6532
560.20 0.6527
560.30 0.6523
560.40 0.6518
560.50 0.6514
560.60 0.651
560.70 0.6505
560.80 0.6501
560.90 0.6496
561.00 0.6492
561.10 0.6487
561.20 0.6483
561.30 0.6479
561.40 0.6474
561.50 0.647
561.60 0.6466
561.70 0.6461
561.80 0.6457
561.90 0.6452
562.00 0.6448
562.10 0.6444
562.20 0.6439
562.30 0.6435
562.40 0.6431
562.50 0.6426
562.60 0.6422
562.70 0.6418
562.80 0.6413
562.90 0.6409
563.00 0.6405
563.10 0.64
563.20 0.6396
563.30 0.6392
563.40 0.6387
563.50 0.6383
563.60 0.6379
563.70 0.6374
563.80 0.637
563.90 0.6366
564.00 0.6362
564.10 0.6357
564.20 0.6353
564.30 0.6349
564.40 0.6344
564.50 0.634
564.60 0.6336
564.70 0.6332
564.80 0.6327
564.90 0.6323
565.00 0.6319
565.10 0.6315
565.20 0.631
565.30 0.6306
565.40 0.6302
565.50 0.6298
565.60 0.6293
565.70 0.6289
565.80 0.6285
565.90 0.6281
566.00 0.6277
566.10 0.6272
566.20 0.6268
566.30 0.6264
566.40 0.626
566.50 0.6255
566.60 0.6251
566.70 0.6247
566.80 0.6243
566.90 0.6239
567.00 0.6235
567.10 0.623
567.20 0.6226
567.30 0.6222
567.40 0.6218
567.50 0.6214
567.60 0.621
567.70 0.6205
567.80 0.6201
567.90 0.6197
568.00 0.6193
568.10 0.6189
568.20 0.6185
568.30 0.618
568.40 0.6176
568.50 0.6172
568.60 0.6168
568.70 0.6164
568.80 0.616
568.90 0.6156
569.00 0.6152
569.10 0.6147
569.20 0.6143
569.30 0.6139
569.40 0.6135
569.50 0.6131
569.60 0.6127
569.70 0.6123
569.80 0.6119
569.90 0.6115
570.00 0.6111
570.10 0.6107
570.20 0.6102
570.30 0.6098
570.40 0.6094
570.50 0.609
570.60 0.6086
570.70 0.6082
570.80 0.6078
570.90 0.6074
571.00 0.607
571.10 0.6066
571.20 0.6062
571.30 0.6058
571.40 0.6054
571.50 0.605
571.60 0.6046
571.70 0.6042
571.80 0.6038
571.90 0.6034
572.00 0.603
572.10 0.6026
572.20 0.6022
572.30 0.6018
572.40 0.6014
572.50 0.601
572.60 0.6006
572.70 0.6002
572.80 0.5998
572.90 0.5994
573.00 0.599
573.10 0.5986
573.20 0.5982
573.30 0.5978
573.40 0.5974
573.50 0.597
573.60 0.5966
573.70 0.5962
573.80 0.5958
573.90 0.5954
574.00 0.595
574.10 0.5946
574.20 0.5942
574.30 0.5938
574.40 0.5934
574.50 0.593
574.60 0.5927
574.70 0.5923
574.80 0.5919
574.90 0.5915
575.00 0.5911
575.10 0.5907
575.20 0.5903
575.30 0.5899
575.40 0.5895
575.50 0.5891
575.60 0.5887
575.70 0.5884
575.80 0.588
575.90 0.5876
576.00 0.5872
576.10 0.5868
576.20 0.5864
576.30 0.586
576.40 0.5856
576.50 0.5853
576.60 0.5849
576.70 0.5845
576.80 0.5841
576.90 0.5837
577.00 0.5833
577.10 0.5829
577.20 0.5826
577.30 0.5822
577.40 0.5818
577.50 0.5814
577.60 0.581
577.70 0.5806
577.80 0.5803
577.90 0.5799
578.00 0.5795
578.10 0.5791
578.20 0.5787
578.30 0.5784
578.40 0.578
578.50 0.5776
578.60 0.5772
578.70 0.5768
578.80 0.5765
578.90 0.5761
579.00 0.5757
579.10 0.5753
579.20 0.5749
579.30 0.5746
579.40 0.5742
579.50 0.5738
579.60 0.5734
579.70 0.573
579.80 0.5727
579.90 0.5723
580.00 0.5719
580.10 0.5715
580.20 0.5712
580.30 0.5708
580.40 0.5704
580.50 0.57
580.60 0.5697
580.70 0.5693
580.80 0.5689
580.90 0.5686
581.00 0.5682
581.10 0.5678
581.20 0.5674
581.30 0.5671
581.40 0.5667
581.50 0.5663
581.60 0.566
581.70 0.5656
581.80 0.5652
581.90 0.5648
582.00 0.5645
582.10 0.5641
582.20 0.5637
582.30 0.5634
582.40 0.563
582.50 0.5626
582.60 0.5623
582.70 0.5619
582.80 0.5615
582.90 0.5612
583.00 0.5608
583.10 0.5604
583.20 0.5601
583.30 0.5597
583.40 0.5593
583.50 0.559
583.60 0.5586
583.70 0.5582
583.80 0.5579
583.90 0.5575
584.00 0.5571
584.10 0.5568
584.20 0.5564
584.30 0.5561
584.40 0.5557
584.50 0.5553
584.60 0.555
584.70 0.5546
584.80 0.5542
584.90 0.5539
585.00 0.5535
585.10 0.5532
585.20 0.5528
585.30 0.5524
585.40 0.5521
585.50 0.5517
585.60 0.5514
585.70 0.551
585.80 0.5506
585.90 0.5503
586.00 0.5499
586.10 0.5496
586.20 0.5492
586.30 0.5489
586.40 0.5485
586.50 0.5482
586.60 0.5478
586.70 0.5474
586.80 0.5471
586.90 0.5467
587.00 0.5464
587.10 0.546
587.20 0.5457
587.30 0.5453
587.40 0.545
587.50 0.5446
587.60 0.5443
587.70 0.5439
587.80 0.5435
587.90 0.5432
588.00 0.5428
588.10 0.5425
588.20 0.5421
588.30 0.5418
588.40 0.5414
588.50 0.5411
588.60 0.5407
588.70 0.5404
588.80 0.54
588.90 0.5397
589.00 0.5393
589.10 0.539
589.20 0.5386
589.30 0.5383
589.40 0.5379
589.50 0.5376
589.60 0.5372
589.70 0.5369
589.80 0.5366
589.90 0.5362
590.00 0.5359
590.10 0.5355
590.20 0.5352
590.30 0.5348
590.40 0.5345
590.50 0.5341
590.60 0.5338
590.70 0.5334
590.80 0.5331
590.90 0.5328
591.00 0.5324
591.10 0.5321
591.20 0.5317
591.30 0.5314
591.40 0.531
591.50 0.5307
591.60 0.5304
591.70 0.53
591.80 0.5297
591.90 0.5293
592.00 0.529
592.10 0.5286
592.20 0.5283
592.30 0.528
592.40 0.5276
592.50 0.5273
592.60 0.527
592.70 0.5266
592.80 0.5263
592.90 0.5259
593.00 0.5256
593.10 0.5253
593.20 0.5249
593.30 0.5246
593.40 0.5242
593.50 0.5239
593.60 0.5236
593.70 0.5232
593.80 0.5229
593.90 0.5226
594.00 0.5222
594.10 0.5219
594.20 0.5216
594.30 0.5212
594.40 0.5209
594.50 0.5206
594.60 0.5202
594.70 0.5199
594.80 0.5196
594.90 0.5192
595.00 0.5189
595.10 0.5186
595.20 0.5182
595.30 0.5179
595.40 0.5176
595.50 0.5172
595.60 0.5169
595.70 0.5166
595.80 0.5162
595.90 0.5159
596.00 0.5156
596.10 0.5152
596.20 0.5149
596.30 0.5146
596.40 0.5143
596.50 0.5139
596.60 0.5136
596.70 0.5133
596.80 0.5129
596.90 0.5126
597.00 0.5123
597.10 0.512
597.20 0.5116
597.30 0.5113
597.40 0.511
597.50 0.5107
597.60 0.5103
597.70 0.51
597.80 0.5097
597.90 0.5094
598.00 0.509
598.10 0.5087
598.20 0.5084
598.30 0.5081
598.40 0.5077
598.50 0.5074
598.60 0.5071
598.70 0.5068
598.80 0.5064
598.90 0.5061
599.00 0.5058
599.10 0.5055
599.20 0.5052
599.30 0.5048
599.40 0.5045
599.50 0.5042
599.60 0.5039
599.70 0.5035
599.80 0.5032
599.90 0.5029
600.00 0.5026
600.10 0.5023
600.20 0.5019
600.30 0.5016
600.40 0.5013
600.50 0.501
600.60 0.5007
600.70 0.5004
600.80 0.5
600.90 0.4997
601.00 0.4994
601.10 0.4991
601.20 0.4988
601.30 0.4985
601.40 0.4981
601.50 0.4978
601.60 0.4975
601.70 0.4972
601.80 0.4969
601.90 0.4966
602.00 0.4962
602.10 0.4959
602.20 0.4956
602.30 0.4953
602.40 0.495
602.50 0.4947
602.60 0.4944
602.70 0.494
602.80 0.4937
602.90 0.4934
603.00 0.4931
603.10 0.4928
603.20 0.4925
603.30 0.4922
603.40 0.4919
603.50 0.4915
603.60 0.4912
603.70 0.4909
603.80 0.4906
603.90 0.4903
604.00 0.49
604.10 0.4897
604.20 0.4894
604.30 0.4891
604.40 0.4888
604.50 0.4885
604.60 0.4881
604.70 0.4878
604.80 0.4875
604.90 0.4872
605.00 0.4869
605.10 0.4866
605.20 0.4863
605.30 0.486
605.40 0.4857
605.50 0.4854
605.60 0.4851
605.70 0.4848
605.80 0.4845
605.90 0.4842
606.00 0.4838
606.10 0.4835
606.20 0.4832
606.30 0.4829
606.40 0.4826
606.50 0.4823
606.60 0.482
606.70 0.4817
606.80 0.4814
606.90 0.4811
607.00 0.4808
607.10 0.4805
607.20 0.4802
607.30 0.4799
607.40 0.4796
607.50 0.4793
607.60 0.479
607.70 0.4787
607.80 0.4784
607.90 0.4781
608.00 0.4778
608.10 0.4775
608.20 0.4772
608.30 0.4769
608.40 0.4766
608.50 0.4763
608.60 0.476
608.70 0.4757
608.80 0.4754
608.90 0.4751
609.00 0.4748
609.10 0.4745
609.20 0.4742
609.30 0.4739
609.40 0.4736
609.50 0.4733
609.60 0.473
609.70 0.4727
609.80 0.4724
609.90 0.4721
610.00 0.4718
610.10 0.4715
610.20 0.4712
610.30 0.4709
610.40 0.4707
610.50 0.4704
610.60 0.4701
610.70 0.4698
610.80 0.4695
610.90 0.4692
611.00 0.4689
611.10 0.4686
611.20 0.4683
611.30 0.468
611.40 0.4677
611.50 0.4674
611.60 0.4671
611.70 0.4668
611.80 0.4665
611.90 0.4663
612.00 0.466
612.10 0.4657
612.20 0.4654
612.30 0.4651
612.40 0.4648
612.50 0.4645
612.60 0.4642
612.70 0.4639
612.80 0.4636
612.90 0.4634
613.00 0.4631
613.10 0.4628
613.20 0.4625
613.30 0.4622
613.40 0.4619
613.50 0.4616
613.60 0.4613
613.70 0.461
613.80 0.4608
613.90 0.4605
614.00 0.4602
614.10 0.4599
614.20 0.4596
614.30 0.4593
614.40 0.459
614.50 0.4588
614.60 0.4585
614.70 0.4582
614.80 0.4579
614.90 0.4576
615.00 0.4573
615.10 0.457
615.20 0.4568
615.30 0.4565
615.40 0.4562
615.50 0.4559
615.60 0.4556
615.70 0.4553
615.80 0.4551
615.90 0.4548
616.00 0.4545
616.10 0.4542
616.20 0.4539
616.30 0.4536
616.40 0.4534
616.50 0.4531
616.60 0.4528
616.70 0.4525
616.80 0.4522
616.90 0.452
617.00 0.4517
617.10 0.4514
617.20 0.4511
617.30 0.4508
617.40 0.4506
617.50 0.4503
617.60 0.45
617.70 0.4497
617.80 0.4494
617.90 0.4492
618.00 0.4489
618.10 0.4486
618.20 0.4483
618.30 0.448
618.40 0.4478
618.50 0.4475
618.60 0.4472
618.70 0.4469
618.80 0.4467
618.90 0.4464
619.00 0.4461
619.10 0.4458
619.20 0.4456
619.30 0.4453
619.40 0.445
619.50 0.4447
619.60 0.4444
619.70 0.4442
619.80 0.4439
619.90 0.4436
620.00 0.4434
620.10 0.4431
620.20 0.4428
620.30 0.4425
620.40 0.4423
620.50 0.442
620.60 0.4417
620.70 0.4414
620.80 0.4412
620.90 0.4409
621.00 0.4406
621.10 0.4403
621.20 0.4401
621.30 0.4398
621.40 0.4395
621.50 0.4393
621.60 0.439
621.70 0.4387
621.80 0.4384
621.90 0.4382
622.00 0.4379
622.10 0.4376
622.20 0.4374
622.30 0.4371
622.40 0.4368
622.50 0.4366
622.60 0.4363
622.70 0.436
622.80 0.4357
622.90 0.4355
623.00 0.4352
623.10 0.4349
623.20 0.4347
623.30 0.4344
623.40 0.4341
623.50 0.4339
623.60 0.4336
623.70 0.4333
623.80 0.4331
623.90 0.4328
624.00 0.4325
624.10 0.4323
624.20 0.432
624.30 0.4317
624.40 0.4315
624.50 0.4312
624.60 0.4309
624.70 0.4307
624.80 0.4304
624.90 0.4301
625.00 0.4299
625.10 0.4296
625.20 0.4293
625.30 0.4291
625.40 0.4288
625.50 0.4286
625.60 0.4283
625.70 0.428
625.80 0.4278
625.90 0.4275
626.00 0.4272
626.10 0.427
626.20 0.4267
626.30 0.4264
626.40 0.4262
626.50 0.4259
626.60 0.4257
626.70 0.4254
626.80 0.4251
626.90 0.4249
627.00 0.4246
627.10 0.4244
627.20 0.4241
627.30 0.4238
627.40 0.4236
627.50 0.4233
627.60 0.423
627.70 0.4228
627.80 0.4225
627.90 0.4223
628.00 0.422
628.10 0.4217
628.20 0.4215
628.30 0.4212
628.40 0.421
628.50 0.4207
628.60 0.4205
628.70 0.4202
628.80 0.4199
628.90 0.4197
629.00 0.4194
629.10 0.4192
629.20 0.4189
629.30 0.4186
629.40 0.4184
629.50 0.4181
629.60 0.4179
629.70 0.4176
629.80 0.4174
629.90 0.4171
630.00 0.4168
630.10 0.4166
630.20 0.4163
630.30 0.4161
630.40 0.4158
630.50 0.4156
630.60 0.4153
630.70 0.4151
630.80 0.4148
630.90 0.4145
631.00 0.4143
631.10 0.414
631.20 0.4138
631.30 0.4135
631.40 0.4133
631.50 0.413
631.60 0.4128
631.70 0.4125
631.80 0.4123
631.90 0.412
632.00 0.4117
632.10 0.4115
632.20 0.4112
632.30 0.411
632.40 0.4107
632.50 0.4105
632.60 0.4102
632.70 0.41
632.80 0.4097
632.90 0.4095
633.00 0.4092
633.10 0.409
633.20 0.4087
633.30 0.4085
633.40 0.4082
633.50 0.408
633.60 0.4077
633.70 0.4075
633.80 0.4072
633.90 0.4069
634.00 0.4067
634.10 0.4064
634.20 0.4062
634.30 0.4059
634.40 0.4057
634.50 0.4054
634.60 0.4052
634.70 0.4049
634.80 0.4047
634.90 0.4044
635.00 0.4042
635.10 0.4039
635.20 0.4037
635.30 0.4034
635.40 0.4032
635.50 0.4029
635.60 0.4027
635.70 0.4024
635.80 0.4022
635.90 0.4019
636.00 0.4017
636.10 0.4014
636.20 0.4012
636.30 0.4009
636.40 0.4007
636.50 0.4004
636.60 0.4002
636.70 0.3999
636.80 0.3997
636.90 0.3994
637.00 0.3992
637.10 0.3989
637.20 0.3987
637.30 0.3984
637.40 0.3982
637.50 0.398
637.60 0.3977
637.70 0.3975
637.80 0.3972
637.90 0.397
638.00 0.3967
638.10 0.3965
638.20 0.3962
638.30 0.396
638.40 0.3957
638.50 0.3955
638.60 0.3952
638.70 0.395
638.80 0.3947
638.90 0.3945
639.00 0.3942
639.10 0.394
639.20 0.3937
639.30 0.3935
639.40 0.3932
639.50 0.393
639.60 0.3927
639.70 0.3925
639.80 0.3922
639.90 0.392
640.00 0.3917
640.10 0.3915
640.20 0.3912
640.30 0.391
640.40 0.3907
640.50 0.3905
640.60 0.3902
640.70 0.39
640.80 0.3897
640.90 0.3895
641.00 0.3892
641.10 0.389
641.20 0.3887
641.30 0.3885
641.40 0.3882
641.50 0.3879
641.60 0.3877
641.70 0.3874
641.80 0.3872
641.90 0.3869
642.00 0.3867
642.10 0.3864
642.20 0.3862
642.30 0.3859
642.40 0.3857
642.50 0.3854
642.60 0.3851
642.70 0.3849
642.80 0.3846
642.90 0.3844
643.00 0.3841
643.10 0.3839
643.20 0.3836
643.30 0.3833
643.40 0.3831
643.50 0.3828
643.60 0.3826
643.70 0.3823
643.80 0.382
643.90 0.3818
644.00 0.3815
644.10 0.3812
644.20 0.381
644.30 0.3807
644.40 0.3804
644.50 0.3802
644.60 0.3799
644.70 0.3796
644.80 0.3794
644.90 0.3791
645.00 0.3788
645.10 0.3785
645.20 0.3783
645.30 0.378
645.40 0.3777
645.50 0.3774
645.60 0.3771
645.70 0.3769
645.80 0.3766
645.90 0.3763
646.00 0.376
646.10 0.3757
646.20 0.3755
646.30 0.3752
646.40 0.3749
646.50 0.3746
646.60 0.3743
646.70 0.374
646.80 0.3737
646.90 0.3734
647.00 0.3731
647.10 0.3728
647.20 0.3725
647.30 0.3722
647.40 0.3718
647.50 0.3715
647.60 0.3712
647.70 0.3709
647.80 0.3705
647.90 0.3702
648.00 0.3699
648.10 0.3696
648.20 0.3692
648.30 0.3689
648.40 0.3685
648.50 0.3682
648.60 0.3678
648.70 0.3674
648.80 0.3671
648.90 0.3667
649.00 0.3663
649.10 0.366
649.20 0.3656
649.30 0.3652
649.40 0.3648
649.50 0.3644
649.60 0.364
649.70 0.3635
649.80 0.3631
649.90 0.3627
650.00 0.3623
650.10 0.3619
650.20 0.3614
650.30 0.361
650.40 0.3605
650.50 0.3599
650.60 0.3594
650.70 0.3589
650.80 0.3584
650.90 0.3579
651.00 0.3574
651.10 0.3568
651.20 0.3563
651.30 0.3558
651.40 0.3551
651.50 0.3545
651.60 0.3538
651.70 0.3531
651.80 0.3525
651.90 0.3518
652.00 0.3511
652.10 0.3505
652.20 0.3498
652.30 0.3491
652.40 0.3482
652.50 0.3473
652.60 0.3464
652.70 0.3455
652.80 0.3446
652.90 0.3437
653.00 0.3428
653.10 0.3419
653.20 0.341
653.30 0.3401
653.40 0.3388
653.50 0.3375
653.60 0.3363
653.70 0.335
653.80 0.3338
653.90 0.3325
654.00 0.3312
654.10 0.33
654.20 0.3287
654.30 0.3274
654.40 0.3258
654.50 0.3241
654.60 0.3225
654.70 0.3208
654.80 0.3191
654.90 0.3172
655.00 0.3153
655.10 0.3133
655.20 0.3114
655.30 0.3094
655.40 0.3072
655.50 0.305
655.60 0.3027
655.70 0.3003
655.80 0.2978
655.90 0.2953
656.00 0.2924
656.10 0.2894
656.20 0.2861
656.30 0.2921
656.40 0.2866
656.50 0.2899
656.60 0.2925
656.70 0.295
656.80 0.2971
656.90 0.2992
657.00 0.3012
657.10 0.3031
657.20 0.3049
657.30 0.3067
657.40 0.3083
657.50 0.3099
657.60 0.3115
657.70 0.313
657.80 0.3145
657.90 0.3158
658.00 0.3171
658.10 0.3183
658.20 0.3196
658.30 0.3207
658.40 0.3216
658.50 0.3224
658.60 0.3233
658.70 0.3242
658.80 0.325
658.90 0.3259
659.00 0.3267
659.10 0.3276
659.20 0.3284
659.30 0.3292
659.40 0.3297
659.50 0.3302
659.60 0.3307
659.70 0.3311
659.80 0.3316
659.90 0.3321
660.00 0.3326
660.10 0.3331
660.20 0.3335
660.30 0.334
660.40 0.3342
660.50 0.3344
660.60 0.3347
660.70 0.3349
660.80 0.3352
660.90 0.3354
661.00 0.3356
661.10 0.3359
661.20 0.3361
661.30 0.3363
661.40 0.3364
661.50 0.3365
661.60 0.3366
661.70 0.3367
661.80 0.3368
661.90 0.3369
662.00 0.337
662.10 0.3371
662.20 0.3371
662.30 0.3372
662.40 0.3372
662.50 0.3372
662.60 0.3372
662.70 0.3372
662.80 0.3372
662.90 0.3372
663.00 0.3372
663.10 0.3372
663.20 0.3372
663.30 0.3372
663.40 0.3371
663.50 0.337
663.60 0.337
663.70 0.3369
663.80 0.3368
663.90 0.3368
664.00 0.3367
664.10 0.3367
664.20 0.3366
664.30 0.3365
664.40 0.3364
664.50 0.3363
664.60 0.3362
664.70 0.3361
664.80 0.336
664.90 0.3359
665.00 0.3358
665.10 0.3357
665.20 0.3356
665.30 0.3355
665.40 0.3354
665.50 0.3353
665.60 0.3351
665.70 0.335
665.80 0.3349
665.90 0.3348
666.00 0.3346
666.10 0.3345
666.20 0.3344
666.30 0.3343
666.40 0.3341
666.50 0.334
666.60 0.3338
666.70 0.3337
666.80 0.3335
666.90 0.3334
667.00 0.3333
667.10 0.3331
667.20 0.333
667.30 0.3328
667.40 0.3327
667.50 0.3325
667.60 0.3324
667.70 0.3322
667.80 0.3321
667.90 0.3319
668.00 0.3318
668.10 0.3316
668.20 0.3315
668.30 0.3313
668.40 0.3311
668.50 0.331
668.60 0.3308
668.70 0.3307
668.80 0.3305
668.90 0.3303
669.00 0.3302
669.10 0.33
669.20 0.3298
669.30 0.3297
669.40 0.3295
669.50 0.3294
669.60 0.3292
669.70 0.329
669.80 0.3289
669.90 0.3287
670.00 0.3285
670.10 0.3284
670.20 0.3282
670.30 0.328
670.40 0.3279
670.50 0.3277
670.60 0.3275
670.70 0.3274
670.80 0.3272
670.90 0.327
671.00 0.3268
671.10 0.3267
671.20 0.3265
671.30 0.3263
671.40 0.3262
671.50 0.326
671.60 0.3258
671.70 0.3256
671.80 0.3255
671.90 0.3253
672.00 0.3251
672.10 0.325
672.20 0.3248
672.30 0.3246
672.40 0.3244
672.50 0.3243
672.60 0.3241
672.70 0.3239
672.80 0.3238
672.90 0.3236
673.00 0.3234
673.10 0.3232
673.20 0.3231
673.30 0.3229
673.40 0.3227
673.50 0.3225
673.60 0.3224
673.70 0.3222
673.80 0.322
673.90 0.3218
674.00 0.3217
674.10 0.3215
674.20 0.3213
674.30 0.3212
674.40 0.321
674.50 0.3208
674.60 0.3206
674.70 0.3205
674.80 0.3203
674.90 0.3201
675.00 0.3199
675.10 0.3198
675.20 0.3196
675.30 0.3194
675.40 0.3192
675.50 0.3191
675.60 0.3189
675.70 0.3187
675.80 0.3185
675.90 0.3184
676.00 0.3182
676.10 0.318
676.20 0.3178
676.30 0.3177
676.40 0.3175
676.50 0.3173
676.60 0.3171
676.70 0.317
676.80 0.3168
676.90 0.3166
677.00 0.3164
677.10 0.3163
677.20 0.3161
677.30 0.3159
677.40 0.3158
677.50 0.3156
677.60 0.3154
677.70 0.3152
677.80 0.3151
677.90 0.3149
678.00 0.3147
678.10 0.3145
678.20 0.3144
678.30 0.3142
678.40 0.314
678.50 0.3138
678.60 0.3137
678.70 0.3135
678.80 0.3133
678.90 0.3132
679.00 0.313
679.10 0.3128
679.20 0.3126
679.30 0.3125
679.40 0.3123
679.50 0.3121
679.60 0.3119
679.70 0.3118
679.80 0.3116
679.90 0.3114
680.00 0.3113
680.10 0.3111
680.20 0.3109
680.30 0.3107
680.40 0.3106
680.50 0.3104
680.60 0.3102
680.70 0.3101
680.80 0.3099
680.90 0.3097
681.00 0.3095
681.10 0.3094
681.20 0.3092
681.30 0.309
681.40 0.3089
681.50 0.3087
681.60 0.3085
681.70 0.3083
681.80 0.3082
681.90 0.308
682.00 0.3078
682.10 0.3077
682.20 0.3075
682.30 0.3073
682.40 0.3071
682.50 0.307
682.60 0.3068
682.70 0.3066
682.80 0.3065
682.90 0.3063
683.00 0.3061
683.10 0.306
683.20 0.3058
683.30 0.3056
683.40 0.3054
683.50 0.3053
683.60 0.3051
683.70 0.3049
683.80 0.3048
683.90 0.3046
684.00 0.3044
684.10 0.3043
684.20 0.3041
684.30 0.3039
684.40 0.3038
684.50 0.3036
684.60 0.3034
684.70 0.3033
684.80 0.3031
684.90 0.3029
685.00 0.3027
685.10 0.3026
685.20 0.3024
685.30 0.3022
685.40 0.3021
685.50 0.3019
685.60 0.3017
685.70 0.3016
685.80 0.3014
685.90 0.3012
686.00 0.3011
686.10 0.3009
686.20 0.3007
686.30 0.3006
686.40 0.3004
686.50 0.3002
686.60 0.3001
686.70 0.2999
686.80 0.2997
686.90 0.2996
687.00 0.2994
687.10 0.2992
687.20 0.2991
687.30 0.2989
687.40 0.2988
687.50 0.2986
687.60 0.2984
687.70 0.2983
687.80 0.2981
687.90 0.2979
688.00 0.2978
688.10 0.2976
688.20 0.2974
688.30 0.2973
688.40 0.2971
688.50 0.2969
688.60 0.2968
688.70 0.2966
688.80 0.2964
688.90 0.2963
689.00 0.2961
689.10 0.296
689.20 0.2958
689.30 0.2956
689.40 0.2955
689.50 0.2953
689.60 0.2951
689.70 0.295
689.80 0.2948
689.90 0.2947
690.00 0.2945
690.10 0.2943
690.20 0.2942
690.30 0.294
690.40 0.2938
690.50 0.2937
690.60 0.2935
690.70 0.2934
690.80 0.2932
690.90 0.293
691.00 0.2929
691.10 0.2927
691.20 0.2925
691.30 0.2924
691.40 0.2922
691.50 0.2921
691.60 0.2919
691.70 0.2917
691.80 0.2916
691.90 0.2914
692.00 0.2913
692.10 0.2911
692.20 0.2909
692.30 0.2908
692.40 0.2906
692.50 0.2905
692.60 0.2903
692.70 0.2901
692.80 0.29
692.90 0.2898
693.00 0.2897
693.10 0.2895
693.20 0.2893
693.30 0.2892
693.40 0.289
693.50 0.2889
693.60 0.2887
693.70 0.2885
693.80 0.2884
693.90 0.2882
694.00 0.2881
694.10 0.2879
694.20 0.2877
694.30 0.2876
694.40 0.2874
694.50 0.2873
694.60 0.2871
694.70 0.287
694.80 0.2868
694.90 0.2866
695.00 0.2865
695.10 0.2863
695.20 0.2862
695.30 0.286
695.40 0.2858
695.50 0.2857
695.60 0.2855
695.70 0.2854
695.80 0.2852
695.90 0.2851
696.00 0.2849
696.10 0.2848
696.20 0.2846
696.30 0.2844
696.40 0.2843
696.50 0.2841
696.60 0.284
696.70 0.2838
696.80 0.2837
696.90 0.2835
697.00 0.2834
697.10 0.2832
697.20 0.283
697.30 0.2829
697.40 0.2827
697.50 0.2826
697.60 0.2824
697.70 0.2823
697.80 0.2821
697.90 0.282
698.00 0.2818
698.10 0.2816
698.20 0.2815
698.30 0.2813
698.40 0.2812
698.50 0.281
698.60 0.2809
698.70 0.2807
698.80 0.2806
698.90 0.2804
699.00 0.2803
699.10 0.2801
699.20 0.28
699.30 0.2798
699.40 0.2796
699.50 0.2795
699.60 0.2793
699.70 0.2792
699.80 0.279
699.90 0.2789
700.00 0.2787
700.10 0.2786
700.20 0.2784
700.30 0.2783
700.40 0.2781
700.50 0.278
700.60 0.2778
700.70 0.2777
700.80 0.2775
700.90 0.2774
701.00 0.2772
701.10 0.2771
701.20 0.2769
701.30 0.2768
701.40 0.2766
701.50 0.2765
701.60 0.2763
701.70 0.2762
701.80 0.276
701.90 0.2759
702.00 0.2757
702.10 0.2756
702.20 0.2754
702.30 0.2753
702.40 0.2751
702.50 0.275
702.60 0.2748
702.70 0.2747
702.80 0.2745
702.90 0.2744
703.00 0.2742
703.10 0.2741
703.20 0.2739
703.30 0.2738
703.40 0.2736
703.50 0.2735
703.60 0.2733
703.70 0.2732
703.80 0.273
703.90 0.2729
704.00 0.2727
704.10 0.2726
704.20 0.2724
704.30 0.2723
704.40 0.2721
704.50 0.272
704.60 0.2718
704.70 0.2717
704.80 0.2715
704.90 0.2714
705.00 0.2712
705.10 0.2711
705.20 0.2709
705.30 0.2708
705.40 0.2706
705.50 0.2705
705.60 0.2704
705.70 0.2702
705.80 0.2701
705.90 0.2699
706.00 0.2698
706.10 0.2696
706.20 0.2695
706.30 0.2693
706.40 0.2692
706.50 0.269
706.60 0.2689
706.70 0.2687
706.80 0.2686
706.90 0.2685
707.00 0.2683
707.10 0.2682
707.20 0.268
707.30 0.2679
707.40 0.2677
707.50 0.2676
707.60 0.2674
707.70 0.2673
707.80 0.2672
707.90 0.267
708.00 0.2669
708.10 0.2667
708.20 0.2666
708.30 0.2664
708.40 0.2663
708.50 0.2661
708.60 0.266
708.70 0.2659
708.80 0.2657
708.90 0.2656
709.00 0.2654
709.10 0.2653
709.20 0.2651
709.30 0.265
709.40 0.2648
709.50 0.2647
709.60 0.2646
709.70 0.2644
709.80 0.2643
709.90 0.2641
710.00 0.264
710.10 0.2638
710.20 0.2637
710.30 0.2636
710.40 0.2634
710.50 0.2633
710.60 0.2631
710.70 0.263
710.80 0.2629
710.90 0.2627
711.00 0.2626
711.10 0.2624
711.20 0.2623
711.30 0.2621
711.40 0.262
711.50 0.2619
711.60 0.2617
711.70 0.2616
711.80 0.2614
711.90 0.2613
712.00 0.2612
712.10 0.261
712.20 0.2609
712.30 0.2607
712.40 0.2606
712.50 0.2605
712.60 0.2603
712.70 0.2602
712.80 0.26
712.90 0.2599
713.00 0.2598
713.10 0.2596
713.20 0.2595
713.30 0.2593
713.40 0.2592
713.50 0.2591
713.60 0.2589
713.70 0.2588
713.80 0.2586
713.90 0.2585
714.00 0.2584
714.10 0.2582
714.20 0.2581
714.30 0.2579
714.40 0.2578
714.50 0.2577
714.60 0.2575
714.70 0.2574
714.80 0.2573
714.90 0.2571
715.00 0.257
715.10 0.2568
715.20 0.2567
715.30 0.2566
715.40 0.2564
715.50 0.2563
715.60 0.2562
715.70 0.256
715.80 0.2559
715.90 0.2557
716.00 0.2556
716.10 0.2555
716.20 0.2553
716.30 0.2552
716.40 0.2551
716.50 0.2549
716.60 0.2548
716.70 0.2546
716.80 0.2545
716.90 0.2544
717.00 0.2542
717.10 0.2541
717.20 0.254
717.30 0.2538
717.40 0.2537
717.50 0.2536
717.60 0.2534
717.70 0.2533
717.80 0.2532
717.90 0.253
718.00 0.2529
718.10 0.2527
718.20 0.2526
718.30 0.2525
718.40 0.2523
718.50 0.2522
718.60 0.2521
718.70 0.2519
718.80 0.2518
718.90 0.2517
719.00 0.2515
719.10 0.2514
719.20 0.2513
719.30 0.2511
719.40 0.251
719.50 0.2509
719.60 0.2507
719.70 0.2506
719.80 0.2505
719.90 0.2503
720.00 0.2502
720.10 0.2501
720.20 0.2499
720.30 0.2498
720.40 0.2497
720.50 0.2495
720.60 0.2494
720.70 0.2493
720.80 0.2491
720.90 0.249
721.00 0.2489
721.10 0.2487
721.20 0.2486
721.30 0.2485
721.40 0.2483
721.50 0.2482
721.60 0.2481
721.70 0.2479
721.80 0.2478
721.90 0.2477
722.00 0.2475
722.10 0.2474
722.20 0.2473
722.30 0.2472
722.40 0.247
722.50 0.2469
722.60 0.2468
722.70 0.2466
722.80 0.2465
722.90 0.2464
723.00 0.2462
723.10 0.2461
723.20 0.246
723.30 0.2458
723.40 0.2457
723.50 0.2456
723.60 0.2455
723.70 0.2453
723.80 0.2452
723.90 0.2451
724.00 0.2449
724.10 0.2448
724.20 0.2447
724.30 0.2445
724.40 0.2444
724.50 0.2443
724.60 0.2442
724.70 0.244
724.80 0.2439
724.90 0.2438
725.00 0.2436
725.10 0.2435
725.20 0.2434
725.30 0.2432
725.40 0.2431
725.50 0.243
725.60 0.2429
725.70 0.2427
725.80 0.2426
725.90 0.2425
726.00 0.2424
726.10 0.2422
726.20 0.2421
726.30 0.242
726.40 0.2418
726.50 0.2417
726.60 0.2416
726.70 0.2415
726.80 0.2413
726.90 0.2412
727.00 0.2411
727.10 0.2409
727.20 0.2408
727.30 0.2407
727.40 0.2406
727.50 0.2404
727.60 0.2403
727.70 0.2402
727.80 0.2401
727.90 0.2399
728.00 0.2398
728.10 0.2397
728.20 0.2396
728.30 0.2394
728.40 0.2393
728.50 0.2392
728.60 0.239
728.70 0.2389
728.80 0.2388
728.90 0.2387
729.00 0.2385
729.10 0.2384
729.20 0.2383
729.30 0.2382
729.40 0.238
729.50 0.2379
729.60 0.2378
729.70 0.2377
729.80 0.2375
729.90 0.2374
730.00 0.2373
730.10 0.2372
730.20 0.237
730.30 0.2369
730.40 0.2368
730.50 0.2367
730.60 0.2365
730.70 0.2364
730.80 0.2363
730.90 0.2362
731.00 0.2361
731.10 0.2359
731.20 0.2358
731.30 0.2357
731.40 0.2356
731.50 0.2354
731.60 0.2353
731.70 0.2352
731.80 0.2351
731.90 0.2349
732.00 0.2348
732.10 0.2347
732.20 0.2346
732.30 0.2345
732.40 0.2343
732.50 0.2342
732.60 0.2341
732.70 0.234
732.80 0.2338
732.90 0.2337
733.00 0.2336
733.10 0.2335
733.20 0.2334
733.30 0.2332
733.40 0.2331
733.50 0.233
733.60 0.2329
733.70 0.2327
733.80 0.2326
733.90 0.2325
734.00 0.2324
734.10 0.2323
734.20 0.2321
734.30 0.232
734.40 0.2319
734.50 0.2318
734.60 0.2317
734.70 0.2315
734.80 0.2314
734.90 0.2313
735.00 0.2312
735.10 0.2311
735.20 0.2309
735.30 0.2308
735.40 0.2307
735.50 0.2306
735.60 0.2304
735.70 0.2303
735.80 0.2302
735.90 0.2301
736.00 0.23
736.10 0.2298
736.20 0.2297
736.30 0.2296
736.40 0.2295
736.50 0.2294
736.60 0.2292
736.70 0.2291
736.80 0.229
736.90 0.2289
737.00 0.2288
737.10 0.2286
737.20 0.2285
737.30 0.2284
737.40 0.2283
737.50 0.2282
737.60 0.228
737.70 0.2279
737.80 0.2278
737.90 0.2277
738.00 0.2276
738.10 0.2275
738.20 0.2273
738.30 0.2272
738.40 0.2271
738.50 0.227
738.60 0.2269
738.70 0.2267
738.80 0.2266
738.90 0.2265
739.00 0.2264
739.10 0.2263
739.20 0.2261
739.30 0.226
739.40 0.2259
739.50 0.2258
739.60 0.2257
739.70 0.2256
739.80 0.2254
739.90 0.2253
740.00 0.2252
740.10 0.2251
740.20 0.225
740.30 0.2249
740.40 0.2247
740.50 0.2246
740.60 0.2245
740.70 0.2244
740.80 0.2243
740.90 0.2242
741.00 0.224
741.10 0.2239
741.20 0.2238
741.30 0.2237
741.40 0.2236
741.50 0.2235
741.60 0.2234
741.70 0.2232
741.80 0.2231
741.90 0.223
742.00 0.2229
742.10 0.2228
742.20 0.2227
742.30 0.2225
742.40 0.2224
742.50 0.2223
742.60 0.2222
742.70 0.2221
742.80 0.222
742.90 0.2219
743.00 0.2217
743.10 0.2216
743.20 0.2215
743.30 0.2214
743.40 0.2213
743.50 0.2212
743.60 0.2211
743.70 0.2209
743.80 0.2208
743.90 0.2207
744.00 0.2206
744.10 0.2205
744.20 0.2204
744.30 0.2203
744.40 0.2202
744.50 0.22
744.60 0.2199
744.70 0.2198
744.80 0.2197
744.90 0.2196
745.00 0.2195
745.10 0.2194
745.20 0.2192
745.30 0.2191
745.40 0.219
745.50 0.2189
745.60 0.2188
745.70 0.2187
745.80 0.2186
745.90 0.2185
746.00 0.2183
746.10 0.2182
746.20 0.2181
746.30 0.218
746.40 0.2179
746.50 0.2178
746.60 0.2177
746.70 0.2176
746.80 0.2174
746.90 0.2173
747.00 0.2172
747.10 0.2171
747.20 0.217
747.30 0.2169
747.40 0.2168
747.50 0.2167
747.60 0.2165
747.70 0.2164
747.80 0.2163
747.90 0.2162
748.00 0.2161
748.10 0.216
748.20 0.2159
748.30 0.2158
748.40 0.2157
748.50 0.2155
748.60 0.2154
748.70 0.2153
748.80 0.2152
748.90 0.2151
749.00 0.215
749.10 0.2149
749.20 0.2148
749.30 0.2147
749.40 0.2145
749.50 0.2144
749.60 0.2143
749.70 0.2142
749.80 0.2141
749.90 0.214
750.00 0.2139
750.10 0.2138
750.20 0.2137
750.30 0.2135
750.40 0.2134
750.50 0.2133
750.60 0.2132
750.70 0.2131
750.80 0.213
750.90 0.2129
751.00 0.2128
751.10 0.2127
751.20 0.2126
751.30 0.2125
751.40 0.2124
751.50 0.2123
751.60 0.2121
751.70 0.212
751.80 0.2119
751.90 0.2118
752.00 0.2117
752.10 0.2116
752.20 0.2115
752.30 0.2114
752.40 0.2113
752.50 0.2112
752.60 0.2111
752.70 0.211
752.80 0.2109
752.90 0.2107
753.00 0.2106
753.10 0.2105
753.20 0.2104
753.30 0.2103
753.40 0.2102
753.50 0.2101
753.60 0.21
753.70 0.2099
753.80 0.2098
753.90 0.2097
754.00 0.2096
754.10 0.2095
754.20 0.2094
754.30 0.2092
754.40 0.2091
754.50 0.209
754.60 0.2089
754.70 0.2088
754.80 0.2087
754.90 0.2086
755.00 0.2085
755.10 0.2084
755.20 0.2083
755.30 0.2082
755.40 0.2081
755.50 0.208
755.60 0.2079
755.70 0.2078
755.80 0.2077
755.90 0.2075
756.00 0.2074
756.10 0.2073
756.20 0.2072
756.30 0.2071
756.40 0.207
756.50 0.2069
756.60 0.2068
756.70 0.2067
756.80 0.2066
756.90 0.2065
757.00 0.2064
757.10 0.2063
757.20 0.2062
757.30 0.2061
757.40 0.206
757.50 0.2059
757.60 0.2058
757.70 0.2057
757.80 0.2055
757.90 0.2054
758.00 0.2053
758.10 0.2052
758.20 0.2051
758.30 0.205
758.40 0.2049
758.50 0.2048
758.60 0.2047
758.70 0.2046
758.80 0.2045
758.90 0.2044
759.00 0.2043
759.10 0.2042
759.20 0.2041
759.30 0.204
759.40 0.2039
759.50 0.2038
759.60 0.2037
759.70 0.2036
759.80 0.2035
759.90 0.2034
760.00 0.2033
760.10 0.2031
760.20 0.203
760.30 0.2029
760.40 0.2028
760.50 0.2027
760.60 0.2026
760.70 0.2025
760.80 0.2024
760.90 0.2023
761.00 0.2022
761.10 0.2021
761.20 0.202
761.30 0.2019
761.40 0.2018
761.50 0.2017
761.60 0.2016
761.70 0.2015
761.80 0.2014
761.90 0.2013
762.00 0.2012
762.10 0.2011
762.20 0.201
762.30 0.2009
762.40 0.2008
762.50 0.2007
762.60 0.2006
762.70 0.2005
762.80 0.2004
762.90 0.2003
763.00 0.2002
763.10 0.2001
763.20 0.2
763.30 0.1999
763.40 0.1998
763.50 0.1997
763.60 0.1996
763.70 0.1995
763.80 0.1994
763.90 0.1993
764.00 0.1992
764.10 0.1991
764.20 0.199
764.30 0.1989
764.40 0.1988
764.50 0.1987
764.60 0.1986
764.70 0.1985
764.80 0.1984
764.90 0.1983
765.00 0.1982
765.10 0.1981
765.20 0.198
765.30 0.1979
765.40 0.1978
765.50 0.1977
765.60 0.1976
765.70 0.1975
765.80 0.1974
765.90 0.1973
766.00 0.1972
766.10 0.1971
766.20 0.197
766.30 0.1969
766.40 0.1968
766.50 0.1967
766.60 0.1966
766.70 0.1965
766.80 0.1964
766.90 0.1963
767.00 0.1962
767.10 0.1961
767.20 0.196
767.30 0.1959
767.40 0.1958
767.50 0.1957
767.60 0.1956
767.70 0.1955
767.80 0.1954
767.90 0.1953
768.00 0.1952
768.10 0.1951
768.20 0.195
768.30 0.1949
768.40 0.1948
768.50 0.1947
768.60 0.1946
768.70 0.1946
768.80 0.1945
768.90 0.1944
769.00 0.1943
769.10 0.1942
769.20 0.1941
769.30 0.194
769.40 0.1939
769.50 0.1938
769.60 0.1937
769.70 0.1936
769.80 0.1935
769.90 0.1934
770.00 0.1933
770.10 0.1932
770.20 0.1931
770.30 0.193
770.40 0.1929
770.50 0.1928
770.60 0.1927
770.70 0.1926
770.80 0.1925
770.90 0.1924
771.00 0.1923
771.10 0.1922
771.20 0.1921
771.30 0.192
771.40 0.1919
771.50 0.1918
771.60 0.1918
771.70 0.1917
771.80 0.1916
771.90 0.1915
772.00 0.1914
772.10 0.1913
772.20 0.1912
772.30 0.1911
772.40 0.191
772.50 0.1909
772.60 0.1908
772.70 0.1907
772.80 0.1906
772.90 0.1905
773.00 0.1904
773.10 0.1903
773.20 0.1902
773.30 0.1901
773.40 0.19
773.50 0.19
773.60 0.1899
773.70 0.1898
773.80 0.1897
773.90 0.1896
774.00 0.1895
774.10 0.1894
774.20 0.1893
774.30 0.1892
774.40 0.1891
774.50 0.189
774.60 0.1889
774.70 0.1888
774.80 0.1887
774.90 0.1886
775.00 0.1885
775.10 0.1884
775.20 0.1884
775.30 0.1883
775.40 0.1882
775.50 0.1881
775.60 0.188
775.70 0.1879
775.80 0.1878
775.90 0.1877
776.00 0.1876
776.10 0.1875
776.20 0.1874
776.30 0.1873
776.40 0.1872
776.50 0.1871
776.60 0.187
776.70 0.187
776.80 0.1869
776.90 0.1868
777.00 0.1867
777.10 0.1866
777.20 0.1865
777.30 0.1864
777.40 0.1863
777.50 0.1862
777.60 0.1861
777.70 0.186
777.80 0.1859
777.90 0.1858
778.00 0.1858
778.10 0.1857
778.20 0.1856
778.30 0.1855
778.40 0.1854
778.50 0.1853
778.60 0.1852
778.70 0.1851
778.80 0.185
778.90 0.1849
779.00 0.1848
779.10 0.1847
779.20 0.1846
779.30 0.1846
779.40 0.1845
779.50 0.1844
779.60 0.1843
779.70 0.1842
779.80 0.1841
779.90 0.184
780.00 0.1839
780.10 0.1838
780.20 0.1837
780.30 0.1836
780.40 0.1836
780.50 0.1835
780.60 0.1834
780.70 0.1833
780.80 0.1832
780.90 0.1831
781.00 0.183
781.10 0.1829
781.20 0.1828
781.30 0.1827
781.40 0.1827
781.50 0.1826
781.60 0.1825
781.70 0.1824
781.80 0.1823
781.90 0.1822
782.00 0.1821
782.10 0.182
782.20 0.1819
782.30 0.1819
782.40 0.1818
782.50 0.1817
782.60 0.1816
782.70 0.1815
782.80 0.1814
782.90 0.1813
783.00 0.1812
783.10 0.1811
783.20 0.1811
783.30 0.181
783.40 0.1809
783.50 0.1808
783.60 0.1807
783.70 0.1806
783.80 0.1805
783.90 0.1804
784.00 0.1803
784.10 0.1803
784.20 0.1802
784.30 0.1801
784.40 0.18
784.50 0.1799
784.60 0.1798
784.70 0.1797
784.80 0.1796
784.90 0.1795
785.00 0.1795
785.10 0.1794
785.20 0.1793
785.30 0.1792
785.40 0.1791
785.50 0.179
785.60 0.1789
785.70 0.1788
785.80 0.1788
785.90 0.1787
786.00 0.1786
786.10 0.1785
786.20 0.1784
786.30 0.1783
786.40 0.1782
786.50 0.1781
786.60 0.1781
786.70 0.178
786.80 0.1779
786.90 0.1778
787.00 0.1777
787.10 0.1776
787.20 0.1775
787.30 0.1774
787.40 0.1774
787.50 0.1773
787.60 0.1772
787.70 0.1771
787.80 0.177
787.90 0.1769
788.00 0.1768
788.10 0.1767
788.20 0.1767
788.30 0.1766
788.40 0.1765
788.50 0.1764
788.60 0.1763
788.70 0.1762
788.80 0.1761
788.90 0.1761
789.00 0.176
789.10 0.1759
789.20 0.1758
789.30 0.1757
789.40 0.1756
789.50 0.1755
789.60 0.1755
789.70 0.1754
789.80 0.1753
789.90 0.1752
790.00 0.1751
790.10 0.175
790.20 0.1749
790.30 0.1749
790.40 0.1748
790.50 0.1747
790.60 0.1746
790.70 0.1745
790.80 0.1744
790.90 0.1743
791.00 0.1743
791.10 0.1742
791.20 0.1741
791.30 0.174
791.40 0.1739
791.50 0.1738
791.60 0.1738
791.70 0.1737
791.80 0.1736
791.90 0.1735
792.00 0.1734
792.10 0.1733
792.20 0.1733
792.30 0.1732
792.40 0.1731
792.50 0.173
792.60 0.1729
792.70 0.1728
792.80 0.1727
792.90 0.1727
793.00 0.1726
793.10 0.1725
793.20 0.1724
793.30 0.1723
793.40 0.1722
793.50 0.1722
793.60 0.1721
793.70 0.172
793.80 0.1719
793.90 0.1718
794.00 0.1717
794.10 0.1717
794.20 0.1716
794.30 0.1715
794.40 0.1714
794.50 0.1713
794.60 0.1712
794.70 0.1712
794.80 0.1711
794.90 0.171
795.00 0.1709
795.10 0.1708
795.20 0.1708
795.30 0.1707
795.40 0.1706
795.50 0.1705
795.60 0.1704
795.70 0.1703
795.80 0.1703
795.90 0.1702
796.00 0.1701
796.10 0.17
796.20 0.1699
796.30 0.1698
796.40 0.1698
796.50 0.1697
796.60 0.1696
796.70 0.1695
796.80 0.1694
796.90 0.1693
797.00 0.1693
797.10 0.1692
797.20 0.1691
797.30 0.169
797.40 0.1689
797.50 0.1689
797.60 0.1688
797.70 0.1687
797.80 0.1686
797.90 0.1685
798.00 0.1684
798.10 0.1684
798.20 0.1683
798.30 0.1682
798.40 0.1681
798.50 0.168
798.60 0.168
798.70 0.1679
798.80 0.1678
798.90 0.1677
799.00 0.1676
799.10 0.1676
799.20 0.1675
799.30 0.1674
799.40 0.1673
799.50 0.1672
799.60 0.1671
799.70 0.1671
799.80 0.167
799.90 0.1669
800.00 0.1668
800.10 0.1667
800.20 0.1667
800.30 0.1666
800.40 0.1665
800.50 0.1664
800.60 0.1663
800.70 0.1663
800.80 0.1662
800.90 0.1661
801.00 0.166
801.10 0.1659
801.20 0.1659
801.30 0.1658
801.40 0.1657
801.50 0.1656
801.60 0.1655
801.70 0.1655
801.80 0.1654
801.90 0.1653
802.00 0.1652
802.10 0.1652
802.20 0.1651
802.30 0.165
802.40 0.1649
802.50 0.1648
802.60 0.1648
802.70 0.1647
802.80 0.1646
802.90 0.1645
803.00 0.1644
803.10 0.1644
803.20 0.1643
803.30 0.1642
803.40 0.1641
803.50 0.1641
803.60 0.164
803.70 0.1639
803.80 0.1638
803.90 0.1637
804.00 0.1637
804.10 0.1636
804.20 0.1635
804.30 0.1634
804.40 0.1633
804.50 0.1633
804.60 0.1632
804.70 0.1631
804.80 0.163
804.90 0.163
805.00 0.1629
805.10 0.1628
805.20 0.1627
805.30 0.1626
805.40 0.1626
805.50 0.1625
805.60 0.1624
805.70 0.1623
805.80 0.1623
805.90 0.1622
806.00 0.1621
806.10 0.162
806.20 0.1619
806.30 0.1619
806.40 0.1618
806.50 0.1617
806.60 0.1616
806.70 0.1616
806.80 0.1615
806.90 0.1614
807.00 0.1613
807.10 0.1612
807.20 0.1612
807.30 0.1611
807.40 0.161
807.50 0.1609
807.60 0.1609
807.70 0.1608
807.80 0.1607
807.90 0.1606
808.00 0.1606
808.10 0.1605
808.20 0.1604
808.30 0.1603
808.40 0.1602
808.50 0.1602
808.60 0.1601
808.70 0.16
808.80 0.1599
808.90 0.1599
809.00 0.1598
809.10 0.1597
809.20 0.1596
809.30 0.1596
809.40 0.1595
809.50 0.1594
809.60 0.1593
809.70 0.1592
809.80 0.1592
809.90 0.1591
810.00 0.159
810.10 0.1589
810.20 0.1589
810.30 0.1588
810.40 0.1587
810.50 0.1586
810.60 0.1586
810.70 0.1585
810.80 0.1584
810.90 0.1583
811.00 0.1583
811.10 0.1582
811.20 0.1581
811.30 0.158
811.40 0.158
811.50 0.1579
811.60 0.1578
811.70 0.1577
811.80 0.1577
811.90 0.1576
812.00 0.1575
812.10 0.1574
812.20 0.1574
812.30 0.1573
812.40 0.1572
812.50 0.1572
812.60 0.1571
812.70 0.157
812.80 0.1569
812.90 0.1569
813.00 0.1568
813.10 0.1567
813.20 0.1566
813.30 0.1566
813.40 0.1565
813.50 0.1564
813.60 0.1563
813.70 0.1563
813.80 0.1562
813.90 0.1561
814.00 0.156
814.10 0.156
814.20 0.1559
814.30 0.1558
814.40 0.1557
814.50 0.1557
814.60 0.1556
814.70 0.1555
814.80 0.1555
814.90 0.1554
815.00 0.1553
815.10 0.1552
815.20 0.1552
815.30 0.1551
815.40 0.155
815.50 0.1549
815.60 0.1549
815.70 0.1548
815.80 0.1547
815.90 0.1546
816.00 0.1546
816.10 0.1545
816.20 0.1544
816.30 0.1544
816.40 0.1543
816.50 0.1542
816.60 0.1541
816.70 0.1541
816.80 0.154
816.90 0.1539
817.00 0.1538
817.10 0.1538
817.20 0.1537
817.30 0.1536
817.40 0.1536
817.50 0.1535
817.60 0.1534
817.70 0.1533
817.80 0.1533
817.90 0.1532
818.00 0.1531
818.10 0.153
818.20 0.153
818.30 0.1529
818.40 0.1528
818.50 0.1528
818.60 0.1527
818.70 0.1526
818.80 0.1525
818.90 0.1525
819.00 0.1524
819.10 0.1523
819.20 0.1522
819.30 0.1522
819.40 0.1521
819.50 0.152
819.60 0.152
819.70 0.1519
819.80 0.1518
819.90 0.1517
820.00 0.1517
820.10 0.1516
820.20 0.1515
820.30 0.1515
820.40 0.1514
820.50 0.1513
820.60 0.1512
820.70 0.1512
820.80 0.1511
820.90 0.151
821.00 0.151
821.10 0.1509
821.20 0.1508
821.30 0.1507
821.40 0.1507
821.50 0.1506
821.60 0.1505
821.70 0.1505
821.80 0.1504
821.90 0.1503
822.00 0.1503
822.10 0.1502
822.20 0.1501
822.30 0.15
822.40 0.15
822.50 0.1499
822.60 0.1498
822.70 0.1498
822.80 0.1497
822.90 0.1496
823.00 0.1496
823.10 0.1495
823.20 0.1494
823.30 0.1493
823.40 0.1493
823.50 0.1492
823.60 0.1491
823.70 0.1491
823.80 0.149
823.90 0.1489
824.00 0.1489
824.10 0.1488
824.20 0.1487
824.30 0.1486
824.40 0.1486
824.50 0.1485
824.60 0.1484
824.70 0.1484
824.80 0.1483
824.90 0.1482
825.00 0.1482
825.10 0.1481
825.20 0.148
825.30 0.1479
825.40 0.1479
825.50 0.1478
825.60 0.1477
825.70 0.1477
825.80 0.1476
825.90 0.1475
826.00 0.1475
826.10 0.1474
826.20 0.1473
826.30 0.1473
826.40 0.1472
826.50 0.1471
826.60 0.1471
826.70 0.147
826.80 0.1469
826.90 0.1468
827.00 0.1468
827.10 0.1467
827.20 0.1466
827.30 0.1466
827.40 0.1465
827.50 0.1464
827.60 0.1464
827.70 0.1463
827.80 0.1462
827.90 0.1462
828.00 0.1461
828.10 0.146
828.20 0.146
828.30 0.1459
828.40 0.1458
828.50 0.1458
828.60 0.1457
828.70 0.1456
828.80 0.1456
828.90 0.1455
829.00 0.1454
829.10 0.1453
829.20 0.1453
829.30 0.1452
829.40 0.1451
829.50 0.1451
829.60 0.145
829.70 0.1449
829.80 0.1449
829.90 0.1448
830.00 0.1447
830.10 0.1447
830.20 0.1446
830.30 0.1445
830.40 0.1445
830.50 0.1444
830.60 0.1443
830.70 0.1443
830.80 0.1442
830.90 0.1441
831.00 0.1441
831.10 0.144
831.20 0.1439
831.30 0.1439
831.40 0.1438
831.50 0.1437
831.60 0.1437
831.70 0.1436
831.80 0.1435
831.90 0.1435
832.00 0.1434
832.10 0.1433
832.20 0.1433
832.30 0.1432
832.40 0.1431
832.50 0.1431
832.60 0.143
832.70 0.1429
832.80 0.1429
832.90 0.1428
833.00 0.1427
833.10 0.1427
833.20 0.1426
833.30 0.1425
833.40 0.1425
833.50 0.1424
833.60 0.1423
833.70 0.1423
833.80 0.1422
833.90 0.1421
834.00 0.1421
834.10 0.142
834.20 0.1419
834.30 0.1419
834.40 0.1418
834.50 0.1417
834.60 0.1417
834.70 0.1416
834.80 0.1415
834.90 0.1415
835.00 0.1414
835.10 0.1413
835.20 0.1413
835.30 0.1412
835.40 0.1411
835.50 0.1411
835.60 0.141
835.70 0.1409
835.80 0.1409
835.90 0.1408
836.00 0.1407
836.10 0.1407
836.20 0.1406
836.30 0.1406
836.40 0.1405
836.50 0.1404
836.60 0.1404
836.70 0.1403
836.80 0.1402
836.90 0.1402
837.00 0.1401
837.10 0.14
837.20 0.14
837.30 0.1399
837.40 0.1398
837.50 0.1398
837.60 0.1397
837.70 0.1396
837.80 0.1396
837.90 0.1395
838.00 0.1394
838.10 0.1394
838.20 0.1393
838.30 0.1393
838.40 0.1392
838.50 0.1391
838.60 0.1391
838.70 0.139
838.80 0.1389
838.90 0.1389
839.00 0.1388
839.10 0.1387
839.20 0.1387
839.30 0.1386
839.40 0.1385
839.50 0.1385
839.60 0.1384
839.70 0.1384
839.80 0.1383
839.90 0.1382
840.00 0.1382
840.10 0.1381
840.20 0.138
840.30 0.138
840.40 0.1379
840.50 0.1378
840.60 0.1378
840.70 0.1377
840.80 0.1376
840.90 0.1376
841.00 0.1375
841.10 0.1375
841.20 0.1374
841.30 0.1373
841.40 0.1373
841.50 0.1372
841.60 0.1371
841.70 0.1371
841.80 0.137
841.90 0.1369
842.00 0.1369
842.10 0.1368
842.20 0.1368
842.30 0.1367
842.40 0.1366
842.50 0.1366
842.60 0.1365
842.70 0.1364
842.80 0.1364
842.90 0.1363
843.00 0.1363
843.10 0.1362
843.20 0.1361
843.30 0.1361
843.40 0.136
843.50 0.1359
843.60 0.1359
843.70 0.1358
843.80 0.1358
843.90 0.1357
844.00 0.1356
844.10 0.1356
844.20 0.1355
844.30 0.1354
844.40 0.1354
844.50 0.1353
844.60 0.1353
844.70 0.1352
844.80 0.1351
844.90 0.1351
845.00 0.135
845.10 0.1349
845.20 0.1349
845.30 0.1348
845.40 0.1348
845.50 0.1347
845.60 0.1346
845.70 0.1346
845.80 0.1345
845.90 0.1344
846.00 0.1344
846.10 0.1343
846.20 0.1343
846.30 0.1342
846.40 0.1341
846.50 0.1341
846.60 0.134
846.70 0.134
846.80 0.1339
846.90 0.1338
847.00 0.1338
847.10 0.1337
847.20 0.1336
847.30 0.1336
847.40 0.1335
847.50 0.1335
847.60 0.1334
847.70 0.1333
847.80 0.1333
847.90 0.1332
848.00 0.1332
848.10 0.1331
848.20 0.133
848.30 0.133
848.40 0.1329
848.50 0.1329
848.60 0.1328
848.70 0.1327
848.80 0.1327
848.90 0.1326
849.00 0.1326
849.10 0.1325
849.20 0.1324
849.30 0.1324
849.40 0.1323
849.50 0.1322
849.60 0.1322
849.70 0.1321
849.80 0.1321
849.90 0.132
850.00 0.1319
850.10 0.1319
850.20 0.1318
850.30 0.1318
850.40 0.1317
850.50 0.1316
850.60 0.1316
850.70 0.1315
850.80 0.1315
850.90 0.1314
851.00 0.1313
851.10 0.1313
851.20 0.1312
851.30 0.1312
851.40 0.1311
851.50 0.131
851.60 0.131
851.70 0.1309
851.80 0.1309
851.90 0.1308
852.00 0.1307
852.10 0.1307
852.20 0.1306
852.30 0.1306
852.40 0.1305
852.50 0.1304
852.60 0.1304
852.70 0.1303
852.80 0.1303
852.90 0.1302
853.00 0.1301
853.10 0.1301
853.20 0.13
853.30 0.13
853.40 0.1299
853.50 0.1299
853.60 0.1298
853.70 0.1297
853.80 0.1297
853.90 0.1296
854.00 0.1296
854.10 0.1295
854.20 0.1294
854.30 0.1294
854.40 0.1293
854.50 0.1293
854.60 0.1292
854.70 0.1291
854.80 0.1291
854.90 0.129
855.00 0.129
855.10 0.1289
855.20 0.1289
855.30 0.1288
855.40 0.1287
855.50 0.1287
855.60 0.1286
855.70 0.1286
855.80 0.1285
855.90 0.1284
856.00 0.1284
856.10 0.1283
856.20 0.1283
856.30 0.1282
856.40 0.1282
856.50 0.1281
856.60 0.128
856.70 0.128
856.80 0.1279
856.90 0.1279
857.00 0.1278
857.10 0.1277
857.20 0.1277
857.30 0.1276
857.40 0.1276
857.50 0.1275
857.60 0.1275
857.70 0.1274
857.80 0.1273
857.90 0.1273
858.00 0.1272
858.10 0.1272
858.20 0.1271
858.30 0.1271
858.40 0.127
858.50 0.1269
858.60 0.1269
858.70 0.1268
858.80 0.1268
858.90 0.1267
859.00 0.1267
859.10 0.1266
859.20 0.1265
859.30 0.1265
859.40 0.1264
859.50 0.1264
859.60 0.1263
859.70 0.1263
859.80 0.1262
859.90 0.1261
860.00 0.1261
860.10 0.126
860.20 0.126
860.30 0.1259
860.40 0.1259
860.50 0.1258
860.60 0.1258
860.70 0.1257
860.80 0.1256
860.90 0.1256
861.00 0.1255
861.10 0.1255
861.20 0.1254
861.30 0.1254
861.40 0.1253
861.50 0.1252
861.60 0.1252
861.70 0.1251
861.80 0.1251
861.90 0.125
862.00 0.125
862.10 0.1249
862.20 0.1249
862.30 0.1248
862.40 0.1247
862.50 0.1247
862.60 0.1246
862.70 0.1246
862.80 0.1245
862.90 0.1245
863.00 0.1244
863.10 0.1243
863.20 0.1243
863.30 0.1242
863.40 0.1242
863.50 0.1241
863.60 0.1241
863.70 0.124
863.80 0.124
863.90 0.1239
864.00 0.1238
864.10 0.1238
864.20 0.1237
864.30 0.1237
864.40 0.1236
864.50 0.1236
864.60 0.1235
864.70 0.1235
864.80 0.1234
864.90 0.1233
865.00 0.1233
865.10 0.1232
865.20 0.1232
865.30 0.1231
865.40 0.1231
865.50 0.123
865.60 0.123
865.70 0.1229
865.80 0.1229
865.90 0.1228
866.00 0.1227
866.10 0.1227
866.20 0.1226
866.30 0.1226
866.40 0.1225
866.50 0.1225
866.60 0.1224
866.70 0.1224
866.80 0.1223
866.90 0.1222
867.00 0.1222
867.10 0.1221
867.20 0.1221
867.30 0.122
867.40 0.122
867.50 0.1219
867.60 0.1219
867.70 0.1218
867.80 0.1218
867.90 0.1217
868.00 0.1216
868.10 0.1216
868.20 0.1215
868.30 0.1215
868.40 0.1214
868.50 0.1214
868.60 0.1213
868.70 0.1213
868.80 0.1212
868.90 0.1212
869.00 0.1211
869.10 0.1211
869.20 0.121
869.30 0.1209
869.40 0.1209
869.50 0.1208
869.60 0.1208
869.70 0.1207
869.80 0.1207
869.90 0.1206
870.00 0.1206
870.10 0.1205
870.20 0.1205
870.30 0.1204
870.40 0.1204
870.50 0.1203
870.60 0.1203
870.70 0.1202
870.80 0.1201
870.90 0.1201
871.00 0.12
871.10 0.12
871.20 0.1199
871.30 0.1199
871.40 0.1198
871.50 0.1198
871.60 0.1197
871.70 0.1197
871.80 0.1196
871.90 0.1196
872.00 0.1195
872.10 0.1195
872.20 0.1194
872.30 0.1193
872.40 0.1193
872.50 0.1192
872.60 0.1192
872.70 0.1191
872.80 0.1191
872.90 0.119
873.00 0.119
873.10 0.1189
873.20 0.1189
873.30 0.1188
873.40 0.1188
873.50 0.1187
873.60 0.1187
873.70 0.1186
873.80 0.1186
873.90 0.1185
874.00 0.1185
874.10 0.1184
874.20 0.1184
874.30 0.1183
874.40 0.1182
874.50 0.1182
874.60 0.1181
874.70 0.1181
874.80 0.118
874.90 0.118
875.00 0.1179
875.10 0.1179
875.20 0.1178
875.30 0.1178
875.40 0.1177
875.50 0.1177
875.60 0.1176
875.70 0.1176
875.80 0.1175
875.90 0.1175
876.00 0.1174
876.10 0.1174
876.20 0.1173
876.30 0.1173
876.40 0.1172
876.50 0.1172
876.60 0.1171
876.70 0.1171
876.80 0.117
876.90 0.117
877.00 0.1169
877.10 0.1168
877.20 0.1168
877.30 0.1167
877.40 0.1167
877.50 0.1166
877.60 0.1166
877.70 0.1165
877.80 0.1165
877.90 0.1164
878.00 0.1164
878.10 0.1163
878.20 0.1163
878.30 0.1162
878.40 0.1162
878.50 0.1161
878.60 0.1161
878.70 0.116
878.80 0.116
878.90 0.1159
879.00 0.1159
879.10 0.1158
879.20 0.1158
879.30 0.1157
879.40 0.1157
879.50 0.1156
879.60 0.1156
879.70 0.1155
879.80 0.1155
879.90 0.1154
880.00 0.1154
880.10 0.1153
880.20 0.1153
880.30 0.1152
880.40 0.1152
880.50 0.1151
880.60 0.1151
880.70 0.115
880.80 0.115
880.90 0.1149
881.00 0.1149
881.10 0.1148
881.20 0.1148
881.30 0.1147
881.40 0.1147
881.50 0.1146
881.60 0.1146
881.70 0.1145
881.80 0.1145
881.90 0.1144
882.00 0.1144
882.10 0.1143
882.20 0.1143
882.30 0.1142
882.40 0.1142
882.50 0.1141
882.60 0.1141
882.70 0.114
882.80 0.114
882.90 0.1139
883.00 0.1139
883.10 0.1138
883.20 0.1138
883.30 0.1137
883.40 0.1137
883.50 0.1136
883.60 0.1136
883.70 0.1135
883.80 0.1135
883.90 0.1134
884.00 0.1134
884.10 0.1133
884.20 0.1133
884.30 0.1132
884.40 0.1132
884.50 0.1131
884.60 0.1131
884.70 0.113
884.80 0.113
884.90 0.1129
885.00 0.1129
885.10 0.1128
885.20 0.1128
885.30 0.1127
885.40 0.1127
885.50 0.1127
885.60 0.1126
885.70 0.1126
885.80 0.1125
885.90 0.1125
886.00 0.1124
886.10 0.1124
886.20 0.1123
886.30 0.1123
886.40 0.1122
886.50 0.1122
886.60 0.1121
886.70 0.1121
886.80 0.112
886.90 0.112
887.00 0.1119
887.10 0.1119
887.20 0.1118
887.30 0.1118
887.40 0.1117
887.50 0.1117
887.60 0.1116
887.70 0.1116
887.80 0.1115
887.90 0.1115
888.00 0.1114
888.10 0.1114
888.20 0.1113
888.30 0.1113
888.40 0.1113
888.50 0.1112
888.60 0.1112
888.70 0.1111
888.80 0.1111
888.90 0.111
889.00 0.111
889.10 0.1109
889.20 0.1109
889.30 0.1108
889.40 0.1108
889.50 0.1107
889.60 0.1107
889.70 0.1106
889.80 0.1106
889.90 0.1105
890.00 0.1105
890.10 0.1104
890.20 0.1104
890.30 0.1103
890.40 0.1103
890.50 0.1103
890.60 0.1102
890.70 0.1102
890.80 0.1101
890.90 0.1101
891.00 0.11
891.10 0.11
891.20 0.1099
891.30 0.1099
891.40 0.1098
891.50 0.1098
891.60 0.1097
891.70 0.1097
891.80 0.1096
891.90 0.1096
892.00 0.1095
892.10 0.1095
892.20 0.1094
892.30 0.1094
892.40 0.1094
892.50 0.1093
892.60 0.1093
892.70 0.1092
892.80 0.1092
892.90 0.1091
893.00 0.1091
893.10 0.109
893.20 0.109
893.30 0.1089
893.40 0.1089
893.50 0.1088
893.60 0.1088
893.70 0.1087
893.80 0.1087
893.90 0.1086
894.00 0.1086
894.10 0.1086
894.20 0.1085
894.30 0.1085
894.40 0.1084
894.50 0.1084
894.60 0.1083
894.70 0.1083
894.80 0.1082
894.90 0.1082
895.00 0.1081
895.10 0.1081
895.20 0.108
895.30 0.108
895.40 0.1079
895.50 0.1079
895.60 0.1079
895.70 0.1078
895.80 0.1078
895.90 0.1077
896.00 0.1077
896.10 0.1076
896.20 0.1076
896.30 0.1075
896.40 0.1075
896.50 0.1074
896.60 0.1074
896.70 0.1073
896.80 0.1073
896.90 0.1073
897.00 0.1072
897.10 0.1072
897.20 0.1071
897.30 0.1071
897.40 0.107
897.50 0.107
897.60 0.1069
897.70 0.1069
897.80 0.1068
897.90 0.1068
898.00 0.1067
898.10 0.1067
898.20 0.1067
898.30 0.1066
898.40 0.1066
898.50 0.1065
898.60 0.1065
898.70 0.1064
898.80 0.1064
898.90 0.1063
899.00 0.1063
899.10 0.1062
899.20 0.1062
899.30 0.1062
899.40 0.1061
899.50 0.1061
899.60 0.106
899.70 0.106
899.80 0.1059
899.90 0.1059
900.00 0.1058
900.10 0.1058
900.20 0.1057
900.30 0.1057
900.40 0.1057
900.50 0.1056
900.60 0.1056
900.70 0.1055
900.80 0.1055
900.90 0.1054
901.00 0.1054
901.10 0.1053
901.20 0.1053
901.30 0.1053
901.40 0.1052
901.50 0.1052
901.60 0.1051
901.70 0.1051
901.80 0.105
901.90 0.105
902.00 0.1049
902.10 0.1049
902.20 0.1048
902.30 0.1048
902.40 0.1048
902.50 0.1047
902.60 0.1047
902.70 0.1046
902.80 0.1046
902.90 0.1045
903.00 0.1045
903.10 0.1045
903.20 0.1044
903.30 0.1044
903.40 0.1043
903.50 0.1043
903.60 0.1042
903.70 0.1042
903.80 0.1042
903.90 0.1041
904.00 0.1041
904.10 0.104
904.20 0.104
904.30 0.1039
904.40 0.1039
904.50 0.1039
904.60 0.1038
904.70 0.1038
904.80 0.1037
904.90 0.1037
905.00 0.1036
905.10 0.1036
905.20 0.1036
905.30 0.1035
905.40 0.1035
905.50 0.1034
905.60 0.1034
905.70 0.1033
905.80 0.1033
905.90 0.1033
906.00 0.1032
906.10 0.1032
906.20 0.1031
906.30 0.1031
906.40 0.1031
906.50 0.103
906.60 0.103
906.70 0.1029
906.80 0.1029
906.90 0.1028
907.00 0.1028
907.10 0.1028
907.20 0.1027
907.30 0.1027
907.40 0.1026
907.50 0.1026
907.60 0.1025
907.70 0.1025
907.80 0.1025
907.90 0.1024
908.00 0.1024
908.10 0.1023
908.20 0.1023
908.30 0.1022
908.40 0.1022
908.50 0.1022
908.60 0.1021
908.70 0.1021
908.80 0.102
908.90 0.102
909.00 0.1019
909.10 0.1019
909.20 0.1019
909.30 0.1018
909.40 0.1018
909.50 0.1017
909.60 0.1017
909.70 0.1016
909.80 0.1016
909.90 0.1016
910.00 0.1015
910.10 0.1015
910.20 0.1014
910.30 0.1014
910.40 0.1013
910.50 0.1013
910.60 0.1013
910.70 0.1012
910.80 0.1012
910.90 0.1011
911.00 0.1011
911.10 0.101
911.20 0.101
911.30 0.101
911.40 0.1009
911.50 0.1009
911.60 0.1008
911.70 0.1008
911.80 0.1007
911.90 0.1007
912.00 0.1007
912.10 0.1006
912.20 0.1006
912.30 0.1005
912.40 0.1005
912.50 0.1004
912.60 0.1004
912.70 0.1004
912.80 0.1003
912.90 0.1003
913.00 0.1002
913.10 0.1002
913.20 0.1001
913.30 0.1001
913.40 0.1
913.50 0.1
913.60 0.09996
913.70 0.09991
913.80 0.09987
913.90 0.09982
914.00 0.09978
914.10 0.09974
914.20 0.09969
914.30 0.09965
914.40 0.0996
914.50 0.09956
914.60 0.09952
914.70 0.09947
914.80 0.09943
914.90 0.09939
915.00 0.09934
915.10 0.0993
915.20 0.09926
915.30 0.09921
915.40 0.09917
915.50 0.09912
915.60 0.09908
915.70 0.09904
915.80 0.09899
915.90 0.09895
916.00 0.09891
916.10 0.09886
916.20 0.09882
916.30 0.09878
916.40 0.09873
916.50 0.09869
916.60 0.09865
916.70 0.0986
916.80 0.09856
916.90 0.09852
917.00 0.09847
917.10 0.09843
917.20 0.09839
917.30 0.09834
917.40 0.0983
917.50 0.09826
917.60 0.09821
917.70 0.09817
917.80 0.09812
917.90 0.09808
918.00 0.09804
918.10 0.09799
918.20 0.09795
918.30 0.09791
918.40 0.09786
918.50 0.09782
918.60 0.09778
918.70 0.09773
918.80 0.09769
918.90 0.09765
919.00 0.0976
919.10 0.09756
919.20 0.09752
919.30 0.09747
919.40 0.09743
919.50 0.09739
919.60 0.09735
919.70 0.0973
919.80 0.09726
919.90 0.09722
920.00 0.09717
920.10 0.09713
920.20 0.09709
920.30 0.09704
920.40 0.097
920.50 0.09696
920.60 0.09691
920.70 0.09687
920.80 0.09683
920.90 0.09679
921.00 0.09674
921.10 0.0967
921.20 0.09666
921.30 0.09661
921.40 0.09657
921.50 0.09653
921.60 0.09649
921.70 0.09644
921.80 0.0964
921.90 0.09636
922.00 0.09631
922.10 0.09628
922.20 0.09624
922.30 0.0962
922.40 0.09617
922.50 0.09613
922.60 0.09609
922.70 0.09605
922.80 0.09602
922.90 0.09598
923.00 0.09594
923.10 0.09591
923.20 0.09587
923.30 0.09583
923.40 0.09579
923.50 0.09576
923.60 0.09572
923.70 0.09568
923.80 0.09565
923.90 0.09561
924.00 0.09557
924.10 0.09554
924.20 0.0955
924.30 0.09546
924.40 0.09543
924.50 0.09539
924.60 0.09535
924.70 0.09532
924.80 0.09528
924.90 0.09524
925.00 0.09521
925.10 0.09517
925.20 0.09513
925.30 0.09509
925.40 0.09506
925.50 0.09502
925.60 0.09498
925.70 0.09495
925.80 0.09491
925.90 0.09487
926.00 0.09484
926.10 0.0948
926.20 0.09477
926.30 0.09473
926.40 0.09469
926.50 0.09466
926.60 0.09462
926.70 0.09458
926.80 0.09455
926.90 0.09451
927.00 0.09447
927.10 0.09444
927.20 0.0944
927.30 0.09437
927.40 0.09433
927.50 0.0943
927.60 0.09426
927.70 0.09423
927.80 0.09419
927.90 0.09416
928.00 0.09412
928.10 0.09409
928.20 0.09405
928.30 0.09402
928.40 0.09398
928.50 0.09395
928.60 0.09391
928.70 0.09388
928.80 0.09384
928.90 0.09381
929.00 0.09377
929.10 0.09374
929.20 0.0937
929.30 0.09367
929.40 0.09363
929.50 0.0936
929.60 0.09356
929.70 0.09353
929.80 0.09349
929.90 0.09346
930.00 0.09342
930.10 0.09339
930.20 0.09335
930.30 0.09332
930.40 0.09328
930.50 0.09325
930.60 0.09321
930.70 0.09318
930.80 0.09314
930.90 0.09311
931.00 0.09308
931.10 0.09304
931.20 0.09301
931.30 0.09297
931.40 0.09294
931.50 0.0929
931.60 0.09287
931.70 0.09283
931.80 0.0928
931.90 0.09276
932.00 0.09273
932.10 0.09269
932.20 0.09266
932.30 0.09262
932.40 0.09258
932.50 0.09255
932.60 0.09251
932.70 0.09248
932.80 0.09244
932.90 0.0924
933.00 0.09237
933.10 0.09233
933.20 0.09229
933.30 0.09226
933.40 0.09222
933.50 0.09219
933.60 0.09215
933.70 0.09211
933.80 0.09208
933.90 0.09204
934.00 0.09201
934.10 0.09197
934.20 0.09193
934.30 0.0919
934.40 0.09186
934.50 0.09182
934.60 0.09179
934.70 0.09175
934.80 0.09171
934.90 0.09167
935.00 0.09164
935.10 0.0916
935.20 0.09156
935.30 0.09153
935.40 0.09149
935.50 0.09145
935.60 0.09141
935.70 0.09138
935.80 0.09134
935.90 0.0913
936.00 0.09127
936.10 0.09123
936.20 0.09119
936.30 0.09115
936.40 0.09112
936.50 0.09108
936.60 0.09104
936.70 0.09101
936.80 0.09097
936.90 0.09093
937.00 0.09089
937.10 0.09086
937.20 0.09082
937.30 0.09078
937.40 0.09074
937.50 0.0907
937.60 0.09067
937.70 0.09063
937.80 0.09059
937.90 0.09055
938.00 0.09051
938.10 0.09047
938.20 0.09044
938.30 0.0904
938.40 0.09036
938.50 0.09032
938.60 0.09028
938.70 0.09024
938.80 0.0902
938.90 0.09016
939.00 0.09013
939.10 0.09009
939.20 0.09005
939.30 0.09001
939.40 0.08997
939.50 0.08993
939.60 0.08989
939.70 0.08985
939.80 0.08981
939.90 0.08978
940.00 0.08974
940.10 0.0897
940.20 0.08966
940.30 0.08962
940.40 0.08958
940.50 0.08954
940.60 0.0895
940.70 0.08946
940.80 0.08942
940.90 0.08938
941.00 0.08934
941.10 0.0893
941.20 0.08926
941.30 0.08922
941.40 0.08918
941.50 0.08914
941.60 0.0891
941.70 0.08906
941.80 0.08902
941.90 0.08898
942.00 0.08894
942.10 0.0889
942.20 0.08886
942.30 0.08882
942.40 0.08878
942.50 0.08874
942.60 0.0887
942.70 0.08866
942.80 0.08861
942.90 0.08857
943.00 0.08853
943.10 0.08849
943.20 0.08845
943.30 0.08841
943.40 0.08837
943.50 0.08833
943.60 0.08828
943.70 0.08824
943.80 0.0882
943.90 0.08816
944.00 0.08812
944.10 0.08808
944.20 0.08804
944.30 0.088
944.40 0.08796
944.50 0.08791
944.60 0.08787
944.70 0.08783
944.80 0.08779
944.90 0.08775
945.00 0.0877
945.10 0.08766
945.20 0.08762
945.30 0.08758
945.40 0.08753
945.50 0.08749
945.60 0.08745
945.70 0.08741
945.80 0.08736
945.90 0.08732
946.00 0.08728
946.10 0.08723
946.20 0.08719
946.30 0.08715
946.40 0.08711
946.50 0.08706
946.60 0.08702
946.70 0.08698
946.80 0.08693
946.90 0.08689
947.00 0.08685
947.10 0.08681
947.20 0.08676
947.30 0.08672
947.40 0.08667
947.50 0.08663
947.60 0.08659
947.70 0.08654
947.80 0.0865
947.90 0.08645
948.00 0.08641
948.10 0.08637
948.20 0.08632
948.30 0.08628
948.40 0.08623
948.50 0.08619
948.60 0.08615
948.70 0.0861
948.80 0.08606
948.90 0.08601
949.00 0.08597
949.10 0.08593
949.20 0.08588
949.30 0.08584
949.40 0.08579
949.50 0.08575
949.60 0.08571
949.70 0.08566
949.80 0.08562
949.90 0.08557
950.00 0.08553
950.10 0.08548
950.20 0.08544
950.30 0.08539
950.40 0.08535
950.50 0.08531
950.60 0.08526
950.70 0.08522
950.80 0.08517
950.90 0.08513
951.00 0.08508
951.10 0.08504
951.20 0.085
951.30 0.08495
951.40 0.08491
951.50 0.08486
951.60 0.08482
951.70 0.08477
951.80 0.08473
951.90 0.08469
952.00 0.08464
952.10 0.0846
952.20 0.08456
952.30 0.08451
952.40 0.08447
952.50 0.08443
952.60 0.08438
952.70 0.08434
952.80 0.0843
952.90 0.08426
953.00 0.08421
953.10 0.08417
953.20 0.08413
953.30 0.08409
953.40 0.08405
953.50 0.08401
953.60 0.08397
953.70 0.08393
953.80 0.08389
953.90 0.08385
954.00 0.08381
954.10 0.08378
954.20 0.08374
954.30 0.0837
954.40 0.08367
954.50 0.08364
954.60 0.08361
954.70 0.08357
954.80 0.08354
954.90 0.08351
955.00 0.08348
955.10 0.08345
955.20 0.08342
955.30 0.08339
955.40 0.08337
955.50 0.08334
955.60 0.08331
955.70 0.08328
955.80 0.08326
955.90 0.08323
956.00 0.08321
956.10 0.08319
956.20 0.08316
956.30 0.08314
956.40 0.08312
956.50 0.08309
956.60 0.08307
956.70 0.08304
956.80 0.08302
956.90 0.083
957.00 0.08297
957.10 0.08295
957.20 0.08293
957.30 0.08291
957.40 0.08288
957.50 0.08286
957.60 0.08284
957.70 0.08282
957.80 0.0828
957.90 0.08277
958.00 0.08275
958.10 0.08273
958.20 0.08271
958.30 0.08268
958.40 0.08266
958.50 0.08264
958.60 0.08262
958.70 0.0826
958.80 0.08257
958.90 0.08255
959.00 0.08253
959.10 0.08251
959.20 0.08249
959.30 0.08246
959.40 0.08244
959.50 0.08242
959.60 0.0824
959.70 0.08237
959.80 0.08235
959.90 0.08233
960.00 0.0823
960.10 0.08228
960.20 0.08226
960.30 0.08224
960.40 0.08221
960.50 0.08219
960.60 0.08217
960.70 0.08215
960.80 0.08212
960.90 0.0821
961.00 0.08208
961.10 0.08206
961.20 0.08203
961.30 0.08201
961.40 0.08199
961.50 0.08196
961.60 0.08194
961.70 0.08192
961.80 0.08189
961.90 0.08187
962.00 0.08185
962.10 0.08182
962.20 0.0818
962.30 0.08177
962.40 0.08175
962.50 0.08173
962.60 0.0817
962.70 0.08168
962.80 0.08165
962.90 0.08163
963.00 0.08161
963.10 0.08158
963.20 0.08156
963.30 0.08153
963.40 0.08151
963.50 0.08148
963.60 0.08146
963.70 0.08143
963.80 0.08141
963.90 0.08138
964.00 0.08136
964.10 0.08134
964.20 0.08131
964.30 0.08129
964.40 0.08126
964.50 0.08123
964.60 0.08121
964.70 0.08118
964.80 0.08116
964.90 0.08113
965.00 0.0811
965.10 0.08108
965.20 0.08105
965.30 0.08103
965.40 0.081
965.50 0.08098
965.60 0.08095
965.70 0.08092
965.80 0.0809
965.90 0.08087
966.00 0.08085
966.10 0.08082
966.20 0.0808
966.30 0.08077
966.40 0.08074
966.50 0.08072
966.60 0.08069
966.70 0.08066
966.80 0.08064
966.90 0.08061
967.00 0.08058
967.10 0.08056
967.20 0.08053
967.30 0.0805
967.40 0.08048
967.50 0.08045
967.60 0.08042
967.70 0.08039
967.80 0.08037
967.90 0.08034
968.00 0.08031
968.10 0.08029
968.20 0.08026
968.30 0.08023
968.40 0.0802
968.50 0.08018
968.60 0.08015
968.70 0.08012
968.80 0.08009
968.90 0.08006
969.00 0.08004
969.10 0.08001
969.20 0.07998
969.30 0.07995
969.40 0.07993
969.50 0.0799
969.60 0.07987
969.70 0.07984
969.80 0.07981
969.90 0.07979
970.00 0.07976
970.10 0.07973
970.20 0.0797
970.30 0.07968
970.40 0.07965
970.50 0.07962
970.60 0.07959
970.70 0.07956
970.80 0.07953
970.90 0.0795
971.00 0.07948
971.10 0.07945
971.20 0.07942
971.30 0.07939
971.40 0.07936
971.50 0.07933
971.60 0.0793
971.70 0.07928
971.80 0.07925
971.90 0.07922
972.00 0.07919
972.10 0.07916
972.20 0.07913
972.30 0.0791
972.40 0.07907
972.50 0.07904
972.60 0.07901
972.70 0.07898
972.80 0.07895
972.90 0.07893
973.00 0.0789
973.10 0.07887
973.20 0.07884
973.30 0.07881
973.40 0.07878
973.50 0.07875
973.60 0.07872
973.70 0.07869
973.80 0.07866
973.90 0.07863
974.00 0.0786
974.10 0.07858
974.20 0.07855
974.30 0.07852
974.40 0.07849
974.50 0.07846
974.60 0.07843
974.70 0.0784
974.80 0.07837
974.90 0.07834
975.00 0.07831
975.10 0.07828
975.20 0.07825
975.30 0.07822
975.40 0.07819
975.50 0.07816
975.60 0.07813
975.70 0.0781
975.80 0.07807
975.90 0.07804
976.00 0.07801
976.10 0.07798
976.20 0.07795
976.30 0.07792
976.40 0.07789
976.50 0.07786
976.60 0.07783
976.70 0.0778
976.80 0.07777
976.90 0.07774
977.00 0.07771
977.10 0.07768
977.20 0.07764
977.30 0.07761
977.40 0.07758
977.50 0.07755
977.60 0.07752
977.70 0.07749
977.80 0.07746
977.90 0.07743
978.00 0.0774
978.10 0.07736
978.20 0.07733
978.30 0.0773
978.40 0.07727
978.50 0.07724
978.60 0.07721
978.70 0.07718
978.80 0.07715
978.90 0.07712
979.00 0.07708
979.10 0.07705
979.20 0.07702
979.30 0.07699
979.40 0.07696
979.50 0.07693
979.60 0.0769
979.70 0.07687
979.80 0.07684
979.90 0.07681
980.00 0.07678
980.10 0.07674
980.20 0.07671
980.30 0.07668
980.40 0.07665
980.50 0.07662
980.60 0.07659
980.70 0.07656
980.80 0.07653
980.90 0.0765
981.00 0.07647
981.10 0.07644
981.20 0.07641
981.30 0.07637
981.40 0.07634
981.50 0.07631
981.60 0.07628
981.70 0.07625
981.80 0.07622
981.90 0.07619
982.00 0.07616
982.10 0.07613
982.20 0.07609
982.30 0.07606
982.40 0.07603
982.50 0.076
982.60 0.07597
982.70 0.07593
982.80 0.0759
982.90 0.07587
983.00 0.07584
983.10 0.0758
983.20 0.07577
983.30 0.07574
983.40 0.07571
983.50 0.07568
983.60 0.07564
983.70 0.07561
983.80 0.07558
983.90 0.07555
984.00 0.07552
984.10 0.07548
984.20 0.07545
984.30 0.07542
984.40 0.07539
984.50 0.07536
984.60 0.07532
984.70 0.07529
984.80 0.07526
984.90 0.07523
985.00 0.07519
985.10 0.07516
985.20 0.07513
985.30 0.07509
985.40 0.07506
985.50 0.07503
985.60 0.07499
985.70 0.07496
985.80 0.07493
985.90 0.07489
986.00 0.07486
986.10 0.07483
986.20 0.07479
986.30 0.07476
986.40 0.07473
986.50 0.0747
986.60 0.07466
986.70 0.07463
986.80 0.0746
986.90 0.07456
987.00 0.07453
987.10 0.0745
987.20 0.07446
987.30 0.07443
987.40 0.07439
987.50 0.07436
987.60 0.07433
987.70 0.07429
987.80 0.07426
987.90 0.07422
988.00 0.07419
988.10 0.07416
988.20 0.07412
988.30 0.07409
988.40 0.07405
988.50 0.07402
988.60 0.07399
988.70 0.07395
988.80 0.07392
988.90 0.07388
989.00 0.07385
989.10 0.07381
989.20 0.07377
989.30 0.07374
989.40 0.0737
989.50 0.07367
989.60 0.07363
989.70 0.0736
989.80 0.07356
989.90 0.07353
990.00 0.07349
990.10 0.07346
990.20 0.07342
990.30 0.07339
990.40 0.07335
990.50 0.07332
990.60 0.07328
990.70 0.07325
990.80 0.07321
990.90 0.07317
991.00 0.07314
991.10 0.0731
991.20 0.07306
991.30 0.07303
991.40 0.07299
991.50 0.07295
991.60 0.07292
991.70 0.07288
991.80 0.07284
991.90 0.07281
992.00 0.07277
992.10 0.07273
992.20 0.0727
992.30 0.07266
992.40 0.07262
992.50 0.07258
992.60 0.07255
992.70 0.07251
992.80 0.07247
992.90 0.07243
993.00 0.07239
993.10 0.07235
993.20 0.07231
993.30 0.07227
993.40 0.07223
993.50 0.07219
993.60 0.07216
993.70 0.07212
993.80 0.07208
993.90 0.07204
994.00 0.072
994.10 0.07196
994.20 0.07192
994.30 0.07188
994.40 0.07184
994.50 0.07181
994.60 0.07177
994.70 0.07173
994.80 0.07169
994.90 0.07164
995.00 0.0716
995.10 0.07156
995.20 0.07152
995.30 0.07148
995.40 0.07144
995.50 0.0714
995.60 0.07136
995.70 0.07132
995.80 0.07127
995.90 0.07123
996.00 0.07119
996.10 0.07115
996.20 0.0711
996.30 0.07106
996.40 0.07102
996.50 0.07098
996.60 0.07093
996.70 0.07089
996.80 0.07085
996.90 0.07081
997.00 0.07076
997.10 0.07072
997.20 0.07068
997.30 0.07063
997.40 0.07059
997.50 0.07054
997.60 0.0705
997.70 0.07045
997.80 0.07041
997.90 0.07036
998.00 0.07031
998.10 0.07027
998.20 0.07022
998.30 0.07018
998.40 0.07013
998.50 0.07008
998.60 0.07004
998.70 0.06999
998.80 0.06994
998.90 0.0699
999.00 0.06985
999.10 0.06981
999.20 0.06976
999.30 0.06971
999.40 0.06967
999.50 0.06962
999.60 0.06958
999.70 0.06953
999.80 0.06948
999.90 0.06943
1000.00 0.06938
1000.10 0.06933
1000.20 0.06928
1000.30 0.06923
1000.40 0.06918
1000.50 0.06913
1000.60 0.06908
1000.70 0.06903
1000.80 0.06898
1000.90 0.06893
1001.00 0.06888
1001.10 0.06883
1001.20 0.06878
1001.30 0.06873
1001.40 0.06869
1001.50 0.06864
1001.60 0.06859
1001.70 0.06854
1001.80 0.06849
1001.90 0.06844
1002.00 0.06839
1002.10 0.06834
1002.20 0.0683
1002.30 0.06825
1002.40 0.0682
1002.50 0.06816
1002.60 0.06811
1002.70 0.06806
1002.80 0.06802
1002.90 0.06797
1003.00 0.06792
1003.10 0.06787
1003.20 0.06783
1003.30 0.0678
1003.40 0.06776
1003.50 0.06772
1003.60 0.06768
1003.70 0.06764
1003.80 0.0676
1003.90 0.06757
1004.00 0.06754
1004.10 0.06752
1004.20 0.06749
1004.30 0.06747
1004.40 0.06746
1004.50 0.06745
1004.60 0.06744
1004.70 0.06744
1004.80 0.06744
1004.90 0.06742
1005.00 0.0674
1005.10 0.06736
1005.20 0.06731
1005.30 0.06726
1005.40 0.06721
1005.50 0.06718
1005.60 0.06716
1005.70 0.06713
1005.80 0.0671
1005.90 0.06708
1006.00 0.06705
1006.10 0.06702
1006.20 0.06701
1006.30 0.067
1006.40 0.06699
1006.50 0.06698
1006.60 0.06697
1006.70 0.06696
1006.80 0.06695
1006.90 0.06694
1007.00 0.06693
1007.10 0.06693
1007.20 0.06692
1007.30 0.06692
1007.40 0.06692
1007.50 0.06691
1007.60 0.06691
1007.70 0.0669
1007.80 0.0669
1007.90 0.0669
1008.00 0.0669
1008.10 0.06689
1008.20 0.06689
1008.30 0.06689
1008.40 0.06688
1008.50 0.06688
1008.60 0.06688
1008.70 0.06688
1008.80 0.06687
1008.90 0.06687
1009.00 0.06687
1009.10 0.06686
1009.20 0.06686
1009.30 0.06686
1009.40 0.06685
1009.50 0.06685
1009.60 0.06685
1009.70 0.06684
1009.80 0.06684
1009.90 0.06683
1010.00 0.06683
1010.10 0.06682
1010.20 0.06682
1010.30 0.06681
1010.40 0.0668
1010.50 0.0668
1010.60 0.06679
1010.70 0.06679
1010.80 0.06678
1010.90 0.06678
1011.00 0.06677
1011.10 0.06676
1011.20 0.06676
1011.30 0.06675
1011.40 0.06675
1011.50 0.06674
1011.60 0.06674
1011.70 0.06673
1011.80 0.06672
1011.90 0.06671
1012.00 0.06671
1012.10 0.0667
1012.20 0.06669
1012.30 0.06668
1012.40 0.06667
1012.50 0.06666
1012.60 0.06665
1012.70 0.06664
1012.80 0.06663
1012.90 0.06662
1013.00 0.06661
1013.10 0.0666
1013.20 0.06659
1013.30 0.06658
1013.40 0.06657
1013.50 0.06656
1013.60 0.06655
1013.70 0.06654
1013.80 0.06653
1013.90 0.06651
1014.00 0.0665
1014.10 0.06649
1014.20 0.06648
1014.30 0.06647
1014.40 0.06645
1014.50 0.06644
1014.60 0.06643
1014.70 0.06642
1014.80 0.0664
1014.90 0.06639
1015.00 0.06637
1015.10 0.06636
1015.20 0.06634
1015.30 0.06633
1015.40 0.06632
1015.50 0.0663
1015.60 0.06629
1015.70 0.06627
1015.80 0.06626
1015.90 0.06624
1016.00 0.06623
1016.10 0.06622
1016.20 0.0662
1016.30 0.06619
1016.40 0.06617
1016.50 0.06616
1016.60 0.06615
1016.70 0.06613
1016.80 0.06611
1016.90 0.0661
1017.00 0.06608
1017.10 0.06607
1017.20 0.06605
1017.30 0.06603
1017.40 0.06602
1017.50 0.066
1017.60 0.06598
1017.70 0.06596
1017.80 0.06595
1017.90 0.06593
1018.00 0.06591
1018.10 0.0659
1018.20 0.06588
1018.30 0.06586
1018.40 0.06585
1018.50 0.06583
1018.60 0.06581
1018.70 0.0658
1018.80 0.06578
1018.90 0.06576
1019.00 0.06574
1019.10 0.06572
1019.20 0.0657
1019.30 0.06569
1019.40 0.06567
1019.50 0.06565
1019.60 0.06563
1019.70 0.06561
1019.80 0.06559
1019.90 0.06558
1020.00 0.06556
1020.10 0.06554
1020.20 0.06552
1020.30 0.0655
1020.40 0.06548
1020.50 0.06547
1020.60 0.06545
1020.70 0.06543
1020.80 0.06541
1020.90 0.06539
1021.00 0.06537
1021.10 0.06535
1021.20 0.06533
1021.30 0.06531
1021.40 0.06529
1021.50 0.06527
1021.60 0.06525
1021.70 0.06523
1021.80 0.06521
1021.90 0.06519
1022.00 0.06517
1022.10 0.06515
1022.20 0.06513
1022.30 0.06511
1022.40 0.06509
1022.50 0.06507
1022.60 0.06505
1022.70 0.06503
1022.80 0.06501
1022.90 0.06499
1023.00 0.06497
1023.10 0.06495
1023.20 0.06493
1023.30 0.06491
1023.40 0.06489
1023.50 0.06486
1023.60 0.06484
1023.70 0.06482
1023.80 0.0648
1023.90 0.06478
1024.00 0.06476
1024.10 0.06474
1024.20 0.06472
1024.30 0.0647
1024.40 0.06468
1024.50 0.06466
1024.60 0.06464
1024.70 0.06462
1024.80 0.0646
1024.90 0.06458
1025.00 0.06455
1025.10 0.06453
1025.20 0.06451
1025.30 0.06449
1025.40 0.06447
1025.50 0.06445
1025.60 0.06443
1025.70 0.0644
1025.80 0.06438
1025.90 0.06436
1026.00 0.06434
1026.10 0.06432
1026.20 0.0643
1026.30 0.06428
1026.40 0.06425
1026.50 0.06423
1026.60 0.06421
1026.70 0.06419
1026.80 0.06417
1026.90 0.06415
1027.00 0.06413
1027.10 0.0641
1027.20 0.06408
1027.30 0.06406
1027.40 0.06404
1027.50 0.06401
1027.60 0.06399
1027.70 0.06397
1027.80 0.06395
1027.90 0.06393
1028.00 0.0639
1028.10 0.06388
1028.20 0.06386
1028.30 0.06384
1028.40 0.06381
1028.50 0.06379
1028.60 0.06377
1028.70 0.06375
1028.80 0.06373
1028.90 0.0637
1029.00 0.06368
1029.10 0.06366
1029.20 0.06364
1029.30 0.06362
1029.40 0.06359
1029.50 0.06357
1029.60 0.06355
1029.70 0.06353
1029.80 0.0635
1029.90 0.06348
1030.00 0.06346
1030.10 0.06344
1030.20 0.06342
1030.30 0.06339
1030.40 0.06337
1030.50 0.06335
1030.60 0.06333
1030.70 0.06331
1030.80 0.06328
1030.90 0.06326
1031.00 0.06324
1031.10 0.06322
1031.20 0.0632
1031.30 0.06317
1031.40 0.06315
1031.50 0.06313
1031.60 0.06311
1031.70 0.06309
1031.80 0.06306
1031.90 0.06304
1032.00 0.06302
1032.10 0.063
1032.20 0.06298
1032.30 0.06295
1032.40 0.06293
1032.50 0.06291
1032.60 0.06288
1032.70 0.06286
1032.80 0.06284
1032.90 0.06282
1033.00 0.06279
1033.10 0.06277
1033.20 0.06275
1033.30 0.06273
1033.40 0.0627
1033.50 0.06268
1033.60 0.06266
1033.70 0.06264
1033.80 0.06261
1033.90 0.06259
1034.00 0.06257
1034.10 0.06255
1034.20 0.06252
1034.30 0.0625
1034.40 0.06248
1034.50 0.06246
1034.60 0.06243
1034.70 0.06241
1034.80 0.06239
1034.90 0.06237
1035.00 0.06234
1035.10 0.06232
1035.20 0.0623
1035.30 0.06228
1035.40 0.06225
1035.50 0.06223
1035.60 0.06221
1035.70 0.06219
1035.80 0.06217
1035.90 0.06214
1036.00 0.06212
1036.10 0.0621
1036.20 0.06208
1036.30 0.06205
1036.40 0.06203
1036.50 0.06201
1036.60 0.06199
1036.70 0.06196
1036.80 0.06194
1036.90 0.06192
1037.00 0.0619
1037.10 0.06187
1037.20 0.06185
1037.30 0.06183
1037.40 0.06181
1037.50 0.06178
1037.60 0.06176
1037.70 0.06174
1037.80 0.06172
1037.90 0.06169
1038.00 0.06167
1038.10 0.06165
1038.20 0.06163
1038.30 0.0616
1038.40 0.06158
1038.50 0.06156
1038.60 0.06154
1038.70 0.06151
1038.80 0.06149
1038.90 0.06147
1039.00 0.06145
1039.10 0.06142
1039.20 0.0614
1039.30 0.06138
1039.40 0.06136
1039.50 0.06133
1039.60 0.06131
1039.70 0.06129
1039.80 0.06127
1039.90 0.06124
1040.00 0.06122
1040.10 0.0612
1040.20 0.06118
1040.30 0.06115
1040.40 0.06113
1040.50 0.06111
1040.60 0.06109
1040.70 0.06106
1040.80 0.06104
1040.90 0.06102
1041.00 0.061
1041.10 0.06098
1041.20 0.06095
1041.30 0.06093
1041.40 0.06091
1041.50 0.06089
1041.60 0.06086
1041.70 0.06084
1041.80 0.06082
1041.90 0.0608
1042.00 0.06077
1042.10 0.06075
1042.20 0.06073
1042.30 0.06071
1042.40 0.06068
1042.50 0.06066
1042.60 0.06064
1042.70 0.06062
1042.80 0.06059
1042.90 0.06057
1043.00 0.06055
1043.10 0.06053
1043.20 0.06051
1043.30 0.06048
1043.40 0.06046
1043.50 0.06044
1043.60 0.06042
1043.70 0.06039
1043.80 0.06037
1043.90 0.06035
1044.00 0.06033
1044.10 0.0603
1044.20 0.06028
1044.30 0.06026
1044.40 0.06024
1044.50 0.06022
1044.60 0.06019
1044.70 0.06017
1044.80 0.06015
1044.90 0.06013
1045.00 0.0601
1045.10 0.06008
1045.20 0.06006
1045.30 0.06004
1045.40 0.06002
1045.50 0.05999
1045.60 0.05997
1045.70 0.05995
1045.80 0.05993
1045.90 0.0599
1046.00 0.05988
1046.10 0.05986
1046.20 0.05984
1046.30 0.05982
1046.40 0.05979
1046.50 0.05977
1046.60 0.05975
1046.70 0.05973
1046.80 0.05971
1046.90 0.05968
1047.00 0.05966
1047.10 0.05964
1047.20 0.05962
1047.30 0.05959
1047.40 0.05957
1047.50 0.05955
1047.60 0.05953
1047.70 0.05951
1047.80 0.05948
1047.90 0.05946
1048.00 0.05944
1048.10 0.05942
1048.20 0.0594
1048.30 0.05937
1048.40 0.05935
1048.50 0.05933
1048.60 0.05931
1048.70 0.05928
1048.80 0.05926
1048.90 0.05924
1049.00 0.05922
1049.10 0.0592
1049.20 0.05917
1049.30 0.05915
1049.40 0.05913
1049.50 0.05911
1049.60 0.05909
1049.70 0.05906
1049.80 0.05904
1049.90 0.05902
1050.00 0.059
1050.10 0.05898
1050.20 0.05895
1050.30 0.05893
1050.40 0.05891
1050.50 0.05889
1050.60 0.05887
1050.70 0.05884
1050.80 0.05882
1050.90 0.0588
1051.00 0.05878
1051.10 0.05876
1051.20 0.05874
1051.30 0.05871
1051.40 0.05869
1051.50 0.05867
1051.60 0.05865
1051.70 0.05863
1051.80 0.0586
1051.90 0.05858
1052.00 0.05856
1052.10 0.05854
1052.20 0.05852
1052.30 0.05849
1052.40 0.05847
1052.50 0.05845
1052.60 0.05843
1052.70 0.05841
1052.80 0.05839
1052.90 0.05836
1053.00 0.05834
1053.10 0.05832
1053.20 0.0583
1053.30 0.05828
1053.40 0.05825
1053.50 0.05823
1053.60 0.05821
1053.70 0.05819
1053.80 0.05817
1053.90 0.05814
1054.00 0.05812
1054.10 0.0581
1054.20 0.05808
1054.30 0.05806
1054.40 0.05804
1054.50 0.05801
1054.60 0.05799
1054.70 0.05797
1054.80 0.05795
1054.90 0.05793
1055.00 0.05791
1055.10 0.05788
1055.20 0.05786
1055.30 0.05784
1055.40 0.05782
1055.50 0.0578
1055.60 0.05777
1055.70 0.05775
1055.80 0.05773
1055.90 0.05771
1056.00 0.05769
1056.10 0.05767
1056.20 0.05764
1056.30 0.05762
1056.40 0.0576
1056.50 0.05758
1056.60 0.05756
1056.70 0.05754
1056.80 0.05751
1056.90 0.05749
1057.00 0.05747
1057.10 0.05745
1057.20 0.05743
1057.30 0.05741
1057.40 0.05738
1057.50 0.05736
1057.60 0.05734
1057.70 0.05732
1057.80 0.0573
1057.90 0.05728
1058.00 0.05725
1058.10 0.05723
1058.20 0.05721
1058.30 0.05719
1058.40 0.05717
1058.50 0.05715
1058.60 0.05712
1058.70 0.0571
1058.80 0.05708
1058.90 0.05706
1059.00 0.05704
1059.10 0.05702
1059.20 0.05699
1059.30 0.05697
1059.40 0.05695
1059.50 0.05693
1059.60 0.05691
1059.70 0.05689
1059.80 0.05686
1059.90 0.05684
1060.00 0.05682
1060.10 0.0568
1060.20 0.05678
1060.30 0.05676
1060.40 0.05673
1060.50 0.05671
1060.60 0.05669
1060.70 0.05667
1060.80 0.05665
1060.90 0.05663
1061.00 0.05661
1061.10 0.05658
1061.20 0.05656
1061.30 0.05654
1061.40 0.05652
1061.50 0.0565
1061.60 0.05648
1061.70 0.05645
1061.80 0.05643
1061.90 0.05641
1062.00 0.05639
1062.10 0.05637
1062.20 0.05635
1062.30 0.05632
1062.40 0.0563
1062.50 0.05628
1062.60 0.05626
1062.70 0.05624
1062.80 0.05622
1062.90 0.05619
1063.00 0.05617
1063.10 0.05615
1063.20 0.05613
1063.30 0.05611
1063.40 0.05608
1063.50 0.05606
1063.60 0.05604
1063.70 0.05602
1063.80 0.056
1063.90 0.05598
1064.00 0.05595
1064.10 0.05593
1064.20 0.05591
1064.30 0.05589
1064.40 0.05587
1064.50 0.05585
1064.60 0.05582
1064.70 0.0558
1064.80 0.05578
1064.90 0.05576
1065.00 0.05574
1065.10 0.05572
1065.20 0.05569
1065.30 0.05567
1065.40 0.05565
1065.50 0.05563
1065.60 0.05561
1065.70 0.05559
1065.80 0.05556
1065.90 0.05554
1066.00 0.05552
1066.10 0.0555
1066.20 0.05548
1066.30 0.05546
1066.40 0.05544
1066.50 0.05541
1066.60 0.05539
1066.70 0.05537
1066.80 0.05535
1066.90 0.05533
1067.00 0.05531
1067.10 0.05528
1067.20 0.05526
1067.30 0.05524
1067.40 0.05522
1067.50 0.05519
1067.60 0.05517
1067.70 0.05515
1067.80 0.05513
1067.90 0.0551
1068.00 0.05508
1068.10 0.05506
1068.20 0.05504
1068.30 0.05502
1068.40 0.05499
1068.50 0.05497
1068.60 0.05495
1068.70 0.05493
1068.80 0.0549
1068.90 0.05488
1069.00 0.05486
1069.10 0.05484
1069.20 0.05482
1069.30 0.05479
1069.40 0.05477
1069.50 0.05475
1069.60 0.05473
1069.70 0.0547
1069.80 0.05468
1069.90 0.05466
1070.00 0.05464
1070.10 0.05462
1070.20 0.05459
1070.30 0.05457
1070.40 0.05455
1070.50 0.05453
1070.60 0.05451
1070.70 0.05448
1070.80 0.05446
1070.90 0.05444
1071.00 0.05442
1071.10 0.0544
1071.20 0.05437
1071.30 0.05435
1071.40 0.05433
1071.50 0.05431
1071.60 0.05428
1071.70 0.05426
1071.80 0.05424
1071.90 0.05422
1072.00 0.0542
1072.10 0.05417
1072.20 0.05415
1072.30 0.05413
1072.40 0.05411
1072.50 0.05408
1072.60 0.05406
1072.70 0.05404
1072.80 0.05401
1072.90 0.05399
1073.00 0.05397
1073.10 0.05394
1073.20 0.05392
1073.30 0.0539
1073.40 0.05388
1073.50 0.05385
1073.60 0.05383
1073.70 0.05381
1073.80 0.05378
1073.90 0.05376
1074.00 0.05373
1074.10 0.05371
1074.20 0.05369
1074.30 0.05366
1074.40 0.05364
1074.50 0.05361
1074.60 0.05359
1074.70 0.05357
1074.80 0.05354
1074.90 0.05352
1075.00 0.05349
1075.10 0.05347
1075.20 0.05345
1075.30 0.05342
1075.40 0.0534
1075.50 0.05337
1075.60 0.05335
1075.70 0.05333
1075.80 0.0533
1075.90 0.05328
1076.00 0.05326
1076.10 0.05323
1076.20 0.05321
1076.30 0.05318
1076.40 0.05316
1076.50 0.05314
1076.60 0.05311
1076.70 0.05309
1076.80 0.05307
1076.90 0.05304
1077.00 0.05302
1077.10 0.05299
1077.20 0.05297
1077.30 0.05294
1077.40 0.05292
1077.50 0.05289
1077.60 0.05287
1077.70 0.05284
1077.80 0.05281
1077.90 0.05279
1078.00 0.05276
1078.10 0.05274
1078.20 0.05271
1078.30 0.05269
1078.40 0.05266
1078.50 0.05263
1078.60 0.05261
1078.70 0.05258
1078.80 0.05256
1078.90 0.05253
1079.00 0.0525
1079.10 0.05248
1079.20 0.05245
1079.30 0.05243
1079.40 0.0524
1079.50 0.05237
1079.60 0.05235
1079.70 0.05232
1079.80 0.05229
1079.90 0.05226
1080.00 0.05223
1080.10 0.05221
1080.20 0.05218
1080.30 0.05215
1080.40 0.05212
1080.50 0.0521
1080.60 0.05207
1080.70 0.05204
1080.80 0.05201
1080.90 0.05198
1081.00 0.05196
1081.10 0.05193
1081.20 0.0519
1081.30 0.05187
1081.40 0.05185
1081.50 0.05182
1081.60 0.05179
1081.70 0.05176
1081.80 0.05173
1081.90 0.0517
1082.00 0.05167
1082.10 0.05164
1082.20 0.05161
1082.30 0.05158
1082.40 0.05155
1082.50 0.05152
1082.60 0.05149
1082.70 0.05146
1082.80 0.05142
1082.90 0.05139
1083.00 0.05136
1083.10 0.05133
1083.20 0.0513
1083.30 0.05127
1083.40 0.05124
1083.50 0.05121
1083.60 0.05118
1083.70 0.05114
1083.80 0.05111
1083.90 0.05108
1084.00 0.05104
1084.10 0.05101
1084.20 0.05098
1084.30 0.05095
1084.40 0.05091
1084.50 0.05088
1084.60 0.05084
1084.70 0.05081
1084.80 0.05077
1084.90 0.05074
1085.00 0.0507
1085.10 0.05066
1085.20 0.05063
1085.30 0.05059
1085.40 0.05056
1085.50 0.05052
1085.60 0.05048
1085.70 0.05045
1085.80 0.05041
1085.90 0.05038
1086.00 0.05034
1086.10 0.0503
1086.20 0.05027
1086.30 0.05023
1086.40 0.0502
1086.50 0.05016
1086.60 0.05012
1086.70 0.05008
1086.80 0.05004
1086.90 0.05001
1087.00 0.04997
1087.10 0.04993
1087.20 0.04988
1087.30 0.04984
1087.40 0.0498
1087.50 0.04976
1087.60 0.04972
1087.70 0.04968
1087.80 0.04964
1087.90 0.0496
1088.00 0.04956
1088.10 0.04951
1088.20 0.04947
1088.30 0.04943
1088.40 0.04939
1088.50 0.04935
1088.60 0.0493
1088.70 0.04926
1088.80 0.04922
1088.90 0.04917
1089.00 0.04913
1089.10 0.04908
1089.20 0.04904
1089.30 0.04899
1089.40 0.04895
1089.50 0.0489
1089.60 0.04886
1089.70 0.04881
1089.80 0.04877
1089.90 0.04873
1090.00 0.04868
1090.10 0.04864
1090.20 0.04859
1090.30 0.04855
1090.40 0.0485
1090.50 0.04846
1090.60 0.04841
1090.70 0.04837
1090.80 0.04832
1090.90 0.04828
1091.00 0.04823
1091.10 0.04819
1091.20 0.04814
1091.30 0.0481
1091.40 0.04805
1091.50 0.048
1091.60 0.04796
1091.70 0.04791
1091.80 0.04787
1091.90 0.04782
1092.00 0.04778
1092.10 0.04773
1092.20 0.04769
1092.30 0.04764
1092.40 0.0476
1092.50 0.04755
1092.60 0.04751
1092.70 0.04746
1092.80 0.04742
1092.90 0.04737
1093.00 0.04732
1093.10 0.04728
1093.20 0.04723
1093.30 0.04718
1093.40 0.04713
1093.50 0.04707
1093.60 0.04703
1093.70 0.04701
1093.80 0.047
1093.90 0.04699
1094.00 0.047
1094.10 0.047
1094.20 0.047
1094.30 0.04701
1094.40 0.04703
1094.50 0.04704
1094.60 0.04706
1094.70 0.04707
1094.80 0.04709
1094.90 0.0471
1095.00 0.04712
1095.10 0.04713
1095.20 0.04714
1095.30 0.04715
1095.40 0.04717
1095.50 0.04718
1095.60 0.04719
1095.70 0.0472
1095.80 0.04721
1095.90 0.04722
1096.00 0.04724
1096.10 0.04725
1096.20 0.04726
1096.30 0.04727
1096.40 0.04728
1096.50 0.0473
1096.60 0.04731
1096.70 0.04732
1096.80 0.04733
1096.90 0.04734
1097.00 0.04736
1097.10 0.04737
1097.20 0.04738
1097.30 0.04739
1097.40 0.0474
1097.50 0.04741
1097.60 0.04742
1097.70 0.04743
1097.80 0.04744
1097.90 0.04745
1098.00 0.04746
1098.10 0.04748
1098.20 0.04749
1098.30 0.0475
1098.40 0.04751
1098.50 0.04752
1098.60 0.04753
1098.70 0.04753
1098.80 0.04754
1098.90 0.04755
1099.00 0.04755
1099.10 0.04756
1099.20 0.04757
1099.30 0.04757
1099.40 0.04758
1099.50 0.04759
1099.60 0.0476
1099.70 0.0476
1099.80 0.04761
1099.90 0.04762
1100.00 0.04762
1100.10 0.04763
1100.20 0.04764
1100.30 0.04764
1100.40 0.04765
1100.50 0.04766
1100.60 0.04766
1100.70 0.04766
1100.80 0.04766
1100.90 0.04767
1101.00 0.04767
1101.10 0.04767
1101.20 0.04767
1101.30 0.04768
1101.40 0.04768
1101.50 0.04768
1101.60 0.04768
1101.70 0.04769
1101.80 0.04769
1101.90 0.04769
1102.00 0.04769
1102.10 0.04769
1102.20 0.04769
1102.30 0.04769
1102.40 0.04769
1102.50 0.04769
1102.60 0.04769
1102.70 0.04769
1102.80 0.04769
1102.90 0.04768
1103.00 0.04768
1103.10 0.04768
1103.20 0.04768
1103.30 0.04768
1103.40 0.04768
1103.50 0.04767
1103.60 0.04767
1103.70 0.04766
1103.80 0.04766
1103.90 0.04765
1104.00 0.04765
1104.10 0.04764
1104.20 0.04764
1104.30 0.04764
1104.40 0.04763
1104.50 0.04763
1104.60 0.04762
1104.70 0.04762
1104.80 0.04761
1104.90 0.04761
1105.00 0.0476
1105.10 0.0476
1105.20 0.04759
1105.30 0.04759
1105.40 0.04758
1105.50 0.04758
1105.60 0.04757
1105.70 0.04756
1105.80 0.04756
1105.90 0.04755
1106.00 0.04754
1106.10 0.04753
1106.20 0.04753
1106.30 0.04752
1106.40 0.04751
1106.50 0.0475
1106.60 0.0475
1106.70 0.04749
1106.80 0.04748
1106.90 0.04747
1107.00 0.04747
1107.10 0.04746
1107.20 0.04745
1107.30 0.04744
1107.40 0.04743
1107.50 0.04742
1107.60 0.04741
1107.70 0.0474
1107.80 0.04739
1107.90 0.04738
1108.00 0.04737
1108.10 0.04736
1108.20 0.04735
1108.30 0.04734
1108.40 0.04733
1108.50 0.04732
1108.60 0.04731
1108.70 0.0473
1108.80 0.04729
1108.90 0.04728
1109.00 0.04727
1109.10 0.04726
1109.20 0.04725
1109.30 0.04724
1109.40 0.04723
1109.50 0.04722
1109.60 0.04721
1109.70 0.0472
1109.80 0.04719
1109.90 0.04718
1110.00 0.04716
1110.10 0.04715
1110.20 0.04714
1110.30 0.04713
1110.40 0.04712
1110.50 0.04711
1110.60 0.04709
1110.70 0.04708
1110.80 0.04707
1110.90 0.04706
1111.00 0.04705
1111.10 0.04704
1111.20 0.04702
1111.30 0.04701
1111.40 0.047
1111.50 0.04699
1111.60 0.04698
1111.70 0.04696
1111.80 0.04695
1111.90 0.04694
1112.00 0.04693
1112.10 0.04692
1112.20 0.0469
1112.30 0.04689
1112.40 0.04688
1112.50 0.04687
1112.60 0.04685
1112.70 0.04684
1112.80 0.04683
1112.90 0.04681
1113.00 0.0468
1113.10 0.04679
1113.20 0.04678
1113.30 0.04676
1113.40 0.04675
1113.50 0.04674
1113.60 0.04672
1113.70 0.04671
1113.80 0.0467
1113.90 0.04668
1114.00 0.04667
1114.10 0.04665
1114.20 0.04664
1114.30 0.04663
1114.40 0.04661
1114.50 0.0466
1114.60 0.04659
1114.70 0.04657
1114.80 0.04656
1114.90 0.04655
1115.00 0.04653
1115.10 0.04652
1115.20 0.0465
1115.30 0.04649
1115.40 0.04648
1115.50 0.04646
1115.60 0.04645
1115.70 0.04644
1115.80 0.04642
1115.90 0.04641
1116.00 0.04639
1116.10 0.04638
1116.20 0.04637
1116.30 0.04635
1116.40 0.04634
1116.50 0.04633
1116.60 0.04631
1116.70 0.0463
1116.80 0.04629
1116.90 0.04627
1117.00 0.04626
1117.10 0.04624
1117.20 0.04623
1117.30 0.04621
1117.40 0.0462
1117.50 0.04619
1117.60 0.04617
1117.70 0.04616
1117.80 0.04614
1117.90 0.04613
1118.00 0.04611
1118.10 0.0461
1118.20 0.04608
1118.30 0.04607
1118.40 0.04605
1118.50 0.04604
1118.60 0.04603
1118.70 0.04601
1118.80 0.046
1118.90 0.04598
1119.00 0.04597
1119.10 0.04595
1119.20 0.04594
1119.30 0.04592
1119.40 0.04591
1119.50 0.04589
1119.60 0.04588
1119.70 0.04587
1119.80 0.04585
1119.90 0.04584
1120.00 0.04582
1120.10 0.04581
1120.20 0.04579
1120.30 0.04578
1120.40 0.04576
1120.50 0.04575
1120.60 0.04574
1120.70 0.04572
1120.80 0.04571
1120.90 0.04569
1121.00 0.04568
1121.10 0.04566
1121.20 0.04565
1121.30 0.04563
1121.40 0.04562
1121.50 0.04561
1121.60 0.04559
1121.70 0.04558
1121.80 0.04556
1121.90 0.04555
1122.00 0.04553
1122.10 0.04552
1122.20 0.0455
1122.30 0.04549
1122.40 0.04547
1122.50 0.04546
1122.60 0.04544
1122.70 0.04543
1122.80 0.04541
1122.90 0.0454
1123.00 0.04538
1123.10 0.04537
1123.20 0.04535
1123.30 0.04534
1123.40 0.04532
1123.50 0.04531
1123.60 0.04529
1123.70 0.04528
1123.80 0.04527
1123.90 0.04525
1124.00 0.04524
1124.10 0.04522
1124.20 0.04521
1124.30 0.04519
1124.40 0.04518
1124.50 0.04516
1124.60 0.04515
1124.70 0.04513
1124.80 0.04512
1124.90 0.0451
1125.00 0.04509
1125.10 0.04507
1125.20 0.04506
1125.30 0.04504
1125.40 0.04503
1125.50 0.04501
1125.60 0.045
1125.70 0.04498
1125.80 0.04497
1125.90 0.04495
1126.00 0.04494
1126.10 0.04492
1126.20 0.04491
1126.30 0.04489
1126.40 0.04488
1126.50 0.04487
1126.60 0.04485
1126.70 0.04484
1126.80 0.04482
1126.90 0.04481
1127.00 0.04479
1127.10 0.04478
1127.20 0.04476
1127.30 0.04475
1127.40 0.04473
1127.50 0.04472
1127.60 0.0447
1127.70 0.04469
1127.80 0.04467
1127.90 0.04466
1128.00 0.04464
1128.10 0.04463
1128.20 0.04461
1128.30 0.0446
1128.40 0.04458
1128.50 0.04457
1128.60 0.04455
1128.70 0.04454
1128.80 0.04452
1128.90 0.04451
1129.00 0.04449
1129.10 0.04448
1129.20 0.04446
1129.30 0.04445
1129.40 0.04443
1129.50 0.04442
1129.60 0.0444
1129.70 0.04439
1129.80 0.04437
1129.90 0.04436
1130.00 0.04434
1130.10 0.04433
1130.20 0.04431
1130.30 0.0443
1130.40 0.04429
1130.50 0.04427
1130.60 0.04426
1130.70 0.04424
1130.80 0.04423
1130.90 0.04421
1131.00 0.0442
1131.10 0.04418
1131.20 0.04417
1131.30 0.04415
1131.40 0.04414
1131.50 0.04412
1131.60 0.04411
1131.70 0.04409
1131.80 0.04408
1131.90 0.04406
1132.00 0.04405
1132.10 0.04403
1132.20 0.04402
1132.30 0.044
1132.40 0.04399
1132.50 0.04397
1132.60 0.04396
1132.70 0.04395
1132.80 0.04393
1132.90 0.04392
1133.00 0.0439
1133.10 0.04389
1133.20 0.04387
1133.30 0.04386
1133.40 0.04384
1133.50 0.04383
1133.60 0.04381
1133.70 0.0438
1133.80 0.04378
1133.90 0.04377
1134.00 0.04375
1134.10 0.04374
1134.20 0.04372
1134.30 0.04371
1134.40 0.04369
1134.50 0.04368
1134.60 0.04366
1134.70 0.04365
1134.80 0.04364
1134.90 0.04362
1135.00 0.04361
1135.10 0.04359
1135.20 0.04358
1135.30 0.04356
1135.40 0.04355
1135.50 0.04353
1135.60 0.04352
1135.70 0.0435
1135.80 0.04349
1135.90 0.04347
1136.00 0.04346
1136.10 0.04344
1136.20 0.04343
1136.30 0.04341
1136.40 0.0434
1136.50 0.04339
1136.60 0.04337
1136.70 0.04336
1136.80 0.04334
1136.90 0.04333
1137.00 0.04331
1137.10 0.0433
1137.20 0.04328
1137.30 0.04327
1137.40 0.04325
1137.50 0.04324
1137.60 0.04322
1137.70 0.04321
1137.80 0.0432
1137.90 0.04318
1138.00 0.04317
1138.10 0.04315
1138.20 0.04314
1138.30 0.04312
1138.40 0.04311
1138.50 0.04309
1138.60 0.04308
1138.70 0.04306
1138.80 0.04305
1138.90 0.04304
1139.00 0.04302
1139.10 0.04301
1139.20 0.04299
1139.30 0.04298
1139.40 0.04296
1139.50 0.04295
1139.60 0.04293
1139.70 0.04292
1139.80 0.0429
1139.90 0.04289
1140.00 0.04288
1140.10 0.04286
1140.20 0.04285
1140.30 0.04283
1140.40 0.04282
1140.50 0.0428
1140.60 0.04279
1140.70 0.04277
1140.80 0.04276
1140.90 0.04275
1141.00 0.04273
1141.10 0.04272
1141.20 0.0427
1141.30 0.04269
1141.40 0.04267
1141.50 0.04266
1141.60 0.04264
1141.70 0.04263
1141.80 0.04262
1141.90 0.0426
1142.00 0.04259
1142.10 0.04257
1142.20 0.04256
1142.30 0.04254
1142.40 0.04253
1142.50 0.04251
1142.60 0.0425
1142.70 0.04249
1142.80 0.04247
1142.90 0.04246
1143.00 0.04244
1143.10 0.04243
1143.20 0.04241
1143.30 0.0424
1143.40 0.04239
1143.50 0.04237
1143.60 0.04236
1143.70 0.04234
1143.80 0.04233
1143.90 0.04231
1144.00 0.0423
1144.10 0.04229
1144.20 0.04227
1144.30 0.04226
1144.40 0.04224
1144.50 0.04223
1144.60 0.04221
1144.70 0.0422
1144.80 0.04219
1144.90 0.04217
1145.00 0.04216
1145.10 0.04214
1145.20 0.04213
1145.30 0.04211
1145.40 0.0421
1145.50 0.04209
1145.60 0.04207
1145.70 0.04206
1145.80 0.04204
1145.90 0.04203
1146.00 0.04201
1146.10 0.042
1146.20 0.04199
1146.30 0.04197
1146.40 0.04196
1146.50 0.04194
1146.60 0.04193
1146.70 0.04191
1146.80 0.0419
1146.90 0.04189
1147.00 0.04187
1147.10 0.04186
1147.20 0.04184
1147.30 0.04183
1147.40 0.04182
1147.50 0.0418
1147.60 0.04179
1147.70 0.04177
1147.80 0.04176
1147.90 0.04175
1148.00 0.04173
1148.10 0.04172
1148.20 0.0417
1148.30 0.04169
1148.40 0.04167
1148.50 0.04166
1148.60 0.04165
1148.70 0.04163
1148.80 0.04162
1148.90 0.0416
1149.00 0.04159
1149.10 0.04158
1149.20 0.04156
1149.30 0.04155
1149.40 0.04153
1149.50 0.04152
1149.60 0.04151
1149.70 0.04149
1149.80 0.04148
1149.90 0.04146
1150.00 0.04145
1150.10 0.04144
1150.20 0.04142
1150.30 0.04141
1150.40 0.04139
1150.50 0.04138
1150.60 0.04137
1150.70 0.04135
1150.80 0.04134
1150.90 0.04132
1151.00 0.04131
1151.10 0.0413
1151.20 0.04128
1151.30 0.04127
1151.40 0.04125
1151.50 0.04124
1151.60 0.04123
1151.70 0.04121
1151.80 0.0412
1151.90 0.04119
1152.00 0.04117
1152.10 0.04116
1152.20 0.04114
1152.30 0.04113
1152.40 0.04112
1152.50 0.0411
1152.60 0.04109
1152.70 0.04107
1152.80 0.04106
1152.90 0.04105
1153.00 0.04103
1153.10 0.04102
1153.20 0.04101
1153.30 0.04099
1153.40 0.04098
1153.50 0.04096
1153.60 0.04095
1153.70 0.04094
1153.80 0.04092
1153.90 0.04091
1154.00 0.04089
1154.10 0.04088
1154.20 0.04087
1154.30 0.04085
1154.40 0.04084
1154.50 0.04083
1154.60 0.04081
1154.70 0.0408
1154.80 0.04078
1154.90 0.04077
1155.00 0.04076
1155.10 0.04074
1155.20 0.04073
1155.30 0.04072
1155.40 0.0407
1155.50 0.04069
1155.60 0.04068
1155.70 0.04066
1155.80 0.04065
1155.90 0.04063
1156.00 0.04062
1156.10 0.04061
1156.20 0.04059
1156.30 0.04058
1156.40 0.04057
1156.50 0.04055
1156.60 0.04054
1156.70 0.04052
1156.80 0.04051
1156.90 0.0405
1157.00 0.04048
1157.10 0.04047
1157.20 0.04046
1157.30 0.04044
1157.40 0.04043
1157.50 0.04042
1157.60 0.0404
1157.70 0.04039
1157.80 0.04037
1157.90 0.04036
1158.00 0.04035
1158.10 0.04033
1158.20 0.04032
1158.30 0.04031
1158.40 0.04029
1158.50 0.04028
1158.60 0.04027
1158.70 0.04025
1158.80 0.04024
1158.90 0.04023
1159.00 0.04021
1159.10 0.0402
1159.20 0.04019
1159.30 0.04017
1159.40 0.04016
1159.50 0.04015
1159.60 0.04013
1159.70 0.04012
1159.80 0.0401
1159.90 0.04009
1160.00 0.04008
1160.10 0.04006
1160.20 0.04005
1160.30 0.04004
1160.40 0.04002
1160.50 0.04001
1160.60 0.04
1160.70 0.03998
1160.80 0.03997
1160.90 0.03996
1161.00 0.03994
1161.10 0.03993
1161.20 0.03992
1161.30 0.0399
1161.40 0.03989
1161.50 0.03988
1161.60 0.03986
1161.70 0.03985
1161.80 0.03984
1161.90 0.03982
1162.00 0.03981
1162.10 0.0398
1162.20 0.03978
1162.30 0.03977
1162.40 0.03976
1162.50 0.03974
1162.60 0.03973
1162.70 0.03972
1162.80 0.0397
1162.90 0.03969
1163.00 0.03968
1163.10 0.03966
1163.20 0.03965
1163.30 0.03964
1163.40 0.03962
1163.50 0.03961
1163.60 0.0396
1163.70 0.03958
1163.80 0.03957
1163.90 0.03956
1164.00 0.03954
1164.10 0.03953
1164.20 0.03952
1164.30 0.0395
1164.40 0.03949
1164.50 0.03948
1164.60 0.03946
1164.70 0.03945
1164.80 0.03944
1164.90 0.03942
1165.00 0.03941
1165.10 0.0394
1165.20 0.03938
1165.30 0.03937
1165.40 0.03936
1165.50 0.03935
1165.60 0.03933
1165.70 0.03932
1165.80 0.03931
1165.90 0.03929
1166.00 0.03928
1166.10 0.03927
1166.20 0.03925
1166.30 0.03924
1166.40 0.03923
1166.50 0.03921
1166.60 0.0392
1166.70 0.03919
1166.80 0.03917
1166.90 0.03916
1167.00 0.03915
1167.10 0.03914
1167.20 0.03912
1167.30 0.03911
1167.40 0.0391
1167.50 0.03908
1167.60 0.03907
1167.70 0.03906
1167.80 0.03904
1167.90 0.03903
1168.00 0.03902
1168.10 0.039
1168.20 0.03899
1168.30 0.03898
1168.40 0.03897
1168.50 0.03895
1168.60 0.03894
1168.70 0.03893
1168.80 0.03891
1168.90 0.0389
1169.00 0.03889
1169.10 0.03887
1169.20 0.03886
1169.30 0.03885
1169.40 0.03884
1169.50 0.03882
1169.60 0.03881
1169.70 0.0388
1169.80 0.03878
1169.90 0.03877
1170.00 0.03876
1170.10 0.03875
1170.20 0.03873
1170.30 0.03872
1170.40 0.03871
1170.50 0.03869
1170.60 0.03868
1170.70 0.03867
1170.80 0.03865
1170.90 0.03864
1171.00 0.03863
1171.10 0.03862
1171.20 0.0386
1171.30 0.03859
1171.40 0.03858
1171.50 0.03856
1171.60 0.03855
1171.70 0.03854
1171.80 0.03853
1171.90 0.03851
1172.00 0.0385
1172.10 0.03849
1172.20 0.03847
1172.30 0.03846
1172.40 0.03845
1172.50 0.03844
1172.60 0.03842
1172.70 0.03841
1172.80 0.0384
1172.90 0.03839
1173.00 0.03837
1173.10 0.03836
1173.20 0.03835
1173.30 0.03833
1173.40 0.03832
1173.50 0.03831
1173.60 0.0383
1173.70 0.03828
1173.80 0.03827
1173.90 0.03826
1174.00 0.03825
1174.10 0.03823
1174.20 0.03822
1174.30 0.03821
1174.40 0.03819
1174.50 0.03818
1174.60 0.03817
1174.70 0.03816
1174.80 0.03814
1174.90 0.03813
1175.00 0.03812
1175.10 0.03811
1175.20 0.03809
1175.30 0.03808
1175.40 0.03807
1175.50 0.03805
1175.60 0.03804
1175.70 0.03803
1175.80 0.03802
1175.90 0.038
1176.00 0.03799
1176.10 0.03798
1176.20 0.03797
1176.30 0.03795
1176.40 0.03794
1176.50 0.03793
1176.60 0.03792
1176.70 0.0379
1176.80 0.03789
1176.90 0.03788
1177.00 0.03787
1177.10 0.03785
1177.20 0.03784
1177.30 0.03783
1177.40 0.03782
1177.50 0.0378
1177.60 0.03779
1177.70 0.03778
1177.80 0.03777
1177.90 0.03775
1178.00 0.03774
1178.10 0.03773
1178.20 0.03772
1178.30 0.0377
1178.40 0.03769
1178.50 0.03768
1178.60 0.03767
1178.70 0.03765
1178.80 0.03764
1178.90 0.03763
1179.00 0.03762
1179.10 0.0376
1179.20 0.03759
1179.30 0.03758
1179.40 0.03757
1179.50 0.03755
1179.60 0.03754
1179.70 0.03753
1179.80 0.03752
1179.90 0.0375
1180.00 0.03749
1180.10 0.03748
1180.20 0.03747
1180.30 0.03745
1180.40 0.03744
1180.50 0.03743
1180.60 0.03742
1180.70 0.0374
1180.80 0.03739
1180.90 0.03738
1181.00 0.03737
1181.10 0.03735
1181.20 0.03734
1181.30 0.03733
1181.40 0.03732
1181.50 0.03731
1181.60 0.03729
1181.70 0.03728
1181.80 0.03727
1181.90 0.03726
1182.00 0.03724
1182.10 0.03723
1182.20 0.03722
1182.30 0.03721
1182.40 0.03719
1182.50 0.03718
1182.60 0.03717
1182.70 0.03716
1182.80 0.03715
1182.90 0.03713
1183.00 0.03712
1183.10 0.03711
1183.20 0.0371
1183.30 0.03708
1183.40 0.03707
1183.50 0.03706
1183.60 0.03705
1183.70 0.03703
1183.80 0.03702
1183.90 0.03701
1184.00 0.037
1184.10 0.03699
1184.20 0.03697
1184.30 0.03696
1184.40 0.03695
1184.50 0.03694
1184.60 0.03693
1184.70 0.03691
1184.80 0.0369
1184.90 0.03689
1185.00 0.03688
1185.10 0.03686
1185.20 0.03685
1185.30 0.03684
1185.40 0.03683
1185.50 0.03682
1185.60 0.0368
1185.70 0.03679
1185.80 0.03678
1185.90 0.03677
1186.00 0.03675
1186.10 0.03674
1186.20 0.03673
1186.30 0.03672
1186.40 0.03671
1186.50 0.03669
1186.60 0.03668
1186.70 0.03667
1186.80 0.03666
1186.90 0.03665
1187.00 0.03663
1187.10 0.03662
1187.20 0.03661
1187.30 0.0366
1187.40 0.03659
1187.50 0.03657
1187.60 0.03656
1187.70 0.03655
1187.80 0.03654
1187.90 0.03653
1188.00 0.03651
1188.10 0.0365
1188.20 0.03649
1188.30 0.03648
1188.40 0.03647
1188.50 0.03645
1188.60 0.03644
1188.70 0.03643
1188.80 0.03642
1188.90 0.03641
1189.00 0.03639
1189.10 0.03638
1189.20 0.03637
1189.30 0.03636
1189.40 0.03635
1189.50 0.03633
1189.60 0.03632
1189.70 0.03631
1189.80 0.0363
1189.90 0.03629
1190.00 0.03627
1190.10 0.03626
1190.20 0.03625
1190.30 0.03624
1190.40 0.03623
1190.50 0.03621
1190.60 0.0362
1190.70 0.03619
1190.80 0.03618
1190.90 0.03617
1191.00 0.03615
1191.10 0.03614
1191.20 0.03613
1191.30 0.03612
1191.40 0.03611
1191.50 0.0361
1191.60 0.03608
1191.70 0.03607
1191.80 0.03606
1191.90 0.03605
1192.00 0.03604
1192.10 0.03602
1192.20 0.03601
1192.30 0.036
1192.40 0.03599
1192.50 0.03598
1192.60 0.03597
1192.70 0.03595
1192.80 0.03594
1192.90 0.03593
1193.00 0.03592
1193.10 0.03591
1193.20 0.03589
1193.30 0.03588
1193.40 0.03587
1193.50 0.03586
1193.60 0.03585
1193.70 0.03584
1193.80 0.03582
1193.90 0.03581
1194.00 0.0358
1194.10 0.03579
1194.20 0.03578
1194.30 0.03577
1194.40 0.03575
1194.50 0.03574
1194.60 0.03573
1194.70 0.03572
1194.80 0.03571
1194.90 0.03569
1195.00 0.03568
1195.10 0.03567
1195.20 0.03566
1195.30 0.03565
1195.40 0.03564
1195.50 0.03562
1195.60 0.03561
1195.70 0.0356
1195.80 0.03559
1195.90 0.03558
1196.00 0.03557
1196.10 0.03555
1196.20 0.03554
1196.30 0.03553
1196.40 0.03552
1196.50 0.03551
1196.60 0.0355
1196.70 0.03548
1196.80 0.03547
1196.90 0.03546
1197.00 0.03545
1197.10 0.03544
1197.20 0.03543
1197.30 0.03542
1197.40 0.0354
1197.50 0.03539
1197.60 0.03538
1197.70 0.03537
1197.80 0.03536
1197.90 0.03535
1198.00 0.03533
1198.10 0.03532
1198.20 0.03531
1198.30 0.0353
1198.40 0.03529
1198.50 0.03528
1198.60 0.03527
1198.70 0.03525
1198.80 0.03524
1198.90 0.03523
1199.00 0.03522
1199.10 0.03521
1199.20 0.0352
1199.30 0.03518
1199.40 0.03517
1199.50 0.03516
1199.60 0.03515
1199.70 0.03514
1199.80 0.03513
1199.90 0.03512
1200.00 0
