# Version 2.1 - nm, norm@500 to 1, cut digits, bergeron_3750_70.dat_3750
# Wavelength(nm)  Flambda(ergs/cm^s/s/nm)
300.00 0.1289
300.10 0.1291
300.20 0.1294
300.30 0.1297
300.40 0.13
300.50 0.1303
300.60 0.1306
300.70 0.1308
300.80 0.1311
300.90 0.1314
301.00 0.1317
301.10 0.132
301.20 0.1323
301.30 0.1325
301.40 0.1328
301.50 0.1331
301.60 0.1334
301.70 0.1337
301.80 0.134
301.90 0.1342
302.00 0.1345
302.10 0.1348
302.20 0.1351
302.30 0.1354
302.40 0.1357
302.50 0.136
302.60 0.1363
302.70 0.1366
302.80 0.1369
302.90 0.1372
303.00 0.1374
303.10 0.1377
303.20 0.138
303.30 0.1383
303.40 0.1386
303.50 0.1389
303.60 0.1392
303.70 0.1395
303.80 0.1398
303.90 0.14
304.00 0.1403
304.10 0.1406
304.20 0.1409
304.30 0.1412
304.40 0.1415
304.50 0.1418
304.60 0.1421
304.70 0.1424
304.80 0.1427
304.90 0.143
305.00 0.1433
305.10 0.1436
305.20 0.1439
305.30 0.1442
305.40 0.1445
305.50 0.1448
305.60 0.1451
305.70 0.1454
305.80 0.1457
305.90 0.146
306.00 0.1463
306.10 0.1466
306.20 0.1469
306.30 0.1472
306.40 0.1475
306.50 0.1478
306.60 0.1481
306.70 0.1484
306.80 0.1487
306.90 0.149
307.00 0.1493
307.10 0.1496
307.20 0.1499
307.30 0.1502
307.40 0.1505
307.50 0.1508
307.60 0.1512
307.70 0.1515
307.80 0.1518
307.90 0.1521
308.00 0.1524
308.10 0.1527
308.20 0.153
308.30 0.1533
308.40 0.1536
308.50 0.1539
308.60 0.1542
308.70 0.1545
308.80 0.1549
308.90 0.1552
309.00 0.1555
309.10 0.1558
309.20 0.1561
309.30 0.1564
309.40 0.1567
309.50 0.157
309.60 0.1573
309.70 0.1576
309.80 0.158
309.90 0.1583
310.00 0.1586
310.10 0.1589
310.20 0.1592
310.30 0.1595
310.40 0.1599
310.50 0.1602
310.60 0.1605
310.70 0.1608
310.80 0.1611
310.90 0.1614
311.00 0.1618
311.10 0.1621
311.20 0.1624
311.30 0.1627
311.40 0.163
311.50 0.1634
311.60 0.1637
311.70 0.164
311.80 0.1643
311.90 0.1646
312.00 0.1649
312.10 0.1652
312.20 0.1656
312.30 0.1659
312.40 0.1662
312.50 0.1665
312.60 0.1669
312.70 0.1672
312.80 0.1675
312.90 0.1678
313.00 0.1682
313.10 0.1685
313.20 0.1688
313.30 0.1691
313.40 0.1695
313.50 0.1698
313.60 0.1701
313.70 0.1704
313.80 0.1707
313.90 0.1711
314.00 0.1714
314.10 0.1717
314.20 0.172
314.30 0.1724
314.40 0.1727
314.50 0.173
314.60 0.1734
314.70 0.1737
314.80 0.174
314.90 0.1744
315.00 0.1747
315.10 0.175
315.20 0.1754
315.30 0.1757
315.40 0.176
315.50 0.1763
315.60 0.1767
315.70 0.177
315.80 0.1773
315.90 0.1777
316.00 0.178
316.10 0.1783
316.20 0.1787
316.30 0.179
316.40 0.1793
316.50 0.1797
316.60 0.18
316.70 0.1804
316.80 0.1807
316.90 0.181
317.00 0.1814
317.10 0.1817
317.20 0.182
317.30 0.1824
317.40 0.1827
317.50 0.183
317.60 0.1834
317.70 0.1837
317.80 0.184
317.90 0.1844
318.00 0.1847
318.10 0.1851
318.20 0.1854
318.30 0.1857
318.40 0.1861
318.50 0.1864
318.60 0.1868
318.70 0.1871
318.80 0.1875
318.90 0.1878
319.00 0.1882
319.10 0.1885
319.20 0.1888
319.30 0.1892
319.40 0.1895
319.50 0.1899
319.60 0.1902
319.70 0.1905
319.80 0.1909
319.90 0.1912
320.00 0.1916
320.10 0.1919
320.20 0.1923
320.30 0.1926
320.40 0.193
320.50 0.1933
320.60 0.1937
320.70 0.194
320.80 0.1944
320.90 0.1947
321.00 0.1951
321.10 0.1954
321.20 0.1958
321.30 0.1961
321.40 0.1965
321.50 0.1968
321.60 0.1972
321.70 0.1975
321.80 0.1978
321.90 0.1982
322.00 0.1985
322.10 0.1989
322.20 0.1993
322.30 0.1996
322.40 0.2
322.50 0.2003
322.60 0.2007
322.70 0.201
322.80 0.2014
322.90 0.2017
323.00 0.2021
323.10 0.2025
323.20 0.2028
323.30 0.2032
323.40 0.2035
323.50 0.2039
323.60 0.2042
323.70 0.2046
323.80 0.2049
323.90 0.2053
324.00 0.2056
324.10 0.206
324.20 0.2064
324.30 0.2067
324.40 0.2071
324.50 0.2074
324.60 0.2078
324.70 0.2082
324.80 0.2085
324.90 0.2089
325.00 0.2093
325.10 0.2096
325.20 0.21
325.30 0.2103
325.40 0.2107
325.50 0.2111
325.60 0.2114
325.70 0.2118
325.80 0.2121
325.90 0.2125
326.00 0.2128
326.10 0.2132
326.20 0.2136
326.30 0.214
326.40 0.2143
326.50 0.2147
326.60 0.2151
326.70 0.2154
326.80 0.2158
326.90 0.2162
327.00 0.2165
327.10 0.2169
327.20 0.2173
327.30 0.2176
327.40 0.218
327.50 0.2184
327.60 0.2187
327.70 0.2191
327.80 0.2194
327.90 0.2198
328.00 0.2202
328.10 0.2206
328.20 0.2209
328.30 0.2213
328.40 0.2217
328.50 0.222
328.60 0.2224
328.70 0.2228
328.80 0.2232
328.90 0.2235
329.00 0.2239
329.10 0.2243
329.20 0.2247
329.30 0.225
329.40 0.2254
329.50 0.2258
329.60 0.2261
329.70 0.2265
329.80 0.2269
329.90 0.2272
330.00 0.2276
330.10 0.228
330.20 0.2284
330.30 0.2288
330.40 0.2291
330.50 0.2295
330.60 0.2299
330.70 0.2303
330.80 0.2307
330.90 0.231
331.00 0.2314
331.10 0.2318
331.20 0.2322
331.30 0.2325
331.40 0.2329
331.50 0.2333
331.60 0.2337
331.70 0.2341
331.80 0.2344
331.90 0.2348
332.00 0.2352
332.10 0.2356
332.20 0.2359
332.30 0.2363
332.40 0.2367
332.50 0.2371
332.60 0.2375
332.70 0.2379
332.80 0.2383
332.90 0.2386
333.00 0.239
333.10 0.2394
333.20 0.2398
333.30 0.2402
333.40 0.2406
333.50 0.2409
333.60 0.2413
333.70 0.2417
333.80 0.2421
333.90 0.2425
334.00 0.2428
334.10 0.2432
334.20 0.2436
334.30 0.244
334.40 0.2444
334.50 0.2448
334.60 0.2452
334.70 0.2456
334.80 0.246
334.90 0.2464
335.00 0.2468
335.10 0.2471
335.20 0.2475
335.30 0.2479
335.40 0.2483
335.50 0.2487
335.60 0.2491
335.70 0.2495
335.80 0.2498
335.90 0.2502
336.00 0.2506
336.10 0.251
336.20 0.2514
336.30 0.2518
336.40 0.2522
336.50 0.2526
336.60 0.253
336.70 0.2534
336.80 0.2538
336.90 0.2542
337.00 0.2546
337.10 0.255
337.20 0.2554
337.30 0.2558
337.40 0.2562
337.50 0.2565
337.60 0.2569
337.70 0.2573
337.80 0.2577
337.90 0.2581
338.00 0.2585
338.10 0.2589
338.20 0.2593
338.30 0.2597
338.40 0.2601
338.50 0.2605
338.60 0.2609
338.70 0.2613
338.80 0.2617
338.90 0.2621
339.00 0.2625
339.10 0.2629
339.20 0.2633
339.30 0.2637
339.40 0.2641
339.50 0.2645
339.60 0.2649
339.70 0.2653
339.80 0.2657
339.90 0.2661
340.00 0.2665
340.10 0.2669
340.20 0.2673
340.30 0.2677
340.40 0.2681
340.50 0.2685
340.60 0.2689
340.70 0.2693
340.80 0.2697
340.90 0.2701
341.00 0.2705
341.10 0.2709
341.20 0.2714
341.30 0.2718
341.40 0.2722
341.50 0.2726
341.60 0.273
341.70 0.2734
341.80 0.2738
341.90 0.2742
342.00 0.2746
342.10 0.275
342.20 0.2754
342.30 0.2758
342.40 0.2762
342.50 0.2766
342.60 0.277
342.70 0.2774
342.80 0.2779
342.90 0.2783
343.00 0.2787
343.10 0.2791
343.20 0.2795
343.30 0.2799
343.40 0.2803
343.50 0.2807
343.60 0.2811
343.70 0.2815
343.80 0.2819
343.90 0.2823
344.00 0.2827
344.10 0.2832
344.20 0.2836
344.30 0.284
344.40 0.2844
344.50 0.2848
344.60 0.2852
344.70 0.2857
344.80 0.2861
344.90 0.2865
345.00 0.2869
345.10 0.2873
345.20 0.2877
345.30 0.2881
345.40 0.2886
345.50 0.289
345.60 0.2894
345.70 0.2898
345.80 0.2902
345.90 0.2906
346.00 0.291
346.10 0.2914
346.20 0.2919
346.30 0.2923
346.40 0.2927
346.50 0.2931
346.60 0.2936
346.70 0.294
346.80 0.2944
346.90 0.2948
347.00 0.2952
347.10 0.2956
347.20 0.2961
347.30 0.2965
347.40 0.2969
347.50 0.2973
347.60 0.2977
347.70 0.2981
347.80 0.2986
347.90 0.299
348.00 0.2994
348.10 0.2998
348.20 0.3002
348.30 0.3007
348.40 0.3011
348.50 0.3015
348.60 0.3019
348.70 0.3024
348.80 0.3028
348.90 0.3032
349.00 0.3036
349.10 0.3041
349.20 0.3045
349.30 0.3049
349.40 0.3053
349.50 0.3058
349.60 0.3062
349.70 0.3066
349.80 0.307
349.90 0.3074
350.00 0.3079
350.10 0.3083
350.20 0.3087
350.30 0.3091
350.40 0.3096
350.50 0.31
350.60 0.3104
350.70 0.3109
350.80 0.3113
350.90 0.3117
351.00 0.3121
351.10 0.3126
351.20 0.313
351.30 0.3134
351.40 0.3139
351.50 0.3143
351.60 0.3147
351.70 0.3151
351.80 0.3155
351.90 0.316
352.00 0.3164
352.10 0.3168
352.20 0.3173
352.30 0.3177
352.40 0.3181
352.50 0.3186
352.60 0.319
352.70 0.3194
352.80 0.3199
352.90 0.3203
353.00 0.3207
353.10 0.3212
353.20 0.3216
353.30 0.322
353.40 0.3225
353.50 0.3229
353.60 0.3233
353.70 0.3237
353.80 0.3242
353.90 0.3246
354.00 0.325
354.10 0.3255
354.20 0.3259
354.30 0.3263
354.40 0.3268
354.50 0.3272
354.60 0.3277
354.70 0.3281
354.80 0.3285
354.90 0.329
355.00 0.3294
355.10 0.3298
355.20 0.3303
355.30 0.3307
355.40 0.3311
355.50 0.3316
355.60 0.332
355.70 0.3324
355.80 0.3329
355.90 0.3333
356.00 0.3337
356.10 0.3342
356.20 0.3346
356.30 0.3351
356.40 0.3355
356.50 0.336
356.60 0.3364
356.70 0.3368
356.80 0.3373
356.90 0.3377
357.00 0.3382
357.10 0.3386
357.20 0.339
357.30 0.3395
357.40 0.3399
357.50 0.3403
357.60 0.3408
357.70 0.3412
357.80 0.3416
357.90 0.3421
358.00 0.3425
358.10 0.343
358.20 0.3434
358.30 0.3439
358.40 0.3443
358.50 0.3448
358.60 0.3452
358.70 0.3456
358.80 0.3461
358.90 0.3465
359.00 0.347
359.10 0.3474
359.20 0.3479
359.30 0.3483
359.40 0.3488
359.50 0.3492
359.60 0.3496
359.70 0.3501
359.80 0.3505
359.90 0.351
360.00 0.3514
360.10 0.3518
360.20 0.3523
360.30 0.3527
360.40 0.3532
360.50 0.3536
360.60 0.3541
360.70 0.3545
360.80 0.355
360.90 0.3554
361.00 0.3559
361.10 0.3563
361.20 0.3568
361.30 0.3572
361.40 0.3577
361.50 0.3581
361.60 0.3586
361.70 0.359
361.80 0.3594
361.90 0.3599
362.00 0.3603
362.10 0.3608
362.20 0.3612
362.30 0.3617
362.40 0.3621
362.50 0.3626
362.60 0.363
362.70 0.3635
362.80 0.3639
362.90 0.3644
363.00 0.3648
363.10 0.3653
363.20 0.3657
363.30 0.3662
363.40 0.3666
363.50 0.3671
363.60 0.3676
363.70 0.368
363.80 0.3685
363.90 0.3689
364.00 0.3694
364.10 0.3698
364.20 0.3703
364.30 0.3707
364.40 0.3712
364.50 0.3716
364.60 0.3721
364.70 0.3725
364.80 0.373
364.90 0.3734
365.00 0.3739
365.10 0.3743
365.20 0.3748
365.30 0.3753
365.40 0.3757
365.50 0.3762
365.60 0.3766
365.70 0.3771
365.80 0.3775
365.90 0.378
366.00 0.3784
366.10 0.3789
366.20 0.3793
366.30 0.3798
366.40 0.3803
366.50 0.3807
366.60 0.3812
366.70 0.3816
366.80 0.3821
366.90 0.3826
367.00 0.383
367.10 0.3835
367.20 0.3839
367.30 0.3844
367.40 0.3848
367.50 0.3853
367.60 0.3857
367.70 0.3862
367.80 0.3866
367.90 0.3871
368.00 0.3876
368.10 0.388
368.20 0.3885
368.30 0.3889
368.40 0.3894
368.50 0.3899
368.60 0.3903
368.70 0.3908
368.80 0.3913
368.90 0.3917
369.00 0.3922
369.10 0.3926
369.20 0.3931
369.30 0.3936
369.40 0.394
369.50 0.3945
369.60 0.3949
369.70 0.3954
369.80 0.3958
369.90 0.3963
370.00 0.3967
370.10 0.3972
370.20 0.3977
370.30 0.3982
370.40 0.3986
370.50 0.3991
370.60 0.3996
370.70 0.4
370.80 0.4005
370.90 0.401
371.00 0.4014
371.10 0.4019
371.20 0.4023
371.30 0.4028
371.40 0.4033
371.50 0.4037
371.60 0.4042
371.70 0.4047
371.80 0.4051
371.90 0.4056
372.00 0.406
372.10 0.4065
372.20 0.407
372.30 0.4074
372.40 0.4079
372.50 0.4084
372.60 0.4089
372.70 0.4093
372.80 0.4098
372.90 0.4103
373.00 0.4107
373.10 0.4112
373.20 0.4116
373.30 0.4121
373.40 0.4126
373.50 0.413
373.60 0.4135
373.70 0.414
373.80 0.4144
373.90 0.4149
374.00 0.4153
374.10 0.4158
374.20 0.4163
374.30 0.4168
374.40 0.4172
374.50 0.4177
374.60 0.4182
374.70 0.4186
374.80 0.4191
374.90 0.4196
375.00 0.4201
375.10 0.4205
375.20 0.421
375.30 0.4215
375.40 0.4219
375.50 0.4224
375.60 0.4229
375.70 0.4233
375.80 0.4238
375.90 0.4242
376.00 0.4247
376.10 0.4252
376.20 0.4257
376.30 0.4261
376.40 0.4266
376.50 0.4271
376.60 0.4275
376.70 0.428
376.80 0.4285
376.90 0.4289
377.00 0.4294
377.10 0.4299
377.20 0.4304
377.30 0.4308
377.40 0.4313
377.50 0.4318
377.60 0.4322
377.70 0.4327
377.80 0.4332
377.90 0.4336
378.00 0.4341
378.10 0.4346
378.20 0.4351
378.30 0.4355
378.40 0.436
378.50 0.4365
378.60 0.437
378.70 0.4374
378.80 0.4379
378.90 0.4384
379.00 0.4389
379.10 0.4393
379.20 0.4398
379.30 0.4403
379.40 0.4408
379.50 0.4412
379.60 0.4417
379.70 0.4422
379.80 0.4427
379.90 0.4431
380.00 0.4436
380.10 0.4441
380.20 0.4446
380.30 0.445
380.40 0.4455
380.50 0.446
380.60 0.4465
380.70 0.4469
380.80 0.4474
380.90 0.4479
381.00 0.4484
381.10 0.4488
381.20 0.4493
381.30 0.4498
381.40 0.4503
381.50 0.4507
381.60 0.4512
381.70 0.4517
381.80 0.4521
381.90 0.4526
382.00 0.4531
382.10 0.4536
382.20 0.4541
382.30 0.4545
382.40 0.455
382.50 0.4555
382.60 0.456
382.70 0.4565
382.80 0.4569
382.90 0.4574
383.00 0.4579
383.10 0.4584
383.20 0.4588
383.30 0.4593
383.40 0.4598
383.50 0.4603
383.60 0.4607
383.70 0.4612
383.80 0.4617
383.90 0.4622
384.00 0.4626
384.10 0.4631
384.20 0.4636
384.30 0.4641
384.40 0.4646
384.50 0.4651
384.60 0.4655
384.70 0.466
384.80 0.4665
384.90 0.4669
385.00 0.4674
385.10 0.4679
385.20 0.4684
385.30 0.4689
385.40 0.4694
385.50 0.4698
385.60 0.4703
385.70 0.4708
385.80 0.4713
385.90 0.4717
386.00 0.4722
386.10 0.4727
386.20 0.4732
386.30 0.4737
386.40 0.4741
386.50 0.4746
386.60 0.4751
386.70 0.4756
386.80 0.4761
386.90 0.4766
387.00 0.4771
387.10 0.4775
387.20 0.478
387.30 0.4785
387.40 0.479
387.50 0.4794
387.60 0.4799
387.70 0.4804
387.80 0.4809
387.90 0.4814
388.00 0.4819
388.10 0.4823
388.20 0.4828
388.30 0.4833
388.40 0.4838
388.50 0.4843
388.60 0.4848
388.70 0.4852
388.80 0.4857
388.90 0.4862
389.00 0.4867
389.10 0.4872
389.20 0.4876
389.30 0.4881
389.40 0.4886
389.50 0.4891
389.60 0.4896
389.70 0.4901
389.80 0.4905
389.90 0.491
390.00 0.4915
390.10 0.492
390.20 0.4925
390.30 0.493
390.40 0.4934
390.50 0.4939
390.60 0.4944
390.70 0.4949
390.80 0.4954
390.90 0.4959
391.00 0.4963
391.10 0.4968
391.20 0.4973
391.30 0.4978
391.40 0.4983
391.50 0.4988
391.60 0.4993
391.70 0.4997
391.80 0.5002
391.90 0.5007
392.00 0.5012
392.10 0.5017
392.20 0.5022
392.30 0.5026
392.40 0.5031
392.50 0.5036
392.60 0.5041
392.70 0.5046
392.80 0.5051
392.90 0.5056
393.00 0.506
393.10 0.5065
393.20 0.507
393.30 0.5075
393.40 0.508
393.50 0.5085
393.60 0.509
393.70 0.5094
393.80 0.5099
393.90 0.5104
394.00 0.5109
394.10 0.5114
394.20 0.5119
394.30 0.5124
394.40 0.5128
394.50 0.5133
394.60 0.5138
394.70 0.5143
394.80 0.5148
394.90 0.5153
395.00 0.5158
395.10 0.5162
395.20 0.5167
395.30 0.5172
395.40 0.5177
395.50 0.5182
395.60 0.5187
395.70 0.5192
395.80 0.5197
395.90 0.5201
396.00 0.5206
396.10 0.5211
396.20 0.5216
396.30 0.5221
396.40 0.5226
396.50 0.5231
396.60 0.5235
396.70 0.524
396.80 0.5245
396.90 0.525
397.00 0.5255
397.10 0.526
397.20 0.5265
397.30 0.527
397.40 0.5275
397.50 0.5279
397.60 0.5284
397.70 0.5289
397.80 0.5294
397.90 0.5299
398.00 0.5304
398.10 0.5309
398.20 0.5314
398.30 0.5318
398.40 0.5323
398.50 0.5328
398.60 0.5333
398.70 0.5338
398.80 0.5343
398.90 0.5348
399.00 0.5353
399.10 0.5358
399.20 0.5362
399.30 0.5367
399.40 0.5372
399.50 0.5377
399.60 0.5382
399.70 0.5387
399.80 0.5392
399.90 0.5397
400.00 0.5401
400.10 0.5406
400.20 0.5411
400.30 0.5416
400.40 0.5421
400.50 0.5426
400.60 0.5431
400.70 0.5436
400.80 0.5441
400.90 0.5446
401.00 0.545
401.10 0.5455
401.20 0.546
401.30 0.5465
401.40 0.547
401.50 0.5475
401.60 0.548
401.70 0.5485
401.80 0.549
401.90 0.5494
402.00 0.5499
402.10 0.5504
402.20 0.5509
402.30 0.5514
402.40 0.5519
402.50 0.5524
402.60 0.5529
402.70 0.5534
402.80 0.5538
402.90 0.5543
403.00 0.5548
403.10 0.5553
403.20 0.5558
403.30 0.5563
403.40 0.5568
403.50 0.5573
403.60 0.5578
403.70 0.5582
403.80 0.5587
403.90 0.5592
404.00 0.5597
404.10 0.5602
404.20 0.5607
404.30 0.5612
404.40 0.5617
404.50 0.5622
404.60 0.5627
404.70 0.5632
404.80 0.5636
404.90 0.5641
405.00 0.5646
405.10 0.5651
405.20 0.5656
405.30 0.5661
405.40 0.5666
405.50 0.5671
405.60 0.5676
405.70 0.5681
405.80 0.5685
405.90 0.569
406.00 0.5695
406.10 0.57
406.20 0.5705
406.30 0.571
406.40 0.5715
406.50 0.572
406.60 0.5725
406.70 0.573
406.80 0.5734
406.90 0.5739
407.00 0.5744
407.10 0.5749
407.20 0.5754
407.30 0.5759
407.40 0.5764
407.50 0.5769
407.60 0.5774
407.70 0.5779
407.80 0.5784
407.90 0.5788
408.00 0.5793
408.10 0.5798
408.20 0.5803
408.30 0.5808
408.40 0.5813
408.50 0.5818
408.60 0.5823
408.70 0.5828
408.80 0.5833
408.90 0.5838
409.00 0.5842
409.10 0.5847
409.20 0.5852
409.30 0.5857
409.40 0.5862
409.50 0.5867
409.60 0.5872
409.70 0.5877
409.80 0.5882
409.90 0.5887
410.00 0.5892
410.10 0.5896
410.20 0.5901
410.30 0.5906
410.40 0.5911
410.50 0.5916
410.60 0.5921
410.70 0.5926
410.80 0.5931
410.90 0.5936
411.00 0.5941
411.10 0.5946
411.20 0.5951
411.30 0.5955
411.40 0.596
411.50 0.5965
411.60 0.597
411.70 0.5975
411.80 0.598
411.90 0.5985
412.00 0.599
412.10 0.5995
412.20 0.6
412.30 0.6005
412.40 0.6009
412.50 0.6014
412.60 0.6019
412.70 0.6024
412.80 0.6029
412.90 0.6034
413.00 0.6039
413.10 0.6044
413.20 0.6049
413.30 0.6054
413.40 0.6058
413.50 0.6063
413.60 0.6068
413.70 0.6073
413.80 0.6078
413.90 0.6083
414.00 0.6088
414.10 0.6093
414.20 0.6098
414.30 0.6103
414.40 0.6107
414.50 0.6113
414.60 0.6117
414.70 0.6122
414.80 0.6127
414.90 0.6132
415.00 0.6137
415.10 0.6142
415.20 0.6147
415.30 0.6152
415.40 0.6157
415.50 0.6162
415.60 0.6166
415.70 0.6171
415.80 0.6176
415.90 0.6181
416.00 0.6186
416.10 0.6191
416.20 0.6196
416.30 0.6201
416.40 0.6206
416.50 0.6211
416.60 0.6215
416.70 0.622
416.80 0.6225
416.90 0.623
417.00 0.6235
417.10 0.624
417.20 0.6245
417.30 0.625
417.40 0.6255
417.50 0.626
417.60 0.6265
417.70 0.627
417.80 0.6274
417.90 0.6279
418.00 0.6284
418.10 0.6289
418.20 0.6294
418.30 0.6299
418.40 0.6304
418.50 0.6309
418.60 0.6314
418.70 0.6318
418.80 0.6323
418.90 0.6328
419.00 0.6333
419.10 0.6338
419.20 0.6343
419.30 0.6348
419.40 0.6353
419.50 0.6358
419.60 0.6363
419.70 0.6367
419.80 0.6372
419.90 0.6377
420.00 0.6382
420.10 0.6387
420.20 0.6392
420.30 0.6397
420.40 0.6402
420.50 0.6407
420.60 0.6412
420.70 0.6416
420.80 0.6421
420.90 0.6426
421.00 0.6431
421.10 0.6436
421.20 0.6441
421.30 0.6446
421.40 0.6451
421.50 0.6456
421.60 0.6461
421.70 0.6465
421.80 0.647
421.90 0.6475
422.00 0.648
422.10 0.6485
422.20 0.649
422.30 0.6495
422.40 0.65
422.50 0.6504
422.60 0.6509
422.70 0.6514
422.80 0.6519
422.90 0.6524
423.00 0.6529
423.10 0.6534
423.20 0.6539
423.30 0.6544
423.40 0.6548
423.50 0.6553
423.60 0.6558
423.70 0.6563
423.80 0.6568
423.90 0.6573
424.00 0.6578
424.10 0.6583
424.20 0.6588
424.30 0.6592
424.40 0.6597
424.50 0.6602
424.60 0.6607
424.70 0.6612
424.80 0.6617
424.90 0.6622
425.00 0.6627
425.10 0.6632
425.20 0.6636
425.30 0.6641
425.40 0.6646
425.50 0.6651
425.60 0.6656
425.70 0.6661
425.80 0.6666
425.90 0.6671
426.00 0.6675
426.10 0.668
426.20 0.6685
426.30 0.669
426.40 0.6695
426.50 0.67
426.60 0.6705
426.70 0.6709
426.80 0.6714
426.90 0.6719
427.00 0.6724
427.10 0.6729
427.20 0.6734
427.30 0.6739
427.40 0.6744
427.50 0.6749
427.60 0.6753
427.70 0.6758
427.80 0.6763
427.90 0.6768
428.00 0.6773
428.10 0.6778
428.20 0.6782
428.30 0.6787
428.40 0.6792
428.50 0.6797
428.60 0.6802
428.70 0.6807
428.80 0.6812
428.90 0.6817
429.00 0.6821
429.10 0.6826
429.20 0.6831
429.30 0.6836
429.40 0.6841
429.50 0.6846
429.60 0.6851
429.70 0.6855
429.80 0.686
429.90 0.6865
430.00 0.687
430.10 0.6875
430.20 0.688
430.30 0.6885
430.40 0.6889
430.50 0.6894
430.60 0.6899
430.70 0.6904
430.80 0.6909
430.90 0.6914
431.00 0.6919
431.10 0.6923
431.20 0.6928
431.30 0.6933
431.40 0.6938
431.50 0.6943
431.60 0.6948
431.70 0.6952
431.80 0.6957
431.90 0.6962
432.00 0.6967
432.10 0.6972
432.20 0.6977
432.30 0.6982
432.40 0.6986
432.50 0.6991
432.60 0.6996
432.70 0.7001
432.80 0.7006
432.90 0.7011
433.00 0.7015
433.10 0.702
433.20 0.7025
433.30 0.703
433.40 0.7035
433.50 0.704
433.60 0.7044
433.70 0.7049
433.80 0.7054
433.90 0.7059
434.00 0.7064
434.10 0.7068
434.20 0.7073
434.30 0.7078
434.40 0.7083
434.50 0.7088
434.60 0.7093
434.70 0.7098
434.80 0.7102
434.90 0.7107
435.00 0.7112
435.10 0.7117
435.20 0.7122
435.30 0.7127
435.40 0.7131
435.50 0.7136
435.60 0.7141
435.70 0.7146
435.80 0.7151
435.90 0.7155
436.00 0.716
436.10 0.7165
436.20 0.717
436.30 0.7175
436.40 0.7179
436.50 0.7184
436.60 0.7189
436.70 0.7194
436.80 0.7199
436.90 0.7204
437.00 0.7208
437.10 0.7213
437.20 0.7218
437.30 0.7223
437.40 0.7228
437.50 0.7232
437.60 0.7237
437.70 0.7242
437.80 0.7247
437.90 0.7252
438.00 0.7256
438.10 0.7261
438.20 0.7266
438.30 0.7271
438.40 0.7276
438.50 0.7281
438.60 0.7285
438.70 0.729
438.80 0.7295
438.90 0.73
439.00 0.7304
439.10 0.7309
439.20 0.7314
439.30 0.7319
439.40 0.7324
439.50 0.7328
439.60 0.7333
439.70 0.7338
439.80 0.7343
439.90 0.7348
440.00 0.7352
440.10 0.7357
440.20 0.7362
440.30 0.7367
440.40 0.7372
440.50 0.7376
440.60 0.7381
440.70 0.7386
440.80 0.7391
440.90 0.7395
441.00 0.74
441.10 0.7405
441.20 0.741
441.30 0.7414
441.40 0.7419
441.50 0.7424
441.60 0.7429
441.70 0.7434
441.80 0.7438
441.90 0.7443
442.00 0.7448
442.10 0.7453
442.20 0.7457
442.30 0.7462
442.40 0.7467
442.50 0.7472
442.60 0.7477
442.70 0.7481
442.80 0.7486
442.90 0.7491
443.00 0.7496
443.10 0.75
443.20 0.7505
443.30 0.751
443.40 0.7515
443.50 0.7519
443.60 0.7524
443.70 0.7529
443.80 0.7534
443.90 0.7538
444.00 0.7543
444.10 0.7548
444.20 0.7553
444.30 0.7557
444.40 0.7562
444.50 0.7567
444.60 0.7572
444.70 0.7576
444.80 0.7581
444.90 0.7586
445.00 0.7591
445.10 0.7595
445.20 0.76
445.30 0.7605
445.40 0.7609
445.50 0.7614
445.60 0.7619
445.70 0.7624
445.80 0.7628
445.90 0.7633
446.00 0.7638
446.10 0.7643
446.20 0.7647
446.30 0.7652
446.40 0.7657
446.50 0.7662
446.60 0.7666
446.70 0.7671
446.80 0.7676
446.90 0.7681
447.00 0.7685
447.10 0.769
447.20 0.7695
447.30 0.7699
447.40 0.7704
447.50 0.7709
447.60 0.7714
447.70 0.7718
447.80 0.7723
447.90 0.7728
448.00 0.7732
448.10 0.7737
448.20 0.7742
448.30 0.7747
448.40 0.7751
448.50 0.7756
448.60 0.7761
448.70 0.7765
448.80 0.777
448.90 0.7775
449.00 0.7779
449.10 0.7784
449.20 0.7789
449.30 0.7794
449.40 0.7798
449.50 0.7803
449.60 0.7808
449.70 0.7812
449.80 0.7817
449.90 0.7822
450.00 0.7826
450.10 0.7831
450.20 0.7836
450.30 0.784
450.40 0.7845
450.50 0.785
450.60 0.7855
450.70 0.7859
450.80 0.7864
450.90 0.7869
451.00 0.7873
451.10 0.7878
451.20 0.7883
451.30 0.7887
451.40 0.7892
451.50 0.7897
451.60 0.7901
451.70 0.7906
451.80 0.7911
451.90 0.7915
452.00 0.792
452.10 0.7925
452.20 0.7929
452.30 0.7934
452.40 0.7939
452.50 0.7943
452.60 0.7948
452.70 0.7953
452.80 0.7957
452.90 0.7962
453.00 0.7967
453.10 0.7971
453.20 0.7976
453.30 0.7981
453.40 0.7985
453.50 0.799
453.60 0.7995
453.70 0.7999
453.80 0.8004
453.90 0.8009
454.00 0.8013
454.10 0.8018
454.20 0.8023
454.30 0.8027
454.40 0.8032
454.50 0.8037
454.60 0.8041
454.70 0.8046
454.80 0.805
454.90 0.8055
455.00 0.806
455.10 0.8064
455.20 0.8069
455.30 0.8074
455.40 0.8078
455.50 0.8083
455.60 0.8087
455.70 0.8092
455.80 0.8097
455.90 0.8101
456.00 0.8106
456.10 0.8111
456.20 0.8115
456.30 0.812
456.40 0.8124
456.50 0.8129
456.60 0.8134
456.70 0.8138
456.80 0.8143
456.90 0.8148
457.00 0.8152
457.10 0.8157
457.20 0.8161
457.30 0.8166
457.40 0.8171
457.50 0.8175
457.60 0.818
457.70 0.8184
457.80 0.8189
457.90 0.8194
458.00 0.8198
458.10 0.8203
458.20 0.8207
458.30 0.8212
458.40 0.8217
458.50 0.8221
458.60 0.8226
458.70 0.823
458.80 0.8235
458.90 0.824
459.00 0.8244
459.10 0.8249
459.20 0.8253
459.30 0.8258
459.40 0.8262
459.50 0.8267
459.60 0.8272
459.70 0.8276
459.80 0.8281
459.90 0.8285
460.00 0.829
460.10 0.8295
460.20 0.8299
460.30 0.8304
460.40 0.8308
460.50 0.8313
460.60 0.8317
460.70 0.8322
460.80 0.8326
460.90 0.8331
461.00 0.8336
461.10 0.834
461.20 0.8345
461.30 0.8349
461.40 0.8354
461.50 0.8358
461.60 0.8363
461.70 0.8368
461.80 0.8372
461.90 0.8377
462.00 0.8381
462.10 0.8386
462.20 0.839
462.30 0.8395
462.40 0.8399
462.50 0.8404
462.60 0.8408
462.70 0.8413
462.80 0.8418
462.90 0.8422
463.00 0.8427
463.10 0.8431
463.20 0.8436
463.30 0.844
463.40 0.8445
463.50 0.8449
463.60 0.8454
463.70 0.8458
463.80 0.8463
463.90 0.8467
464.00 0.8472
464.10 0.8476
464.20 0.8481
464.30 0.8485
464.40 0.849
464.50 0.8494
464.60 0.8499
464.70 0.8504
464.80 0.8508
464.90 0.8512
465.00 0.8517
465.10 0.8521
465.20 0.8526
465.30 0.853
465.40 0.8535
465.50 0.854
465.60 0.8544
465.70 0.8549
465.80 0.8553
465.90 0.8557
466.00 0.8562
466.10 0.8566
466.20 0.8571
466.30 0.8575
466.40 0.858
466.50 0.8584
466.60 0.8589
466.70 0.8593
466.80 0.8598
466.90 0.8602
467.00 0.8607
467.10 0.8611
467.20 0.8616
467.30 0.862
467.40 0.8625
467.50 0.8629
467.60 0.8634
467.70 0.8638
467.80 0.8643
467.90 0.8647
468.00 0.8652
468.10 0.8656
468.20 0.8661
468.30 0.8665
468.40 0.8669
468.50 0.8674
468.60 0.8678
468.70 0.8683
468.80 0.8687
468.90 0.8692
469.00 0.8696
469.10 0.8701
469.20 0.8705
469.30 0.871
469.40 0.8714
469.50 0.8718
469.60 0.8723
469.70 0.8727
469.80 0.8732
469.90 0.8736
470.00 0.8741
470.10 0.8745
470.20 0.875
470.30 0.8754
470.40 0.8758
470.50 0.8763
470.60 0.8767
470.70 0.8772
470.80 0.8776
470.90 0.8781
471.00 0.8785
471.10 0.8789
471.20 0.8794
471.30 0.8798
471.40 0.8803
471.50 0.8807
471.60 0.8812
471.70 0.8816
471.80 0.882
471.90 0.8825
472.00 0.8829
472.10 0.8834
472.20 0.8838
472.30 0.8842
472.40 0.8847
472.50 0.8851
472.60 0.8856
472.70 0.886
472.80 0.8864
472.90 0.8869
473.00 0.8873
473.10 0.8878
473.20 0.8882
473.30 0.8886
473.40 0.8891
473.50 0.8895
473.60 0.89
473.70 0.8904
473.80 0.8908
473.90 0.8913
474.00 0.8917
474.10 0.8922
474.20 0.8926
474.30 0.893
474.40 0.8935
474.50 0.8939
474.60 0.8943
474.70 0.8948
474.80 0.8952
474.90 0.8956
475.00 0.8961
475.10 0.8965
475.20 0.8969
475.30 0.8974
475.40 0.8978
475.50 0.8983
475.60 0.8987
475.70 0.8991
475.80 0.8996
475.90 0.9
476.00 0.9004
476.10 0.9009
476.20 0.9013
476.30 0.9017
476.40 0.9022
476.50 0.9026
476.60 0.903
476.70 0.9035
476.80 0.9039
476.90 0.9043
477.00 0.9048
477.10 0.9052
477.20 0.9056
477.30 0.9061
477.40 0.9065
477.50 0.9069
477.60 0.9074
477.70 0.9078
477.80 0.9082
477.90 0.9087
478.00 0.9091
478.10 0.9095
478.20 0.91
478.30 0.9104
478.40 0.9108
478.50 0.9113
478.60 0.9117
478.70 0.9121
478.80 0.9126
478.90 0.913
479.00 0.9134
479.10 0.9138
479.20 0.9143
479.30 0.9147
479.40 0.9151
479.50 0.9156
479.60 0.916
479.70 0.9164
479.80 0.9168
479.90 0.9173
480.00 0.9177
480.10 0.9181
480.20 0.9186
480.30 0.919
480.40 0.9194
480.50 0.9198
480.60 0.9203
480.70 0.9207
480.80 0.9211
480.90 0.9215
481.00 0.922
481.10 0.9224
481.20 0.9228
481.30 0.9233
481.40 0.9237
481.50 0.9241
481.60 0.9245
481.70 0.925
481.80 0.9254
481.90 0.9258
482.00 0.9262
482.10 0.9267
482.20 0.9271
482.30 0.9275
482.40 0.9279
482.50 0.9284
482.60 0.9288
482.70 0.9292
482.80 0.9296
482.90 0.9301
483.00 0.9305
483.10 0.9309
483.20 0.9313
483.30 0.9318
483.40 0.9322
483.50 0.9326
483.60 0.933
483.70 0.9334
483.80 0.9339
483.90 0.9343
484.00 0.9347
484.10 0.9351
484.20 0.9356
484.30 0.936
484.40 0.9364
484.50 0.9368
484.60 0.9372
484.70 0.9376
484.80 0.9381
484.90 0.9385
485.00 0.9389
485.10 0.9393
485.20 0.9398
485.30 0.9402
485.40 0.9406
485.50 0.941
485.60 0.9414
485.70 0.9418
485.80 0.9422
485.90 0.9426
486.00 0.943
486.10 0.9434
486.20 0.9438
486.30 0.9443
486.40 0.9447
486.50 0.9452
486.60 0.9456
486.70 0.946
486.80 0.9464
486.90 0.9469
487.00 0.9473
487.10 0.9477
487.20 0.9481
487.30 0.9485
487.40 0.949
487.50 0.9494
487.60 0.9498
487.70 0.9502
487.80 0.9506
487.90 0.951
488.00 0.9514
488.10 0.9519
488.20 0.9523
488.30 0.9527
488.40 0.9531
488.50 0.9535
488.60 0.9539
488.70 0.9544
488.80 0.9548
488.90 0.9552
489.00 0.9556
489.10 0.956
489.20 0.9564
489.30 0.9568
489.40 0.9572
489.50 0.9577
489.60 0.9581
489.70 0.9585
489.80 0.9589
489.90 0.9593
490.00 0.9597
490.10 0.9601
490.20 0.9605
490.30 0.961
490.40 0.9614
490.50 0.9618
490.60 0.9622
490.70 0.9626
490.80 0.963
490.90 0.9634
491.00 0.9638
491.10 0.9642
491.20 0.9646
491.30 0.9651
491.40 0.9655
491.50 0.9659
491.60 0.9663
491.70 0.9667
491.80 0.9671
491.90 0.9675
492.00 0.9679
492.10 0.9683
492.20 0.9687
492.30 0.9691
492.40 0.9696
492.50 0.97
492.60 0.9704
492.70 0.9708
492.80 0.9712
492.90 0.9716
493.00 0.972
493.10 0.9724
493.20 0.9728
493.30 0.9732
493.40 0.9736
493.50 0.974
493.60 0.9744
493.70 0.9748
493.80 0.9752
493.90 0.9756
494.00 0.9761
494.10 0.9765
494.20 0.9769
494.30 0.9773
494.40 0.9777
494.50 0.9781
494.60 0.9785
494.70 0.9789
494.80 0.9793
494.90 0.9797
495.00 0.9801
495.10 0.9805
495.20 0.9809
495.30 0.9813
495.40 0.9817
495.50 0.9821
495.60 0.9825
495.70 0.9829
495.80 0.9833
495.90 0.9837
496.00 0.9841
496.10 0.9845
496.20 0.9849
496.30 0.9853
496.40 0.9857
496.50 0.9861
496.60 0.9865
496.70 0.9869
496.80 0.9873
496.90 0.9877
497.00 0.9881
497.10 0.9885
497.20 0.9889
497.30 0.9893
497.40 0.9897
497.50 0.9901
497.60 0.9905
497.70 0.9909
497.80 0.9913
497.90 0.9917
498.00 0.9921
498.10 0.9925
498.20 0.9929
498.30 0.9933
498.40 0.9937
498.50 0.9941
498.60 0.9945
498.70 0.9949
498.80 0.9953
498.90 0.9957
499.00 0.9961
499.10 0.9965
499.20 0.9968
499.30 0.9972
499.40 0.9976
499.50 0.998
499.60 0.9984
499.70 0.9988
499.80 0.9992
499.90 0.9996
500.00 1
500.10 1
500.20 1.001
500.30 1.001
500.40 1.002
500.50 1.002
500.60 1.002
500.70 1.003
500.80 1.003
500.90 1.004
501.00 1.004
501.10 1.004
501.20 1.005
501.30 1.005
501.40 1.006
501.50 1.006
501.60 1.006
501.70 1.007
501.80 1.007
501.90 1.007
502.00 1.008
502.10 1.008
502.20 1.009
502.30 1.009
502.40 1.009
502.50 1.01
502.60 1.01
502.70 1.011
502.80 1.011
502.90 1.011
503.00 1.012
503.10 1.012
503.20 1.013
503.30 1.013
503.40 1.013
503.50 1.014
503.60 1.014
503.70 1.014
503.80 1.015
503.90 1.015
504.00 1.016
504.10 1.016
504.20 1.016
504.30 1.017
504.40 1.017
504.50 1.018
504.60 1.018
504.70 1.018
504.80 1.019
504.90 1.019
505.00 1.019
505.10 1.02
505.20 1.02
505.30 1.021
505.40 1.021
505.50 1.021
505.60 1.022
505.70 1.022
505.80 1.023
505.90 1.023
506.00 1.023
506.10 1.024
506.20 1.024
506.30 1.024
506.40 1.025
506.50 1.025
506.60 1.026
506.70 1.026
506.80 1.026
506.90 1.027
507.00 1.027
507.10 1.027
507.20 1.028
507.30 1.028
507.40 1.029
507.50 1.029
507.60 1.029
507.70 1.03
507.80 1.03
507.90 1.031
508.00 1.031
508.10 1.031
508.20 1.032
508.30 1.032
508.40 1.032
508.50 1.033
508.60 1.033
508.70 1.034
508.80 1.034
508.90 1.034
509.00 1.035
509.10 1.035
509.20 1.035
509.30 1.036
509.40 1.036
509.50 1.037
509.60 1.037
509.70 1.037
509.80 1.038
509.90 1.038
510.00 1.038
510.10 1.039
510.20 1.039
510.30 1.04
510.40 1.04
510.50 1.04
510.60 1.041
510.70 1.041
510.80 1.041
510.90 1.042
511.00 1.042
511.10 1.043
511.20 1.043
511.30 1.043
511.40 1.044
511.50 1.044
511.60 1.044
511.70 1.045
511.80 1.045
511.90 1.046
512.00 1.046
512.10 1.046
512.20 1.047
512.30 1.047
512.40 1.047
512.50 1.048
512.60 1.048
512.70 1.048
512.80 1.049
512.90 1.049
513.00 1.05
513.10 1.05
513.20 1.05
513.30 1.051
513.40 1.051
513.50 1.051
513.60 1.052
513.70 1.052
513.80 1.053
513.90 1.053
514.00 1.053
514.10 1.054
514.20 1.054
514.30 1.054
514.40 1.055
514.50 1.055
514.60 1.055
514.70 1.056
514.80 1.056
514.90 1.057
515.00 1.057
515.10 1.057
515.20 1.058
515.30 1.058
515.40 1.058
515.50 1.059
515.60 1.059
515.70 1.059
515.80 1.06
515.90 1.06
516.00 1.061
516.10 1.061
516.20 1.061
516.30 1.062
516.40 1.062
516.50 1.062
516.60 1.063
516.70 1.063
516.80 1.063
516.90 1.064
517.00 1.064
517.10 1.065
517.20 1.065
517.30 1.065
517.40 1.066
517.50 1.066
517.60 1.066
517.70 1.067
517.80 1.067
517.90 1.067
518.00 1.068
518.10 1.068
518.20 1.068
518.30 1.069
518.40 1.069
518.50 1.07
518.60 1.07
518.70 1.07
518.80 1.071
518.90 1.071
519.00 1.071
519.10 1.072
519.20 1.072
519.30 1.072
519.40 1.073
519.50 1.073
519.60 1.074
519.70 1.074
519.80 1.074
519.90 1.075
520.00 1.075
520.10 1.075
520.20 1.076
520.30 1.076
520.40 1.076
520.50 1.077
520.60 1.077
520.70 1.077
520.80 1.078
520.90 1.078
521.00 1.078
521.10 1.079
521.20 1.079
521.30 1.08
521.40 1.08
521.50 1.08
521.60 1.081
521.70 1.081
521.80 1.081
521.90 1.082
522.00 1.082
522.10 1.082
522.20 1.083
522.30 1.083
522.40 1.083
522.50 1.084
522.60 1.084
522.70 1.084
522.80 1.085
522.90 1.085
523.00 1.085
523.10 1.086
523.20 1.086
523.30 1.087
523.40 1.087
523.50 1.087
523.60 1.088
523.70 1.088
523.80 1.088
523.90 1.089
524.00 1.089
524.10 1.089
524.20 1.09
524.30 1.09
524.40 1.09
524.50 1.091
524.60 1.091
524.70 1.091
524.80 1.092
524.90 1.092
525.00 1.092
525.10 1.093
525.20 1.093
525.30 1.093
525.40 1.094
525.50 1.094
525.60 1.094
525.70 1.095
525.80 1.095
525.90 1.096
526.00 1.096
526.10 1.096
526.20 1.097
526.30 1.097
526.40 1.097
526.50 1.098
526.60 1.098
526.70 1.098
526.80 1.099
526.90 1.099
527.00 1.099
527.10 1.1
527.20 1.1
527.30 1.1
527.40 1.101
527.50 1.101
527.60 1.101
527.70 1.102
527.80 1.102
527.90 1.102
528.00 1.103
528.10 1.103
528.20 1.103
528.30 1.104
528.40 1.104
528.50 1.104
528.60 1.105
528.70 1.105
528.80 1.105
528.90 1.106
529.00 1.106
529.10 1.106
529.20 1.107
529.30 1.107
529.40 1.107
529.50 1.108
529.60 1.108
529.70 1.108
529.80 1.109
529.90 1.109
530.00 1.109
530.10 1.11
530.20 1.11
530.30 1.11
530.40 1.111
530.50 1.111
530.60 1.111
530.70 1.112
530.80 1.112
530.90 1.112
531.00 1.113
531.10 1.113
531.20 1.113
531.30 1.114
531.40 1.114
531.50 1.114
531.60 1.115
531.70 1.115
531.80 1.115
531.90 1.116
532.00 1.116
532.10 1.116
532.20 1.117
532.30 1.117
532.40 1.117
532.50 1.118
532.60 1.118
532.70 1.118
532.80 1.119
532.90 1.119
533.00 1.119
533.10 1.12
533.20 1.12
533.30 1.12
533.40 1.121
533.50 1.121
533.60 1.121
533.70 1.122
533.80 1.122
533.90 1.122
534.00 1.123
534.10 1.123
534.20 1.123
534.30 1.124
534.40 1.124
534.50 1.124
534.60 1.125
534.70 1.125
534.80 1.125
534.90 1.126
535.00 1.126
535.10 1.126
535.20 1.127
535.30 1.127
535.40 1.127
535.50 1.128
535.60 1.128
535.70 1.128
535.80 1.128
535.90 1.129
536.00 1.129
536.10 1.129
536.20 1.13
536.30 1.13
536.40 1.13
536.50 1.131
536.60 1.131
536.70 1.131
536.80 1.132
536.90 1.132
537.00 1.132
537.10 1.133
537.20 1.133
537.30 1.133
537.40 1.134
537.50 1.134
537.60 1.134
537.70 1.135
537.80 1.135
537.90 1.135
538.00 1.136
538.10 1.136
538.20 1.136
538.30 1.137
538.40 1.137
538.50 1.137
538.60 1.137
538.70 1.138
538.80 1.138
538.90 1.138
539.00 1.139
539.10 1.139
539.20 1.139
539.30 1.14
539.40 1.14
539.50 1.14
539.60 1.141
539.70 1.141
539.80 1.141
539.90 1.142
540.00 1.142
540.10 1.142
540.20 1.142
540.30 1.143
540.40 1.143
540.50 1.143
540.60 1.144
540.70 1.144
540.80 1.144
540.90 1.145
541.00 1.145
541.10 1.145
541.20 1.146
541.30 1.146
541.40 1.146
541.50 1.147
541.60 1.147
541.70 1.147
541.80 1.147
541.90 1.148
542.00 1.148
542.10 1.148
542.20 1.149
542.30 1.149
542.40 1.149
542.50 1.15
542.60 1.15
542.70 1.15
542.80 1.151
542.90 1.151
543.00 1.151
543.10 1.152
543.20 1.152
543.30 1.152
543.40 1.152
543.50 1.153
543.60 1.153
543.70 1.153
543.80 1.154
543.90 1.154
544.00 1.154
544.10 1.155
544.20 1.155
544.30 1.155
544.40 1.155
544.50 1.156
544.60 1.156
544.70 1.156
544.80 1.157
544.90 1.157
545.00 1.157
545.10 1.158
545.20 1.158
545.30 1.158
545.40 1.159
545.50 1.159
545.60 1.159
545.70 1.159
545.80 1.16
545.90 1.16
546.00 1.16
546.10 1.161
546.20 1.161
546.30 1.161
546.40 1.162
546.50 1.162
546.60 1.162
546.70 1.162
546.80 1.163
546.90 1.163
547.00 1.163
547.10 1.164
547.20 1.164
547.30 1.164
547.40 1.165
547.50 1.165
547.60 1.165
547.70 1.165
547.80 1.166
547.90 1.166
548.00 1.166
548.10 1.167
548.20 1.167
548.30 1.167
548.40 1.168
548.50 1.168
548.60 1.168
548.70 1.168
548.80 1.169
548.90 1.169
549.00 1.169
549.10 1.17
549.20 1.17
549.30 1.17
549.40 1.17
549.50 1.171
549.60 1.171
549.70 1.171
549.80 1.172
549.90 1.172
550.00 1.172
550.10 1.173
550.20 1.173
550.30 1.173
550.40 1.173
550.50 1.174
550.60 1.174
550.70 1.174
550.80 1.175
550.90 1.175
551.00 1.175
551.10 1.175
551.20 1.176
551.30 1.176
551.40 1.176
551.50 1.177
551.60 1.177
551.70 1.177
551.80 1.177
551.90 1.178
552.00 1.178
552.10 1.178
552.20 1.179
552.30 1.179
552.40 1.179
552.50 1.18
552.60 1.18
552.70 1.18
552.80 1.18
552.90 1.181
553.00 1.181
553.10 1.181
553.20 1.182
553.30 1.182
553.40 1.182
553.50 1.182
553.60 1.183
553.70 1.183
553.80 1.183
553.90 1.184
554.00 1.184
554.10 1.184
554.20 1.184
554.30 1.185
554.40 1.185
554.50 1.185
554.60 1.186
554.70 1.186
554.80 1.186
554.90 1.186
555.00 1.187
555.10 1.187
555.20 1.187
555.30 1.187
555.40 1.188
555.50 1.188
555.60 1.188
555.70 1.189
555.80 1.189
555.90 1.189
556.00 1.189
556.10 1.19
556.20 1.19
556.30 1.19
556.40 1.191
556.50 1.191
556.60 1.191
556.70 1.191
556.80 1.192
556.90 1.192
557.00 1.192
557.10 1.193
557.20 1.193
557.30 1.193
557.40 1.193
557.50 1.194
557.60 1.194
557.70 1.194
557.80 1.194
557.90 1.195
558.00 1.195
558.10 1.195
558.20 1.196
558.30 1.196
558.40 1.196
558.50 1.196
558.60 1.197
558.70 1.197
558.80 1.197
558.90 1.198
559.00 1.198
559.10 1.198
559.20 1.198
559.30 1.199
559.40 1.199
559.50 1.199
559.60 1.199
559.70 1.2
559.80 1.2
559.90 1.2
560.00 1.201
560.10 1.201
560.20 1.201
560.30 1.201
560.40 1.202
560.50 1.202
560.60 1.202
560.70 1.202
560.80 1.203
560.90 1.203
561.00 1.203
561.10 1.204
561.20 1.204
561.30 1.204
561.40 1.204
561.50 1.205
561.60 1.205
561.70 1.205
561.80 1.205
561.90 1.206
562.00 1.206
562.10 1.206
562.20 1.206
562.30 1.207
562.40 1.207
562.50 1.207
562.60 1.208
562.70 1.208
562.80 1.208
562.90 1.208
563.00 1.209
563.10 1.209
563.20 1.209
563.30 1.209
563.40 1.21
563.50 1.21
563.60 1.21
563.70 1.21
563.80 1.211
563.90 1.211
564.00 1.211
564.10 1.212
564.20 1.212
564.30 1.212
564.40 1.212
564.50 1.213
564.60 1.213
564.70 1.213
564.80 1.213
564.90 1.214
565.00 1.214
565.10 1.214
565.20 1.214
565.30 1.215
565.40 1.215
565.50 1.215
565.60 1.215
565.70 1.216
565.80 1.216
565.90 1.216
566.00 1.216
566.10 1.217
566.20 1.217
566.30 1.217
566.40 1.218
566.50 1.218
566.60 1.218
566.70 1.218
566.80 1.219
566.90 1.219
567.00 1.219
567.10 1.219
567.20 1.22
567.30 1.22
567.40 1.22
567.50 1.22
567.60 1.221
567.70 1.221
567.80 1.221
567.90 1.221
568.00 1.222
568.10 1.222
568.20 1.222
568.30 1.222
568.40 1.223
568.50 1.223
568.60 1.223
568.70 1.223
568.80 1.224
568.90 1.224
569.00 1.224
569.10 1.224
569.20 1.225
569.30 1.225
569.40 1.225
569.50 1.225
569.60 1.226
569.70 1.226
569.80 1.226
569.90 1.226
570.00 1.227
570.10 1.227
570.20 1.227
570.30 1.227
570.40 1.228
570.50 1.228
570.60 1.228
570.70 1.228
570.80 1.229
570.90 1.229
571.00 1.229
571.10 1.229
571.20 1.23
571.30 1.23
571.40 1.23
571.50 1.23
571.60 1.231
571.70 1.231
571.80 1.231
571.90 1.231
572.00 1.232
572.10 1.232
572.20 1.232
572.30 1.232
572.40 1.233
572.50 1.233
572.60 1.233
572.70 1.233
572.80 1.234
572.90 1.234
573.00 1.234
573.10 1.234
573.20 1.235
573.30 1.235
573.40 1.235
573.50 1.235
573.60 1.236
573.70 1.236
573.80 1.236
573.90 1.236
574.00 1.237
574.10 1.237
574.20 1.237
574.30 1.237
574.40 1.238
574.50 1.238
574.60 1.238
574.70 1.238
574.80 1.239
574.90 1.239
575.00 1.239
575.10 1.239
575.20 1.24
575.30 1.24
575.40 1.24
575.50 1.24
575.60 1.24
575.70 1.241
575.80 1.241
575.90 1.241
576.00 1.241
576.10 1.242
576.20 1.242
576.30 1.242
576.40 1.242
576.50 1.243
576.60 1.243
576.70 1.243
576.80 1.243
576.90 1.244
577.00 1.244
577.10 1.244
577.20 1.244
577.30 1.245
577.40 1.245
577.50 1.245
577.60 1.245
577.70 1.245
577.80 1.246
577.90 1.246
578.00 1.246
578.10 1.246
578.20 1.247
578.30 1.247
578.40 1.247
578.50 1.247
578.60 1.248
578.70 1.248
578.80 1.248
578.90 1.248
579.00 1.249
579.10 1.249
579.20 1.249
579.30 1.249
579.40 1.249
579.50 1.25
579.60 1.25
579.70 1.25
579.80 1.25
579.90 1.251
580.00 1.251
580.10 1.251
580.20 1.251
580.30 1.252
580.40 1.252
580.50 1.252
580.60 1.252
580.70 1.252
580.80 1.253
580.90 1.253
581.00 1.253
581.10 1.253
581.20 1.254
581.30 1.254
581.40 1.254
581.50 1.254
581.60 1.255
581.70 1.255
581.80 1.255
581.90 1.255
582.00 1.255
582.10 1.256
582.20 1.256
582.30 1.256
582.40 1.256
582.50 1.257
582.60 1.257
582.70 1.257
582.80 1.257
582.90 1.257
583.00 1.258
583.10 1.258
583.20 1.258
583.30 1.258
583.40 1.259
583.50 1.259
583.60 1.259
583.70 1.259
583.80 1.259
583.90 1.26
584.00 1.26
584.10 1.26
584.20 1.26
584.30 1.261
584.40 1.261
584.50 1.261
584.60 1.261
584.70 1.261
584.80 1.262
584.90 1.262
585.00 1.262
585.10 1.262
585.20 1.263
585.30 1.263
585.40 1.263
585.50 1.263
585.60 1.263
585.70 1.264
585.80 1.264
585.90 1.264
586.00 1.264
586.10 1.264
586.20 1.265
586.30 1.265
586.40 1.265
586.50 1.265
586.60 1.266
586.70 1.266
586.80 1.266
586.90 1.266
587.00 1.266
587.10 1.267
587.20 1.267
587.30 1.267
587.40 1.267
587.50 1.268
587.60 1.268
587.70 1.268
587.80 1.268
587.90 1.268
588.00 1.269
588.10 1.269
588.20 1.269
588.30 1.269
588.40 1.27
588.50 1.27
588.60 1.27
588.70 1.27
588.80 1.27
588.90 1.271
589.00 1.271
589.10 1.271
589.20 1.271
589.30 1.271
589.40 1.272
589.50 1.272
589.60 1.272
589.70 1.272
589.80 1.272
589.90 1.273
590.00 1.273
590.10 1.273
590.20 1.273
590.30 1.274
590.40 1.274
590.50 1.274
590.60 1.274
590.70 1.274
590.80 1.275
590.90 1.275
591.00 1.275
591.10 1.275
591.20 1.275
591.30 1.276
591.40 1.276
591.50 1.276
591.60 1.276
591.70 1.276
591.80 1.277
591.90 1.277
592.00 1.277
592.10 1.277
592.20 1.277
592.30 1.278
592.40 1.278
592.50 1.278
592.60 1.278
592.70 1.278
592.80 1.279
592.90 1.279
593.00 1.279
593.10 1.279
593.20 1.28
593.30 1.28
593.40 1.28
593.50 1.28
593.60 1.28
593.70 1.281
593.80 1.281
593.90 1.281
594.00 1.281
594.10 1.281
594.20 1.282
594.30 1.282
594.40 1.282
594.50 1.282
594.60 1.282
594.70 1.283
594.80 1.283
594.90 1.283
595.00 1.283
595.10 1.283
595.20 1.284
595.30 1.284
595.40 1.284
595.50 1.284
595.60 1.284
595.70 1.285
595.80 1.285
595.90 1.285
596.00 1.285
596.10 1.285
596.20 1.286
596.30 1.286
596.40 1.286
596.50 1.286
596.60 1.286
596.70 1.287
596.80 1.287
596.90 1.287
597.00 1.287
597.10 1.287
597.20 1.288
597.30 1.288
597.40 1.288
597.50 1.288
597.60 1.288
597.70 1.288
597.80 1.289
597.90 1.289
598.00 1.289
598.10 1.289
598.20 1.289
598.30 1.29
598.40 1.29
598.50 1.29
598.60 1.29
598.70 1.29
598.80 1.291
598.90 1.291
599.00 1.291
599.10 1.291
599.20 1.291
599.30 1.292
599.40 1.292
599.50 1.292
599.60 1.292
599.70 1.292
599.80 1.293
599.90 1.293
600.00 1.293
600.10 1.293
600.20 1.293
600.30 1.294
600.40 1.294
600.50 1.294
600.60 1.294
600.70 1.294
600.80 1.294
600.90 1.295
601.00 1.295
601.10 1.295
601.20 1.295
601.30 1.295
601.40 1.296
601.50 1.296
601.60 1.296
601.70 1.296
601.80 1.296
601.90 1.296
602.00 1.297
602.10 1.297
602.20 1.297
602.30 1.297
602.40 1.297
602.50 1.298
602.60 1.298
602.70 1.298
602.80 1.298
602.90 1.298
603.00 1.299
603.10 1.299
603.20 1.299
603.30 1.299
603.40 1.299
603.50 1.3
603.60 1.3
603.70 1.3
603.80 1.3
603.90 1.3
604.00 1.3
604.10 1.301
604.20 1.301
604.30 1.301
604.40 1.301
604.50 1.301
604.60 1.301
604.70 1.302
604.80 1.302
604.90 1.302
605.00 1.302
605.10 1.302
605.20 1.303
605.30 1.303
605.40 1.303
605.50 1.303
605.60 1.303
605.70 1.303
605.80 1.304
605.90 1.304
606.00 1.304
606.10 1.304
606.20 1.304
606.30 1.304
606.40 1.305
606.50 1.305
606.60 1.305
606.70 1.305
606.80 1.305
606.90 1.306
607.00 1.306
607.10 1.306
607.20 1.306
607.30 1.306
607.40 1.306
607.50 1.307
607.60 1.307
607.70 1.307
607.80 1.307
607.90 1.307
608.00 1.308
608.10 1.308
608.20 1.308
608.30 1.308
608.40 1.308
608.50 1.308
608.60 1.309
608.70 1.309
608.80 1.309
608.90 1.309
609.00 1.309
609.10 1.309
609.20 1.31
609.30 1.31
609.40 1.31
609.50 1.31
609.60 1.31
609.70 1.31
609.80 1.311
609.90 1.311
610.00 1.311
610.10 1.311
610.20 1.311
610.30 1.311
610.40 1.312
610.50 1.312
610.60 1.312
610.70 1.312
610.80 1.312
610.90 1.313
611.00 1.313
611.10 1.313
611.20 1.313
611.30 1.313
611.40 1.313
611.50 1.314
611.60 1.314
611.70 1.314
611.80 1.314
611.90 1.314
612.00 1.314
612.10 1.315
612.20 1.315
612.30 1.315
612.40 1.315
612.50 1.315
612.60 1.315
612.70 1.316
612.80 1.316
612.90 1.316
613.00 1.316
613.10 1.316
613.20 1.316
613.30 1.316
613.40 1.317
613.50 1.317
613.60 1.317
613.70 1.317
613.80 1.317
613.90 1.317
614.00 1.318
614.10 1.318
614.20 1.318
614.30 1.318
614.40 1.318
614.50 1.318
614.60 1.319
614.70 1.319
614.80 1.319
614.90 1.319
615.00 1.319
615.10 1.319
615.20 1.32
615.30 1.32
615.40 1.32
615.50 1.32
615.60 1.32
615.70 1.32
615.80 1.321
615.90 1.321
616.00 1.321
616.10 1.321
616.20 1.321
616.30 1.321
616.40 1.322
616.50 1.322
616.60 1.322
616.70 1.322
616.80 1.322
616.90 1.322
617.00 1.322
617.10 1.323
617.20 1.323
617.30 1.323
617.40 1.323
617.50 1.323
617.60 1.323
617.70 1.324
617.80 1.324
617.90 1.324
618.00 1.324
618.10 1.324
618.20 1.324
618.30 1.324
618.40 1.325
618.50 1.325
618.60 1.325
618.70 1.325
618.80 1.325
618.90 1.325
619.00 1.326
619.10 1.326
619.20 1.326
619.30 1.326
619.40 1.326
619.50 1.326
619.60 1.326
619.70 1.327
619.80 1.327
619.90 1.327
620.00 1.327
620.10 1.327
620.20 1.327
620.30 1.328
620.40 1.328
620.50 1.328
620.60 1.328
620.70 1.328
620.80 1.328
620.90 1.328
621.00 1.329
621.10 1.329
621.20 1.329
621.30 1.329
621.40 1.329
621.50 1.329
621.60 1.329
621.70 1.33
621.80 1.33
621.90 1.33
622.00 1.33
622.10 1.33
622.20 1.33
622.30 1.331
622.40 1.331
622.50 1.331
622.60 1.331
622.70 1.331
622.80 1.331
622.90 1.331
623.00 1.332
623.10 1.332
623.20 1.332
623.30 1.332
623.40 1.332
623.50 1.332
623.60 1.332
623.70 1.333
623.80 1.333
623.90 1.333
624.00 1.333
624.10 1.333
624.20 1.333
624.30 1.333
624.40 1.334
624.50 1.334
624.60 1.334
624.70 1.334
624.80 1.334
624.90 1.334
625.00 1.334
625.10 1.335
625.20 1.335
625.30 1.335
625.40 1.335
625.50 1.335
625.60 1.335
625.70 1.335
625.80 1.336
625.90 1.336
626.00 1.336
626.10 1.336
626.20 1.336
626.30 1.336
626.40 1.336
626.50 1.337
626.60 1.337
626.70 1.337
626.80 1.337
626.90 1.337
627.00 1.337
627.10 1.337
627.20 1.338
627.30 1.338
627.40 1.338
627.50 1.338
627.60 1.338
627.70 1.338
627.80 1.338
627.90 1.338
628.00 1.339
628.10 1.339
628.20 1.339
628.30 1.339
628.40 1.339
628.50 1.339
628.60 1.339
628.70 1.34
628.80 1.34
628.90 1.34
629.00 1.34
629.10 1.34
629.20 1.34
629.30 1.34
629.40 1.341
629.50 1.341
629.60 1.341
629.70 1.341
629.80 1.341
629.90 1.341
630.00 1.341
630.10 1.341
630.20 1.342
630.30 1.342
630.40 1.342
630.50 1.342
630.60 1.342
630.70 1.342
630.80 1.342
630.90 1.342
631.00 1.343
631.10 1.343
631.20 1.343
631.30 1.343
631.40 1.343
631.50 1.343
631.60 1.343
631.70 1.344
631.80 1.344
631.90 1.344
632.00 1.344
632.10 1.344
632.20 1.344
632.30 1.344
632.40 1.344
632.50 1.345
632.60 1.345
632.70 1.345
632.80 1.345
632.90 1.345
633.00 1.345
633.10 1.345
633.20 1.345
633.30 1.346
633.40 1.346
633.50 1.346
633.60 1.346
633.70 1.346
633.80 1.346
633.90 1.346
634.00 1.346
634.10 1.347
634.20 1.347
634.30 1.347
634.40 1.347
634.50 1.347
634.60 1.347
634.70 1.347
634.80 1.347
634.90 1.348
635.00 1.348
635.10 1.348
635.20 1.348
635.30 1.348
635.40 1.348
635.50 1.348
635.60 1.348
635.70 1.349
635.80 1.349
635.90 1.349
636.00 1.349
636.10 1.349
636.20 1.349
636.30 1.349
636.40 1.349
636.50 1.35
636.60 1.35
636.70 1.35
636.80 1.35
636.90 1.35
637.00 1.35
637.10 1.35
637.20 1.35
637.30 1.35
637.40 1.351
637.50 1.351
637.60 1.351
637.70 1.351
637.80 1.351
637.90 1.351
638.00 1.351
638.10 1.351
638.20 1.352
638.30 1.352
638.40 1.352
638.50 1.352
638.60 1.352
638.70 1.352
638.80 1.352
638.90 1.352
639.00 1.352
639.10 1.353
639.20 1.353
639.30 1.353
639.40 1.353
639.50 1.353
639.60 1.353
639.70 1.353
639.80 1.353
639.90 1.354
640.00 1.354
640.10 1.354
640.20 1.354
640.30 1.354
640.40 1.354
640.50 1.354
640.60 1.354
640.70 1.354
640.80 1.355
640.90 1.355
641.00 1.355
641.10 1.355
641.20 1.355
641.30 1.355
641.40 1.355
641.50 1.355
641.60 1.355
641.70 1.356
641.80 1.356
641.90 1.356
642.00 1.356
642.10 1.356
642.20 1.356
642.30 1.356
642.40 1.356
642.50 1.357
642.60 1.357
642.70 1.357
642.80 1.357
642.90 1.357
643.00 1.357
643.10 1.357
643.20 1.357
643.30 1.357
643.40 1.357
643.50 1.358
643.60 1.358
643.70 1.358
643.80 1.358
643.90 1.358
644.00 1.358
644.10 1.358
644.20 1.358
644.30 1.358
644.40 1.359
644.50 1.359
644.60 1.359
644.70 1.359
644.80 1.359
644.90 1.359
645.00 1.359
645.10 1.359
645.20 1.359
645.30 1.36
645.40 1.36
645.50 1.36
645.60 1.36
645.70 1.36
645.80 1.36
645.90 1.36
646.00 1.36
646.10 1.36
646.20 1.36
646.30 1.361
646.40 1.361
646.50 1.361
646.60 1.361
646.70 1.361
646.80 1.361
646.90 1.361
647.00 1.361
647.10 1.361
647.20 1.361
647.30 1.362
647.40 1.362
647.50 1.362
647.60 1.362
647.70 1.362
647.80 1.362
647.90 1.362
648.00 1.362
648.10 1.362
648.20 1.362
648.30 1.363
648.40 1.363
648.50 1.363
648.60 1.363
648.70 1.363
648.80 1.363
648.90 1.363
649.00 1.363
649.10 1.363
649.20 1.363
649.30 1.364
649.40 1.364
649.50 1.364
649.60 1.364
649.70 1.364
649.80 1.364
649.90 1.364
650.00 1.364
650.10 1.364
650.20 1.364
650.30 1.365
650.40 1.365
650.50 1.365
650.60 1.365
650.70 1.365
650.80 1.365
650.90 1.365
651.00 1.365
651.10 1.365
651.20 1.365
651.30 1.365
651.40 1.366
651.50 1.366
651.60 1.366
651.70 1.366
651.80 1.366
651.90 1.366
652.00 1.366
652.10 1.366
652.20 1.366
652.30 1.366
652.40 1.366
652.50 1.367
652.60 1.367
652.70 1.367
652.80 1.367
652.90 1.367
653.00 1.367
653.10 1.367
653.20 1.367
653.30 1.367
653.40 1.367
653.50 1.368
653.60 1.368
653.70 1.368
653.80 1.368
653.90 1.368
654.00 1.368
654.10 1.368
654.20 1.368
654.30 1.368
654.40 1.368
654.50 1.368
654.60 1.368
654.70 1.369
654.80 1.369
654.90 1.369
655.00 1.369
655.10 1.369
655.20 1.369
655.30 1.369
655.40 1.369
655.50 1.369
655.60 1.369
655.70 1.369
655.80 1.369
655.90 1.369
656.00 1.369
656.10 1.369
656.20 1.369
656.30 1.369
656.40 1.369
656.50 1.37
656.60 1.37
656.70 1.37
656.80 1.37
656.90 1.37
657.00 1.37
657.10 1.371
657.20 1.371
657.30 1.371
657.40 1.371
657.50 1.371
657.60 1.371
657.70 1.371
657.80 1.371
657.90 1.371
658.00 1.371
658.10 1.371
658.20 1.372
658.30 1.372
658.40 1.372
658.50 1.372
658.60 1.372
658.70 1.372
658.80 1.372
658.90 1.372
659.00 1.372
659.10 1.372
659.20 1.372
659.30 1.372
659.40 1.373
659.50 1.373
659.60 1.373
659.70 1.373
659.80 1.373
659.90 1.373
660.00 1.373
660.10 1.373
660.20 1.373
660.30 1.373
660.40 1.373
660.50 1.373
660.60 1.374
660.70 1.374
660.80 1.374
660.90 1.374
661.00 1.374
661.10 1.374
661.20 1.374
661.30 1.374
661.40 1.374
661.50 1.374
661.60 1.374
661.70 1.374
661.80 1.374
661.90 1.375
662.00 1.375
662.10 1.375
662.20 1.375
662.30 1.375
662.40 1.375
662.50 1.375
662.60 1.375
662.70 1.375
662.80 1.375
662.90 1.375
663.00 1.375
663.10 1.375
663.20 1.376
663.30 1.376
663.40 1.376
663.50 1.376
663.60 1.376
663.70 1.376
663.80 1.376
663.90 1.376
664.00 1.376
664.10 1.376
664.20 1.376
664.30 1.376
664.40 1.376
664.50 1.376
664.60 1.377
664.70 1.377
664.80 1.377
664.90 1.377
665.00 1.377
665.10 1.377
665.20 1.377
665.30 1.377
665.40 1.377
665.50 1.377
665.60 1.377
665.70 1.377
665.80 1.377
665.90 1.377
666.00 1.378
666.10 1.378
666.20 1.378
666.30 1.378
666.40 1.378
666.50 1.378
666.60 1.378
666.70 1.378
666.80 1.378
666.90 1.378
667.00 1.378
667.10 1.378
667.20 1.378
667.30 1.378
667.40 1.378
667.50 1.379
667.60 1.379
667.70 1.379
667.80 1.379
667.90 1.379
668.00 1.379
668.10 1.379
668.20 1.379
668.30 1.379
668.40 1.379
668.50 1.379
668.60 1.379
668.70 1.379
668.80 1.379
668.90 1.379
669.00 1.38
669.10 1.38
669.20 1.38
669.30 1.38
669.40 1.38
669.50 1.38
669.60 1.38
669.70 1.38
669.80 1.38
669.90 1.38
670.00 1.38
670.10 1.38
670.20 1.38
670.30 1.38
670.40 1.38
670.50 1.38
670.60 1.381
670.70 1.381
670.80 1.381
670.90 1.381
671.00 1.381
671.10 1.381
671.20 1.381
671.30 1.381
671.40 1.381
671.50 1.381
671.60 1.381
671.70 1.381
671.80 1.381
671.90 1.381
672.00 1.381
672.10 1.381
672.20 1.381
672.30 1.382
672.40 1.382
672.50 1.382
672.60 1.382
672.70 1.382
672.80 1.382
672.90 1.382
673.00 1.382
673.10 1.382
673.20 1.382
673.30 1.382
673.40 1.382
673.50 1.382
673.60 1.382
673.70 1.382
673.80 1.382
673.90 1.383
674.00 1.383
674.10 1.383
674.20 1.383
674.30 1.383
674.40 1.383
674.50 1.383
674.60 1.383
674.70 1.383
674.80 1.383
674.90 1.383
675.00 1.383
675.10 1.383
675.20 1.383
675.30 1.383
675.40 1.383
675.50 1.383
675.60 1.383
675.70 1.383
675.80 1.384
675.90 1.384
676.00 1.384
676.10 1.384
676.20 1.384
676.30 1.384
676.40 1.384
676.50 1.384
676.60 1.384
676.70 1.384
676.80 1.384
676.90 1.384
677.00 1.384
677.10 1.384
677.20 1.384
677.30 1.384
677.40 1.384
677.50 1.384
677.60 1.384
677.70 1.385
677.80 1.385
677.90 1.385
678.00 1.385
678.10 1.385
678.20 1.385
678.30 1.385
678.40 1.385
678.50 1.385
678.60 1.385
678.70 1.385
678.80 1.385
678.90 1.385
679.00 1.385
679.10 1.385
679.20 1.385
679.30 1.385
679.40 1.385
679.50 1.385
679.60 1.385
679.70 1.385
679.80 1.386
679.90 1.386
680.00 1.386
680.10 1.386
680.20 1.386
680.30 1.386
680.40 1.386
680.50 1.386
680.60 1.386
680.70 1.386
680.80 1.386
680.90 1.386
681.00 1.386
681.10 1.386
681.20 1.386
681.30 1.386
681.40 1.386
681.50 1.386
681.60 1.386
681.70 1.386
681.80 1.386
681.90 1.386
682.00 1.387
682.10 1.387
682.20 1.387
682.30 1.387
682.40 1.387
682.50 1.387
682.60 1.387
682.70 1.387
682.80 1.387
682.90 1.387
683.00 1.387
683.10 1.387
683.20 1.387
683.30 1.387
683.40 1.387
683.50 1.387
683.60 1.387
683.70 1.387
683.80 1.387
683.90 1.387
684.00 1.387
684.10 1.387
684.20 1.387
684.30 1.387
684.40 1.387
684.50 1.387
684.60 1.388
684.70 1.388
684.80 1.388
684.90 1.388
685.00 1.388
685.10 1.388
685.20 1.388
685.30 1.388
685.40 1.388
685.50 1.388
685.60 1.388
685.70 1.388
685.80 1.388
685.90 1.388
686.00 1.388
686.10 1.388
686.20 1.388
686.30 1.388
686.40 1.388
686.50 1.388
686.60 1.388
686.70 1.388
686.80 1.388
686.90 1.388
687.00 1.388
687.10 1.388
687.20 1.389
687.30 1.389
687.40 1.389
687.50 1.389
687.60 1.389
687.70 1.389
687.80 1.389
687.90 1.389
688.00 1.389
688.10 1.389
688.20 1.389
688.30 1.389
688.40 1.389
688.50 1.389
688.60 1.389
688.70 1.389
688.80 1.389
688.90 1.389
689.00 1.389
689.10 1.389
689.20 1.389
689.30 1.389
689.40 1.389
689.50 1.389
689.60 1.389
689.70 1.389
689.80 1.389
689.90 1.389
690.00 1.389
690.10 1.389
690.20 1.389
690.30 1.389
690.40 1.389
690.50 1.389
690.60 1.389
690.70 1.39
690.80 1.39
690.90 1.39
691.00 1.39
691.10 1.39
691.20 1.39
691.30 1.39
691.40 1.39
691.50 1.39
691.60 1.39
691.70 1.39
691.80 1.39
691.90 1.39
692.00 1.39
692.10 1.39
692.20 1.39
692.30 1.39
692.40 1.39
692.50 1.39
692.60 1.39
692.70 1.39
692.80 1.39
692.90 1.39
693.00 1.39
693.10 1.39
693.20 1.39
693.30 1.39
693.40 1.39
693.50 1.39
693.60 1.39
693.70 1.39
693.80 1.39
693.90 1.39
694.00 1.39
694.10 1.39
694.20 1.39
694.30 1.39
694.40 1.39
694.50 1.391
694.60 1.391
694.70 1.391
694.80 1.391
694.90 1.391
695.00 1.391
695.10 1.391
695.20 1.391
695.30 1.391
695.40 1.391
695.50 1.391
695.60 1.391
695.70 1.391
695.80 1.391
695.90 1.391
696.00 1.391
696.10 1.391
696.20 1.391
696.30 1.391
696.40 1.391
696.50 1.391
696.60 1.391
696.70 1.391
696.80 1.391
696.90 1.391
697.00 1.391
697.10 1.391
697.20 1.391
697.30 1.391
697.40 1.391
697.50 1.391
697.60 1.391
697.70 1.391
697.80 1.391
697.90 1.391
698.00 1.391
698.10 1.391
698.20 1.391
698.30 1.391
698.40 1.391
698.50 1.391
698.60 1.391
698.70 1.391
698.80 1.391
698.90 1.391
699.00 1.391
699.10 1.391
699.20 1.391
699.30 1.391
699.40 1.391
699.50 1.391
699.60 1.391
699.70 1.391
699.80 1.391
699.90 1.392
700.00 1.392
700.10 1.392
700.20 1.392
700.30 1.392
700.40 1.392
700.50 1.392
700.60 1.392
700.70 1.392
700.80 1.392
700.90 1.392
701.00 1.392
701.10 1.392
701.20 1.392
701.30 1.392
701.40 1.392
701.50 1.392
701.60 1.392
701.70 1.392
701.80 1.392
701.90 1.392
702.00 1.392
702.10 1.392
702.20 1.392
702.30 1.392
702.40 1.392
702.50 1.392
702.60 1.392
702.70 1.392
702.80 1.392
702.90 1.392
703.00 1.392
703.10 1.392
703.20 1.392
703.30 1.392
703.40 1.392
703.50 1.392
703.60 1.392
703.70 1.392
703.80 1.392
703.90 1.392
704.00 1.392
704.10 1.392
704.20 1.392
704.30 1.392
704.40 1.392
704.50 1.392
704.60 1.392
704.70 1.392
704.80 1.392
704.90 1.392
705.00 1.392
705.10 1.392
705.20 1.392
705.30 1.392
705.40 1.392
705.50 1.392
705.60 1.392
705.70 1.392
705.80 1.392
705.90 1.392
706.00 1.392
706.10 1.392
706.20 1.392
706.30 1.392
706.40 1.392
706.50 1.392
706.60 1.392
706.70 1.392
706.80 1.392
706.90 1.392
707.00 1.392
707.10 1.392
707.20 1.392
707.30 1.392
707.40 1.392
707.50 1.392
707.60 1.392
707.70 1.392
707.80 1.392
707.90 1.392
708.00 1.392
708.10 1.392
708.20 1.392
708.30 1.392
708.40 1.392
708.50 1.392
708.60 1.392
708.70 1.392
708.80 1.392
708.90 1.392
709.00 1.392
709.10 1.392
709.20 1.392
709.30 1.392
709.40 1.392
709.50 1.392
709.60 1.392
709.70 1.392
709.80 1.392
709.90 1.392
710.00 1.392
710.10 1.392
710.20 1.392
710.30 1.392
710.40 1.392
710.50 1.392
710.60 1.392
710.70 1.392
710.80 1.392
710.90 1.392
711.00 1.392
711.10 1.392
711.20 1.392
711.30 1.392
711.40 1.392
711.50 1.392
711.60 1.392
711.70 1.392
711.80 1.392
711.90 1.392
712.00 1.392
712.10 1.392
712.20 1.392
712.30 1.392
712.40 1.392
712.50 1.392
712.60 1.392
712.70 1.392
712.80 1.392
712.90 1.392
713.00 1.392
713.10 1.392
713.20 1.392
713.30 1.392
713.40 1.392
713.50 1.392
713.60 1.392
713.70 1.392
713.80 1.392
713.90 1.392
714.00 1.392
714.10 1.392
714.20 1.392
714.30 1.392
714.40 1.392
714.50 1.392
714.60 1.392
714.70 1.392
714.80 1.392
714.90 1.392
715.00 1.392
715.10 1.392
715.20 1.392
715.30 1.392
715.40 1.392
715.50 1.392
715.60 1.392
715.70 1.392
715.80 1.392
715.90 1.392
716.00 1.392
716.10 1.392
716.20 1.392
716.30 1.391
716.40 1.391
716.50 1.391
716.60 1.391
716.70 1.391
716.80 1.391
716.90 1.391
717.00 1.391
717.10 1.391
717.20 1.391
717.30 1.391
717.40 1.391
717.50 1.391
717.60 1.391
717.70 1.391
717.80 1.391
717.90 1.391
718.00 1.391
718.10 1.391
718.20 1.391
718.30 1.391
718.40 1.391
718.50 1.391
718.60 1.391
718.70 1.391
718.80 1.391
718.90 1.391
719.00 1.391
719.10 1.391
719.20 1.391
719.30 1.391
719.40 1.391
719.50 1.391
719.60 1.391
719.70 1.391
719.80 1.391
719.90 1.391
720.00 1.391
720.10 1.391
720.20 1.391
720.30 1.391
720.40 1.391
720.50 1.391
720.60 1.391
720.70 1.391
720.80 1.391
720.90 1.391
721.00 1.391
721.10 1.391
721.20 1.391
721.30 1.391
721.40 1.391
721.50 1.391
721.60 1.391
721.70 1.391
721.80 1.391
721.90 1.391
722.00 1.391
722.10 1.391
722.20 1.391
722.30 1.39
722.40 1.39
722.50 1.39
722.60 1.39
722.70 1.39
722.80 1.39
722.90 1.39
723.00 1.39
723.10 1.39
723.20 1.39
723.30 1.39
723.40 1.39
723.50 1.39
723.60 1.39
723.70 1.39
723.80 1.39
723.90 1.39
724.00 1.39
724.10 1.39
724.20 1.39
724.30 1.39
724.40 1.39
724.50 1.39
724.60 1.39
724.70 1.39
724.80 1.39
724.90 1.39
725.00 1.39
725.10 1.39
725.20 1.39
725.30 1.39
725.40 1.39
725.50 1.39
725.60 1.39
725.70 1.39
725.80 1.39
725.90 1.39
726.00 1.39
726.10 1.39
726.20 1.39
726.30 1.39
726.40 1.39
726.50 1.39
726.60 1.389
726.70 1.389
726.80 1.389
726.90 1.389
727.00 1.389
727.10 1.389
727.20 1.389
727.30 1.389
727.40 1.389
727.50 1.389
727.60 1.389
727.70 1.389
727.80 1.389
727.90 1.389
728.00 1.389
728.10 1.389
728.20 1.389
728.30 1.389
728.40 1.389
728.50 1.389
728.60 1.389
728.70 1.389
728.80 1.389
728.90 1.389
729.00 1.389
729.10 1.389
729.20 1.389
729.30 1.389
729.40 1.389
729.50 1.389
729.60 1.389
729.70 1.389
729.80 1.389
729.90 1.389
730.00 1.389
730.10 1.388
730.20 1.388
730.30 1.388
730.40 1.388
730.50 1.388
730.60 1.388
730.70 1.388
730.80 1.388
730.90 1.388
731.00 1.388
731.10 1.388
731.20 1.388
731.30 1.388
731.40 1.388
731.50 1.388
731.60 1.388
731.70 1.388
731.80 1.388
731.90 1.388
732.00 1.388
732.10 1.388
732.20 1.388
732.30 1.388
732.40 1.388
732.50 1.388
732.60 1.388
732.70 1.388
732.80 1.388
732.90 1.388
733.00 1.388
733.10 1.387
733.20 1.387
733.30 1.387
733.40 1.387
733.50 1.387
733.60 1.387
733.70 1.387
733.80 1.387
733.90 1.387
734.00 1.387
734.10 1.387
734.20 1.387
734.30 1.387
734.40 1.387
734.50 1.387
734.60 1.387
734.70 1.387
734.80 1.387
734.90 1.387
735.00 1.387
735.10 1.387
735.20 1.387
735.30 1.387
735.40 1.387
735.50 1.387
735.60 1.387
735.70 1.387
735.80 1.387
735.90 1.387
736.00 1.386
736.10 1.386
736.20 1.386
736.30 1.386
736.40 1.386
736.50 1.386
736.60 1.386
736.70 1.386
736.80 1.386
736.90 1.386
737.00 1.386
737.10 1.386
737.20 1.386
737.30 1.386
737.40 1.386
737.50 1.386
737.60 1.386
737.70 1.386
737.80 1.386
737.90 1.386
738.00 1.386
738.10 1.386
738.20 1.386
738.30 1.386
738.40 1.386
738.50 1.386
738.60 1.386
738.70 1.386
738.80 1.386
738.90 1.385
739.00 1.385
739.10 1.385
739.20 1.385
739.30 1.385
739.40 1.385
739.50 1.385
739.60 1.385
739.70 1.385
739.80 1.385
739.90 1.385
740.00 1.385
740.10 1.385
740.20 1.385
740.30 1.385
740.40 1.385
740.50 1.385
740.60 1.385
740.70 1.385
740.80 1.385
740.90 1.385
741.00 1.385
741.10 1.385
741.20 1.385
741.30 1.385
741.40 1.384
741.50 1.384
741.60 1.384
741.70 1.384
741.80 1.384
741.90 1.384
742.00 1.384
742.10 1.384
742.20 1.384
742.30 1.384
742.40 1.384
742.50 1.384
742.60 1.384
742.70 1.384
742.80 1.384
742.90 1.384
743.00 1.384
743.10 1.384
743.20 1.384
743.30 1.384
743.40 1.384
743.50 1.384
743.60 1.384
743.70 1.384
743.80 1.383
743.90 1.383
744.00 1.383
744.10 1.383
744.20 1.383
744.30 1.383
744.40 1.383
744.50 1.383
744.60 1.383
744.70 1.383
744.80 1.383
744.90 1.383
745.00 1.383
745.10 1.383
745.20 1.383
745.30 1.383
745.40 1.383
745.50 1.383
745.60 1.383
745.70 1.383
745.80 1.383
745.90 1.383
746.00 1.383
746.10 1.382
746.20 1.382
746.30 1.382
746.40 1.382
746.50 1.382
746.60 1.382
746.70 1.382
746.80 1.382
746.90 1.382
747.00 1.382
747.10 1.382
747.20 1.382
747.30 1.382
747.40 1.382
747.50 1.382
747.60 1.382
747.70 1.382
747.80 1.382
747.90 1.382
748.00 1.382
748.10 1.382
748.20 1.382
748.30 1.382
748.40 1.381
748.50 1.381
748.60 1.381
748.70 1.381
748.80 1.381
748.90 1.381
749.00 1.381
749.10 1.381
749.20 1.381
749.30 1.381
749.40 1.381
749.50 1.381
749.60 1.381
749.70 1.381
749.80 1.381
749.90 1.381
750.00 1.381
750.10 1.381
750.20 1.381
750.30 1.381
750.40 1.381
750.50 1.381
750.60 1.38
750.70 1.38
750.80 1.38
750.90 1.38
751.00 1.38
751.10 1.38
751.20 1.38
751.30 1.38
751.40 1.38
751.50 1.38
751.60 1.38
751.70 1.38
751.80 1.38
751.90 1.38
752.00 1.38
752.10 1.38
752.20 1.38
752.30 1.38
752.40 1.38
752.50 1.38
752.60 1.379
752.70 1.379
752.80 1.379
752.90 1.379
753.00 1.379
753.10 1.379
753.20 1.379
753.30 1.379
753.40 1.379
753.50 1.379
753.60 1.379
753.70 1.379
753.80 1.379
753.90 1.379
754.00 1.379
754.10 1.379
754.20 1.379
754.30 1.379
754.40 1.379
754.50 1.379
754.60 1.378
754.70 1.378
754.80 1.378
754.90 1.378
755.00 1.378
755.10 1.378
755.20 1.378
755.30 1.378
755.40 1.378
755.50 1.378
755.60 1.378
755.70 1.378
755.80 1.378
755.90 1.378
756.00 1.378
756.10 1.378
756.20 1.378
756.30 1.378
756.40 1.378
756.50 1.378
756.60 1.377
756.70 1.377
756.80 1.377
756.90 1.377
757.00 1.377
757.10 1.377
757.20 1.377
757.30 1.377
757.40 1.377
757.50 1.377
757.60 1.377
757.70 1.377
757.80 1.377
757.90 1.377
758.00 1.377
758.10 1.377
758.20 1.377
758.30 1.377
758.40 1.377
758.50 1.376
758.60 1.376
758.70 1.376
758.80 1.376
758.90 1.376
759.00 1.376
759.10 1.376
759.20 1.376
759.30 1.376
759.40 1.376
759.50 1.376
759.60 1.376
759.70 1.376
759.80 1.376
759.90 1.376
760.00 1.376
760.10 1.376
760.20 1.376
760.30 1.376
760.40 1.375
760.50 1.375
760.60 1.375
760.70 1.375
760.80 1.375
760.90 1.375
761.00 1.375
761.10 1.375
761.20 1.375
761.30 1.375
761.40 1.375
761.50 1.375
761.60 1.375
761.70 1.375
761.80 1.375
761.90 1.375
762.00 1.375
762.10 1.375
762.20 1.374
762.30 1.374
762.40 1.374
762.50 1.374
762.60 1.374
762.70 1.374
762.80 1.374
762.90 1.374
763.00 1.374
763.10 1.374
763.20 1.374
763.30 1.374
763.40 1.374
763.50 1.374
763.60 1.374
763.70 1.374
763.80 1.374
763.90 1.373
764.00 1.373
764.10 1.373
764.20 1.373
764.30 1.373
764.40 1.373
764.50 1.373
764.60 1.373
764.70 1.373
764.80 1.373
764.90 1.373
765.00 1.373
765.10 1.373
765.20 1.373
765.30 1.373
765.40 1.373
765.50 1.373
765.60 1.372
765.70 1.372
765.80 1.372
765.90 1.372
766.00 1.372
766.10 1.372
766.20 1.372
766.30 1.372
766.40 1.372
766.50 1.372
766.60 1.372
766.70 1.372
766.80 1.372
766.90 1.372
767.00 1.372
767.10 1.372
767.20 1.372
767.30 1.371
767.40 1.371
767.50 1.371
767.60 1.371
767.70 1.371
767.80 1.371
767.90 1.371
768.00 1.371
768.10 1.371
768.20 1.371
768.30 1.371
768.40 1.371
768.50 1.371
768.60 1.371
768.70 1.371
768.80 1.371
768.90 1.371
769.00 1.37
769.10 1.37
769.20 1.37
769.30 1.37
769.40 1.37
769.50 1.37
769.60 1.37
769.70 1.37
769.80 1.37
769.90 1.37
770.00 1.37
770.10 1.37
770.20 1.37
770.30 1.37
770.40 1.37
770.50 1.37
770.60 1.369
770.70 1.369
770.80 1.369
770.90 1.369
771.00 1.369
771.10 1.369
771.20 1.369
771.30 1.369
771.40 1.369
771.50 1.369
771.60 1.369
771.70 1.369
771.80 1.369
771.90 1.369
772.00 1.369
772.10 1.369
772.20 1.368
772.30 1.368
772.40 1.368
772.50 1.368
772.60 1.368
772.70 1.368
772.80 1.368
772.90 1.368
773.00 1.368
773.10 1.368
773.20 1.368
773.30 1.368
773.40 1.368
773.50 1.368
773.60 1.368
773.70 1.367
773.80 1.367
773.90 1.367
774.00 1.367
774.10 1.367
774.20 1.367
774.30 1.367
774.40 1.367
774.50 1.367
774.60 1.367
774.70 1.367
774.80 1.367
774.90 1.367
775.00 1.367
775.10 1.367
775.20 1.367
775.30 1.366
775.40 1.366
775.50 1.366
775.60 1.366
775.70 1.366
775.80 1.366
775.90 1.366
776.00 1.366
776.10 1.366
776.20 1.366
776.30 1.366
776.40 1.366
776.50 1.366
776.60 1.366
776.70 1.366
776.80 1.365
776.90 1.365
777.00 1.365
777.10 1.365
777.20 1.365
777.30 1.365
777.40 1.365
777.50 1.365
777.60 1.365
777.70 1.365
777.80 1.365
777.90 1.365
778.00 1.365
778.10 1.365
778.20 1.365
778.30 1.364
778.40 1.364
778.50 1.364
778.60 1.364
778.70 1.364
778.80 1.364
778.90 1.364
779.00 1.364
779.10 1.364
779.20 1.364
779.30 1.364
779.40 1.364
779.50 1.364
779.60 1.364
779.70 1.364
779.80 1.364
779.90 1.363
780.00 1.363
780.10 1.363
780.20 1.363
780.30 1.363
780.40 1.363
780.50 1.363
780.60 1.363
780.70 1.363
780.80 1.363
780.90 1.363
781.00 1.363
781.10 1.363
781.20 1.363
781.30 1.362
781.40 1.362
781.50 1.362
781.60 1.362
781.70 1.362
781.80 1.362
781.90 1.362
782.00 1.362
782.10 1.362
782.20 1.362
782.30 1.362
782.40 1.362
782.50 1.362
782.60 1.362
782.70 1.361
782.80 1.361
782.90 1.361
783.00 1.361
783.10 1.361
783.20 1.361
783.30 1.361
783.40 1.361
783.50 1.361
783.60 1.361
783.70 1.361
783.80 1.361
783.90 1.361
784.00 1.361
784.10 1.36
784.20 1.36
784.30 1.36
784.40 1.36
784.50 1.36
784.60 1.36
784.70 1.36
784.80 1.36
784.90 1.36
785.00 1.36
785.10 1.36
785.20 1.36
785.30 1.36
785.40 1.36
785.50 1.359
785.60 1.359
785.70 1.359
785.80 1.359
785.90 1.359
786.00 1.359
786.10 1.359
786.20 1.359
786.30 1.359
786.40 1.359
786.50 1.359
786.60 1.359
786.70 1.359
786.80 1.359
786.90 1.358
787.00 1.358
787.10 1.358
787.20 1.358
787.30 1.358
787.40 1.358
787.50 1.358
787.60 1.358
787.70 1.358
787.80 1.358
787.90 1.358
788.00 1.358
788.10 1.358
788.20 1.358
788.30 1.357
788.40 1.357
788.50 1.357
788.60 1.357
788.70 1.357
788.80 1.357
788.90 1.357
789.00 1.357
789.10 1.357
789.20 1.357
789.30 1.357
789.40 1.357
789.50 1.357
789.60 1.357
789.70 1.356
789.80 1.356
789.90 1.356
790.00 1.356
790.10 1.356
790.20 1.356
790.30 1.356
790.40 1.356
790.50 1.356
790.60 1.356
790.70 1.356
790.80 1.356
790.90 1.356
791.00 1.355
791.10 1.355
791.20 1.355
791.30 1.355
791.40 1.355
791.50 1.355
791.60 1.355
791.70 1.355
791.80 1.355
791.90 1.355
792.00 1.355
792.10 1.355
792.20 1.355
792.30 1.354
792.40 1.354
792.50 1.354
792.60 1.354
792.70 1.354
792.80 1.354
792.90 1.354
793.00 1.354
793.10 1.354
793.20 1.354
793.30 1.354
793.40 1.354
793.50 1.354
793.60 1.353
793.70 1.353
793.80 1.353
793.90 1.353
794.00 1.353
794.10 1.353
794.20 1.353
794.30 1.353
794.40 1.353
794.50 1.353
794.60 1.353
794.70 1.353
794.80 1.353
794.90 1.352
795.00 1.352
795.10 1.352
795.20 1.352
795.30 1.352
795.40 1.352
795.50 1.352
795.60 1.352
795.70 1.352
795.80 1.352
795.90 1.352
796.00 1.352
796.10 1.352
796.20 1.351
796.30 1.351
796.40 1.351
796.50 1.351
796.60 1.351
796.70 1.351
796.80 1.351
796.90 1.351
797.00 1.351
797.10 1.351
797.20 1.351
797.30 1.351
797.40 1.35
797.50 1.35
797.60 1.35
797.70 1.35
797.80 1.35
797.90 1.35
798.00 1.35
798.10 1.35
798.20 1.35
798.30 1.35
798.40 1.35
798.50 1.35
798.60 1.35
798.70 1.349
798.80 1.349
798.90 1.349
799.00 1.349
799.10 1.349
799.20 1.349
799.30 1.349
799.40 1.349
799.50 1.349
799.60 1.349
799.70 1.349
799.80 1.349
799.90 1.349
800.00 1.348
800.10 1.348
800.20 1.348
800.30 1.348
800.40 1.348
800.50 1.348
800.60 1.348
800.70 1.348
800.80 1.348
800.90 1.348
801.00 1.348
801.10 1.348
801.20 1.347
801.30 1.347
801.40 1.347
801.50 1.347
801.60 1.347
801.70 1.347
801.80 1.347
801.90 1.347
802.00 1.347
802.10 1.347
802.20 1.347
802.30 1.346
802.40 1.346
802.50 1.346
802.60 1.346
802.70 1.346
802.80 1.346
802.90 1.346
803.00 1.346
803.10 1.346
803.20 1.346
803.30 1.346
803.40 1.345
803.50 1.345
803.60 1.345
803.70 1.345
803.80 1.345
803.90 1.345
804.00 1.345
804.10 1.345
804.20 1.345
804.30 1.345
804.40 1.345
804.50 1.345
804.60 1.344
804.70 1.344
804.80 1.344
804.90 1.344
805.00 1.344
805.10 1.344
805.20 1.344
805.30 1.344
805.40 1.344
805.50 1.344
805.60 1.344
805.70 1.343
805.80 1.343
805.90 1.343
806.00 1.343
806.10 1.343
806.20 1.343
806.30 1.343
806.40 1.343
806.50 1.343
806.60 1.343
806.70 1.343
806.80 1.343
806.90 1.342
807.00 1.342
807.10 1.342
807.20 1.342
807.30 1.342
807.40 1.342
807.50 1.342
807.60 1.342
807.70 1.342
807.80 1.342
807.90 1.342
808.00 1.341
808.10 1.341
808.20 1.341
808.30 1.341
808.40 1.341
808.50 1.341
808.60 1.341
808.70 1.341
808.80 1.341
808.90 1.341
809.00 1.341
809.10 1.34
809.20 1.34
809.30 1.34
809.40 1.34
809.50 1.34
809.60 1.34
809.70 1.34
809.80 1.34
809.90 1.34
810.00 1.34
810.10 1.34
810.20 1.34
810.30 1.339
810.40 1.339
810.50 1.339
810.60 1.339
810.70 1.339
810.80 1.339
810.90 1.339
811.00 1.339
811.10 1.339
811.20 1.339
811.30 1.338
811.40 1.338
811.50 1.338
811.60 1.338
811.70 1.338
811.80 1.338
811.90 1.338
812.00 1.338
812.10 1.338
812.20 1.338
812.30 1.337
812.40 1.337
812.50 1.337
812.60 1.337
812.70 1.337
812.80 1.337
812.90 1.337
813.00 1.337
813.10 1.337
813.20 1.337
813.30 1.337
813.40 1.336
813.50 1.336
813.60 1.336
813.70 1.336
813.80 1.336
813.90 1.336
814.00 1.336
814.10 1.336
814.20 1.336
814.30 1.336
814.40 1.335
814.50 1.335
814.60 1.335
814.70 1.335
814.80 1.335
814.90 1.335
815.00 1.335
815.10 1.335
815.20 1.335
815.30 1.335
815.40 1.334
815.50 1.334
815.60 1.334
815.70 1.334
815.80 1.334
815.90 1.334
816.00 1.334
816.10 1.334
816.20 1.334
816.30 1.334
816.40 1.334
816.50 1.333
816.60 1.333
816.70 1.333
816.80 1.333
816.90 1.333
817.00 1.333
817.10 1.333
817.20 1.333
817.30 1.333
817.40 1.333
817.50 1.332
817.60 1.332
817.70 1.332
817.80 1.332
817.90 1.332
818.00 1.332
818.10 1.332
818.20 1.332
818.30 1.332
818.40 1.332
818.50 1.331
818.60 1.331
818.70 1.331
818.80 1.331
818.90 1.331
819.00 1.331
819.10 1.331
819.20 1.331
819.30 1.331
819.40 1.331
819.50 1.331
819.60 1.33
819.70 1.33
819.80 1.33
819.90 1.33
820.00 1.33
820.10 1.33
820.20 1.33
820.30 1.33
820.40 1.33
820.50 1.33
820.60 1.329
820.70 1.329
820.80 1.329
820.90 1.329
821.00 1.329
821.10 1.329
821.20 1.329
821.30 1.329
821.40 1.329
821.50 1.329
821.60 1.328
821.70 1.328
821.80 1.328
821.90 1.328
822.00 1.328
822.10 1.328
822.20 1.328
822.30 1.328
822.40 1.328
822.50 1.328
822.60 1.327
822.70 1.327
822.80 1.327
822.90 1.327
823.00 1.327
823.10 1.327
823.20 1.327
823.30 1.327
823.40 1.327
823.50 1.326
823.60 1.326
823.70 1.326
823.80 1.326
823.90 1.326
824.00 1.326
824.10 1.326
824.20 1.326
824.30 1.326
824.40 1.326
824.50 1.325
824.60 1.325
824.70 1.325
824.80 1.325
824.90 1.325
825.00 1.325
825.10 1.325
825.20 1.325
825.30 1.325
825.40 1.324
825.50 1.324
825.60 1.324
825.70 1.324
825.80 1.324
825.90 1.324
826.00 1.324
826.10 1.324
826.20 1.324
826.30 1.324
826.40 1.323
826.50 1.323
826.60 1.323
826.70 1.323
826.80 1.323
826.90 1.323
827.00 1.323
827.10 1.323
827.20 1.323
827.30 1.322
827.40 1.322
827.50 1.322
827.60 1.322
827.70 1.322
827.80 1.322
827.90 1.322
828.00 1.322
828.10 1.322
828.20 1.321
828.30 1.321
828.40 1.321
828.50 1.321
828.60 1.321
828.70 1.321
828.80 1.321
828.90 1.321
829.00 1.321
829.10 1.32
829.20 1.32
829.30 1.32
829.40 1.32
829.50 1.32
829.60 1.32
829.70 1.32
829.80 1.32
829.90 1.32
830.00 1.32
830.10 1.319
830.20 1.319
830.30 1.319
830.40 1.319
830.50 1.319
830.60 1.319
830.70 1.319
830.80 1.319
830.90 1.319
831.00 1.318
831.10 1.318
831.20 1.318
831.30 1.318
831.40 1.318
831.50 1.318
831.60 1.318
831.70 1.318
831.80 1.318
831.90 1.317
832.00 1.317
832.10 1.317
832.20 1.317
832.30 1.317
832.40 1.317
832.50 1.317
832.60 1.317
832.70 1.317
832.80 1.316
832.90 1.316
833.00 1.316
833.10 1.316
833.20 1.316
833.30 1.316
833.40 1.316
833.50 1.316
833.60 1.316
833.70 1.315
833.80 1.315
833.90 1.315
834.00 1.315
834.10 1.315
834.20 1.315
834.30 1.315
834.40 1.315
834.50 1.315
834.60 1.314
834.70 1.314
834.80 1.314
834.90 1.314
835.00 1.314
835.10 1.314
835.20 1.314
835.30 1.314
835.40 1.313
835.50 1.313
835.60 1.313
835.70 1.313
835.80 1.313
835.90 1.313
836.00 1.313
836.10 1.313
836.20 1.313
836.30 1.312
836.40 1.312
836.50 1.312
836.60 1.312
836.70 1.312
836.80 1.312
836.90 1.312
837.00 1.312
837.10 1.312
837.20 1.311
837.30 1.311
837.40 1.311
837.50 1.311
837.60 1.311
837.70 1.311
837.80 1.311
837.90 1.311
838.00 1.311
838.10 1.31
838.20 1.31
838.30 1.31
838.40 1.31
838.50 1.31
838.60 1.31
838.70 1.31
838.80 1.31
838.90 1.309
839.00 1.309
839.10 1.309
839.20 1.309
839.30 1.309
839.40 1.309
839.50 1.309
839.60 1.309
839.70 1.309
839.80 1.308
839.90 1.308
840.00 1.308
840.10 1.308
840.20 1.308
840.30 1.308
840.40 1.308
840.50 1.308
840.60 1.308
840.70 1.307
840.80 1.307
840.90 1.307
841.00 1.307
841.10 1.307
841.20 1.307
841.30 1.307
841.40 1.307
841.50 1.306
841.60 1.306
841.70 1.306
841.80 1.306
841.90 1.306
842.00 1.306
842.10 1.306
842.20 1.306
842.30 1.306
842.40 1.305
842.50 1.305
842.60 1.305
842.70 1.305
842.80 1.305
842.90 1.305
843.00 1.305
843.10 1.305
843.20 1.304
843.30 1.304
843.40 1.304
843.50 1.304
843.60 1.304
843.70 1.304
843.80 1.304
843.90 1.304
844.00 1.303
844.10 1.303
844.20 1.303
844.30 1.303
844.40 1.303
844.50 1.303
844.60 1.303
844.70 1.303
844.80 1.303
844.90 1.302
845.00 1.302
845.10 1.302
845.20 1.302
845.30 1.302
845.40 1.302
845.50 1.302
845.60 1.302
845.70 1.301
845.80 1.301
845.90 1.301
846.00 1.301
846.10 1.301
846.20 1.301
846.30 1.301
846.40 1.301
846.50 1.3
846.60 1.3
846.70 1.3
846.80 1.3
846.90 1.3
847.00 1.3
847.10 1.3
847.20 1.3
847.30 1.3
847.40 1.299
847.50 1.299
847.60 1.299
847.70 1.299
847.80 1.299
847.90 1.299
848.00 1.299
848.10 1.299
848.20 1.298
848.30 1.298
848.40 1.298
848.50 1.298
848.60 1.298
848.70 1.298
848.80 1.298
848.90 1.298
849.00 1.297
849.10 1.297
849.20 1.297
849.30 1.297
849.40 1.297
849.50 1.297
849.60 1.297
849.70 1.297
849.80 1.296
849.90 1.296
850.00 1.296
850.10 1.296
850.20 1.296
850.30 1.296
850.40 1.296
850.50 1.296
850.60 1.295
850.70 1.295
850.80 1.295
850.90 1.295
851.00 1.295
851.10 1.295
851.20 1.295
851.30 1.295
851.40 1.294
851.50 1.294
851.60 1.294
851.70 1.294
851.80 1.294
851.90 1.294
852.00 1.294
852.10 1.294
852.20 1.293
852.30 1.293
852.40 1.293
852.50 1.293
852.60 1.293
852.70 1.293
852.80 1.293
852.90 1.293
853.00 1.292
853.10 1.292
853.20 1.292
853.30 1.292
853.40 1.292
853.50 1.292
853.60 1.292
853.70 1.292
853.80 1.291
853.90 1.291
854.00 1.291
854.10 1.291
854.20 1.291
854.30 1.291
854.40 1.291
854.50 1.291
854.60 1.29
854.70 1.29
854.80 1.29
854.90 1.29
855.00 1.29
855.10 1.29
855.20 1.29
855.30 1.29
855.40 1.289
855.50 1.289
855.60 1.289
855.70 1.289
855.80 1.289
855.90 1.289
856.00 1.289
856.10 1.289
856.20 1.288
856.30 1.288
856.40 1.288
856.50 1.288
856.60 1.288
856.70 1.288
856.80 1.288
856.90 1.287
857.00 1.287
857.10 1.287
857.20 1.287
857.30 1.287
857.40 1.287
857.50 1.287
857.60 1.287
857.70 1.286
857.80 1.286
857.90 1.286
858.00 1.286
858.10 1.286
858.20 1.286
858.30 1.286
858.40 1.286
858.50 1.285
858.60 1.285
858.70 1.285
858.80 1.285
858.90 1.285
859.00 1.285
859.10 1.285
859.20 1.285
859.30 1.284
859.40 1.284
859.50 1.284
859.60 1.284
859.70 1.284
859.80 1.284
859.90 1.284
860.00 1.283
860.10 1.283
860.20 1.283
860.30 1.283
860.40 1.283
860.50 1.283
860.60 1.283
860.70 1.283
860.80 1.282
860.90 1.282
861.00 1.282
861.10 1.282
861.20 1.282
861.30 1.282
861.40 1.282
861.50 1.282
861.60 1.281
861.70 1.281
861.80 1.281
861.90 1.281
862.00 1.281
862.10 1.281
862.20 1.281
862.30 1.28
862.40 1.28
862.50 1.28
862.60 1.28
862.70 1.28
862.80 1.28
862.90 1.28
863.00 1.28
863.10 1.279
863.20 1.279
863.30 1.279
863.40 1.279
863.50 1.279
863.60 1.279
863.70 1.279
863.80 1.278
863.90 1.278
864.00 1.278
864.10 1.278
864.20 1.278
864.30 1.278
864.40 1.278
864.50 1.278
864.60 1.277
864.70 1.277
864.80 1.277
864.90 1.277
865.00 1.277
865.10 1.277
865.20 1.277
865.30 1.276
865.40 1.276
865.50 1.276
865.60 1.276
865.70 1.276
865.80 1.276
865.90 1.276
866.00 1.276
866.10 1.275
866.20 1.275
866.30 1.275
866.40 1.275
866.50 1.275
866.60 1.275
866.70 1.275
866.80 1.274
866.90 1.274
867.00 1.274
867.10 1.274
867.20 1.274
867.30 1.274
867.40 1.274
867.50 1.273
867.60 1.273
867.70 1.273
867.80 1.273
867.90 1.273
868.00 1.273
868.10 1.273
868.20 1.273
868.30 1.272
868.40 1.272
868.50 1.272
868.60 1.272
868.70 1.272
868.80 1.272
868.90 1.272
869.00 1.271
869.10 1.271
869.20 1.271
869.30 1.271
869.40 1.271
869.50 1.271
869.60 1.271
869.70 1.27
869.80 1.27
869.90 1.27
870.00 1.27
870.10 1.27
870.20 1.27
870.30 1.27
870.40 1.27
870.50 1.269
870.60 1.269
870.70 1.269
870.80 1.269
870.90 1.269
871.00 1.269
871.10 1.269
871.20 1.268
871.30 1.268
871.40 1.268
871.50 1.268
871.60 1.268
871.70 1.268
871.80 1.268
871.90 1.267
872.00 1.267
872.10 1.267
872.20 1.267
872.30 1.267
872.40 1.267
872.50 1.267
872.60 1.266
872.70 1.266
872.80 1.266
872.90 1.266
873.00 1.266
873.10 1.266
873.20 1.266
873.30 1.265
873.40 1.265
873.50 1.265
873.60 1.265
873.70 1.265
873.80 1.265
873.90 1.265
874.00 1.264
874.10 1.264
874.20 1.264
874.30 1.264
874.40 1.264
874.50 1.264
874.60 1.264
874.70 1.263
874.80 1.263
874.90 1.263
875.00 1.263
875.10 1.263
875.20 1.263
875.30 1.263
875.40 1.262
875.50 1.262
875.60 1.262
875.70 1.262
875.80 1.262
875.90 1.262
876.00 1.262
876.10 1.261
876.20 1.261
876.30 1.261
876.40 1.261
876.50 1.261
876.60 1.261
876.70 1.261
876.80 1.26
876.90 1.26
877.00 1.26
877.10 1.26
877.20 1.26
877.30 1.26
877.40 1.26
877.50 1.259
877.60 1.259
877.70 1.259
877.80 1.259
877.90 1.259
878.00 1.259
878.10 1.259
878.20 1.258
878.30 1.258
878.40 1.258
878.50 1.258
878.60 1.258
878.70 1.258
878.80 1.258
878.90 1.257
879.00 1.257
879.10 1.257
879.20 1.257
879.30 1.257
879.40 1.257
879.50 1.257
879.60 1.256
879.70 1.256
879.80 1.256
879.90 1.256
880.00 1.256
880.10 1.256
880.20 1.255
880.30 1.255
880.40 1.255
880.50 1.255
880.60 1.255
880.70 1.255
880.80 1.255
880.90 1.254
881.00 1.254
881.10 1.254
881.20 1.254
881.30 1.254
881.40 1.254
881.50 1.254
881.60 1.253
881.70 1.253
881.80 1.253
881.90 1.253
882.00 1.253
882.10 1.253
882.20 1.253
882.30 1.252
882.40 1.252
882.50 1.252
882.60 1.252
882.70 1.252
882.80 1.252
882.90 1.252
883.00 1.251
883.10 1.251
883.20 1.251
883.30 1.251
883.40 1.251
883.50 1.251
883.60 1.25
883.70 1.25
883.80 1.25
883.90 1.25
884.00 1.25
884.10 1.25
884.20 1.25
884.30 1.249
884.40 1.249
884.50 1.249
884.60 1.249
884.70 1.249
884.80 1.249
884.90 1.248
885.00 1.248
885.10 1.248
885.20 1.248
885.30 1.248
885.40 1.248
885.50 1.248
885.60 1.247
885.70 1.247
885.80 1.247
885.90 1.247
886.00 1.247
886.10 1.247
886.20 1.247
886.30 1.246
886.40 1.246
886.50 1.246
886.60 1.246
886.70 1.246
886.80 1.246
886.90 1.245
887.00 1.245
887.10 1.245
887.20 1.245
887.30 1.245
887.40 1.245
887.50 1.245
887.60 1.244
887.70 1.244
887.80 1.244
887.90 1.244
888.00 1.244
888.10 1.244
888.20 1.243
888.30 1.243
888.40 1.243
888.50 1.243
888.60 1.243
888.70 1.243
888.80 1.242
888.90 1.242
889.00 1.242
889.10 1.242
889.20 1.242
889.30 1.242
889.40 1.242
889.50 1.241
889.60 1.241
889.70 1.241
889.80 1.241
889.90 1.241
890.00 1.241
890.10 1.24
890.20 1.24
890.30 1.24
890.40 1.24
890.50 1.24
890.60 1.24
890.70 1.239
890.80 1.239
890.90 1.239
891.00 1.239
891.10 1.239
891.20 1.239
891.30 1.239
891.40 1.238
891.50 1.238
891.60 1.238
891.70 1.238
891.80 1.238
891.90 1.238
892.00 1.237
892.10 1.237
892.20 1.237
892.30 1.237
892.40 1.237
892.50 1.237
892.60 1.237
892.70 1.236
892.80 1.236
892.90 1.236
893.00 1.236
893.10 1.236
893.20 1.236
893.30 1.235
893.40 1.235
893.50 1.235
893.60 1.235
893.70 1.235
893.80 1.235
893.90 1.235
894.00 1.234
894.10 1.234
894.20 1.234
894.30 1.234
894.40 1.234
894.50 1.234
894.60 1.233
894.70 1.233
894.80 1.233
894.90 1.233
895.00 1.233
895.10 1.233
895.20 1.233
895.30 1.232
895.40 1.232
895.50 1.232
895.60 1.232
895.70 1.232
895.80 1.232
895.90 1.231
896.00 1.231
896.10 1.231
896.20 1.231
896.30 1.231
896.40 1.231
896.50 1.231
896.60 1.23
896.70 1.23
896.80 1.23
896.90 1.23
897.00 1.23
897.10 1.23
897.20 1.229
897.30 1.229
897.40 1.229
897.50 1.229
897.60 1.229
897.70 1.229
897.80 1.228
897.90 1.228
898.00 1.228
898.10 1.228
898.20 1.228
898.30 1.228
898.40 1.227
898.50 1.227
898.60 1.227
898.70 1.227
898.80 1.227
898.90 1.227
899.00 1.226
899.10 1.226
899.20 1.226
899.30 1.226
899.40 1.226
899.50 1.226
899.60 1.225
899.70 1.225
899.80 1.225
899.90 1.225
900.00 1.225
900.10 1.225
900.20 1.224
900.30 1.224
900.40 1.224
900.50 1.224
900.60 1.224
900.70 1.224
900.80 1.223
900.90 1.223
901.00 1.223
901.10 1.223
901.20 1.223
901.30 1.223
901.40 1.222
901.50 1.222
901.60 1.222
901.70 1.222
901.80 1.222
901.90 1.221
902.00 1.221
902.10 1.221
902.20 1.221
902.30 1.221
902.40 1.221
902.50 1.22
902.60 1.22
902.70 1.22
902.80 1.22
902.90 1.22
903.00 1.219
903.10 1.219
903.20 1.219
903.30 1.219
903.40 1.219
903.50 1.218
903.60 1.218
903.70 1.218
903.80 1.218
903.90 1.218
904.00 1.217
904.10 1.217
904.20 1.217
904.30 1.217
904.40 1.217
904.50 1.216
904.60 1.216
904.70 1.216
904.80 1.216
904.90 1.216
905.00 1.215
905.10 1.215
905.20 1.215
905.30 1.215
905.40 1.215
905.50 1.214
905.60 1.214
905.70 1.214
905.80 1.214
905.90 1.214
906.00 1.213
906.10 1.213
906.20 1.213
906.30 1.213
906.40 1.213
906.50 1.212
906.60 1.212
906.70 1.212
906.80 1.212
906.90 1.212
907.00 1.211
907.10 1.211
907.20 1.211
907.30 1.211
907.40 1.211
907.50 1.21
907.60 1.21
907.70 1.21
907.80 1.21
907.90 1.21
908.00 1.21
908.10 1.209
908.20 1.209
908.30 1.209
908.40 1.209
908.50 1.209
908.60 1.208
908.70 1.208
908.80 1.208
908.90 1.208
909.00 1.208
909.10 1.207
909.20 1.207
909.30 1.207
909.40 1.207
909.50 1.207
909.60 1.207
909.70 1.206
909.80 1.206
909.90 1.206
910.00 1.206
910.10 1.206
910.20 1.205
910.30 1.205
910.40 1.205
910.50 1.205
910.60 1.205
910.70 1.204
910.80 1.204
910.90 1.204
911.00 1.204
911.10 1.204
911.20 1.204
911.30 1.203
911.40 1.203
911.50 1.203
911.60 1.203
911.70 1.203
911.80 1.202
911.90 1.202
912.00 1.202
912.10 1.202
912.20 1.202
912.30 1.202
912.40 1.201
912.50 1.201
912.60 1.201
912.70 1.201
912.80 1.201
912.90 1.2
913.00 1.2
913.10 1.2
913.20 1.2
913.30 1.2
913.40 1.2
913.50 1.199
913.60 1.199
913.70 1.199
913.80 1.199
913.90 1.199
914.00 1.198
914.10 1.198
914.20 1.198
914.30 1.198
914.40 1.198
914.50 1.198
914.60 1.197
914.70 1.197
914.80 1.197
914.90 1.197
915.00 1.197
915.10 1.197
915.20 1.196
915.30 1.196
915.40 1.196
915.50 1.196
915.60 1.196
915.70 1.195
915.80 1.195
915.90 1.195
916.00 1.195
916.10 1.195
916.20 1.195
916.30 1.194
916.40 1.194
916.50 1.194
916.60 1.194
916.70 1.194
916.80 1.194
916.90 1.193
917.00 1.193
917.10 1.193
917.20 1.193
917.30 1.193
917.40 1.192
917.50 1.192
917.60 1.192
917.70 1.192
917.80 1.192
917.90 1.191
918.00 1.191
918.10 1.191
918.20 1.191
918.30 1.191
918.40 1.19
918.50 1.19
918.60 1.19
918.70 1.19
918.80 1.19
918.90 1.189
919.00 1.189
919.10 1.189
919.20 1.189
919.30 1.189
919.40 1.189
919.50 1.188
919.60 1.188
919.70 1.188
919.80 1.188
919.90 1.188
920.00 1.187
920.10 1.187
920.20 1.187
920.30 1.187
920.40 1.187
920.50 1.186
920.60 1.186
920.70 1.186
920.80 1.186
920.90 1.186
921.00 1.185
921.10 1.185
921.20 1.185
921.30 1.185
921.40 1.185
921.50 1.185
921.60 1.184
921.70 1.184
921.80 1.184
921.90 1.184
922.00 1.184
922.10 1.183
922.20 1.183
922.30 1.183
922.40 1.183
922.50 1.183
922.60 1.182
922.70 1.182
922.80 1.182
922.90 1.182
923.00 1.182
923.10 1.181
923.20 1.181
923.30 1.181
923.40 1.181
923.50 1.181
923.60 1.18
923.70 1.18
923.80 1.18
923.90 1.18
924.00 1.18
924.10 1.179
924.20 1.179
924.30 1.179
924.40 1.179
924.50 1.179
924.60 1.178
924.70 1.178
924.80 1.178
924.90 1.178
925.00 1.178
925.10 1.177
925.20 1.177
925.30 1.177
925.40 1.177
925.50 1.177
925.60 1.176
925.70 1.176
925.80 1.176
925.90 1.176
926.00 1.176
926.10 1.175
926.20 1.175
926.30 1.175
926.40 1.175
926.50 1.175
926.60 1.174
926.70 1.174
926.80 1.174
926.90 1.174
927.00 1.174
927.10 1.174
927.20 1.173
927.30 1.173
927.40 1.173
927.50 1.173
927.60 1.172
927.70 1.172
927.80 1.172
927.90 1.172
928.00 1.172
928.10 1.171
928.20 1.171
928.30 1.171
928.40 1.171
928.50 1.171
928.60 1.17
928.70 1.17
928.80 1.17
928.90 1.17
929.00 1.17
929.10 1.169
929.20 1.169
929.30 1.169
929.40 1.169
929.50 1.169
929.60 1.168
929.70 1.168
929.80 1.168
929.90 1.168
930.00 1.168
930.10 1.167
930.20 1.167
930.30 1.167
930.40 1.167
930.50 1.167
930.60 1.166
930.70 1.166
930.80 1.166
930.90 1.166
931.00 1.166
931.10 1.165
931.20 1.165
931.30 1.165
931.40 1.165
931.50 1.165
931.60 1.164
931.70 1.164
931.80 1.164
931.90 1.164
932.00 1.164
932.10 1.163
932.20 1.163
932.30 1.163
932.40 1.163
932.50 1.163
932.60 1.162
932.70 1.162
932.80 1.162
932.90 1.162
933.00 1.162
933.10 1.161
933.20 1.161
933.30 1.161
933.40 1.161
933.50 1.161
933.60 1.16
933.70 1.16
933.80 1.16
933.90 1.16
934.00 1.159
934.10 1.159
934.20 1.159
934.30 1.159
934.40 1.159
934.50 1.158
934.60 1.158
934.70 1.158
934.80 1.158
934.90 1.158
935.00 1.157
935.10 1.157
935.20 1.157
935.30 1.157
935.40 1.157
935.50 1.156
935.60 1.156
935.70 1.156
935.80 1.156
935.90 1.156
936.00 1.155
936.10 1.155
936.20 1.155
936.30 1.155
936.40 1.154
936.50 1.154
936.60 1.154
936.70 1.154
936.80 1.154
936.90 1.153
937.00 1.153
937.10 1.153
937.20 1.153
937.30 1.153
937.40 1.152
937.50 1.152
937.60 1.152
937.70 1.152
937.80 1.152
937.90 1.151
938.00 1.151
938.10 1.151
938.20 1.151
938.30 1.15
938.40 1.15
938.50 1.15
938.60 1.15
938.70 1.15
938.80 1.149
938.90 1.149
939.00 1.149
939.10 1.149
939.20 1.149
939.30 1.148
939.40 1.148
939.50 1.148
939.60 1.148
939.70 1.147
939.80 1.147
939.90 1.147
940.00 1.147
940.10 1.147
940.20 1.146
940.30 1.146
940.40 1.146
940.50 1.146
940.60 1.146
940.70 1.145
940.80 1.145
940.90 1.145
941.00 1.145
941.10 1.144
941.20 1.144
941.30 1.144
941.40 1.144
941.50 1.144
941.60 1.143
941.70 1.143
941.80 1.143
941.90 1.143
942.00 1.142
942.10 1.142
942.20 1.142
942.30 1.142
942.40 1.142
942.50 1.141
942.60 1.141
942.70 1.141
942.80 1.141
942.90 1.14
943.00 1.14
943.10 1.14
943.20 1.14
943.30 1.14
943.40 1.139
943.50 1.139
943.60 1.139
943.70 1.139
943.80 1.139
943.90 1.138
944.00 1.138
944.10 1.138
944.20 1.138
944.30 1.137
944.40 1.137
944.50 1.137
944.60 1.137
944.70 1.137
944.80 1.136
944.90 1.136
945.00 1.136
945.10 1.136
945.20 1.135
945.30 1.135
945.40 1.135
945.50 1.135
945.60 1.135
945.70 1.134
945.80 1.134
945.90 1.134
946.00 1.134
946.10 1.133
946.20 1.133
946.30 1.133
946.40 1.133
946.50 1.133
946.60 1.132
946.70 1.132
946.80 1.132
946.90 1.132
947.00 1.131
947.10 1.131
947.20 1.131
947.30 1.131
947.40 1.131
947.50 1.13
947.60 1.13
947.70 1.13
947.80 1.13
947.90 1.129
948.00 1.129
948.10 1.129
948.20 1.129
948.30 1.129
948.40 1.128
948.50 1.128
948.60 1.128
948.70 1.128
948.80 1.127
948.90 1.127
949.00 1.127
949.10 1.127
949.20 1.126
949.30 1.126
949.40 1.126
949.50 1.126
949.60 1.126
949.70 1.125
949.80 1.125
949.90 1.125
950.00 1.125
950.10 1.124
950.20 1.124
950.30 1.124
950.40 1.124
950.50 1.124
950.60 1.123
950.70 1.123
950.80 1.123
950.90 1.123
951.00 1.122
951.10 1.122
951.20 1.122
951.30 1.122
951.40 1.122
951.50 1.121
951.60 1.121
951.70 1.121
951.80 1.121
951.90 1.12
952.00 1.12
952.10 1.12
952.20 1.12
952.30 1.119
952.40 1.119
952.50 1.119
952.60 1.119
952.70 1.119
952.80 1.118
952.90 1.118
953.00 1.118
953.10 1.118
953.20 1.117
953.30 1.117
953.40 1.117
953.50 1.117
953.60 1.116
953.70 1.116
953.80 1.116
953.90 1.116
954.00 1.116
954.10 1.115
954.20 1.115
954.30 1.115
954.40 1.115
954.50 1.114
954.60 1.114
954.70 1.114
954.80 1.114
954.90 1.113
955.00 1.113
955.10 1.113
955.20 1.113
955.30 1.113
955.40 1.112
955.50 1.112
955.60 1.112
955.70 1.112
955.80 1.111
955.90 1.111
956.00 1.111
956.10 1.111
956.20 1.11
956.30 1.11
956.40 1.11
956.50 1.11
956.60 1.11
956.70 1.109
956.80 1.109
956.90 1.109
957.00 1.109
957.10 1.108
957.20 1.108
957.30 1.108
957.40 1.108
957.50 1.107
957.60 1.107
957.70 1.107
957.80 1.107
957.90 1.106
958.00 1.106
958.10 1.106
958.20 1.106
958.30 1.106
958.40 1.105
958.50 1.105
958.60 1.105
958.70 1.105
958.80 1.104
958.90 1.104
959.00 1.104
959.10 1.104
959.20 1.103
959.30 1.103
959.40 1.103
959.50 1.103
959.60 1.103
959.70 1.102
959.80 1.102
959.90 1.102
960.00 1.102
960.10 1.101
960.20 1.101
960.30 1.101
960.40 1.101
960.50 1.1
960.60 1.1
960.70 1.1
960.80 1.1
960.90 1.099
961.00 1.099
961.10 1.099
961.20 1.099
961.30 1.098
961.40 1.098
961.50 1.098
961.60 1.098
961.70 1.098
961.80 1.097
961.90 1.097
962.00 1.097
962.10 1.097
962.20 1.096
962.30 1.096
962.40 1.096
962.50 1.096
962.60 1.095
962.70 1.095
962.80 1.095
962.90 1.095
963.00 1.094
963.10 1.094
963.20 1.094
963.30 1.094
963.40 1.094
963.50 1.093
963.60 1.093
963.70 1.093
963.80 1.093
963.90 1.092
964.00 1.092
964.10 1.092
964.20 1.092
964.30 1.091
964.40 1.091
964.50 1.091
964.60 1.091
964.70 1.09
964.80 1.09
964.90 1.09
965.00 1.09
965.10 1.089
965.20 1.089
965.30 1.089
965.40 1.089
965.50 1.088
965.60 1.088
965.70 1.088
965.80 1.088
965.90 1.088
966.00 1.087
966.10 1.087
966.20 1.087
966.30 1.087
966.40 1.086
966.50 1.086
966.60 1.086
966.70 1.086
966.80 1.085
966.90 1.085
967.00 1.085
967.10 1.085
967.20 1.084
967.30 1.084
967.40 1.084
967.50 1.084
967.60 1.083
967.70 1.083
967.80 1.083
967.90 1.083
968.00 1.082
968.10 1.082
968.20 1.082
968.30 1.082
968.40 1.082
968.50 1.081
968.60 1.081
968.70 1.081
968.80 1.081
968.90 1.08
969.00 1.08
969.10 1.08
969.20 1.08
969.30 1.079
969.40 1.079
969.50 1.079
969.60 1.079
969.70 1.078
969.80 1.078
969.90 1.078
970.00 1.078
970.10 1.077
970.20 1.077
970.30 1.077
970.40 1.077
970.50 1.076
970.60 1.076
970.70 1.076
970.80 1.076
970.90 1.075
971.00 1.075
971.10 1.075
971.20 1.075
971.30 1.075
971.40 1.074
971.50 1.074
971.60 1.074
971.70 1.074
971.80 1.073
971.90 1.073
972.00 1.073
972.10 1.073
972.20 1.072
972.30 1.072
972.40 1.072
972.50 1.072
972.60 1.071
972.70 1.071
972.80 1.071
972.90 1.071
973.00 1.07
973.10 1.07
973.20 1.07
973.30 1.07
973.40 1.069
973.50 1.069
973.60 1.069
973.70 1.069
973.80 1.068
973.90 1.068
974.00 1.068
974.10 1.068
974.20 1.067
974.30 1.067
974.40 1.067
974.50 1.067
974.60 1.067
974.70 1.066
974.80 1.066
974.90 1.066
975.00 1.066
975.10 1.065
975.20 1.065
975.30 1.065
975.40 1.065
975.50 1.064
975.60 1.064
975.70 1.064
975.80 1.064
975.90 1.063
976.00 1.063
976.10 1.063
976.20 1.063
976.30 1.062
976.40 1.062
976.50 1.062
976.60 1.062
976.70 1.061
976.80 1.061
976.90 1.061
977.00 1.061
977.10 1.06
977.20 1.06
977.30 1.06
977.40 1.06
977.50 1.059
977.60 1.059
977.70 1.059
977.80 1.059
977.90 1.058
978.00 1.058
978.10 1.058
978.20 1.058
978.30 1.058
978.40 1.057
978.50 1.057
978.60 1.057
978.70 1.057
978.80 1.056
978.90 1.056
979.00 1.056
979.10 1.056
979.20 1.055
979.30 1.055
979.40 1.055
979.50 1.055
979.60 1.054
979.70 1.054
979.80 1.054
979.90 1.054
980.00 1.053
980.10 1.053
980.20 1.053
980.30 1.053
980.40 1.052
980.50 1.052
980.60 1.052
980.70 1.052
980.80 1.051
980.90 1.051
981.00 1.051
981.10 1.051
981.20 1.05
981.30 1.05
981.40 1.05
981.50 1.05
981.60 1.05
981.70 1.049
981.80 1.049
981.90 1.049
982.00 1.049
982.10 1.048
982.20 1.048
982.30 1.048
982.40 1.048
982.50 1.047
982.60 1.047
982.70 1.047
982.80 1.047
982.90 1.046
983.00 1.046
983.10 1.046
983.20 1.046
983.30 1.045
983.40 1.045
983.50 1.045
983.60 1.045
983.70 1.044
983.80 1.044
983.90 1.044
984.00 1.044
984.10 1.043
984.20 1.043
984.30 1.043
984.40 1.043
984.50 1.042
984.60 1.042
984.70 1.042
984.80 1.042
984.90 1.041
985.00 1.041
985.10 1.041
985.20 1.041
985.30 1.041
985.40 1.04
985.50 1.04
985.60 1.04
985.70 1.04
985.80 1.039
985.90 1.039
986.00 1.039
986.10 1.039
986.20 1.038
986.30 1.038
986.40 1.038
986.50 1.038
986.60 1.037
986.70 1.037
986.80 1.037
986.90 1.037
987.00 1.036
987.10 1.036
987.20 1.036
987.30 1.036
987.40 1.035
987.50 1.035
987.60 1.035
987.70 1.035
987.80 1.034
987.90 1.034
988.00 1.034
988.10 1.034
988.20 1.034
988.30 1.033
988.40 1.033
988.50 1.033
988.60 1.033
988.70 1.032
988.80 1.032
988.90 1.032
989.00 1.032
989.10 1.031
989.20 1.031
989.30 1.031
989.40 1.031
989.50 1.03
989.60 1.03
989.70 1.03
989.80 1.03
989.90 1.029
990.00 1.029
990.10 1.029
990.20 1.029
990.30 1.028
990.40 1.028
990.50 1.028
990.60 1.028
990.70 1.027
990.80 1.027
990.90 1.027
991.00 1.027
991.10 1.026
991.20 1.026
991.30 1.026
991.40 1.026
991.50 1.025
991.60 1.025
991.70 1.025
991.80 1.025
991.90 1.024
992.00 1.024
992.10 1.024
992.20 1.024
992.30 1.023
992.40 1.023
992.50 1.023
992.60 1.023
992.70 1.023
992.80 1.022
992.90 1.022
993.00 1.022
993.10 1.022
993.20 1.021
993.30 1.021
993.40 1.021
993.50 1.021
993.60 1.02
993.70 1.02
993.80 1.02
993.90 1.02
994.00 1.019
994.10 1.019
994.20 1.019
994.30 1.019
994.40 1.018
994.50 1.018
994.60 1.018
994.70 1.018
994.80 1.017
994.90 1.017
995.00 1.017
995.10 1.017
995.20 1.016
995.30 1.016
995.40 1.016
995.50 1.016
995.60 1.015
995.70 1.015
995.80 1.015
995.90 1.015
996.00 1.014
996.10 1.014
996.20 1.014
996.30 1.014
996.40 1.013
996.50 1.013
996.60 1.013
996.70 1.013
996.80 1.012
996.90 1.012
997.00 1.012
997.10 1.012
997.20 1.011
997.30 1.011
997.40 1.011
997.50 1.011
997.60 1.01
997.70 1.01
997.80 1.01
997.90 1.01
998.00 1.009
998.10 1.009
998.20 1.009
998.30 1.009
998.40 1.008
998.50 1.008
998.60 1.008
998.70 1.008
998.80 1.007
998.90 1.007
999.00 1.007
999.10 1.007
999.20 1.007
999.30 1.006
999.40 1.006
999.50 1.006
999.60 1.006
999.70 1.005
999.80 1.005
999.90 1.005
1000.00 1.005
1000.10 1.004
1000.20 1.004
1000.30 1.004
1000.40 1.004
1000.50 1.003
1000.60 1.003
1000.70 1.003
1000.80 1.003
1000.90 1.002
1001.00 1.002
1001.10 1.002
1001.20 1.002
1001.30 1.001
1001.40 1.001
1001.50 1.001
1001.60 1.001
1001.70 1.001
1001.80 1
1001.90 1
1002.00 0.9998
1002.10 0.9995
1002.20 0.9993
1002.30 0.9991
1002.40 0.9988
1002.50 0.9986
1002.60 0.9983
1002.70 0.9981
1002.80 0.9979
1002.90 0.9976
1003.00 0.9974
1003.10 0.9972
1003.20 0.9969
1003.30 0.9967
1003.40 0.9965
1003.50 0.9962
1003.60 0.996
1003.70 0.9958
1003.80 0.9955
1003.90 0.9953
1004.00 0.995
1004.10 0.9948
1004.20 0.9946
1004.30 0.9943
1004.40 0.9941
1004.50 0.9939
1004.60 0.9936
1004.70 0.9934
1004.80 0.9931
1004.90 0.9929
1005.00 0.9926
1005.10 0.9924
1005.20 0.9922
1005.30 0.9919
1005.40 0.9917
1005.50 0.9915
1005.60 0.9913
1005.70 0.991
1005.80 0.9908
1005.90 0.9906
1006.00 0.9903
1006.10 0.9901
1006.20 0.9899
1006.30 0.9896
1006.40 0.9894
1006.50 0.9891
1006.60 0.9889
1006.70 0.9887
1006.80 0.9884
1006.90 0.9882
1007.00 0.988
1007.10 0.9877
1007.20 0.9875
1007.30 0.9873
1007.40 0.987
1007.50 0.9868
1007.60 0.9866
1007.70 0.9863
1007.80 0.9861
1007.90 0.9859
1008.00 0.9856
1008.10 0.9854
1008.20 0.9852
1008.30 0.9849
1008.40 0.9847
1008.50 0.9845
1008.60 0.9842
1008.70 0.984
1008.80 0.9838
1008.90 0.9835
1009.00 0.9833
1009.10 0.9831
1009.20 0.9829
1009.30 0.9826
1009.40 0.9824
1009.50 0.9822
1009.60 0.9819
1009.70 0.9817
1009.80 0.9815
1009.90 0.9812
1010.00 0.981
1010.10 0.9808
1010.20 0.9806
1010.30 0.9803
1010.40 0.9801
1010.50 0.9799
1010.60 0.9796
1010.70 0.9794
1010.80 0.9792
1010.90 0.9789
1011.00 0.9787
1011.10 0.9785
1011.20 0.9783
1011.30 0.978
1011.40 0.9778
1011.50 0.9776
1011.60 0.9773
1011.70 0.9771
1011.80 0.9769
1011.90 0.9767
1012.00 0.9764
1012.10 0.9762
1012.20 0.976
1012.30 0.9758
1012.40 0.9755
1012.50 0.9753
1012.60 0.9751
1012.70 0.9749
1012.80 0.9746
1012.90 0.9744
1013.00 0.9742
1013.10 0.9739
1013.20 0.9737
1013.30 0.9735
1013.40 0.9733
1013.50 0.973
1013.60 0.9728
1013.70 0.9726
1013.80 0.9724
1013.90 0.9721
1014.00 0.9719
1014.10 0.9717
1014.20 0.9715
1014.30 0.9712
1014.40 0.971
1014.50 0.9708
1014.60 0.9706
1014.70 0.9704
1014.80 0.9701
1014.90 0.9699
1015.00 0.9697
1015.10 0.9695
1015.20 0.9693
1015.30 0.969
1015.40 0.9688
1015.50 0.9686
1015.60 0.9684
1015.70 0.9682
1015.80 0.968
1015.90 0.9677
1016.00 0.9675
1016.10 0.9673
1016.20 0.9671
1016.30 0.9669
1016.40 0.9667
1016.50 0.9664
1016.60 0.9662
1016.70 0.966
1016.80 0.9658
1016.90 0.9656
1017.00 0.9653
1017.10 0.9651
1017.20 0.9649
1017.30 0.9647
1017.40 0.9644
1017.50 0.9642
1017.60 0.964
1017.70 0.9638
1017.80 0.9636
1017.90 0.9633
1018.00 0.9631
1018.10 0.9629
1018.20 0.9627
1018.30 0.9625
1018.40 0.9622
1018.50 0.962
1018.60 0.9618
1018.70 0.9616
1018.80 0.9614
1018.90 0.9612
1019.00 0.9609
1019.10 0.9607
1019.20 0.9605
1019.30 0.9603
1019.40 0.9601
1019.50 0.9599
1019.60 0.9596
1019.70 0.9594
1019.80 0.9592
1019.90 0.959
1020.00 0.9588
1020.10 0.9586
1020.20 0.9583
1020.30 0.9581
1020.40 0.9579
1020.50 0.9577
1020.60 0.9575
1020.70 0.9573
1020.80 0.957
1020.90 0.9568
1021.00 0.9566
1021.10 0.9564
1021.20 0.9562
1021.30 0.9559
1021.40 0.9557
1021.50 0.9555
1021.60 0.9553
1021.70 0.9551
1021.80 0.9549
1021.90 0.9546
1022.00 0.9544
1022.10 0.9542
1022.20 0.954
1022.30 0.9538
1022.40 0.9536
1022.50 0.9533
1022.60 0.9531
1022.70 0.9529
1022.80 0.9527
1022.90 0.9525
1023.00 0.9523
1023.10 0.9521
1023.20 0.9518
1023.30 0.9516
1023.40 0.9514
1023.50 0.9512
1023.60 0.951
1023.70 0.9508
1023.80 0.9505
1023.90 0.9503
1024.00 0.9501
1024.10 0.9499
1024.20 0.9497
1024.30 0.9495
1024.40 0.9493
1024.50 0.949
1024.60 0.9488
1024.70 0.9486
1024.80 0.9484
1024.90 0.9482
1025.00 0.948
1025.10 0.9478
1025.20 0.9475
1025.30 0.9473
1025.40 0.9471
1025.50 0.9469
1025.60 0.9467
1025.70 0.9465
1025.80 0.9463
1025.90 0.946
1026.00 0.9458
1026.10 0.9456
1026.20 0.9454
1026.30 0.9452
1026.40 0.945
1026.50 0.9448
1026.60 0.9446
1026.70 0.9443
1026.80 0.9441
1026.90 0.9439
1027.00 0.9437
1027.10 0.9435
1027.20 0.9433
1027.30 0.9431
1027.40 0.9429
1027.50 0.9427
1027.60 0.9424
1027.70 0.9422
1027.80 0.942
1027.90 0.9418
1028.00 0.9416
1028.10 0.9414
1028.20 0.9412
1028.30 0.941
1028.40 0.9408
1028.50 0.9406
1028.60 0.9404
1028.70 0.9402
1028.80 0.9399
1028.90 0.9397
1029.00 0.9395
1029.10 0.9393
1029.20 0.9391
1029.30 0.9389
1029.40 0.9387
1029.50 0.9385
1029.60 0.9383
1029.70 0.9381
1029.80 0.9379
1029.90 0.9377
1030.00 0.9375
1030.10 0.9373
1030.20 0.937
1030.30 0.9368
1030.40 0.9366
1030.50 0.9364
1030.60 0.9362
1030.70 0.936
1030.80 0.9358
1030.90 0.9356
1031.00 0.9354
1031.10 0.9352
1031.20 0.935
1031.30 0.9348
1031.40 0.9346
1031.50 0.9344
1031.60 0.9342
1031.70 0.9339
1031.80 0.9337
1031.90 0.9335
1032.00 0.9333
1032.10 0.9331
1032.20 0.9329
1032.30 0.9327
1032.40 0.9325
1032.50 0.9323
1032.60 0.9321
1032.70 0.9319
1032.80 0.9317
1032.90 0.9315
1033.00 0.9313
1033.10 0.9311
1033.20 0.9309
1033.30 0.9307
1033.40 0.9305
1033.50 0.9303
1033.60 0.9301
1033.70 0.9299
1033.80 0.9297
1033.90 0.9295
1034.00 0.9293
1034.10 0.9291
1034.20 0.9289
1034.30 0.9287
1034.40 0.9285
1034.50 0.9283
1034.60 0.9281
1034.70 0.9279
1034.80 0.9277
1034.90 0.9275
1035.00 0.9273
1035.10 0.9271
1035.20 0.9269
1035.30 0.9267
1035.40 0.9265
1035.50 0.9263
1035.60 0.9261
1035.70 0.9259
1035.80 0.9257
1035.90 0.9255
1036.00 0.9253
1036.10 0.9251
1036.20 0.9249
1036.30 0.9247
1036.40 0.9245
1036.50 0.9243
1036.60 0.9241
1036.70 0.9239
1036.80 0.9237
1036.90 0.9235
1037.00 0.9233
1037.10 0.9231
1037.20 0.9229
1037.30 0.9227
1037.40 0.9225
1037.50 0.9223
1037.60 0.9221
1037.70 0.9219
1037.80 0.9217
1037.90 0.9215
1038.00 0.9213
1038.10 0.9211
1038.20 0.9209
1038.30 0.9207
1038.40 0.9205
1038.50 0.9204
1038.60 0.9202
1038.70 0.92
1038.80 0.9198
1038.90 0.9196
1039.00 0.9194
1039.10 0.9192
1039.20 0.919
1039.30 0.9188
1039.40 0.9186
1039.50 0.9184
1039.60 0.9182
1039.70 0.918
1039.80 0.9178
1039.90 0.9176
1040.00 0.9174
1040.10 0.9172
1040.20 0.9171
1040.30 0.9169
1040.40 0.9167
1040.50 0.9165
1040.60 0.9163
1040.70 0.9161
1040.80 0.9159
1040.90 0.9157
1041.00 0.9155
1041.10 0.9153
1041.20 0.9151
1041.30 0.9149
1041.40 0.9147
1041.50 0.9145
1041.60 0.9143
1041.70 0.9142
1041.80 0.914
1041.90 0.9138
1042.00 0.9136
1042.10 0.9134
1042.20 0.9132
1042.30 0.913
1042.40 0.9128
1042.50 0.9126
1042.60 0.9124
1042.70 0.9123
1042.80 0.9121
1042.90 0.9119
1043.00 0.9117
1043.10 0.9115
1043.20 0.9113
1043.30 0.9111
1043.40 0.9109
1043.50 0.9107
1043.60 0.9106
1043.70 0.9104
1043.80 0.9102
1043.90 0.91
1044.00 0.9098
1044.10 0.9096
1044.20 0.9094
1044.30 0.9092
1044.40 0.9091
1044.50 0.9089
1044.60 0.9087
1044.70 0.9085
1044.80 0.9083
1044.90 0.9081
1045.00 0.9079
1045.10 0.9077
1045.20 0.9076
1045.30 0.9074
1045.40 0.9072
1045.50 0.907
1045.60 0.9068
1045.70 0.9066
1045.80 0.9064
1045.90 0.9063
1046.00 0.9061
1046.10 0.9059
1046.20 0.9057
1046.30 0.9055
1046.40 0.9053
1046.50 0.9051
1046.60 0.9049
1046.70 0.9048
1046.80 0.9046
1046.90 0.9044
1047.00 0.9042
1047.10 0.904
1047.20 0.9038
1047.30 0.9037
1047.40 0.9035
1047.50 0.9033
1047.60 0.9031
1047.70 0.9029
1047.80 0.9028
1047.90 0.9026
1048.00 0.9024
1048.10 0.9022
1048.20 0.902
1048.30 0.9019
1048.40 0.9017
1048.50 0.9015
1048.60 0.9013
1048.70 0.9011
1048.80 0.9009
1048.90 0.9008
1049.00 0.9006
1049.10 0.9004
1049.20 0.9002
1049.30 0.9
1049.40 0.8999
1049.50 0.8997
1049.60 0.8995
1049.70 0.8993
1049.80 0.8991
1049.90 0.899
1050.00 0.8988
1050.10 0.8986
1050.20 0.8984
1050.30 0.8983
1050.40 0.8981
1050.50 0.8979
1050.60 0.8977
1050.70 0.8975
1050.80 0.8974
1050.90 0.8972
1051.00 0.897
1051.10 0.8968
1051.20 0.8966
1051.30 0.8965
1051.40 0.8963
1051.50 0.8961
1051.60 0.8959
1051.70 0.8957
1051.80 0.8956
1051.90 0.8954
1052.00 0.8952
1052.10 0.895
1052.20 0.8949
1052.30 0.8947
1052.40 0.8945
1052.50 0.8943
1052.60 0.8942
1052.70 0.894
1052.80 0.8938
1052.90 0.8936
1053.00 0.8935
1053.10 0.8933
1053.20 0.8931
1053.30 0.8929
1053.40 0.8928
1053.50 0.8926
1053.60 0.8924
1053.70 0.8923
1053.80 0.8921
1053.90 0.8919
1054.00 0.8917
1054.10 0.8916
1054.20 0.8914
1054.30 0.8912
1054.40 0.891
1054.50 0.8909
1054.60 0.8907
1054.70 0.8905
1054.80 0.8904
1054.90 0.8902
1055.00 0.89
1055.10 0.8898
1055.20 0.8897
1055.30 0.8895
1055.40 0.8893
1055.50 0.8891
1055.60 0.889
1055.70 0.8888
1055.80 0.8886
1055.90 0.8885
1056.00 0.8883
1056.10 0.8881
1056.20 0.8879
1056.30 0.8878
1056.40 0.8876
1056.50 0.8874
1056.60 0.8873
1056.70 0.8871
1056.80 0.8869
1056.90 0.8867
1057.00 0.8866
1057.10 0.8864
1057.20 0.8862
1057.30 0.8861
1057.40 0.8859
1057.50 0.8857
1057.60 0.8856
1057.70 0.8854
1057.80 0.8852
1057.90 0.8851
1058.00 0.8849
1058.10 0.8847
1058.20 0.8846
1058.30 0.8844
1058.40 0.8842
1058.50 0.8841
1058.60 0.8839
1058.70 0.8837
1058.80 0.8836
1058.90 0.8834
1059.00 0.8832
1059.10 0.8831
1059.20 0.8829
1059.30 0.8827
1059.40 0.8826
1059.50 0.8824
1059.60 0.8822
1059.70 0.8821
1059.80 0.8819
1059.90 0.8817
1060.00 0.8816
1060.10 0.8814
1060.20 0.8812
1060.30 0.8811
1060.40 0.8809
1060.50 0.8807
1060.60 0.8806
1060.70 0.8804
1060.80 0.8803
1060.90 0.8801
1061.00 0.8799
1061.10 0.8798
1061.20 0.8796
1061.30 0.8794
1061.40 0.8793
1061.50 0.8791
1061.60 0.8789
1061.70 0.8788
1061.80 0.8786
1061.90 0.8784
1062.00 0.8783
1062.10 0.8781
1062.20 0.878
1062.30 0.8778
1062.40 0.8776
1062.50 0.8775
1062.60 0.8773
1062.70 0.8771
1062.80 0.877
1062.90 0.8768
1063.00 0.8767
1063.10 0.8765
1063.20 0.8763
1063.30 0.8762
1063.40 0.876
1063.50 0.8759
1063.60 0.8757
1063.70 0.8755
1063.80 0.8754
1063.90 0.8752
1064.00 0.8751
1064.10 0.8749
1064.20 0.8747
1064.30 0.8746
1064.40 0.8744
1064.50 0.8743
1064.60 0.8741
1064.70 0.8739
1064.80 0.8738
1064.90 0.8736
1065.00 0.8735
1065.10 0.8733
1065.20 0.8731
1065.30 0.873
1065.40 0.8728
1065.50 0.8727
1065.60 0.8725
1065.70 0.8724
1065.80 0.8722
1065.90 0.872
1066.00 0.8719
1066.10 0.8717
1066.20 0.8716
1066.30 0.8714
1066.40 0.8712
1066.50 0.8711
1066.60 0.8709
1066.70 0.8708
1066.80 0.8706
1066.90 0.8704
1067.00 0.8703
1067.10 0.8701
1067.20 0.87
1067.30 0.8698
1067.40 0.8697
1067.50 0.8695
1067.60 0.8694
1067.70 0.8692
1067.80 0.8691
1067.90 0.8689
1068.00 0.8688
1068.10 0.8686
1068.20 0.8685
1068.30 0.8683
1068.40 0.8682
1068.50 0.868
1068.60 0.8679
1068.70 0.8677
1068.80 0.8675
1068.90 0.8674
1069.00 0.8672
1069.10 0.8671
1069.20 0.8669
1069.30 0.8668
1069.40 0.8666
1069.50 0.8665
1069.60 0.8663
1069.70 0.8662
1069.80 0.866
1069.90 0.8659
1070.00 0.8657
1070.10 0.8656
1070.20 0.8654
1070.30 0.8653
1070.40 0.8651
1070.50 0.865
1070.60 0.8648
1070.70 0.8647
1070.80 0.8645
1070.90 0.8644
1071.00 0.8642
1071.10 0.8641
1071.20 0.8639
1071.30 0.8638
1071.40 0.8636
1071.50 0.8635
1071.60 0.8633
1071.70 0.8632
1071.80 0.863
1071.90 0.8629
1072.00 0.8627
1072.10 0.8626
1072.20 0.8624
1072.30 0.8623
1072.40 0.8621
1072.50 0.862
1072.60 0.8618
1072.70 0.8617
1072.80 0.8615
1072.90 0.8614
1073.00 0.8612
1073.10 0.8611
1073.20 0.8609
1073.30 0.8608
1073.40 0.8606
1073.50 0.8605
1073.60 0.8603
1073.70 0.8602
1073.80 0.86
1073.90 0.8599
1074.00 0.8598
1074.10 0.8596
1074.20 0.8595
1074.30 0.8593
1074.40 0.8592
1074.50 0.859
1074.60 0.8589
1074.70 0.8587
1074.80 0.8586
1074.90 0.8584
1075.00 0.8583
1075.10 0.8581
1075.20 0.858
1075.30 0.8578
1075.40 0.8577
1075.50 0.8575
1075.60 0.8574
1075.70 0.8572
1075.80 0.8571
1075.90 0.857
1076.00 0.8568
1076.10 0.8567
1076.20 0.8565
1076.30 0.8564
1076.40 0.8562
1076.50 0.8561
1076.60 0.8559
1076.70 0.8558
1076.80 0.8556
1076.90 0.8555
1077.00 0.8553
1077.10 0.8552
1077.20 0.8551
1077.30 0.8549
1077.40 0.8548
1077.50 0.8546
1077.60 0.8545
1077.70 0.8543
1077.80 0.8542
1077.90 0.854
1078.00 0.8539
1078.10 0.8538
1078.20 0.8536
1078.30 0.8535
1078.40 0.8533
1078.50 0.8532
1078.60 0.853
1078.70 0.8529
1078.80 0.8527
1078.90 0.8526
1079.00 0.8524
1079.10 0.8523
1079.20 0.8522
1079.30 0.852
1079.40 0.8519
1079.50 0.8517
1079.60 0.8516
1079.70 0.8514
1079.80 0.8513
1079.90 0.8512
1080.00 0.851
1080.10 0.8509
1080.20 0.8507
1080.30 0.8506
1080.40 0.8505
1080.50 0.8503
1080.60 0.8502
1080.70 0.85
1080.80 0.8499
1080.90 0.8497
1081.00 0.8496
1081.10 0.8495
1081.20 0.8493
1081.30 0.8492
1081.40 0.849
1081.50 0.8489
1081.60 0.8488
1081.70 0.8486
1081.80 0.8485
1081.90 0.8484
1082.00 0.8482
1082.10 0.8481
1082.20 0.8479
1082.30 0.8478
1082.40 0.8477
1082.50 0.8475
1082.60 0.8474
1082.70 0.8472
1082.80 0.8471
1082.90 0.8469
1083.00 0.8468
1083.10 0.8467
1083.20 0.8465
1083.30 0.8464
1083.40 0.8462
1083.50 0.8461
1083.60 0.846
1083.70 0.8458
1083.80 0.8457
1083.90 0.8456
1084.00 0.8454
1084.10 0.8453
1084.20 0.8451
1084.30 0.845
1084.40 0.8449
1084.50 0.8447
1084.60 0.8446
1084.70 0.8444
1084.80 0.8443
1084.90 0.8442
1085.00 0.844
1085.10 0.8439
1085.20 0.8437
1085.30 0.8436
1085.40 0.8435
1085.50 0.8433
1085.60 0.8432
1085.70 0.8431
1085.80 0.8429
1085.90 0.8428
1086.00 0.8426
1086.10 0.8425
1086.20 0.8424
1086.30 0.8422
1086.40 0.8421
1086.50 0.8419
1086.60 0.8418
1086.70 0.8417
1086.80 0.8415
1086.90 0.8414
1087.00 0.8413
1087.10 0.8411
1087.20 0.841
1087.30 0.8409
1087.40 0.8407
1087.50 0.8406
1087.60 0.8404
1087.70 0.8403
1087.80 0.8402
1087.90 0.84
1088.00 0.8399
1088.10 0.8398
1088.20 0.8396
1088.30 0.8395
1088.40 0.8394
1088.50 0.8392
1088.60 0.8391
1088.70 0.8389
1088.80 0.8388
1088.90 0.8387
1089.00 0.8385
1089.10 0.8384
1089.20 0.8383
1089.30 0.8381
1089.40 0.838
1089.50 0.8379
1089.60 0.8377
1089.70 0.8376
1089.80 0.8374
1089.90 0.8373
1090.00 0.8372
1090.10 0.837
1090.20 0.8369
1090.30 0.8368
1090.40 0.8366
1090.50 0.8365
1090.60 0.8364
1090.70 0.8362
1090.80 0.8361
1090.90 0.836
1091.00 0.8358
1091.10 0.8357
1091.20 0.8356
1091.30 0.8354
1091.40 0.8353
1091.50 0.8352
1091.60 0.835
1091.70 0.8349
1091.80 0.8348
1091.90 0.8346
1092.00 0.8345
1092.10 0.8344
1092.20 0.8342
1092.30 0.8341
1092.40 0.834
1092.50 0.8338
1092.60 0.8337
1092.70 0.8336
1092.80 0.8335
1092.90 0.8333
1093.00 0.8332
1093.10 0.8331
1093.20 0.833
1093.30 0.8328
1093.40 0.8327
1093.50 0.8326
1093.60 0.8324
1093.70 0.8323
1093.80 0.8322
1093.90 0.8321
1094.00 0.8319
1094.10 0.8318
1094.20 0.8317
1094.30 0.8315
1094.40 0.8314
1094.50 0.8313
1094.60 0.8311
1094.70 0.831
1094.80 0.8309
1094.90 0.8307
1095.00 0.8306
1095.10 0.8305
1095.20 0.8303
1095.30 0.8302
1095.40 0.8301
1095.50 0.8299
1095.60 0.8298
1095.70 0.8297
1095.80 0.8295
1095.90 0.8294
1096.00 0.8293
1096.10 0.8291
1096.20 0.829
1096.30 0.8289
1096.40 0.8287
1096.50 0.8286
1096.60 0.8285
1096.70 0.8284
1096.80 0.8282
1096.90 0.8281
1097.00 0.828
1097.10 0.8278
1097.20 0.8277
1097.30 0.8276
1097.40 0.8274
1097.50 0.8273
1097.60 0.8272
1097.70 0.827
1097.80 0.8269
1097.90 0.8268
1098.00 0.8266
1098.10 0.8265
1098.20 0.8264
1098.30 0.8263
1098.40 0.8261
1098.50 0.826
1098.60 0.8259
1098.70 0.8257
1098.80 0.8256
1098.90 0.8255
1099.00 0.8253
1099.10 0.8252
1099.20 0.8251
1099.30 0.8249
1099.40 0.8248
1099.50 0.8247
1099.60 0.8246
1099.70 0.8244
1099.80 0.8243
1099.90 0.8242
1100.00 0.824
1100.10 0.8239
1100.20 0.8238
1100.30 0.8236
1100.40 0.8235
1100.50 0.8234
1100.60 0.8233
1100.70 0.8231
1100.80 0.823
1100.90 0.8229
1101.00 0.8227
1101.10 0.8226
1101.20 0.8225
1101.30 0.8223
1101.40 0.8222
1101.50 0.8221
1101.60 0.822
1101.70 0.8218
1101.80 0.8217
1101.90 0.8216
1102.00 0.8214
1102.10 0.8213
1102.20 0.8212
1102.30 0.821
1102.40 0.8209
1102.50 0.8208
1102.60 0.8207
1102.70 0.8205
1102.80 0.8204
1102.90 0.8203
1103.00 0.8201
1103.10 0.82
1103.20 0.8199
1103.30 0.8198
1103.40 0.8196
1103.50 0.8195
1103.60 0.8194
1103.70 0.8192
1103.80 0.8191
1103.90 0.819
1104.00 0.8189
1104.10 0.8187
1104.20 0.8186
1104.30 0.8185
1104.40 0.8183
1104.50 0.8182
1104.60 0.8181
1104.70 0.818
1104.80 0.8178
1104.90 0.8177
1105.00 0.8176
1105.10 0.8174
1105.20 0.8173
1105.30 0.8172
1105.40 0.8171
1105.50 0.8169
1105.60 0.8168
1105.70 0.8167
1105.80 0.8165
1105.90 0.8164
1106.00 0.8163
1106.10 0.8162
1106.20 0.816
1106.30 0.8159
1106.40 0.8158
1106.50 0.8157
1106.60 0.8155
1106.70 0.8154
1106.80 0.8153
1106.90 0.8152
1107.00 0.815
1107.10 0.8149
1107.20 0.8148
1107.30 0.8146
1107.40 0.8145
1107.50 0.8144
1107.60 0.8143
1107.70 0.8141
1107.80 0.814
1107.90 0.8139
1108.00 0.8138
1108.10 0.8136
1108.20 0.8135
1108.30 0.8134
1108.40 0.8132
1108.50 0.8131
1108.60 0.813
1108.70 0.8129
1108.80 0.8127
1108.90 0.8126
1109.00 0.8125
1109.10 0.8124
1109.20 0.8122
1109.30 0.8121
1109.40 0.812
1109.50 0.8118
1109.60 0.8117
1109.70 0.8116
1109.80 0.8115
1109.90 0.8113
1110.00 0.8112
1110.10 0.8111
1110.20 0.811
1110.30 0.8108
1110.40 0.8107
1110.50 0.8106
1110.60 0.8105
1110.70 0.8103
1110.80 0.8102
1110.90 0.8101
1111.00 0.8099
1111.10 0.8098
1111.20 0.8097
1111.30 0.8096
1111.40 0.8094
1111.50 0.8093
1111.60 0.8092
1111.70 0.8091
1111.80 0.8089
1111.90 0.8088
1112.00 0.8087
1112.10 0.8086
1112.20 0.8084
1112.30 0.8083
1112.40 0.8082
1112.50 0.8081
1112.60 0.8079
1112.70 0.8078
1112.80 0.8077
1112.90 0.8076
1113.00 0.8074
1113.10 0.8073
1113.20 0.8072
1113.30 0.8071
1113.40 0.8069
1113.50 0.8068
1113.60 0.8067
1113.70 0.8066
1113.80 0.8064
1113.90 0.8063
1114.00 0.8062
1114.10 0.8061
1114.20 0.8059
1114.30 0.8058
1114.40 0.8057
1114.50 0.8056
1114.60 0.8054
1114.70 0.8053
1114.80 0.8052
1114.90 0.8051
1115.00 0.8049
1115.10 0.8048
1115.20 0.8047
1115.30 0.8046
1115.40 0.8044
1115.50 0.8043
1115.60 0.8042
1115.70 0.8041
1115.80 0.8039
1115.90 0.8038
1116.00 0.8037
1116.10 0.8036
1116.20 0.8034
1116.30 0.8033
1116.40 0.8032
1116.50 0.8031
1116.60 0.8029
1116.70 0.8028
1116.80 0.8027
1116.90 0.8026
1117.00 0.8025
1117.10 0.8023
1117.20 0.8022
1117.30 0.8021
1117.40 0.802
1117.50 0.8018
1117.60 0.8017
1117.70 0.8016
1117.80 0.8015
1117.90 0.8013
1118.00 0.8012
1118.10 0.8011
1118.20 0.801
1118.30 0.8008
1118.40 0.8007
1118.50 0.8006
1118.60 0.8005
1118.70 0.8003
1118.80 0.8002
1118.90 0.8001
1119.00 0.8
1119.10 0.7998
1119.20 0.7997
1119.30 0.7996
1119.40 0.7995
1119.50 0.7993
1119.60 0.7992
1119.70 0.7991
1119.80 0.799
1119.90 0.7989
1120.00 0.7987
1120.10 0.7986
1120.20 0.7985
1120.30 0.7984
1120.40 0.7982
1120.50 0.7981
1120.60 0.798
1120.70 0.7979
1120.80 0.7977
1120.90 0.7976
1121.00 0.7975
1121.10 0.7974
1121.20 0.7973
1121.30 0.7971
1121.40 0.797
1121.50 0.7969
1121.60 0.7968
1121.70 0.7966
1121.80 0.7965
1121.90 0.7964
1122.00 0.7963
1122.10 0.7961
1122.20 0.796
1122.30 0.7959
1122.40 0.7958
1122.50 0.7956
1122.60 0.7955
1122.70 0.7954
1122.80 0.7953
1122.90 0.7951
1123.00 0.795
1123.10 0.7949
1123.20 0.7948
1123.30 0.7947
1123.40 0.7945
1123.50 0.7944
1123.60 0.7943
1123.70 0.7942
1123.80 0.794
1123.90 0.7939
1124.00 0.7938
1124.10 0.7937
1124.20 0.7935
1124.30 0.7934
1124.40 0.7933
1124.50 0.7932
1124.60 0.793
1124.70 0.7929
1124.80 0.7928
1124.90 0.7927
1125.00 0.7926
1125.10 0.7924
1125.20 0.7923
1125.30 0.7922
1125.40 0.7921
1125.50 0.7919
1125.60 0.7918
1125.70 0.7917
1125.80 0.7916
1125.90 0.7914
1126.00 0.7913
1126.10 0.7912
1126.20 0.7911
1126.30 0.791
1126.40 0.7908
1126.50 0.7907
1126.60 0.7906
1126.70 0.7905
1126.80 0.7903
1126.90 0.7902
1127.00 0.7901
1127.10 0.79
1127.20 0.7898
1127.30 0.7897
1127.40 0.7896
1127.50 0.7895
1127.60 0.7894
1127.70 0.7892
1127.80 0.7891
1127.90 0.789
1128.00 0.7889
1128.10 0.7887
1128.20 0.7886
1128.30 0.7885
1128.40 0.7884
1128.50 0.7883
1128.60 0.7881
1128.70 0.788
1128.80 0.7879
1128.90 0.7878
1129.00 0.7876
1129.10 0.7875
1129.20 0.7874
1129.30 0.7873
1129.40 0.7872
1129.50 0.787
1129.60 0.7869
1129.70 0.7868
1129.80 0.7867
1129.90 0.7865
1130.00 0.7864
1130.10 0.7863
1130.20 0.7862
1130.30 0.7861
1130.40 0.7859
1130.50 0.7858
1130.60 0.7857
1130.70 0.7856
1130.80 0.7855
1130.90 0.7853
1131.00 0.7852
1131.10 0.7851
1131.20 0.785
1131.30 0.7848
1131.40 0.7847
1131.50 0.7846
1131.60 0.7845
1131.70 0.7844
1131.80 0.7842
1131.90 0.7841
1132.00 0.784
1132.10 0.7839
1132.20 0.7837
1132.30 0.7836
1132.40 0.7835
1132.50 0.7834
1132.60 0.7833
1132.70 0.7831
1132.80 0.783
1132.90 0.7829
1133.00 0.7828
1133.10 0.7826
1133.20 0.7825
1133.30 0.7824
1133.40 0.7823
1133.50 0.7821
1133.60 0.782
1133.70 0.7819
1133.80 0.7818
1133.90 0.7816
1134.00 0.7815
1134.10 0.7814
1134.20 0.7813
1134.30 0.7812
1134.40 0.781
1134.50 0.7809
1134.60 0.7808
1134.70 0.7807
1134.80 0.7805
1134.90 0.7804
1135.00 0.7803
1135.10 0.7802
1135.20 0.78
1135.30 0.7799
1135.40 0.7798
1135.50 0.7797
1135.60 0.7796
1135.70 0.7794
1135.80 0.7793
1135.90 0.7792
1136.00 0.7791
1136.10 0.7789
1136.20 0.7788
1136.30 0.7787
1136.40 0.7786
1136.50 0.7785
1136.60 0.7783
1136.70 0.7782
1136.80 0.7781
1136.90 0.778
1137.00 0.7778
1137.10 0.7777
1137.20 0.7776
1137.30 0.7775
1137.40 0.7773
1137.50 0.7772
1137.60 0.7771
1137.70 0.777
1137.80 0.7768
1137.90 0.7767
1138.00 0.7766
1138.10 0.7765
1138.20 0.7763
1138.30 0.7762
1138.40 0.7761
1138.50 0.776
1138.60 0.7758
1138.70 0.7757
1138.80 0.7756
1138.90 0.7755
1139.00 0.7753
1139.10 0.7752
1139.20 0.7751
1139.30 0.775
1139.40 0.7748
1139.50 0.7747
1139.60 0.7746
1139.70 0.7745
1139.80 0.7743
1139.90 0.7742
1140.00 0.7741
1140.10 0.774
1140.20 0.7738
1140.30 0.7737
1140.40 0.7736
1140.50 0.7735
1140.60 0.7733
1140.70 0.7732
1140.80 0.7731
1140.90 0.773
1141.00 0.7728
1141.10 0.7727
1141.20 0.7726
1141.30 0.7725
1141.40 0.7723
1141.50 0.7722
1141.60 0.7721
1141.70 0.772
1141.80 0.7719
1141.90 0.7717
1142.00 0.7716
1142.10 0.7715
1142.20 0.7714
1142.30 0.7712
1142.40 0.7711
1142.50 0.771
1142.60 0.7709
1142.70 0.7707
1142.80 0.7706
1142.90 0.7705
1143.00 0.7704
1143.10 0.7702
1143.20 0.7701
1143.30 0.77
1143.40 0.7699
1143.50 0.7697
1143.60 0.7696
1143.70 0.7695
1143.80 0.7694
1143.90 0.7692
1144.00 0.7691
1144.10 0.769
1144.20 0.7689
1144.30 0.7687
1144.40 0.7686
1144.50 0.7685
1144.60 0.7684
1144.70 0.7682
1144.80 0.7681
1144.90 0.768
1145.00 0.7679
1145.10 0.7677
1145.20 0.7676
1145.30 0.7675
1145.40 0.7674
1145.50 0.7672
1145.60 0.7671
1145.70 0.767
1145.80 0.7669
1145.90 0.7667
1146.00 0.7666
1146.10 0.7665
1146.20 0.7664
1146.30 0.7662
1146.40 0.7661
1146.50 0.766
1146.60 0.7659
1146.70 0.7658
1146.80 0.7656
1146.90 0.7655
1147.00 0.7654
1147.10 0.7653
1147.20 0.7651
1147.30 0.765
1147.40 0.7649
1147.50 0.7647
1147.60 0.7646
1147.70 0.7645
1147.80 0.7644
1147.90 0.7642
1148.00 0.7641
1148.10 0.764
1148.20 0.7639
1148.30 0.7637
1148.40 0.7636
1148.50 0.7635
1148.60 0.7634
1148.70 0.7632
1148.80 0.7631
1148.90 0.763
1149.00 0.7628
1149.10 0.7627
1149.20 0.7626
1149.30 0.7625
1149.40 0.7623
1149.50 0.7622
1149.60 0.7621
1149.70 0.762
1149.80 0.7618
1149.90 0.7617
1150.00 0.7616
1150.10 0.7615
1150.20 0.7613
1150.30 0.7612
1150.40 0.7611
1150.50 0.761
1150.60 0.7608
1150.70 0.7607
1150.80 0.7606
1150.90 0.7605
1151.00 0.7603
1151.10 0.7602
1151.20 0.7601
1151.30 0.76
1151.40 0.7598
1151.50 0.7597
1151.60 0.7596
1151.70 0.7594
1151.80 0.7593
1151.90 0.7592
1152.00 0.7591
1152.10 0.7589
1152.20 0.7588
1152.30 0.7587
1152.40 0.7586
1152.50 0.7584
1152.60 0.7583
1152.70 0.7582
1152.80 0.7581
1152.90 0.7579
1153.00 0.7578
1153.10 0.7577
1153.20 0.7575
1153.30 0.7574
1153.40 0.7573
1153.50 0.7572
1153.60 0.757
1153.70 0.7569
1153.80 0.7568
1153.90 0.7566
1154.00 0.7565
1154.10 0.7564
1154.20 0.7563
1154.30 0.7561
1154.40 0.756
1154.50 0.7559
1154.60 0.7558
1154.70 0.7556
1154.80 0.7555
1154.90 0.7554
1155.00 0.7553
1155.10 0.7551
1155.20 0.755
1155.30 0.7549
1155.40 0.7547
1155.50 0.7546
1155.60 0.7545
1155.70 0.7544
1155.80 0.7542
1155.90 0.7541
1156.00 0.754
1156.10 0.7539
1156.20 0.7537
1156.30 0.7536
1156.40 0.7535
1156.50 0.7534
1156.60 0.7532
1156.70 0.7531
1156.80 0.753
1156.90 0.7528
1157.00 0.7527
1157.10 0.7526
1157.20 0.7525
1157.30 0.7523
1157.40 0.7522
1157.50 0.7521
1157.60 0.7519
1157.70 0.7518
1157.80 0.7517
1157.90 0.7515
1158.00 0.7514
1158.10 0.7513
1158.20 0.7512
1158.30 0.751
1158.40 0.7509
1158.50 0.7508
1158.60 0.7506
1158.70 0.7505
1158.80 0.7504
1158.90 0.7503
1159.00 0.7501
1159.10 0.75
1159.20 0.7499
1159.30 0.7497
1159.40 0.7496
1159.50 0.7495
1159.60 0.7493
1159.70 0.7492
1159.80 0.7491
1159.90 0.749
1160.00 0.7488
1160.10 0.7487
1160.20 0.7486
1160.30 0.7484
1160.40 0.7483
1160.50 0.7482
1160.60 0.7481
1160.70 0.7479
1160.80 0.7478
1160.90 0.7477
1161.00 0.7475
1161.10 0.7474
1161.20 0.7473
1161.30 0.7472
1161.40 0.747
1161.50 0.7469
1161.60 0.7468
1161.70 0.7466
1161.80 0.7465
1161.90 0.7464
1162.00 0.7463
1162.10 0.7461
1162.20 0.746
1162.30 0.7459
1162.40 0.7457
1162.50 0.7456
1162.60 0.7455
1162.70 0.7453
1162.80 0.7452
1162.90 0.7451
1163.00 0.7449
1163.10 0.7448
1163.20 0.7447
1163.30 0.7445
1163.40 0.7444
1163.50 0.7443
1163.60 0.7441
1163.70 0.744
1163.80 0.7439
1163.90 0.7437
1164.00 0.7436
1164.10 0.7435
1164.20 0.7434
1164.30 0.7432
1164.40 0.7431
1164.50 0.743
1164.60 0.7428
1164.70 0.7427
1164.80 0.7426
1164.90 0.7424
1165.00 0.7423
1165.10 0.7422
1165.20 0.742
1165.30 0.7419
1165.40 0.7418
1165.50 0.7416
1165.60 0.7415
1165.70 0.7414
1165.80 0.7413
1165.90 0.7411
1166.00 0.741
1166.10 0.7409
1166.20 0.7407
1166.30 0.7406
1166.40 0.7405
1166.50 0.7403
1166.60 0.7402
1166.70 0.7401
1166.80 0.7399
1166.90 0.7398
1167.00 0.7397
1167.10 0.7396
1167.20 0.7394
1167.30 0.7393
1167.40 0.7392
1167.50 0.739
1167.60 0.7389
1167.70 0.7388
1167.80 0.7386
1167.90 0.7385
1168.00 0.7383
1168.10 0.7382
1168.20 0.7381
1168.30 0.738
1168.40 0.7378
1168.50 0.7377
1168.60 0.7376
1168.70 0.7374
1168.80 0.7373
1168.90 0.7372
1169.00 0.737
1169.10 0.7369
1169.20 0.7368
1169.30 0.7366
1169.40 0.7365
1169.50 0.7364
1169.60 0.7362
1169.70 0.7361
1169.80 0.736
1169.90 0.7358
1170.00 0.7357
1170.10 0.7356
1170.20 0.7354
1170.30 0.7353
1170.40 0.7352
1170.50 0.735
1170.60 0.7349
1170.70 0.7348
1170.80 0.7346
1170.90 0.7345
1171.00 0.7344
1171.10 0.7342
1171.20 0.7341
1171.30 0.734
1171.40 0.7338
1171.50 0.7337
1171.60 0.7336
1171.70 0.7334
1171.80 0.7333
1171.90 0.7332
1172.00 0.733
1172.10 0.7329
1172.20 0.7328
1172.30 0.7326
1172.40 0.7325
1172.50 0.7324
1172.60 0.7322
1172.70 0.7321
1172.80 0.732
1172.90 0.7318
1173.00 0.7317
1173.10 0.7316
1173.20 0.7314
1173.30 0.7313
1173.40 0.7311
1173.50 0.731
1173.60 0.7309
1173.70 0.7307
1173.80 0.7306
1173.90 0.7305
1174.00 0.7303
1174.10 0.7302
1174.20 0.7301
1174.30 0.7299
1174.40 0.7298
1174.50 0.7297
1174.60 0.7295
1174.70 0.7294
1174.80 0.7293
1174.90 0.7291
1175.00 0.729
1175.10 0.7289
1175.20 0.7287
1175.30 0.7286
1175.40 0.7285
1175.50 0.7283
1175.60 0.7282
1175.70 0.728
1175.80 0.7279
1175.90 0.7278
1176.00 0.7276
1176.10 0.7275
1176.20 0.7274
1176.30 0.7272
1176.40 0.7271
1176.50 0.727
1176.60 0.7268
1176.70 0.7267
1176.80 0.7266
1176.90 0.7264
1177.00 0.7263
1177.10 0.7262
1177.20 0.726
1177.30 0.7259
1177.40 0.7258
1177.50 0.7256
1177.60 0.7255
1177.70 0.7254
1177.80 0.7252
1177.90 0.7251
1178.00 0.7249
1178.10 0.7248
1178.20 0.7247
1178.30 0.7245
1178.40 0.7244
1178.50 0.7243
1178.60 0.7241
1178.70 0.724
1178.80 0.7239
1178.90 0.7237
1179.00 0.7236
1179.10 0.7234
1179.20 0.7233
1179.30 0.7232
1179.40 0.723
1179.50 0.7229
1179.60 0.7228
1179.70 0.7226
1179.80 0.7225
1179.90 0.7224
1180.00 0.7222
1180.10 0.7221
1180.20 0.722
1180.30 0.7218
1180.40 0.7217
1180.50 0.7216
1180.60 0.7214
1180.70 0.7213
1180.80 0.7211
1180.90 0.721
1181.00 0.7209
1181.10 0.7207
1181.20 0.7206
1181.30 0.7205
1181.40 0.7203
1181.50 0.7202
1181.60 0.7201
1181.70 0.7199
1181.80 0.7198
1181.90 0.7197
1182.00 0.7195
1182.10 0.7194
1182.20 0.7193
1182.30 0.7191
1182.40 0.719
1182.50 0.7188
1182.60 0.7187
1182.70 0.7186
1182.80 0.7184
1182.90 0.7183
1183.00 0.7181
1183.10 0.718
1183.20 0.7179
1183.30 0.7177
1183.40 0.7176
1183.50 0.7175
1183.60 0.7173
1183.70 0.7172
1183.80 0.717
1183.90 0.7169
1184.00 0.7168
1184.10 0.7166
1184.20 0.7165
1184.30 0.7163
1184.40 0.7162
1184.50 0.7161
1184.60 0.7159
1184.70 0.7158
1184.80 0.7157
1184.90 0.7155
1185.00 0.7154
1185.10 0.7152
1185.20 0.7151
1185.30 0.715
1185.40 0.7148
1185.50 0.7147
1185.60 0.7146
1185.70 0.7144
1185.80 0.7143
1185.90 0.7141
1186.00 0.714
1186.10 0.7139
1186.20 0.7137
1186.30 0.7136
1186.40 0.7135
1186.50 0.7133
1186.60 0.7132
1186.70 0.713
1186.80 0.7129
1186.90 0.7128
1187.00 0.7126
1187.10 0.7125
1187.20 0.7124
1187.30 0.7122
1187.40 0.7121
1187.50 0.7119
1187.60 0.7118
1187.70 0.7117
1187.80 0.7115
1187.90 0.7114
1188.00 0.7112
1188.10 0.7111
1188.20 0.711
1188.30 0.7108
1188.40 0.7107
1188.50 0.7106
1188.60 0.7104
1188.70 0.7103
1188.80 0.7101
1188.90 0.71
1189.00 0.7099
1189.10 0.7097
1189.20 0.7096
1189.30 0.7094
1189.40 0.7093
1189.50 0.7092
1189.60 0.709
1189.70 0.7089
1189.80 0.7088
1189.90 0.7086
1190.00 0.7085
1190.10 0.7083
1190.20 0.7082
1190.30 0.7081
1190.40 0.7079
1190.50 0.7078
1190.60 0.7077
1190.70 0.7075
1190.80 0.7074
1190.90 0.7072
1191.00 0.7071
1191.10 0.707
1191.20 0.7068
1191.30 0.7067
1191.40 0.7066
1191.50 0.7064
1191.60 0.7063
1191.70 0.7061
1191.80 0.706
1191.90 0.7059
1192.00 0.7057
1192.10 0.7056
1192.20 0.7055
1192.30 0.7053
1192.40 0.7052
1192.50 0.705
1192.60 0.7049
1192.70 0.7048
1192.80 0.7046
1192.90 0.7045
1193.00 0.7043
1193.10 0.7042
1193.20 0.7041
1193.30 0.7039
1193.40 0.7038
1193.50 0.7036
1193.60 0.7035
1193.70 0.7034
1193.80 0.7032
1193.90 0.7031
1194.00 0.7029
1194.10 0.7028
1194.20 0.7027
1194.30 0.7025
1194.40 0.7024
1194.50 0.7022
1194.60 0.7021
1194.70 0.702
1194.80 0.7018
1194.90 0.7017
1195.00 0.7015
1195.10 0.7014
1195.20 0.7013
1195.30 0.7011
1195.40 0.701
1195.50 0.7009
1195.60 0.7007
1195.70 0.7006
1195.80 0.7004
1195.90 0.7003
1196.00 0.7002
1196.10 0.7
1196.20 0.6999
1196.30 0.6997
1196.40 0.6996
1196.50 0.6995
1196.60 0.6993
1196.70 0.6992
1196.80 0.699
1196.90 0.6989
1197.00 0.6988
1197.10 0.6986
1197.20 0.6985
1197.30 0.6984
1197.40 0.6982
1197.50 0.6981
1197.60 0.6979
1197.70 0.6978
1197.80 0.6976
1197.90 0.6975
1198.00 0.6974
1198.10 0.6972
1198.20 0.6971
1198.30 0.6969
1198.40 0.6968
1198.50 0.6967
1198.60 0.6965
1198.70 0.6964
1198.80 0.6962
1198.90 0.6961
1199.00 0.696
1199.10 0.6958
1199.20 0.6957
1199.30 0.6955
1199.40 0.6954
1199.50 0.6953
1199.60 0.6951
1199.70 0.695
1199.80 0.6948
1199.90 0.6947
1200.00 0
