# Version 2.1 - nm, norm@500 to 1, cut digits, bergeron_35000_65.dat_35000
# Wavelength(nm)  Flambda(ergs/cm^s/s/nm)
300.00 5.486
300.10 5.48
300.20 5.474
300.30 5.467
300.40 5.461
300.50 5.455
300.60 5.448
300.70 5.442
300.80 5.436
300.90 5.429
301.00 5.423
301.10 5.417
301.20 5.411
301.30 5.404
301.40 5.398
301.50 5.392
301.60 5.386
301.70 5.379
301.80 5.373
301.90 5.367
302.00 5.361
302.10 5.355
302.20 5.349
302.30 5.342
302.40 5.336
302.50 5.33
302.60 5.324
302.70 5.318
302.80 5.312
302.90 5.306
303.00 5.299
303.10 5.293
303.20 5.287
303.30 5.281
303.40 5.275
303.50 5.269
303.60 5.263
303.70 5.257
303.80 5.251
303.90 5.245
304.00 5.239
304.10 5.233
304.20 5.227
304.30 5.221
304.40 5.215
304.50 5.209
304.60 5.203
304.70 5.197
304.80 5.191
304.90 5.185
305.00 5.179
305.10 5.173
305.20 5.168
305.30 5.162
305.40 5.156
305.50 5.15
305.60 5.144
305.70 5.138
305.80 5.132
305.90 5.126
306.00 5.121
306.10 5.115
306.20 5.109
306.30 5.103
306.40 5.097
306.50 5.091
306.60 5.086
306.70 5.08
306.80 5.074
306.90 5.068
307.00 5.063
307.10 5.057
307.20 5.051
307.30 5.045
307.40 5.04
307.50 5.034
307.60 5.028
307.70 5.023
307.80 5.017
307.90 5.011
308.00 5.005
308.10 5
308.20 4.994
308.30 4.989
308.40 4.983
308.50 4.977
308.60 4.972
308.70 4.966
308.80 4.96
308.90 4.955
309.00 4.949
309.10 4.944
309.20 4.938
309.30 4.932
309.40 4.927
309.50 4.921
309.60 4.916
309.70 4.91
309.80 4.905
309.90 4.899
310.00 4.894
310.10 4.888
310.20 4.883
310.30 4.877
310.40 4.872
310.50 4.866
310.60 4.861
310.70 4.855
310.80 4.85
310.90 4.844
311.00 4.839
311.10 4.833
311.20 4.828
311.30 4.823
311.40 4.817
311.50 4.812
311.60 4.806
311.70 4.801
311.80 4.796
311.90 4.79
312.00 4.785
312.10 4.78
312.20 4.774
312.30 4.769
312.40 4.764
312.50 4.758
312.60 4.753
312.70 4.748
312.80 4.742
312.90 4.737
313.00 4.732
313.10 4.726
313.20 4.721
313.30 4.716
313.40 4.711
313.50 4.705
313.60 4.7
313.70 4.695
313.80 4.69
313.90 4.684
314.00 4.679
314.10 4.674
314.20 4.669
314.30 4.664
314.40 4.658
314.50 4.653
314.60 4.648
314.70 4.643
314.80 4.638
314.90 4.633
315.00 4.627
315.10 4.622
315.20 4.617
315.30 4.612
315.40 4.607
315.50 4.602
315.60 4.597
315.70 4.592
315.80 4.587
315.90 4.581
316.00 4.576
316.10 4.571
316.20 4.566
316.30 4.561
316.40 4.556
316.50 4.551
316.60 4.546
316.70 4.541
316.80 4.536
316.90 4.531
317.00 4.526
317.10 4.521
317.20 4.516
317.30 4.511
317.40 4.506
317.50 4.501
317.60 4.496
317.70 4.491
317.80 4.486
317.90 4.481
318.00 4.476
318.10 4.472
318.20 4.467
318.30 4.462
318.40 4.457
318.50 4.452
318.60 4.447
318.70 4.442
318.80 4.437
318.90 4.432
319.00 4.428
319.10 4.423
319.20 4.418
319.30 4.413
319.40 4.408
319.50 4.403
319.60 4.398
319.70 4.394
319.80 4.389
319.90 4.384
320.00 4.379
320.10 4.374
320.20 4.37
320.30 4.365
320.40 4.36
320.50 4.355
320.60 4.351
320.70 4.346
320.80 4.341
320.90 4.336
321.00 4.332
321.10 4.327
321.20 4.322
321.30 4.317
321.40 4.313
321.50 4.308
321.60 4.303
321.70 4.299
321.80 4.294
321.90 4.289
322.00 4.285
322.10 4.28
322.20 4.275
322.30 4.271
322.40 4.266
322.50 4.261
322.60 4.257
322.70 4.252
322.80 4.248
322.90 4.243
323.00 4.238
323.10 4.234
323.20 4.229
323.30 4.225
323.40 4.22
323.50 4.215
323.60 4.211
323.70 4.206
323.80 4.202
323.90 4.197
324.00 4.193
324.10 4.188
324.20 4.184
324.30 4.179
324.40 4.175
324.50 4.17
324.60 4.165
324.70 4.161
324.80 4.157
324.90 4.152
325.00 4.148
325.10 4.143
325.20 4.139
325.30 4.134
325.40 4.13
325.50 4.125
325.60 4.121
325.70 4.116
325.80 4.112
325.90 4.107
326.00 4.103
326.10 4.099
326.20 4.094
326.30 4.09
326.40 4.085
326.50 4.081
326.60 4.077
326.70 4.072
326.80 4.068
326.90 4.064
327.00 4.059
327.10 4.055
327.20 4.05
327.30 4.046
327.40 4.042
327.50 4.037
327.60 4.033
327.70 4.029
327.80 4.025
327.90 4.02
328.00 4.016
328.10 4.012
328.20 4.007
328.30 4.003
328.40 3.999
328.50 3.994
328.60 3.99
328.70 3.986
328.80 3.982
328.90 3.977
329.00 3.973
329.10 3.969
329.20 3.965
329.30 3.96
329.40 3.956
329.50 3.952
329.60 3.948
329.70 3.944
329.80 3.939
329.90 3.935
330.00 3.931
330.10 3.927
330.20 3.923
330.30 3.919
330.40 3.914
330.50 3.91
330.60 3.906
330.70 3.902
330.80 3.898
330.90 3.894
331.00 3.89
331.10 3.885
331.20 3.881
331.30 3.877
331.40 3.873
331.50 3.869
331.60 3.865
331.70 3.861
331.80 3.857
331.90 3.853
332.00 3.848
332.10 3.844
332.20 3.84
332.30 3.836
332.40 3.832
332.50 3.828
332.60 3.824
332.70 3.82
332.80 3.816
332.90 3.812
333.00 3.808
333.10 3.804
333.20 3.8
333.30 3.796
333.40 3.792
333.50 3.788
333.60 3.784
333.70 3.78
333.80 3.776
333.90 3.772
334.00 3.768
334.10 3.764
334.20 3.76
334.30 3.756
334.40 3.752
334.50 3.748
334.60 3.744
334.70 3.74
334.80 3.736
334.90 3.733
335.00 3.729
335.10 3.725
335.20 3.721
335.30 3.717
335.40 3.713
335.50 3.709
335.60 3.705
335.70 3.701
335.80 3.697
335.90 3.694
336.00 3.69
336.10 3.686
336.20 3.682
336.30 3.678
336.40 3.674
336.50 3.67
336.60 3.667
336.70 3.663
336.80 3.659
336.90 3.655
337.00 3.651
337.10 3.648
337.20 3.644
337.30 3.64
337.40 3.636
337.50 3.632
337.60 3.629
337.70 3.625
337.80 3.621
337.90 3.617
338.00 3.613
338.10 3.61
338.20 3.606
338.30 3.602
338.40 3.598
338.50 3.595
338.60 3.591
338.70 3.587
338.80 3.583
338.90 3.58
339.00 3.576
339.10 3.572
339.20 3.569
339.30 3.565
339.40 3.561
339.50 3.557
339.60 3.554
339.70 3.55
339.80 3.546
339.90 3.543
340.00 3.539
340.10 3.535
340.20 3.532
340.30 3.528
340.40 3.524
340.50 3.521
340.60 3.517
340.70 3.514
340.80 3.51
340.90 3.506
341.00 3.503
341.10 3.499
341.20 3.495
341.30 3.492
341.40 3.488
341.50 3.485
341.60 3.481
341.70 3.477
341.80 3.474
341.90 3.47
342.00 3.467
342.10 3.463
342.20 3.46
342.30 3.456
342.40 3.452
342.50 3.449
342.60 3.445
342.70 3.442
342.80 3.438
342.90 3.435
343.00 3.431
343.10 3.428
343.20 3.424
343.30 3.421
343.40 3.417
343.50 3.414
343.60 3.41
343.70 3.407
343.80 3.403
343.90 3.4
344.00 3.396
344.10 3.393
344.20 3.389
344.30 3.386
344.40 3.382
344.50 3.379
344.60 3.375
344.70 3.372
344.80 3.368
344.90 3.365
345.00 3.362
345.10 3.358
345.20 3.355
345.30 3.351
345.40 3.348
345.50 3.344
345.60 3.341
345.70 3.338
345.80 3.334
345.90 3.331
346.00 3.327
346.10 3.324
346.20 3.321
346.30 3.317
346.40 3.314
346.50 3.31
346.60 3.307
346.70 3.304
346.80 3.3
346.90 3.297
347.00 3.294
347.10 3.29
347.20 3.287
347.30 3.284
347.40 3.28
347.50 3.277
347.60 3.274
347.70 3.27
347.80 3.267
347.90 3.264
348.00 3.26
348.10 3.257
348.20 3.254
348.30 3.25
348.40 3.247
348.50 3.244
348.60 3.241
348.70 3.237
348.80 3.234
348.90 3.231
349.00 3.227
349.10 3.224
349.20 3.221
349.30 3.218
349.40 3.214
349.50 3.211
349.60 3.208
349.70 3.205
349.80 3.201
349.90 3.198
350.00 3.195
350.10 3.192
350.20 3.189
350.30 3.185
350.40 3.182
350.50 3.179
350.60 3.176
350.70 3.173
350.80 3.169
350.90 3.166
351.00 3.163
351.10 3.16
351.20 3.157
351.30 3.153
351.40 3.15
351.50 3.147
351.60 3.144
351.70 3.141
351.80 3.138
351.90 3.134
352.00 3.131
352.10 3.128
352.20 3.125
352.30 3.122
352.40 3.119
352.50 3.116
352.60 3.112
352.70 3.109
352.80 3.106
352.90 3.103
353.00 3.1
353.10 3.097
353.20 3.094
353.30 3.091
353.40 3.088
353.50 3.085
353.60 3.081
353.70 3.078
353.80 3.075
353.90 3.072
354.00 3.069
354.10 3.066
354.20 3.063
354.30 3.06
354.40 3.057
354.50 3.054
354.60 3.051
354.70 3.048
354.80 3.045
354.90 3.042
355.00 3.039
355.10 3.036
355.20 3.033
355.30 3.03
355.40 3.027
355.50 3.024
355.60 3.021
355.70 3.018
355.80 3.015
355.90 3.012
356.00 3.009
356.10 3.006
356.20 3.003
356.30 3
356.40 2.997
356.50 2.994
356.60 2.991
356.70 2.988
356.80 2.985
356.90 2.982
357.00 2.979
357.10 2.976
357.20 2.973
357.30 2.97
357.40 2.967
357.50 2.964
357.60 2.961
357.70 2.958
357.80 2.955
357.90 2.952
358.00 2.949
358.10 2.947
358.20 2.944
358.30 2.941
358.40 2.938
358.50 2.935
358.60 2.932
358.70 2.929
358.80 2.926
358.90 2.923
359.00 2.921
359.10 2.918
359.20 2.915
359.30 2.912
359.40 2.909
359.50 2.906
359.60 2.903
359.70 2.9
359.80 2.898
359.90 2.895
360.00 2.892
360.10 2.889
360.20 2.886
360.30 2.883
360.40 2.881
360.50 2.878
360.60 2.875
360.70 2.872
360.80 2.869
360.90 2.866
361.00 2.864
361.10 2.861
361.20 2.858
361.30 2.855
361.40 2.852
361.50 2.85
361.60 2.847
361.70 2.844
361.80 2.841
361.90 2.838
362.00 2.836
362.10 2.833
362.20 2.83
362.30 2.827
362.40 2.825
362.50 2.822
362.60 2.819
362.70 2.816
362.80 2.814
362.90 2.811
363.00 2.808
363.10 2.805
363.20 2.803
363.30 2.8
363.40 2.797
363.50 2.794
363.60 2.792
363.70 2.789
363.80 2.786
363.90 2.784
364.00 2.781
364.10 2.778
364.20 2.775
364.30 2.773
364.40 2.77
364.50 2.767
364.60 2.765
364.70 2.762
364.80 2.759
364.90 2.757
365.00 2.754
365.10 2.751
365.20 2.749
365.30 2.746
365.40 2.743
365.50 2.741
365.60 2.738
365.70 2.735
365.80 2.733
365.90 2.73
366.00 2.727
366.10 2.724
366.20 2.721
366.30 2.719
366.40 2.716
366.50 2.713
366.60 2.71
366.70 2.707
366.80 2.704
366.90 2.701
367.00 2.698
367.10 2.695
367.20 2.693
367.30 2.69
367.40 2.687
367.50 2.684
367.60 2.681
367.70 2.678
367.80 2.675
367.90 2.673
368.00 2.67
368.10 2.667
368.20 2.664
368.30 2.661
368.40 2.659
368.50 2.656
368.60 2.653
368.70 2.65
368.80 2.648
368.90 2.645
369.00 2.642
369.10 2.639
369.20 2.637
369.30 2.634
369.40 2.631
369.50 2.628
369.60 2.626
369.70 2.623
369.80 2.62
369.90 2.617
370.00 2.615
370.10 2.612
370.20 2.609
370.30 2.607
370.40 2.604
370.50 2.602
370.60 2.599
370.70 2.597
370.80 2.594
370.90 2.592
371.00 2.589
371.10 2.587
371.20 2.584
371.30 2.582
371.40 2.579
371.50 2.577
371.60 2.574
371.70 2.572
371.80 2.569
371.90 2.567
372.00 2.564
372.10 2.562
372.20 2.56
372.30 2.558
372.40 2.556
372.50 2.554
372.60 2.552
372.70 2.55
372.80 2.548
372.90 2.546
373.00 2.544
373.10 2.542
373.20 2.54
373.30 2.538
373.40 2.536
373.50 2.534
373.60 2.533
373.70 2.531
373.80 2.529
373.90 2.527
374.00 2.525
374.10 2.523
374.20 2.521
374.30 2.52
374.40 2.518
374.50 2.516
374.60 2.514
374.70 2.513
374.80 2.511
374.90 2.509
375.00 2.508
375.10 2.506
375.20 2.504
375.30 2.503
375.40 2.501
375.50 2.499
375.60 2.498
375.70 2.496
375.80 2.494
375.90 2.492
376.00 2.491
376.10 2.486
376.20 2.481
376.30 2.476
376.40 2.471
376.50 2.467
376.60 2.462
376.70 2.457
376.80 2.452
376.90 2.447
377.00 2.443
377.10 2.445
377.20 2.447
377.30 2.449
377.40 2.451
377.50 2.453
377.60 2.455
377.70 2.458
377.80 2.46
377.90 2.462
378.00 2.464
378.10 2.46
378.20 2.455
378.30 2.451
378.40 2.446
378.50 2.442
378.60 2.437
378.70 2.433
378.80 2.428
378.90 2.424
379.00 2.419
379.10 2.413
379.20 2.406
379.30 2.399
379.40 2.392
379.50 2.385
379.60 2.378
379.70 2.371
379.80 2.364
379.90 2.358
380.00 2.351
380.10 2.359
380.20 2.367
380.30 2.374
380.40 2.382
380.50 2.39
380.60 2.398
380.70 2.406
380.80 2.414
380.90 2.422
381.00 2.43
381.10 2.43
381.20 2.431
381.30 2.432
381.40 2.433
381.50 2.434
381.60 2.431
381.70 2.428
381.80 2.423
381.90 2.417
382.00 2.409
382.10 2.4
382.20 2.391
382.30 2.373
382.40 2.355
382.50 2.337
382.60 2.32
382.70 2.302
382.80 2.284
382.90 2.267
383.00 2.249
383.10 2.232
383.20 2.214
383.30 2.19
383.40 2.167
383.50 2.147
383.60 2.15
383.70 2.169
383.80 2.189
383.90 2.21
384.00 2.231
384.10 2.251
384.20 2.27
384.30 2.288
384.40 2.304
384.50 2.319
384.60 2.333
384.70 2.346
384.80 2.357
384.90 2.368
385.00 2.377
385.10 2.385
385.20 2.391
385.30 2.398
385.40 2.402
385.50 2.406
385.60 2.41
385.70 2.412
385.80 2.413
385.90 2.413
386.00 2.413
386.10 2.411
386.20 2.409
386.30 2.406
386.40 2.402
386.50 2.397
386.60 2.391
386.70 2.384
386.80 2.376
386.90 2.367
387.00 2.356
387.10 2.345
387.20 2.332
387.30 2.318
387.40 2.303
387.50 2.286
387.60 2.268
387.70 2.248
387.80 2.226
387.90 2.203
388.00 2.178
388.10 2.15
388.20 2.121
388.30 2.09
388.40 2.057
388.50 2.022
388.60 1.987
388.70 1.95
388.80 1.921
388.90 1.897
389.00 1.916
389.10 1.941
389.20 1.974
389.30 2.007
389.40 2.038
389.50 2.069
389.60 2.096
389.70 2.122
389.80 2.147
389.90 2.169
390.00 2.189
390.10 2.209
390.20 2.225
390.30 2.241
390.40 2.256
390.50 2.268
390.60 2.28
390.70 2.291
390.80 2.301
390.90 2.309
391.00 2.317
391.10 2.324
391.20 2.33
391.30 2.336
391.40 2.34
391.50 2.344
391.60 2.348
391.70 2.351
391.80 2.353
391.90 2.355
392.00 2.357
392.10 2.358
392.20 2.359
392.30 2.359
392.40 2.359
392.50 2.358
392.60 2.357
392.70 2.356
392.80 2.355
392.90 2.353
393.00 2.351
393.10 2.348
393.20 2.345
393.30 2.342
393.40 2.339
393.50 2.335
393.60 2.33
393.70 2.326
393.80 2.321
393.90 2.315
394.00 2.309
394.10 2.303
394.20 2.296
394.30 2.288
394.40 2.28
394.50 2.271
394.60 2.262
394.70 2.251
394.80 2.24
394.90 2.228
395.00 2.215
395.10 2.201
395.20 2.186
395.30 2.17
395.40 2.152
395.50 2.134
395.60 2.113
395.70 2.091
395.80 2.067
395.90 2.041
396.00 2.013
396.10 1.984
396.20 1.951
396.30 1.916
396.40 1.88
396.50 1.84
396.60 1.798
396.70 1.754
396.80 1.708
396.90 1.661
397.00 1.614
397.10 1.654
397.20 1.696
397.30 1.74
397.40 1.781
397.50 1.82
397.60 1.857
397.70 1.89
397.80 1.922
397.90 1.951
398.00 1.977
398.10 2.002
398.20 2.024
398.30 2.044
398.40 2.063
398.50 2.08
398.60 2.095
398.70 2.109
398.80 2.122
398.90 2.133
399.00 2.143
399.10 2.153
399.20 2.161
399.30 2.169
399.40 2.176
399.50 2.181
399.60 2.187
399.70 2.192
399.80 2.196
399.90 2.2
400.00 2.203
400.10 2.206
400.20 2.208
400.30 2.21
400.40 2.212
400.50 2.214
400.60 2.215
400.70 2.216
400.80 2.217
400.90 2.217
401.00 2.218
401.10 2.218
401.20 2.218
401.30 2.218
401.40 2.217
401.50 2.217
401.60 2.216
401.70 2.216
401.80 2.215
401.90 2.214
402.00 2.213
402.10 2.212
402.20 2.211
402.30 2.21
402.40 2.208
402.50 2.207
402.60 2.206
402.70 2.204
402.80 2.203
402.90 2.201
403.00 2.199
403.10 2.198
403.20 2.196
403.30 2.194
403.40 2.192
403.50 2.19
403.60 2.188
403.70 2.186
403.80 2.184
403.90 2.182
404.00 2.18
404.10 2.178
404.20 2.176
404.30 2.173
404.40 2.171
404.50 2.169
404.60 2.166
404.70 2.164
404.80 2.161
404.90 2.158
405.00 2.156
405.10 2.153
405.20 2.15
405.30 2.147
405.40 2.144
405.50 2.141
405.60 2.137
405.70 2.134
405.80 2.13
405.90 2.127
406.00 2.123
406.10 2.119
406.20 2.115
406.30 2.111
406.40 2.106
406.50 2.101
406.60 2.096
406.70 2.091
406.80 2.086
406.90 2.08
407.00 2.074
407.10 2.068
407.20 2.061
407.30 2.054
407.40 2.046
407.50 2.038
407.60 2.029
407.70 2.02
407.80 2.01
407.90 2
408.00 1.988
408.10 1.977
408.20 1.963
408.30 1.949
408.40 1.935
408.50 1.918
408.60 1.901
408.70 1.882
408.80 1.861
408.90 1.839
409.00 1.816
409.10 1.79
409.20 1.762
409.30 1.733
409.40 1.7
409.50 1.665
409.60 1.628
409.70 1.587
409.80 1.543
409.90 1.497
410.00 1.446
410.10 1.404
410.20 1.37
410.30 1.42
410.40 1.468
410.50 1.515
410.60 1.556
410.70 1.595
410.80 1.632
410.90 1.664
411.00 1.695
411.10 1.723
411.20 1.748
411.30 1.771
411.40 1.793
411.50 1.812
411.60 1.829
411.70 1.846
411.80 1.86
411.90 1.873
412.00 1.885
412.10 1.895
412.20 1.905
412.30 1.914
412.40 1.922
412.50 1.929
412.60 1.935
412.70 1.941
412.80 1.946
412.90 1.951
413.00 1.955
413.10 1.958
413.20 1.961
413.30 1.964
413.40 1.966
413.50 1.969
413.60 1.97
413.70 1.972
413.80 1.973
413.90 1.974
414.00 1.975
414.10 1.976
414.20 1.976
414.30 1.977
414.40 1.977
414.50 1.977
414.60 1.977
414.70 1.977
414.80 1.976
414.90 1.976
415.00 1.975
415.10 1.975
415.20 1.974
415.30 1.973
415.40 1.973
415.50 1.972
415.60 1.971
415.70 1.97
415.80 1.969
415.90 1.968
416.00 1.967
416.10 1.966
416.20 1.965
416.30 1.964
416.40 1.962
416.50 1.961
416.60 1.96
416.70 1.959
416.80 1.957
416.90 1.956
417.00 1.955
417.10 1.953
417.20 1.952
417.30 1.95
417.40 1.949
417.50 1.948
417.60 1.946
417.70 1.945
417.80 1.943
417.90 1.942
418.00 1.94
418.10 1.939
418.20 1.937
418.30 1.936
418.40 1.934
418.50 1.933
418.60 1.931
418.70 1.93
418.80 1.928
418.90 1.927
419.00 1.925
419.10 1.923
419.20 1.922
419.30 1.92
419.40 1.919
419.50 1.917
419.60 1.916
419.70 1.914
419.80 1.912
419.90 1.911
420.00 1.909
420.10 1.908
420.20 1.906
420.30 1.904
420.40 1.903
420.50 1.901
420.60 1.9
420.70 1.898
420.80 1.896
420.90 1.895
421.00 1.893
421.10 1.891
421.20 1.89
421.30 1.888
421.40 1.887
421.50 1.885
421.60 1.883
421.70 1.882
421.80 1.88
421.90 1.878
422.00 1.877
422.10 1.875
422.20 1.873
422.30 1.872
422.40 1.87
422.50 1.868
422.60 1.867
422.70 1.865
422.80 1.864
422.90 1.862
423.00 1.86
423.10 1.859
423.20 1.857
423.30 1.855
423.40 1.854
423.50 1.852
423.60 1.85
423.70 1.849
423.80 1.847
423.90 1.845
424.00 1.844
424.10 1.842
424.20 1.84
424.30 1.838
424.40 1.837
424.50 1.835
424.60 1.833
424.70 1.832
424.80 1.83
424.90 1.828
425.00 1.827
425.10 1.825
425.20 1.823
425.30 1.821
425.40 1.82
425.50 1.818
425.60 1.816
425.70 1.814
425.80 1.813
425.90 1.811
426.00 1.809
426.10 1.807
426.20 1.806
426.30 1.804
426.40 1.802
426.50 1.8
426.60 1.798
426.70 1.796
426.80 1.795
426.90 1.793
427.00 1.791
427.10 1.789
427.20 1.787
427.30 1.785
427.40 1.783
427.50 1.781
427.60 1.779
427.70 1.777
427.80 1.775
427.90 1.773
428.00 1.771
428.10 1.769
428.20 1.767
428.30 1.765
428.40 1.763
428.50 1.76
428.60 1.758
428.70 1.756
428.80 1.753
428.90 1.751
429.00 1.749
429.10 1.746
429.20 1.743
429.30 1.741
429.40 1.738
429.50 1.735
429.60 1.733
429.70 1.73
429.80 1.727
429.90 1.723
430.00 1.72
430.10 1.717
430.20 1.713
430.30 1.71
430.40 1.706
430.50 1.702
430.60 1.698
430.70 1.693
430.80 1.689
430.90 1.684
431.00 1.679
431.10 1.674
431.20 1.668
431.30 1.662
431.40 1.655
431.50 1.649
431.60 1.641
431.70 1.633
431.80 1.625
431.90 1.616
432.00 1.606
432.10 1.596
432.20 1.584
432.30 1.572
432.40 1.559
432.50 1.545
432.60 1.53
432.70 1.513
432.80 1.495
432.90 1.475
433.00 1.455
433.10 1.431
433.20 1.406
433.30 1.379
433.40 1.349
433.50 1.317
433.60 1.283
433.70 1.245
433.80 1.204
433.90 1.161
434.00 1.103
434.10 1.103
434.20 1.162
434.30 1.203
434.40 1.241
434.50 1.277
434.60 1.309
434.70 1.338
434.80 1.366
434.90 1.39
435.00 1.412
435.10 1.433
435.20 1.451
435.30 1.468
435.40 1.483
435.50 1.496
435.60 1.509
435.70 1.52
435.80 1.53
435.90 1.539
436.00 1.548
436.10 1.555
436.20 1.562
436.30 1.568
436.40 1.573
436.50 1.578
436.60 1.582
436.70 1.586
436.80 1.589
436.90 1.592
437.00 1.595
437.10 1.597
437.20 1.599
437.30 1.601
437.40 1.603
437.50 1.604
437.60 1.605
437.70 1.606
437.80 1.607
437.90 1.608
438.00 1.608
438.10 1.608
438.20 1.609
438.30 1.609
438.40 1.609
438.50 1.609
438.60 1.609
438.70 1.608
438.80 1.608
438.90 1.608
439.00 1.607
439.10 1.607
439.20 1.606
439.30 1.606
439.40 1.605
439.50 1.604
439.60 1.604
439.70 1.603
439.80 1.602
439.90 1.601
440.00 1.601
440.10 1.6
440.20 1.599
440.30 1.598
440.40 1.597
440.50 1.596
440.60 1.595
440.70 1.594
440.80 1.593
440.90 1.592
441.00 1.591
441.10 1.59
441.20 1.589
441.30 1.588
441.40 1.587
441.50 1.586
441.60 1.585
441.70 1.583
441.80 1.582
441.90 1.581
442.00 1.58
442.10 1.579
442.20 1.578
442.30 1.577
442.40 1.575
442.50 1.574
442.60 1.573
442.70 1.572
442.80 1.571
442.90 1.57
443.00 1.568
443.10 1.567
443.20 1.566
443.30 1.565
443.40 1.564
443.50 1.562
443.60 1.561
443.70 1.56
443.80 1.559
443.90 1.558
444.00 1.556
444.10 1.555
444.20 1.554
444.30 1.553
444.40 1.551
444.50 1.55
444.60 1.549
444.70 1.548
444.80 1.546
444.90 1.545
445.00 1.544
445.10 1.543
445.20 1.542
445.30 1.54
445.40 1.539
445.50 1.538
445.60 1.537
445.70 1.535
445.80 1.534
445.90 1.533
446.00 1.532
446.10 1.53
446.20 1.529
446.30 1.528
446.40 1.527
446.50 1.526
446.60 1.524
446.70 1.523
446.80 1.522
446.90 1.521
447.00 1.519
447.10 1.518
447.20 1.517
447.30 1.516
447.40 1.514
447.50 1.513
447.60 1.512
447.70 1.511
447.80 1.51
447.90 1.508
448.00 1.507
448.10 1.506
448.20 1.505
448.30 1.503
448.40 1.502
448.50 1.501
448.60 1.5
448.70 1.498
448.80 1.497
448.90 1.496
449.00 1.495
449.10 1.494
449.20 1.492
449.30 1.491
449.40 1.49
449.50 1.489
449.60 1.487
449.70 1.486
449.80 1.485
449.90 1.484
450.00 1.483
450.10 1.481
450.20 1.48
450.30 1.479
450.40 1.478
450.50 1.477
450.60 1.475
450.70 1.474
450.80 1.473
450.90 1.472
451.00 1.471
451.10 1.469
451.20 1.468
451.30 1.467
451.40 1.466
451.50 1.465
451.60 1.463
451.70 1.462
451.80 1.461
451.90 1.46
452.00 1.459
452.10 1.457
452.20 1.456
452.30 1.455
452.40 1.454
452.50 1.453
452.60 1.451
452.70 1.45
452.80 1.449
452.90 1.448
453.00 1.447
453.10 1.445
453.20 1.444
453.30 1.443
453.40 1.442
453.50 1.441
453.60 1.44
453.70 1.438
453.80 1.437
453.90 1.436
454.00 1.435
454.10 1.434
454.20 1.433
454.30 1.431
454.40 1.43
454.50 1.429
454.60 1.428
454.70 1.427
454.80 1.426
454.90 1.424
455.00 1.423
455.10 1.422
455.20 1.421
455.30 1.42
455.40 1.419
455.50 1.417
455.60 1.416
455.70 1.415
455.80 1.414
455.90 1.413
456.00 1.412
456.10 1.411
456.20 1.409
456.30 1.408
456.40 1.407
456.50 1.406
456.60 1.405
456.70 1.404
456.80 1.402
456.90 1.401
457.00 1.4
457.10 1.399
457.20 1.398
457.30 1.397
457.40 1.396
457.50 1.395
457.60 1.393
457.70 1.392
457.80 1.391
457.90 1.39
458.00 1.389
458.10 1.388
458.20 1.387
458.30 1.385
458.40 1.384
458.50 1.383
458.60 1.382
458.70 1.381
458.80 1.38
458.90 1.379
459.00 1.378
459.10 1.376
459.20 1.375
459.30 1.374
459.40 1.373
459.50 1.372
459.60 1.371
459.70 1.37
459.80 1.369
459.90 1.368
460.00 1.366
460.10 1.365
460.20 1.364
460.30 1.363
460.40 1.362
460.50 1.361
460.60 1.36
460.70 1.359
460.80 1.358
460.90 1.357
461.00 1.355
461.10 1.354
461.20 1.353
461.30 1.352
461.40 1.351
461.50 1.35
461.60 1.349
461.70 1.348
461.80 1.347
461.90 1.346
462.00 1.344
462.10 1.343
462.20 1.342
462.30 1.341
462.40 1.34
462.50 1.339
462.60 1.338
462.70 1.337
462.80 1.336
462.90 1.335
463.00 1.334
463.10 1.333
463.20 1.332
463.30 1.33
463.40 1.329
463.50 1.328
463.60 1.327
463.70 1.326
463.80 1.325
463.90 1.324
464.00 1.323
464.10 1.322
464.20 1.321
464.30 1.32
464.40 1.319
464.50 1.318
464.60 1.317
464.70 1.315
464.80 1.314
464.90 1.313
465.00 1.312
465.10 1.311
465.20 1.31
465.30 1.309
465.40 1.308
465.50 1.307
465.60 1.306
465.70 1.305
465.80 1.304
465.90 1.303
466.00 1.302
466.10 1.301
466.20 1.3
466.30 1.299
466.40 1.298
466.50 1.297
466.60 1.295
466.70 1.294
466.80 1.293
466.90 1.292
467.00 1.291
467.10 1.29
467.20 1.289
467.30 1.288
467.40 1.287
467.50 1.286
467.60 1.285
467.70 1.284
467.80 1.283
467.90 1.282
468.00 1.281
468.10 1.28
468.20 1.279
468.30 1.278
468.40 1.277
468.50 1.276
468.60 1.275
468.70 1.274
468.80 1.273
468.90 1.272
469.00 1.271
469.10 1.27
469.20 1.269
469.30 1.268
469.40 1.267
469.50 1.266
469.60 1.265
469.70 1.263
469.80 1.262
469.90 1.261
470.00 1.26
470.10 1.259
470.20 1.258
470.30 1.257
470.40 1.256
470.50 1.255
470.60 1.254
470.70 1.253
470.80 1.252
470.90 1.251
471.00 1.25
471.10 1.249
471.20 1.248
471.30 1.247
471.40 1.246
471.50 1.245
471.60 1.244
471.70 1.243
471.80 1.242
471.90 1.241
472.00 1.24
472.10 1.239
472.20 1.238
472.30 1.237
472.40 1.236
472.50 1.235
472.60 1.234
472.70 1.233
472.80 1.232
472.90 1.231
473.00 1.23
473.10 1.229
473.20 1.228
473.30 1.227
473.40 1.226
473.50 1.225
473.60 1.224
473.70 1.223
473.80 1.222
473.90 1.221
474.00 1.22
474.10 1.219
474.20 1.218
474.30 1.217
474.40 1.216
474.50 1.215
474.60 1.214
474.70 1.213
474.80 1.212
474.90 1.211
475.00 1.21
475.10 1.209
475.20 1.208
475.30 1.207
475.40 1.206
475.50 1.205
475.60 1.204
475.70 1.203
475.80 1.202
475.90 1.201
476.00 1.2
476.10 1.199
476.20 1.198
476.30 1.197
476.40 1.196
476.50 1.195
476.60 1.194
476.70 1.193
476.80 1.192
476.90 1.191
477.00 1.19
477.10 1.189
477.20 1.188
477.30 1.187
477.40 1.185
477.50 1.184
477.60 1.183
477.70 1.182
477.80 1.181
477.90 1.18
478.00 1.179
478.10 1.178
478.20 1.177
478.30 1.176
478.40 1.175
478.50 1.174
478.60 1.172
478.70 1.171
478.80 1.17
478.90 1.169
479.00 1.168
479.10 1.167
479.20 1.166
479.30 1.165
479.40 1.163
479.50 1.162
479.60 1.161
479.70 1.16
479.80 1.158
479.90 1.157
480.00 1.156
480.10 1.155
480.20 1.153
480.30 1.152
480.40 1.151
480.50 1.149
480.60 1.148
480.70 1.146
480.80 1.145
480.90 1.144
481.00 1.142
481.10 1.141
481.20 1.139
481.30 1.137
481.40 1.136
481.50 1.134
481.60 1.132
481.70 1.13
481.80 1.128
481.90 1.127
482.00 1.125
482.10 1.123
482.20 1.121
482.30 1.118
482.40 1.115
482.50 1.113
482.60 1.11
482.70 1.107
482.80 1.105
482.90 1.102
483.00 1.1
483.10 1.097
483.20 1.093
483.30 1.088
483.40 1.084
483.50 1.079
483.60 1.075
483.70 1.07
483.80 1.065
483.90 1.061
484.00 1.056
484.10 1.052
484.20 1.045
484.30 1.037
484.40 1.03
484.50 1.022
484.60 1.015
484.70 1.005
484.80 0.9937
484.90 0.9826
485.00 0.9715
485.10 0.9605
485.20 0.947
485.30 0.9324
485.40 0.9161
485.50 0.8989
485.60 0.8797
485.70 0.8596
485.80 0.8367
485.90 0.8124
486.00 0.7833
486.10 0.7192
486.20 0.7487
486.30 0.793
486.40 0.8176
486.50 0.8407
486.60 0.861
486.70 0.8799
486.80 0.8966
486.90 0.9123
487.00 0.9262
487.10 0.9392
487.20 0.9499
487.30 0.9594
487.40 0.9689
487.50 0.9784
487.60 0.9879
487.70 0.9949
487.80 1.001
487.90 1.007
488.00 1.012
488.10 1.018
488.20 1.022
488.30 1.025
488.40 1.028
488.50 1.031
488.60 1.033
488.70 1.036
488.80 1.039
488.90 1.042
489.00 1.045
489.10 1.047
489.20 1.049
489.30 1.05
489.40 1.051
489.50 1.051
489.60 1.052
489.70 1.053
489.80 1.054
489.90 1.055
490.00 1.056
490.10 1.057
490.20 1.057
490.30 1.057
490.40 1.057
490.50 1.057
490.60 1.057
490.70 1.057
490.80 1.057
490.90 1.057
491.00 1.057
491.10 1.057
491.20 1.057
491.30 1.057
491.40 1.056
491.50 1.056
491.60 1.055
491.70 1.055
491.80 1.055
491.90 1.054
492.00 1.054
492.10 1.054
492.20 1.053
492.30 1.053
492.40 1.052
492.50 1.052
492.60 1.051
492.70 1.051
492.80 1.05
492.90 1.049
493.00 1.049
493.10 1.048
493.20 1.048
493.30 1.047
493.40 1.047
493.50 1.046
493.60 1.045
493.70 1.045
493.80 1.044
493.90 1.043
494.00 1.043
494.10 1.042
494.20 1.042
494.30 1.041
494.40 1.04
494.50 1.039
494.60 1.039
494.70 1.038
494.80 1.037
494.90 1.037
495.00 1.036
495.10 1.035
495.20 1.035
495.30 1.034
495.40 1.033
495.50 1.033
495.60 1.032
495.70 1.031
495.80 1.03
495.90 1.03
496.00 1.029
496.10 1.028
496.20 1.028
496.30 1.027
496.40 1.026
496.50 1.025
496.60 1.025
496.70 1.024
496.80 1.023
496.90 1.023
497.00 1.022
497.10 1.021
497.20 1.02
497.30 1.02
497.40 1.019
497.50 1.018
497.60 1.018
497.70 1.017
497.80 1.016
497.90 1.015
498.00 1.015
498.10 1.014
498.20 1.013
498.30 1.012
498.40 1.012
498.50 1.011
498.60 1.01
498.70 1.009
498.80 1.009
498.90 1.008
499.00 1.007
499.10 1.007
499.20 1.006
499.30 1.005
499.40 1.004
499.50 1.004
499.60 1.003
499.70 1.002
499.80 1.001
499.90 1.001
500.00 1
500.10 0.9993
500.20 0.9985
500.30 0.9978
500.40 0.9971
500.50 0.9964
500.60 0.9956
500.70 0.9949
500.80 0.9942
500.90 0.9934
501.00 0.9927
501.10 0.992
501.20 0.9913
501.30 0.9905
501.40 0.9898
501.50 0.9891
501.60 0.9883
501.70 0.9876
501.80 0.9869
501.90 0.9862
502.00 0.9855
502.10 0.9847
502.20 0.984
502.30 0.9833
502.40 0.9826
502.50 0.9818
502.60 0.9811
502.70 0.9804
502.80 0.9797
502.90 0.979
503.00 0.9782
503.10 0.9775
503.20 0.9768
503.30 0.9761
503.40 0.9754
503.50 0.9746
503.60 0.9739
503.70 0.9732
503.80 0.9725
503.90 0.9718
504.00 0.9711
504.10 0.9703
504.20 0.9696
504.30 0.9689
504.40 0.9682
504.50 0.9675
504.60 0.9668
504.70 0.9661
504.80 0.9654
504.90 0.9647
505.00 0.9639
505.10 0.9632
505.20 0.9625
505.30 0.9618
505.40 0.9611
505.50 0.9604
505.60 0.9597
505.70 0.959
505.80 0.9583
505.90 0.9576
506.00 0.9569
506.10 0.9562
506.20 0.9555
506.30 0.9548
506.40 0.9541
506.50 0.9534
506.60 0.9527
506.70 0.952
506.80 0.9513
506.90 0.9506
507.00 0.9499
507.10 0.9492
507.20 0.9485
507.30 0.9478
507.40 0.9471
507.50 0.9464
507.60 0.9457
507.70 0.945
507.80 0.9443
507.90 0.9436
508.00 0.9429
508.10 0.9422
508.20 0.9415
508.30 0.9408
508.40 0.9401
508.50 0.9395
508.60 0.9388
508.70 0.9381
508.80 0.9374
508.90 0.9367
509.00 0.936
509.10 0.9353
509.20 0.9346
509.30 0.934
509.40 0.9333
509.50 0.9326
509.60 0.9319
509.70 0.9312
509.80 0.9305
509.90 0.9299
510.00 0.9292
510.10 0.9285
510.20 0.9278
510.30 0.9271
510.40 0.9265
510.50 0.9258
510.60 0.9251
510.70 0.9244
510.80 0.9237
510.90 0.9231
511.00 0.9224
511.10 0.9217
511.20 0.921
511.30 0.9204
511.40 0.9197
511.50 0.919
511.60 0.9184
511.70 0.9177
511.80 0.917
511.90 0.9163
512.00 0.9157
512.10 0.915
512.20 0.9143
512.30 0.9137
512.40 0.913
512.50 0.9123
512.60 0.9117
512.70 0.911
512.80 0.9103
512.90 0.9097
513.00 0.909
513.10 0.9083
513.20 0.9077
513.30 0.907
513.40 0.9064
513.50 0.9057
513.60 0.905
513.70 0.9044
513.80 0.9037
513.90 0.9031
514.00 0.9024
514.10 0.9018
514.20 0.9011
514.30 0.9004
514.40 0.8998
514.50 0.8991
514.60 0.8985
514.70 0.8978
514.80 0.8972
514.90 0.8965
515.00 0.8959
515.10 0.8952
515.20 0.8946
515.30 0.8939
515.40 0.8933
515.50 0.8926
515.60 0.892
515.70 0.8913
515.80 0.8907
515.90 0.89
516.00 0.8894
516.10 0.8887
516.20 0.8881
516.30 0.8874
516.40 0.8868
516.50 0.8862
516.60 0.8855
516.70 0.8849
516.80 0.8842
516.90 0.8836
517.00 0.8829
517.10 0.8823
517.20 0.8817
517.30 0.881
517.40 0.8804
517.50 0.8798
517.60 0.8791
517.70 0.8785
517.80 0.8778
517.90 0.8772
518.00 0.8766
518.10 0.8759
518.20 0.8753
518.30 0.8747
518.40 0.874
518.50 0.8734
518.60 0.8728
518.70 0.8721
518.80 0.8715
518.90 0.8709
519.00 0.8703
519.10 0.8696
519.20 0.869
519.30 0.8684
519.40 0.8677
519.50 0.8671
519.60 0.8665
519.70 0.8659
519.80 0.8652
519.90 0.8646
520.00 0.864
520.10 0.8634
520.20 0.8627
520.30 0.8621
520.40 0.8615
520.50 0.8609
520.60 0.8603
520.70 0.8596
520.80 0.859
520.90 0.8584
521.00 0.8578
521.10 0.8572
521.20 0.8566
521.30 0.8559
521.40 0.8553
521.50 0.8547
521.60 0.8541
521.70 0.8535
521.80 0.8529
521.90 0.8523
522.00 0.8516
522.10 0.851
522.20 0.8504
522.30 0.8498
522.40 0.8492
522.50 0.8486
522.60 0.848
522.70 0.8474
522.80 0.8468
522.90 0.8462
523.00 0.8455
523.10 0.8449
523.20 0.8443
523.30 0.8437
523.40 0.8431
523.50 0.8425
523.60 0.8419
523.70 0.8413
523.80 0.8407
523.90 0.8401
524.00 0.8395
524.10 0.8389
524.20 0.8383
524.30 0.8377
524.40 0.8371
524.50 0.8365
524.60 0.8359
524.70 0.8353
524.80 0.8347
524.90 0.8341
525.00 0.8335
525.10 0.8329
525.20 0.8323
525.30 0.8317
525.40 0.8311
525.50 0.8305
525.60 0.8299
525.70 0.8294
525.80 0.8288
525.90 0.8282
526.00 0.8276
526.10 0.827
526.20 0.8264
526.30 0.8258
526.40 0.8252
526.50 0.8246
526.60 0.824
526.70 0.8235
526.80 0.8229
526.90 0.8223
527.00 0.8217
527.10 0.8211
527.20 0.8205
527.30 0.8199
527.40 0.8194
527.50 0.8188
527.60 0.8182
527.70 0.8176
527.80 0.817
527.90 0.8165
528.00 0.8159
528.10 0.8153
528.20 0.8147
528.30 0.8141
528.40 0.8136
528.50 0.813
528.60 0.8124
528.70 0.8118
528.80 0.8112
528.90 0.8107
529.00 0.8101
529.10 0.8095
529.20 0.8089
529.30 0.8084
529.40 0.8078
529.50 0.8072
529.60 0.8066
529.70 0.8061
529.80 0.8055
529.90 0.8049
530.00 0.8044
530.10 0.8038
530.20 0.8032
530.30 0.8027
530.40 0.8021
530.50 0.8015
530.60 0.801
530.70 0.8004
530.80 0.7998
530.90 0.7993
531.00 0.7987
531.10 0.7981
531.20 0.7976
531.30 0.797
531.40 0.7964
531.50 0.7959
531.60 0.7953
531.70 0.7947
531.80 0.7942
531.90 0.7936
532.00 0.7931
532.10 0.7925
532.20 0.7919
532.30 0.7914
532.40 0.7908
532.50 0.7903
532.60 0.7897
532.70 0.7891
532.80 0.7886
532.90 0.788
533.00 0.7875
533.10 0.7869
533.20 0.7864
533.30 0.7858
533.40 0.7853
533.50 0.7847
533.60 0.7842
533.70 0.7836
533.80 0.7831
533.90 0.7825
534.00 0.7819
534.10 0.7814
534.20 0.7808
534.30 0.7803
534.40 0.7798
534.50 0.7792
534.60 0.7787
534.70 0.7781
534.80 0.7776
534.90 0.777
535.00 0.7765
535.10 0.7759
535.20 0.7754
535.30 0.7748
535.40 0.7743
535.50 0.7737
535.60 0.7732
535.70 0.7727
535.80 0.7721
535.90 0.7716
536.00 0.771
536.10 0.7705
536.20 0.77
536.30 0.7694
536.40 0.7689
536.50 0.7683
536.60 0.7678
536.70 0.7673
536.80 0.7667
536.90 0.7662
537.00 0.7657
537.10 0.7651
537.20 0.7646
537.30 0.764
537.40 0.7635
537.50 0.763
537.60 0.7624
537.70 0.7619
537.80 0.7614
537.90 0.7608
538.00 0.7603
538.10 0.7598
538.20 0.7592
538.30 0.7587
538.40 0.7582
538.50 0.7577
538.60 0.7571
538.70 0.7566
538.80 0.7561
538.90 0.7555
539.00 0.755
539.10 0.7545
539.20 0.754
539.30 0.7534
539.40 0.7529
539.50 0.7524
539.60 0.7519
539.70 0.7513
539.80 0.7508
539.90 0.7503
540.00 0.7498
540.10 0.7492
540.20 0.7487
540.30 0.7482
540.40 0.7477
540.50 0.7472
540.60 0.7466
540.70 0.7461
540.80 0.7456
540.90 0.7451
541.00 0.7446
541.10 0.7441
541.20 0.7435
541.30 0.743
541.40 0.7425
541.50 0.742
541.60 0.7415
541.70 0.741
541.80 0.7404
541.90 0.7399
542.00 0.7394
542.10 0.7389
542.20 0.7384
542.30 0.7379
542.40 0.7374
542.50 0.7369
542.60 0.7363
542.70 0.7358
542.80 0.7353
542.90 0.7348
543.00 0.7343
543.10 0.7338
543.20 0.7333
543.30 0.7328
543.40 0.7323
543.50 0.7318
543.60 0.7313
543.70 0.7308
543.80 0.7302
543.90 0.7297
544.00 0.7292
544.10 0.7287
544.20 0.7282
544.30 0.7277
544.40 0.7272
544.50 0.7267
544.60 0.7262
544.70 0.7257
544.80 0.7252
544.90 0.7247
545.00 0.7242
545.10 0.7237
545.20 0.7232
545.30 0.7227
545.40 0.7222
545.50 0.7217
545.60 0.7212
545.70 0.7207
545.80 0.7202
545.90 0.7197
546.00 0.7192
546.10 0.7187
546.20 0.7182
546.30 0.7177
546.40 0.7173
546.50 0.7168
546.60 0.7163
546.70 0.7158
546.80 0.7153
546.90 0.7148
547.00 0.7143
547.10 0.7138
547.20 0.7133
547.30 0.7128
547.40 0.7123
547.50 0.7118
547.60 0.7114
547.70 0.7109
547.80 0.7104
547.90 0.7099
548.00 0.7094
548.10 0.7089
548.20 0.7084
548.30 0.7079
548.40 0.7075
548.50 0.707
548.60 0.7065
548.70 0.706
548.80 0.7055
548.90 0.705
549.00 0.7045
549.10 0.7041
549.20 0.7036
549.30 0.7031
549.40 0.7026
549.50 0.7021
549.60 0.7017
549.70 0.7012
549.80 0.7007
549.90 0.7002
550.00 0.6997
550.10 0.6993
550.20 0.6988
550.30 0.6983
550.40 0.6978
550.50 0.6973
550.60 0.6969
550.70 0.6964
550.80 0.6959
550.90 0.6954
551.00 0.695
551.10 0.6945
551.20 0.694
551.30 0.6935
551.40 0.6931
551.50 0.6926
551.60 0.6921
551.70 0.6916
551.80 0.6912
551.90 0.6907
552.00 0.6902
552.10 0.6898
552.20 0.6893
552.30 0.6888
552.40 0.6884
552.50 0.6879
552.60 0.6874
552.70 0.6869
552.80 0.6865
552.90 0.686
553.00 0.6855
553.10 0.6851
553.20 0.6846
553.30 0.6841
553.40 0.6837
553.50 0.6832
553.60 0.6827
553.70 0.6823
553.80 0.6818
553.90 0.6814
554.00 0.6809
554.10 0.6804
554.20 0.68
554.30 0.6795
554.40 0.679
554.50 0.6786
554.60 0.6781
554.70 0.6777
554.80 0.6772
554.90 0.6767
555.00 0.6763
555.10 0.6758
555.20 0.6754
555.30 0.6749
555.40 0.6744
555.50 0.674
555.60 0.6735
555.70 0.6731
555.80 0.6726
555.90 0.6722
556.00 0.6717
556.10 0.6713
556.20 0.6708
556.30 0.6703
556.40 0.6699
556.50 0.6694
556.60 0.669
556.70 0.6685
556.80 0.6681
556.90 0.6676
557.00 0.6672
557.10 0.6667
557.20 0.6663
557.30 0.6658
557.40 0.6654
557.50 0.6649
557.60 0.6645
557.70 0.664
557.80 0.6636
557.90 0.6631
558.00 0.6627
558.10 0.6622
558.20 0.6618
558.30 0.6613
558.40 0.6609
558.50 0.6604
558.60 0.66
558.70 0.6596
558.80 0.6591
558.90 0.6587
559.00 0.6582
559.10 0.6578
559.20 0.6573
559.30 0.6569
559.40 0.6564
559.50 0.656
559.60 0.6556
559.70 0.6551
559.80 0.6547
559.90 0.6542
560.00 0.6538
560.10 0.6534
560.20 0.6529
560.30 0.6525
560.40 0.652
560.50 0.6516
560.60 0.6512
560.70 0.6507
560.80 0.6503
560.90 0.6499
561.00 0.6494
561.10 0.649
561.20 0.6485
561.30 0.6481
561.40 0.6477
561.50 0.6472
561.60 0.6468
561.70 0.6464
561.80 0.6459
561.90 0.6455
562.00 0.6451
562.10 0.6446
562.20 0.6442
562.30 0.6438
562.40 0.6433
562.50 0.6429
562.60 0.6425
562.70 0.6421
562.80 0.6416
562.90 0.6412
563.00 0.6408
563.10 0.6403
563.20 0.6399
563.30 0.6395
563.40 0.639
563.50 0.6386
563.60 0.6382
563.70 0.6378
563.80 0.6373
563.90 0.6369
564.00 0.6365
564.10 0.6361
564.20 0.6356
564.30 0.6352
564.40 0.6348
564.50 0.6344
564.60 0.6339
564.70 0.6335
564.80 0.6331
564.90 0.6327
565.00 0.6323
565.10 0.6318
565.20 0.6314
565.30 0.631
565.40 0.6306
565.50 0.6301
565.60 0.6297
565.70 0.6293
565.80 0.6289
565.90 0.6285
566.00 0.628
566.10 0.6276
566.20 0.6272
566.30 0.6268
566.40 0.6264
566.50 0.626
566.60 0.6255
566.70 0.6251
566.80 0.6247
566.90 0.6243
567.00 0.6239
567.10 0.6235
567.20 0.623
567.30 0.6226
567.40 0.6222
567.50 0.6218
567.60 0.6214
567.70 0.621
567.80 0.6206
567.90 0.6202
568.00 0.6197
568.10 0.6193
568.20 0.6189
568.30 0.6185
568.40 0.6181
568.50 0.6177
568.60 0.6173
568.70 0.6169
568.80 0.6165
568.90 0.6161
569.00 0.6156
569.10 0.6152
569.20 0.6148
569.30 0.6144
569.40 0.614
569.50 0.6136
569.60 0.6132
569.70 0.6128
569.80 0.6124
569.90 0.612
570.00 0.6116
570.10 0.6112
570.20 0.6108
570.30 0.6104
570.40 0.61
570.50 0.6096
570.60 0.6092
570.70 0.6088
570.80 0.6084
570.90 0.608
571.00 0.6075
571.10 0.6071
571.20 0.6067
571.30 0.6063
571.40 0.6059
571.50 0.6055
571.60 0.6051
571.70 0.6047
571.80 0.6043
571.90 0.6039
572.00 0.6035
572.10 0.6032
572.20 0.6028
572.30 0.6024
572.40 0.602
572.50 0.6016
572.60 0.6012
572.70 0.6008
572.80 0.6004
572.90 0.6
573.00 0.5996
573.10 0.5992
573.20 0.5988
573.30 0.5984
573.40 0.598
573.50 0.5976
573.60 0.5972
573.70 0.5968
573.80 0.5964
573.90 0.596
574.00 0.5957
574.10 0.5953
574.20 0.5949
574.30 0.5945
574.40 0.5941
574.50 0.5937
574.60 0.5933
574.70 0.5929
574.80 0.5925
574.90 0.5921
575.00 0.5917
575.10 0.5914
575.20 0.591
575.30 0.5906
575.40 0.5902
575.50 0.5898
575.60 0.5894
575.70 0.589
575.80 0.5887
575.90 0.5883
576.00 0.5879
576.10 0.5875
576.20 0.5871
576.30 0.5867
576.40 0.5863
576.50 0.586
576.60 0.5856
576.70 0.5852
576.80 0.5848
576.90 0.5844
577.00 0.584
577.10 0.5837
577.20 0.5833
577.30 0.5829
577.40 0.5825
577.50 0.5821
577.60 0.5818
577.70 0.5814
577.80 0.581
577.90 0.5806
578.00 0.5802
578.10 0.5799
578.20 0.5795
578.30 0.5791
578.40 0.5787
578.50 0.5783
578.60 0.578
578.70 0.5776
578.80 0.5772
578.90 0.5768
579.00 0.5765
579.10 0.5761
579.20 0.5757
579.30 0.5753
579.40 0.575
579.50 0.5746
579.60 0.5742
579.70 0.5738
579.80 0.5735
579.90 0.5731
580.00 0.5727
580.10 0.5723
580.20 0.572
580.30 0.5716
580.40 0.5712
580.50 0.5709
580.60 0.5705
580.70 0.5701
580.80 0.5697
580.90 0.5694
581.00 0.569
581.10 0.5686
581.20 0.5683
581.30 0.5679
581.40 0.5675
581.50 0.5672
581.60 0.5668
581.70 0.5664
581.80 0.5661
581.90 0.5657
582.00 0.5653
582.10 0.5649
582.20 0.5646
582.30 0.5642
582.40 0.5639
582.50 0.5635
582.60 0.5631
582.70 0.5628
582.80 0.5624
582.90 0.562
583.00 0.5617
583.10 0.5613
583.20 0.5609
583.30 0.5606
583.40 0.5602
583.50 0.5598
583.60 0.5595
583.70 0.5591
583.80 0.5588
583.90 0.5584
584.00 0.558
584.10 0.5577
584.20 0.5573
584.30 0.557
584.40 0.5566
584.50 0.5562
584.60 0.5559
584.70 0.5555
584.80 0.5552
584.90 0.5548
585.00 0.5544
585.10 0.5541
585.20 0.5537
585.30 0.5534
585.40 0.553
585.50 0.5527
585.60 0.5523
585.70 0.5519
585.80 0.5516
585.90 0.5512
586.00 0.5509
586.10 0.5505
586.20 0.5502
586.30 0.5498
586.40 0.5495
586.50 0.5491
586.60 0.5487
586.70 0.5484
586.80 0.548
586.90 0.5477
587.00 0.5473
587.10 0.547
587.20 0.5466
587.30 0.5463
587.40 0.5459
587.50 0.5456
587.60 0.5452
587.70 0.5449
587.80 0.5445
587.90 0.5442
588.00 0.5438
588.10 0.5435
588.20 0.5431
588.30 0.5428
588.40 0.5424
588.50 0.5421
588.60 0.5417
588.70 0.5414
588.80 0.541
588.90 0.5407
589.00 0.5403
589.10 0.54
589.20 0.5396
589.30 0.5393
589.40 0.539
589.50 0.5386
589.60 0.5383
589.70 0.5379
589.80 0.5376
589.90 0.5372
590.00 0.5369
590.10 0.5365
590.20 0.5362
590.30 0.5359
590.40 0.5355
590.50 0.5352
590.60 0.5348
590.70 0.5345
590.80 0.5341
590.90 0.5338
591.00 0.5335
591.10 0.5331
591.20 0.5328
591.30 0.5324
591.40 0.5321
591.50 0.5318
591.60 0.5314
591.70 0.5311
591.80 0.5307
591.90 0.5304
592.00 0.5301
592.10 0.5297
592.20 0.5294
592.30 0.529
592.40 0.5287
592.50 0.5284
592.60 0.528
592.70 0.5277
592.80 0.5274
592.90 0.527
593.00 0.5267
593.10 0.5264
593.20 0.526
593.30 0.5257
593.40 0.5253
593.50 0.525
593.60 0.5247
593.70 0.5243
593.80 0.524
593.90 0.5237
594.00 0.5233
594.10 0.523
594.20 0.5227
594.30 0.5223
594.40 0.522
594.50 0.5217
594.60 0.5214
594.70 0.521
594.80 0.5207
594.90 0.5204
595.00 0.52
595.10 0.5197
595.20 0.5194
595.30 0.519
595.40 0.5187
595.50 0.5184
595.60 0.5181
595.70 0.5177
595.80 0.5174
595.90 0.5171
596.00 0.5167
596.10 0.5164
596.20 0.5161
596.30 0.5158
596.40 0.5154
596.50 0.5151
596.60 0.5148
596.70 0.5144
596.80 0.5141
596.90 0.5138
597.00 0.5135
597.10 0.5131
597.20 0.5128
597.30 0.5125
597.40 0.5122
597.50 0.5118
597.60 0.5115
597.70 0.5112
597.80 0.5109
597.90 0.5105
598.00 0.5102
598.10 0.5099
598.20 0.5096
598.30 0.5093
598.40 0.5089
598.50 0.5086
598.60 0.5083
598.70 0.508
598.80 0.5077
598.90 0.5073
599.00 0.507
599.10 0.5067
599.20 0.5064
599.30 0.5061
599.40 0.5057
599.50 0.5054
599.60 0.5051
599.70 0.5048
599.80 0.5045
599.90 0.5041
600.00 0.5038
600.10 0.5035
600.20 0.5032
600.30 0.5029
600.40 0.5026
600.50 0.5022
600.60 0.5019
600.70 0.5016
600.80 0.5013
600.90 0.501
601.00 0.5007
601.10 0.5003
601.20 0.5
601.30 0.4997
601.40 0.4994
601.50 0.4991
601.60 0.4988
601.70 0.4985
601.80 0.4981
601.90 0.4978
602.00 0.4975
602.10 0.4972
602.20 0.4969
602.30 0.4966
602.40 0.4963
602.50 0.496
602.60 0.4956
602.70 0.4953
602.80 0.495
602.90 0.4947
603.00 0.4944
603.10 0.4941
603.20 0.4938
603.30 0.4935
603.40 0.4932
603.50 0.4929
603.60 0.4925
603.70 0.4922
603.80 0.4919
603.90 0.4916
604.00 0.4913
604.10 0.491
604.20 0.4907
604.30 0.4904
604.40 0.4901
604.50 0.4898
604.60 0.4895
604.70 0.4892
604.80 0.4889
604.90 0.4885
605.00 0.4882
605.10 0.4879
605.20 0.4876
605.30 0.4873
605.40 0.487
605.50 0.4867
605.60 0.4864
605.70 0.4861
605.80 0.4858
605.90 0.4855
606.00 0.4852
606.10 0.4849
606.20 0.4846
606.30 0.4843
606.40 0.484
606.50 0.4837
606.60 0.4834
606.70 0.4831
606.80 0.4828
606.90 0.4825
607.00 0.4822
607.10 0.4819
607.20 0.4816
607.30 0.4813
607.40 0.481
607.50 0.4807
607.60 0.4804
607.70 0.4801
607.80 0.4798
607.90 0.4795
608.00 0.4792
608.10 0.4789
608.20 0.4786
608.30 0.4783
608.40 0.478
608.50 0.4777
608.60 0.4774
608.70 0.4771
608.80 0.4768
608.90 0.4765
609.00 0.4762
609.10 0.4759
609.20 0.4756
609.30 0.4753
609.40 0.475
609.50 0.4747
609.60 0.4744
609.70 0.4741
609.80 0.4738
609.90 0.4736
610.00 0.4733
610.10 0.473
610.20 0.4727
610.30 0.4724
610.40 0.4721
610.50 0.4718
610.60 0.4715
610.70 0.4712
610.80 0.4709
610.90 0.4706
611.00 0.4703
611.10 0.47
611.20 0.4697
611.30 0.4695
611.40 0.4692
611.50 0.4689
611.60 0.4686
611.70 0.4683
611.80 0.468
611.90 0.4677
612.00 0.4674
612.10 0.4671
612.20 0.4668
612.30 0.4666
612.40 0.4663
612.50 0.466
612.60 0.4657
612.70 0.4654
612.80 0.4651
612.90 0.4648
613.00 0.4645
613.10 0.4643
613.20 0.464
613.30 0.4637
613.40 0.4634
613.50 0.4631
613.60 0.4628
613.70 0.4625
613.80 0.4623
613.90 0.462
614.00 0.4617
614.10 0.4614
614.20 0.4611
614.30 0.4608
614.40 0.4605
614.50 0.4603
614.60 0.46
614.70 0.4597
614.80 0.4594
614.90 0.4591
615.00 0.4588
615.10 0.4586
615.20 0.4583
615.30 0.458
615.40 0.4577
615.50 0.4574
615.60 0.4571
615.70 0.4569
615.80 0.4566
615.90 0.4563
616.00 0.456
616.10 0.4557
616.20 0.4555
616.30 0.4552
616.40 0.4549
616.50 0.4546
616.60 0.4543
616.70 0.4541
616.80 0.4538
616.90 0.4535
617.00 0.4532
617.10 0.453
617.20 0.4527
617.30 0.4524
617.40 0.4521
617.50 0.4518
617.60 0.4516
617.70 0.4513
617.80 0.451
617.90 0.4507
618.00 0.4505
618.10 0.4502
618.20 0.4499
618.30 0.4496
618.40 0.4494
618.50 0.4491
618.60 0.4488
618.70 0.4485
618.80 0.4482
618.90 0.448
619.00 0.4477
619.10 0.4474
619.20 0.4472
619.30 0.4469
619.40 0.4466
619.50 0.4463
619.60 0.4461
619.70 0.4458
619.80 0.4455
619.90 0.4452
620.00 0.445
620.10 0.4447
620.20 0.4444
620.30 0.4442
620.40 0.4439
620.50 0.4436
620.60 0.4433
620.70 0.4431
620.80 0.4428
620.90 0.4425
621.00 0.4423
621.10 0.442
621.20 0.4417
621.30 0.4414
621.40 0.4412
621.50 0.4409
621.60 0.4406
621.70 0.4404
621.80 0.4401
621.90 0.4398
622.00 0.4396
622.10 0.4393
622.20 0.439
622.30 0.4388
622.40 0.4385
622.50 0.4382
622.60 0.438
622.70 0.4377
622.80 0.4374
622.90 0.4372
623.00 0.4369
623.10 0.4366
623.20 0.4364
623.30 0.4361
623.40 0.4358
623.50 0.4356
623.60 0.4353
623.70 0.435
623.80 0.4348
623.90 0.4345
624.00 0.4342
624.10 0.434
624.20 0.4337
624.30 0.4334
624.40 0.4332
624.50 0.4329
624.60 0.4327
624.70 0.4324
624.80 0.4321
624.90 0.4319
625.00 0.4316
625.10 0.4313
625.20 0.4311
625.30 0.4308
625.40 0.4306
625.50 0.4303
625.60 0.43
625.70 0.4298
625.80 0.4295
625.90 0.4293
626.00 0.429
626.10 0.4287
626.20 0.4285
626.30 0.4282
626.40 0.428
626.50 0.4277
626.60 0.4274
626.70 0.4272
626.80 0.4269
626.90 0.4267
627.00 0.4264
627.10 0.4261
627.20 0.4259
627.30 0.4256
627.40 0.4254
627.50 0.4251
627.60 0.4249
627.70 0.4246
627.80 0.4243
627.90 0.4241
628.00 0.4238
628.10 0.4236
628.20 0.4233
628.30 0.4231
628.40 0.4228
628.50 0.4225
628.60 0.4223
628.70 0.422
628.80 0.4218
628.90 0.4215
629.00 0.4213
629.10 0.421
629.20 0.4208
629.30 0.4205
629.40 0.4202
629.50 0.42
629.60 0.4197
629.70 0.4195
629.80 0.4192
629.90 0.419
630.00 0.4187
630.10 0.4185
630.20 0.4182
630.30 0.418
630.40 0.4177
630.50 0.4175
630.60 0.4172
630.70 0.417
630.80 0.4167
630.90 0.4165
631.00 0.4162
631.10 0.416
631.20 0.4157
631.30 0.4155
631.40 0.4152
631.50 0.415
631.60 0.4147
631.70 0.4145
631.80 0.4142
631.90 0.414
632.00 0.4137
632.10 0.4135
632.20 0.4132
632.30 0.413
632.40 0.4127
632.50 0.4125
632.60 0.4122
632.70 0.412
632.80 0.4117
632.90 0.4115
633.00 0.4112
633.10 0.411
633.20 0.4107
633.30 0.4105
633.40 0.4102
633.50 0.41
633.60 0.4097
633.70 0.4095
633.80 0.4092
633.90 0.409
634.00 0.4087
634.10 0.4085
634.20 0.4083
634.30 0.408
634.40 0.4078
634.50 0.4075
634.60 0.4073
634.70 0.407
634.80 0.4068
634.90 0.4065
635.00 0.4063
635.10 0.4061
635.20 0.4058
635.30 0.4056
635.40 0.4053
635.50 0.4051
635.60 0.4048
635.70 0.4046
635.80 0.4043
635.90 0.4041
636.00 0.4039
636.10 0.4036
636.20 0.4034
636.30 0.4031
636.40 0.4029
636.50 0.4026
636.60 0.4024
636.70 0.4022
636.80 0.4019
636.90 0.4017
637.00 0.4014
637.10 0.4012
637.20 0.401
637.30 0.4007
637.40 0.4005
637.50 0.4002
637.60 0.4
637.70 0.3998
637.80 0.3995
637.90 0.3993
638.00 0.399
638.10 0.3988
638.20 0.3985
638.30 0.3983
638.40 0.3981
638.50 0.3978
638.60 0.3976
638.70 0.3974
638.80 0.3971
638.90 0.3969
639.00 0.3966
639.10 0.3964
639.20 0.3962
639.30 0.3959
639.40 0.3957
639.50 0.3954
639.60 0.3952
639.70 0.395
639.80 0.3947
639.90 0.3945
640.00 0.3942
640.10 0.394
640.20 0.3938
640.30 0.3935
640.40 0.3933
640.50 0.3931
640.60 0.3928
640.70 0.3926
640.80 0.3923
640.90 0.3921
641.00 0.3919
641.10 0.3916
641.20 0.3914
641.30 0.3912
641.40 0.3909
641.50 0.3907
641.60 0.3905
641.70 0.3902
641.80 0.39
641.90 0.3897
642.00 0.3895
642.10 0.3893
642.20 0.389
642.30 0.3888
642.40 0.3886
642.50 0.3883
642.60 0.3881
642.70 0.3878
642.80 0.3876
642.90 0.3874
643.00 0.3871
643.10 0.3869
643.20 0.3867
643.30 0.3864
643.40 0.3862
643.50 0.386
643.60 0.3857
643.70 0.3855
643.80 0.3852
643.90 0.385
644.00 0.3848
644.10 0.3845
644.20 0.3843
644.30 0.3841
644.40 0.3838
644.50 0.3836
644.60 0.3833
644.70 0.3831
644.80 0.3829
644.90 0.3826
645.00 0.3824
645.10 0.3822
645.20 0.3819
645.30 0.3817
645.40 0.3814
645.50 0.3812
645.60 0.381
645.70 0.3807
645.80 0.3805
645.90 0.3802
646.00 0.38
646.10 0.3798
646.20 0.3795
646.30 0.3793
646.40 0.379
646.50 0.3788
646.60 0.3785
646.70 0.3783
646.80 0.378
646.90 0.3778
647.00 0.3776
647.10 0.3773
647.20 0.3771
647.30 0.3768
647.40 0.3766
647.50 0.3763
647.60 0.3761
647.70 0.3758
647.80 0.3755
647.90 0.3753
648.00 0.375
648.10 0.3748
648.20 0.3745
648.30 0.3743
648.40 0.374
648.50 0.3737
648.60 0.3735
648.70 0.3732
648.80 0.3729
648.90 0.3727
649.00 0.3724
649.10 0.3721
649.20 0.3719
649.30 0.3716
649.40 0.3713
649.50 0.371
649.60 0.3707
649.70 0.3704
649.80 0.3701
649.90 0.3699
650.00 0.3696
650.10 0.3693
650.20 0.369
650.30 0.3687
650.40 0.3683
650.50 0.368
650.60 0.3677
650.70 0.3673
650.80 0.367
650.90 0.3666
651.00 0.3663
651.10 0.366
651.20 0.3656
651.30 0.3653
651.40 0.3648
651.50 0.3644
651.60 0.364
651.70 0.3635
651.80 0.3631
651.90 0.3627
652.00 0.3622
652.10 0.3618
652.20 0.3614
652.30 0.3609
652.40 0.3603
652.50 0.3596
652.60 0.359
652.70 0.3584
652.80 0.3577
652.90 0.3571
653.00 0.3565
653.10 0.3558
653.20 0.3552
653.30 0.3545
653.40 0.3534
653.50 0.3523
653.60 0.3511
653.70 0.35
653.80 0.3489
653.90 0.3478
654.00 0.3467
654.10 0.3456
654.20 0.3445
654.30 0.3432
654.40 0.3414
654.50 0.3395
654.60 0.3377
654.70 0.3358
654.80 0.3338
654.90 0.331
655.00 0.3283
655.10 0.3256
655.20 0.3229
655.30 0.32
655.40 0.3163
655.50 0.3126
655.60 0.3083
655.70 0.3039
655.80 0.2989
655.90 0.2934
656.00 0.2864
656.10 0.2787
656.20 0.2524
656.30 0.2226
656.40 0.267
656.50 0.2812
656.60 0.288
656.70 0.2944
656.80 0.2991
656.90 0.3037
657.00 0.3076
657.10 0.3113
657.20 0.3146
657.30 0.3176
657.40 0.32
657.50 0.3223
657.60 0.3246
657.70 0.327
657.80 0.3291
657.90 0.3306
658.00 0.332
658.10 0.3334
658.20 0.3349
658.30 0.3362
658.40 0.3369
658.50 0.3375
658.60 0.3382
658.70 0.3389
658.80 0.3396
658.90 0.3403
659.00 0.341
659.10 0.3417
659.20 0.3423
659.30 0.3429
659.40 0.3431
659.50 0.3434
659.60 0.3436
659.70 0.3438
659.80 0.344
659.90 0.3442
660.00 0.3444
660.10 0.3446
660.20 0.3448
660.30 0.345
660.40 0.345
660.50 0.345
660.60 0.345
660.70 0.345
660.80 0.345
660.90 0.345
661.00 0.345
661.10 0.345
661.20 0.345
661.30 0.345
661.40 0.3449
661.50 0.3448
661.60 0.3448
661.70 0.3447
661.80 0.3446
661.90 0.3445
662.00 0.3444
662.10 0.3443
662.20 0.3442
662.30 0.3442
662.40 0.344
662.50 0.3439
662.60 0.3438
662.70 0.3436
662.80 0.3435
662.90 0.3434
663.00 0.3432
663.10 0.3431
663.20 0.343
663.30 0.3429
663.40 0.3427
663.50 0.3425
663.60 0.3424
663.70 0.3422
663.80 0.3421
663.90 0.3419
664.00 0.3418
664.10 0.3416
664.20 0.3415
664.30 0.3413
664.40 0.3411
664.50 0.341
664.60 0.3408
664.70 0.3406
664.80 0.3405
664.90 0.3403
665.00 0.3401
665.10 0.34
665.20 0.3398
665.30 0.3396
665.40 0.3395
665.50 0.3393
665.60 0.3391
665.70 0.339
665.80 0.3388
665.90 0.3386
666.00 0.3384
666.10 0.3383
666.20 0.3381
666.30 0.3379
666.40 0.3377
666.50 0.3376
666.60 0.3374
666.70 0.3372
666.80 0.337
666.90 0.3368
667.00 0.3367
667.10 0.3365
667.20 0.3363
667.30 0.3361
667.40 0.3359
667.50 0.3358
667.60 0.3356
667.70 0.3354
667.80 0.3352
667.90 0.335
668.00 0.3349
668.10 0.3347
668.20 0.3345
668.30 0.3343
668.40 0.3341
668.50 0.334
668.60 0.3338
668.70 0.3336
668.80 0.3334
668.90 0.3332
669.00 0.333
669.10 0.3329
669.20 0.3327
669.30 0.3325
669.40 0.3323
669.50 0.3321
669.60 0.332
669.70 0.3318
669.80 0.3316
669.90 0.3314
670.00 0.3312
670.10 0.331
670.20 0.3309
670.30 0.3307
670.40 0.3305
670.50 0.3303
670.60 0.3301
670.70 0.3299
670.80 0.3298
670.90 0.3296
671.00 0.3294
671.10 0.3292
671.20 0.329
671.30 0.3288
671.40 0.3287
671.50 0.3285
671.60 0.3283
671.70 0.3281
671.80 0.3279
671.90 0.3278
672.00 0.3276
672.10 0.3274
672.20 0.3272
672.30 0.327
672.40 0.3268
672.50 0.3267
672.60 0.3265
672.70 0.3263
672.80 0.3261
672.90 0.3259
673.00 0.3258
673.10 0.3256
673.20 0.3254
673.30 0.3252
673.40 0.325
673.50 0.3249
673.60 0.3247
673.70 0.3245
673.80 0.3243
673.90 0.3241
674.00 0.3239
674.10 0.3238
674.20 0.3236
674.30 0.3234
674.40 0.3232
674.50 0.323
674.60 0.3229
674.70 0.3227
674.80 0.3225
674.90 0.3223
675.00 0.3221
675.10 0.322
675.20 0.3218
675.30 0.3216
675.40 0.3214
675.50 0.3213
675.60 0.3211
675.70 0.3209
675.80 0.3207
675.90 0.3205
676.00 0.3204
676.10 0.3202
676.20 0.32
676.30 0.3198
676.40 0.3196
676.50 0.3195
676.60 0.3193
676.70 0.3191
676.80 0.3189
676.90 0.3188
677.00 0.3186
677.10 0.3184
677.20 0.3182
677.30 0.318
677.40 0.3179
677.50 0.3177
677.60 0.3175
677.70 0.3173
677.80 0.3172
677.90 0.317
678.00 0.3168
678.10 0.3166
678.20 0.3164
678.30 0.3163
678.40 0.3161
678.50 0.3159
678.60 0.3157
678.70 0.3156
678.80 0.3154
678.90 0.3152
679.00 0.315
679.10 0.3149
679.20 0.3147
679.30 0.3145
679.40 0.3143
679.50 0.3142
679.60 0.314
679.70 0.3138
679.80 0.3136
679.90 0.3135
680.00 0.3133
680.10 0.3131
680.20 0.3129
680.30 0.3128
680.40 0.3126
680.50 0.3124
680.60 0.3122
680.70 0.3121
680.80 0.3119
680.90 0.3117
681.00 0.3115
681.10 0.3114
681.20 0.3112
681.30 0.311
681.40 0.3109
681.50 0.3107
681.60 0.3105
681.70 0.3103
681.80 0.3102
681.90 0.31
682.00 0.3098
682.10 0.3096
682.20 0.3095
682.30 0.3093
682.40 0.3091
682.50 0.309
682.60 0.3088
682.70 0.3086
682.80 0.3084
682.90 0.3083
683.00 0.3081
683.10 0.3079
683.20 0.3078
683.30 0.3076
683.40 0.3074
683.50 0.3072
683.60 0.3071
683.70 0.3069
683.80 0.3067
683.90 0.3066
684.00 0.3064
684.10 0.3062
684.20 0.3061
684.30 0.3059
684.40 0.3057
684.50 0.3055
684.60 0.3054
684.70 0.3052
684.80 0.305
684.90 0.3049
685.00 0.3047
685.10 0.3045
685.20 0.3044
685.30 0.3042
685.40 0.304
685.50 0.3039
685.60 0.3037
685.70 0.3035
685.80 0.3034
685.90 0.3032
686.00 0.303
686.10 0.3028
686.20 0.3027
686.30 0.3025
686.40 0.3023
686.50 0.3022
686.60 0.302
686.70 0.3018
686.80 0.3017
686.90 0.3015
687.00 0.3013
687.10 0.3012
687.20 0.301
687.30 0.3008
687.40 0.3007
687.50 0.3005
687.60 0.3003
687.70 0.3002
687.80 0.3
687.90 0.2998
688.00 0.2997
688.10 0.2995
688.20 0.2994
688.30 0.2992
688.40 0.299
688.50 0.2989
688.60 0.2987
688.70 0.2985
688.80 0.2984
688.90 0.2982
689.00 0.298
689.10 0.2979
689.20 0.2977
689.30 0.2975
689.40 0.2974
689.50 0.2972
689.60 0.2971
689.70 0.2969
689.80 0.2967
689.90 0.2966
690.00 0.2964
690.10 0.2962
690.20 0.2961
690.30 0.2959
690.40 0.2957
690.50 0.2956
690.60 0.2954
690.70 0.2953
690.80 0.2951
690.90 0.2949
691.00 0.2948
691.10 0.2946
691.20 0.2945
691.30 0.2943
691.40 0.2941
691.50 0.294
691.60 0.2938
691.70 0.2936
691.80 0.2935
691.90 0.2933
692.00 0.2932
692.10 0.293
692.20 0.2928
692.30 0.2927
692.40 0.2925
692.50 0.2924
692.60 0.2922
692.70 0.292
692.80 0.2919
692.90 0.2917
693.00 0.2916
693.10 0.2914
693.20 0.2912
693.30 0.2911
693.40 0.2909
693.50 0.2908
693.60 0.2906
693.70 0.2904
693.80 0.2903
693.90 0.2901
694.00 0.29
694.10 0.2898
694.20 0.2896
694.30 0.2895
694.40 0.2893
694.50 0.2892
694.60 0.289
694.70 0.2888
694.80 0.2887
694.90 0.2885
695.00 0.2884
695.10 0.2882
695.20 0.288
695.30 0.2879
695.40 0.2877
695.50 0.2876
695.60 0.2874
695.70 0.2873
695.80 0.2871
695.90 0.287
696.00 0.2868
696.10 0.2866
696.20 0.2865
696.30 0.2863
696.40 0.2862
696.50 0.286
696.60 0.2859
696.70 0.2857
696.80 0.2855
696.90 0.2854
697.00 0.2852
697.10 0.2851
697.20 0.2849
697.30 0.2848
697.40 0.2846
697.50 0.2845
697.60 0.2843
697.70 0.2841
697.80 0.284
697.90 0.2838
698.00 0.2837
698.10 0.2835
698.20 0.2834
698.30 0.2832
698.40 0.2831
698.50 0.2829
698.60 0.2828
698.70 0.2826
698.80 0.2824
698.90 0.2823
699.00 0.2821
699.10 0.282
699.20 0.2818
699.30 0.2817
699.40 0.2815
699.50 0.2814
699.60 0.2812
699.70 0.2811
699.80 0.2809
699.90 0.2808
700.00 0.2806
700.10 0.2804
700.20 0.2803
700.30 0.2801
700.40 0.28
700.50 0.2798
700.60 0.2797
700.70 0.2795
700.80 0.2794
700.90 0.2792
701.00 0.2791
701.10 0.2789
701.20 0.2788
701.30 0.2786
701.40 0.2785
701.50 0.2783
701.60 0.2782
701.70 0.278
701.80 0.2779
701.90 0.2777
702.00 0.2776
702.10 0.2774
702.20 0.2773
702.30 0.2771
702.40 0.277
702.50 0.2768
702.60 0.2767
702.70 0.2765
702.80 0.2764
702.90 0.2762
703.00 0.2761
703.10 0.2759
703.20 0.2758
703.30 0.2756
703.40 0.2755
703.50 0.2753
703.60 0.2752
703.70 0.275
703.80 0.2749
703.90 0.2747
704.00 0.2746
704.10 0.2744
704.20 0.2743
704.30 0.2741
704.40 0.274
704.50 0.2738
704.60 0.2737
704.70 0.2735
704.80 0.2734
704.90 0.2732
705.00 0.2731
705.10 0.2729
705.20 0.2728
705.30 0.2727
705.40 0.2725
705.50 0.2724
705.60 0.2722
705.70 0.2721
705.80 0.2719
705.90 0.2718
706.00 0.2716
706.10 0.2715
706.20 0.2713
706.30 0.2712
706.40 0.271
706.50 0.2709
706.60 0.2708
706.70 0.2706
706.80 0.2705
706.90 0.2703
707.00 0.2702
707.10 0.27
707.20 0.2699
707.30 0.2697
707.40 0.2696
707.50 0.2694
707.60 0.2693
707.70 0.2692
707.80 0.269
707.90 0.2689
708.00 0.2687
708.10 0.2686
708.20 0.2684
708.30 0.2683
708.40 0.2681
708.50 0.268
708.60 0.2678
708.70 0.2677
708.80 0.2676
708.90 0.2674
709.00 0.2673
709.10 0.2671
709.20 0.267
709.30 0.2668
709.40 0.2667
709.50 0.2666
709.60 0.2664
709.70 0.2663
709.80 0.2661
709.90 0.266
710.00 0.2658
710.10 0.2657
710.20 0.2656
710.30 0.2654
710.40 0.2653
710.50 0.2651
710.60 0.265
710.70 0.2648
710.80 0.2647
710.90 0.2646
711.00 0.2644
711.10 0.2643
711.20 0.2641
711.30 0.264
711.40 0.2639
711.50 0.2637
711.60 0.2636
711.70 0.2634
711.80 0.2633
711.90 0.2631
712.00 0.263
712.10 0.2629
712.20 0.2627
712.30 0.2626
712.40 0.2624
712.50 0.2623
712.60 0.2622
712.70 0.262
712.80 0.2619
712.90 0.2617
713.00 0.2616
713.10 0.2615
713.20 0.2613
713.30 0.2612
713.40 0.261
713.50 0.2609
713.60 0.2608
713.70 0.2606
713.80 0.2605
713.90 0.2603
714.00 0.2602
714.10 0.2601
714.20 0.2599
714.30 0.2598
714.40 0.2597
714.50 0.2595
714.60 0.2594
714.70 0.2592
714.80 0.2591
714.90 0.259
715.00 0.2588
715.10 0.2587
715.20 0.2585
715.30 0.2584
715.40 0.2583
715.50 0.2581
715.60 0.258
715.70 0.2579
715.80 0.2577
715.90 0.2576
716.00 0.2574
716.10 0.2573
716.20 0.2572
716.30 0.257
716.40 0.2569
716.50 0.2568
716.60 0.2566
716.70 0.2565
716.80 0.2564
716.90 0.2562
717.00 0.2561
717.10 0.2559
717.20 0.2558
717.30 0.2557
717.40 0.2555
717.50 0.2554
717.60 0.2553
717.70 0.2551
717.80 0.255
717.90 0.2549
718.00 0.2547
718.10 0.2546
718.20 0.2545
718.30 0.2543
718.40 0.2542
718.50 0.254
718.60 0.2539
718.70 0.2538
718.80 0.2536
718.90 0.2535
719.00 0.2534
719.10 0.2532
719.20 0.2531
719.30 0.253
719.40 0.2528
719.50 0.2527
719.60 0.2526
719.70 0.2524
719.80 0.2523
719.90 0.2522
720.00 0.252
720.10 0.2519
720.20 0.2518
720.30 0.2516
720.40 0.2515
720.50 0.2514
720.60 0.2512
720.70 0.2511
720.80 0.251
720.90 0.2508
721.00 0.2507
721.10 0.2506
721.20 0.2504
721.30 0.2503
721.40 0.2502
721.50 0.25
721.60 0.2499
721.70 0.2498
721.80 0.2496
721.90 0.2495
722.00 0.2494
722.10 0.2493
722.20 0.2491
722.30 0.249
722.40 0.2489
722.50 0.2487
722.60 0.2486
722.70 0.2485
722.80 0.2483
722.90 0.2482
723.00 0.2481
723.10 0.2479
723.20 0.2478
723.30 0.2477
723.40 0.2475
723.50 0.2474
723.60 0.2473
723.70 0.2472
723.80 0.247
723.90 0.2469
724.00 0.2468
724.10 0.2466
724.20 0.2465
724.30 0.2464
724.40 0.2462
724.50 0.2461
724.60 0.246
724.70 0.2459
724.80 0.2457
724.90 0.2456
725.00 0.2455
725.10 0.2453
725.20 0.2452
725.30 0.2451
725.40 0.245
725.50 0.2448
725.60 0.2447
725.70 0.2446
725.80 0.2444
725.90 0.2443
726.00 0.2442
726.10 0.2441
726.20 0.2439
726.30 0.2438
726.40 0.2437
726.50 0.2435
726.60 0.2434
726.70 0.2433
726.80 0.2432
726.90 0.243
727.00 0.2429
727.10 0.2428
727.20 0.2426
727.30 0.2425
727.40 0.2424
727.50 0.2423
727.60 0.2421
727.70 0.242
727.80 0.2419
727.90 0.2418
728.00 0.2416
728.10 0.2415
728.20 0.2414
728.30 0.2413
728.40 0.2411
728.50 0.241
728.60 0.2409
728.70 0.2407
728.80 0.2406
728.90 0.2405
729.00 0.2404
729.10 0.2402
729.20 0.2401
729.30 0.24
729.40 0.2399
729.50 0.2397
729.60 0.2396
729.70 0.2395
729.80 0.2394
729.90 0.2392
730.00 0.2391
730.10 0.239
730.20 0.2389
730.30 0.2387
730.40 0.2386
730.50 0.2385
730.60 0.2384
730.70 0.2382
730.80 0.2381
730.90 0.238
731.00 0.2379
731.10 0.2377
731.20 0.2376
731.30 0.2375
731.40 0.2374
731.50 0.2373
731.60 0.2371
731.70 0.237
731.80 0.2369
731.90 0.2368
732.00 0.2366
732.10 0.2365
732.20 0.2364
732.30 0.2363
732.40 0.2362
732.50 0.236
732.60 0.2359
732.70 0.2358
732.80 0.2357
732.90 0.2355
733.00 0.2354
733.10 0.2353
733.20 0.2352
733.30 0.2351
733.40 0.2349
733.50 0.2348
733.60 0.2347
733.70 0.2346
733.80 0.2344
733.90 0.2343
734.00 0.2342
734.10 0.2341
734.20 0.234
734.30 0.2338
734.40 0.2337
734.50 0.2336
734.60 0.2335
734.70 0.2333
734.80 0.2332
734.90 0.2331
735.00 0.233
735.10 0.2329
735.20 0.2327
735.30 0.2326
735.40 0.2325
735.50 0.2324
735.60 0.2323
735.70 0.2321
735.80 0.232
735.90 0.2319
736.00 0.2318
736.10 0.2317
736.20 0.2315
736.30 0.2314
736.40 0.2313
736.50 0.2312
736.60 0.2311
736.70 0.2309
736.80 0.2308
736.90 0.2307
737.00 0.2306
737.10 0.2305
737.20 0.2303
737.30 0.2302
737.40 0.2301
737.50 0.23
737.60 0.2299
737.70 0.2297
737.80 0.2296
737.90 0.2295
738.00 0.2294
738.10 0.2293
738.20 0.2291
738.30 0.229
738.40 0.2289
738.50 0.2288
738.60 0.2287
738.70 0.2285
738.80 0.2284
738.90 0.2283
739.00 0.2282
739.10 0.2281
739.20 0.228
739.30 0.2278
739.40 0.2277
739.50 0.2276
739.60 0.2275
739.70 0.2274
739.80 0.2272
739.90 0.2271
740.00 0.227
740.10 0.2269
740.20 0.2268
740.30 0.2267
740.40 0.2265
740.50 0.2264
740.60 0.2263
740.70 0.2262
740.80 0.2261
740.90 0.226
741.00 0.2258
741.10 0.2257
741.20 0.2256
741.30 0.2255
741.40 0.2254
741.50 0.2253
741.60 0.2252
741.70 0.225
741.80 0.2249
741.90 0.2248
742.00 0.2247
742.10 0.2246
742.20 0.2245
742.30 0.2243
742.40 0.2242
742.50 0.2241
742.60 0.224
742.70 0.2239
742.80 0.2238
742.90 0.2237
743.00 0.2235
743.10 0.2234
743.20 0.2233
743.30 0.2232
743.40 0.2231
743.50 0.223
743.60 0.2229
743.70 0.2227
743.80 0.2226
743.90 0.2225
744.00 0.2224
744.10 0.2223
744.20 0.2222
744.30 0.2221
744.40 0.2219
744.50 0.2218
744.60 0.2217
744.70 0.2216
744.80 0.2215
744.90 0.2214
745.00 0.2213
745.10 0.2212
745.20 0.221
745.30 0.2209
745.40 0.2208
745.50 0.2207
745.60 0.2206
745.70 0.2205
745.80 0.2204
745.90 0.2202
746.00 0.2201
746.10 0.22
746.20 0.2199
746.30 0.2198
746.40 0.2197
746.50 0.2196
746.60 0.2195
746.70 0.2193
746.80 0.2192
746.90 0.2191
747.00 0.219
747.10 0.2189
747.20 0.2188
747.30 0.2187
747.40 0.2186
747.50 0.2184
747.60 0.2183
747.70 0.2182
747.80 0.2181
747.90 0.218
748.00 0.2179
748.10 0.2178
748.20 0.2177
748.30 0.2176
748.40 0.2174
748.50 0.2173
748.60 0.2172
748.70 0.2171
748.80 0.217
748.90 0.2169
749.00 0.2168
749.10 0.2167
749.20 0.2165
749.30 0.2164
749.40 0.2163
749.50 0.2162
749.60 0.2161
749.70 0.216
749.80 0.2159
749.90 0.2158
750.00 0.2157
750.10 0.2155
750.20 0.2154
750.30 0.2153
750.40 0.2152
750.50 0.2151
750.60 0.215
750.70 0.2149
750.80 0.2148
750.90 0.2147
751.00 0.2146
751.10 0.2145
751.20 0.2144
751.30 0.2142
751.40 0.2141
751.50 0.214
751.60 0.2139
751.70 0.2138
751.80 0.2137
751.90 0.2136
752.00 0.2135
752.10 0.2134
752.20 0.2133
752.30 0.2132
752.40 0.2131
752.50 0.213
752.60 0.2128
752.70 0.2127
752.80 0.2126
752.90 0.2125
753.00 0.2124
753.10 0.2123
753.20 0.2122
753.30 0.2121
753.40 0.212
753.50 0.2119
753.60 0.2118
753.70 0.2117
753.80 0.2116
753.90 0.2114
754.00 0.2113
754.10 0.2112
754.20 0.2111
754.30 0.211
754.40 0.2109
754.50 0.2108
754.60 0.2107
754.70 0.2106
754.80 0.2105
754.90 0.2104
755.00 0.2103
755.10 0.2102
755.20 0.2101
755.30 0.21
755.40 0.2098
755.50 0.2097
755.60 0.2096
755.70 0.2095
755.80 0.2094
755.90 0.2093
756.00 0.2092
756.10 0.2091
756.20 0.209
756.30 0.2089
756.40 0.2088
756.50 0.2087
756.60 0.2086
756.70 0.2085
756.80 0.2084
756.90 0.2083
757.00 0.2082
757.10 0.208
757.20 0.2079
757.30 0.2078
757.40 0.2077
757.50 0.2076
757.60 0.2075
757.70 0.2074
757.80 0.2073
757.90 0.2072
758.00 0.2071
758.10 0.207
758.20 0.2069
758.30 0.2068
758.40 0.2067
758.50 0.2066
758.60 0.2065
758.70 0.2064
758.80 0.2063
758.90 0.2062
759.00 0.2061
759.10 0.2059
759.20 0.2058
759.30 0.2057
759.40 0.2056
759.50 0.2055
759.60 0.2054
759.70 0.2053
759.80 0.2052
759.90 0.2051
760.00 0.205
760.10 0.2049
760.20 0.2048
760.30 0.2047
760.40 0.2046
760.50 0.2045
760.60 0.2044
760.70 0.2043
760.80 0.2042
760.90 0.2041
761.00 0.204
761.10 0.2039
761.20 0.2038
761.30 0.2037
761.40 0.2036
761.50 0.2035
761.60 0.2034
761.70 0.2033
761.80 0.2032
761.90 0.2031
762.00 0.203
762.10 0.2029
762.20 0.2028
762.30 0.2027
762.40 0.2026
762.50 0.2025
762.60 0.2024
762.70 0.2023
762.80 0.2022
762.90 0.2021
763.00 0.202
763.10 0.2019
763.20 0.2018
763.30 0.2017
763.40 0.2016
763.50 0.2015
763.60 0.2014
763.70 0.2013
763.80 0.2012
763.90 0.2011
764.00 0.201
764.10 0.2009
764.20 0.2008
764.30 0.2007
764.40 0.2006
764.50 0.2005
764.60 0.2004
764.70 0.2003
764.80 0.2002
764.90 0.2001
765.00 0.2
765.10 0.1999
765.20 0.1998
765.30 0.1997
765.40 0.1996
765.50 0.1995
765.60 0.1994
765.70 0.1993
765.80 0.1992
765.90 0.1991
766.00 0.199
766.10 0.1989
766.20 0.1988
766.30 0.1987
766.40 0.1986
766.50 0.1985
766.60 0.1984
766.70 0.1983
766.80 0.1982
766.90 0.1981
767.00 0.198
767.10 0.1979
767.20 0.1978
767.30 0.1977
767.40 0.1976
767.50 0.1975
767.60 0.1974
767.70 0.1973
767.80 0.1972
767.90 0.1971
768.00 0.197
768.10 0.1969
768.20 0.1968
768.30 0.1967
768.40 0.1966
768.50 0.1965
768.60 0.1964
768.70 0.1963
768.80 0.1962
768.90 0.1961
769.00 0.196
769.10 0.1959
769.20 0.1958
769.30 0.1957
769.40 0.1956
769.50 0.1955
769.60 0.1954
769.70 0.1953
769.80 0.1952
769.90 0.1951
770.00 0.195
770.10 0.1949
770.20 0.1948
770.30 0.1947
770.40 0.1946
770.50 0.1945
770.60 0.1944
770.70 0.1943
770.80 0.1942
770.90 0.1942
771.00 0.1941
771.10 0.194
771.20 0.1939
771.30 0.1938
771.40 0.1937
771.50 0.1936
771.60 0.1935
771.70 0.1934
771.80 0.1933
771.90 0.1932
772.00 0.1931
772.10 0.193
772.20 0.1929
772.30 0.1928
772.40 0.1927
772.50 0.1926
772.60 0.1925
772.70 0.1924
772.80 0.1923
772.90 0.1922
773.00 0.1922
773.10 0.1921
773.20 0.192
773.30 0.1919
773.40 0.1918
773.50 0.1917
773.60 0.1916
773.70 0.1915
773.80 0.1914
773.90 0.1913
774.00 0.1912
774.10 0.1911
774.20 0.191
774.30 0.1909
774.40 0.1908
774.50 0.1907
774.60 0.1906
774.70 0.1905
774.80 0.1905
774.90 0.1904
775.00 0.1903
775.10 0.1902
775.20 0.1901
775.30 0.19
775.40 0.1899
775.50 0.1898
775.60 0.1897
775.70 0.1896
775.80 0.1895
775.90 0.1894
776.00 0.1893
776.10 0.1892
776.20 0.1891
776.30 0.189
776.40 0.189
776.50 0.1889
776.60 0.1888
776.70 0.1887
776.80 0.1886
776.90 0.1885
777.00 0.1884
777.10 0.1883
777.20 0.1882
777.30 0.1881
777.40 0.188
777.50 0.1879
777.60 0.1878
777.70 0.1877
777.80 0.1877
777.90 0.1876
778.00 0.1875
778.10 0.1874
778.20 0.1873
778.30 0.1872
778.40 0.1871
778.50 0.187
778.60 0.1869
778.70 0.1868
778.80 0.1867
778.90 0.1866
779.00 0.1865
779.10 0.1864
779.20 0.1864
779.30 0.1863
779.40 0.1862
779.50 0.1861
779.60 0.186
779.70 0.1859
779.80 0.1858
779.90 0.1857
780.00 0.1856
780.10 0.1855
780.20 0.1854
780.30 0.1853
780.40 0.1853
780.50 0.1852
780.60 0.1851
780.70 0.185
780.80 0.1849
780.90 0.1848
781.00 0.1847
781.10 0.1846
781.20 0.1845
781.30 0.1844
781.40 0.1844
781.50 0.1843
781.60 0.1842
781.70 0.1841
781.80 0.184
781.90 0.1839
782.00 0.1838
782.10 0.1837
782.20 0.1836
782.30 0.1836
782.40 0.1835
782.50 0.1834
782.60 0.1833
782.70 0.1832
782.80 0.1831
782.90 0.183
783.00 0.1829
783.10 0.1828
783.20 0.1827
783.30 0.1827
783.40 0.1826
783.50 0.1825
783.60 0.1824
783.70 0.1823
783.80 0.1822
783.90 0.1821
784.00 0.182
784.10 0.1819
784.20 0.1819
784.30 0.1818
784.40 0.1817
784.50 0.1816
784.60 0.1815
784.70 0.1814
784.80 0.1813
784.90 0.1812
785.00 0.1812
785.10 0.1811
785.20 0.181
785.30 0.1809
785.40 0.1808
785.50 0.1807
785.60 0.1806
785.70 0.1805
785.80 0.1804
785.90 0.1804
786.00 0.1803
786.10 0.1802
786.20 0.1801
786.30 0.18
786.40 0.1799
786.50 0.1798
786.60 0.1797
786.70 0.1797
786.80 0.1796
786.90 0.1795
787.00 0.1794
787.10 0.1793
787.20 0.1792
787.30 0.1791
787.40 0.179
787.50 0.179
787.60 0.1789
787.70 0.1788
787.80 0.1787
787.90 0.1786
788.00 0.1785
788.10 0.1784
788.20 0.1783
788.30 0.1783
788.40 0.1782
788.50 0.1781
788.60 0.178
788.70 0.1779
788.80 0.1778
788.90 0.1777
789.00 0.1776
789.10 0.1776
789.20 0.1775
789.30 0.1774
789.40 0.1773
789.50 0.1772
789.60 0.1771
789.70 0.177
789.80 0.177
789.90 0.1769
790.00 0.1768
790.10 0.1767
790.20 0.1766
790.30 0.1765
790.40 0.1764
790.50 0.1764
790.60 0.1763
790.70 0.1762
790.80 0.1761
790.90 0.176
791.00 0.1759
791.10 0.1759
791.20 0.1758
791.30 0.1757
791.40 0.1756
791.50 0.1755
791.60 0.1754
791.70 0.1753
791.80 0.1753
791.90 0.1752
792.00 0.1751
792.10 0.175
792.20 0.1749
792.30 0.1748
792.40 0.1748
792.50 0.1747
792.60 0.1746
792.70 0.1745
792.80 0.1744
792.90 0.1743
793.00 0.1743
793.10 0.1742
793.20 0.1741
793.30 0.174
793.40 0.1739
793.50 0.1738
793.60 0.1737
793.70 0.1737
793.80 0.1736
793.90 0.1735
794.00 0.1734
794.10 0.1733
794.20 0.1732
794.30 0.1732
794.40 0.1731
794.50 0.173
794.60 0.1729
794.70 0.1728
794.80 0.1727
794.90 0.1727
795.00 0.1726
795.10 0.1725
795.20 0.1724
795.30 0.1723
795.40 0.1722
795.50 0.1722
795.60 0.1721
795.70 0.172
795.80 0.1719
795.90 0.1718
796.00 0.1718
796.10 0.1717
796.20 0.1716
796.30 0.1715
796.40 0.1714
796.50 0.1713
796.60 0.1713
796.70 0.1712
796.80 0.1711
796.90 0.171
797.00 0.1709
797.10 0.1708
797.20 0.1708
797.30 0.1707
797.40 0.1706
797.50 0.1705
797.60 0.1704
797.70 0.1703
797.80 0.1703
797.90 0.1702
798.00 0.1701
798.10 0.17
798.20 0.1699
798.30 0.1699
798.40 0.1698
798.50 0.1697
798.60 0.1696
798.70 0.1695
798.80 0.1694
798.90 0.1694
799.00 0.1693
799.10 0.1692
799.20 0.1691
799.30 0.169
799.40 0.169
799.50 0.1689
799.60 0.1688
799.70 0.1687
799.80 0.1686
799.90 0.1685
800.00 0.1685
800.10 0.1684
800.20 0.1683
800.30 0.1682
800.40 0.1681
800.50 0.1681
800.60 0.168
800.70 0.1679
800.80 0.1678
800.90 0.1677
801.00 0.1677
801.10 0.1676
801.20 0.1675
801.30 0.1674
801.40 0.1674
801.50 0.1673
801.60 0.1672
801.70 0.1671
801.80 0.167
801.90 0.167
802.00 0.1669
802.10 0.1668
802.20 0.1667
802.30 0.1666
802.40 0.1666
802.50 0.1665
802.60 0.1664
802.70 0.1663
802.80 0.1662
802.90 0.1662
803.00 0.1661
803.10 0.166
803.20 0.1659
803.30 0.1658
803.40 0.1658
803.50 0.1657
803.60 0.1656
803.70 0.1655
803.80 0.1655
803.90 0.1654
804.00 0.1653
804.10 0.1652
804.20 0.1651
804.30 0.1651
804.40 0.165
804.50 0.1649
804.60 0.1648
804.70 0.1647
804.80 0.1647
804.90 0.1646
805.00 0.1645
805.10 0.1644
805.20 0.1644
805.30 0.1643
805.40 0.1642
805.50 0.1641
805.60 0.164
805.70 0.164
805.80 0.1639
805.90 0.1638
806.00 0.1637
806.10 0.1636
806.20 0.1636
806.30 0.1635
806.40 0.1634
806.50 0.1633
806.60 0.1633
806.70 0.1632
806.80 0.1631
806.90 0.163
807.00 0.1629
807.10 0.1629
807.20 0.1628
807.30 0.1627
807.40 0.1626
807.50 0.1626
807.60 0.1625
807.70 0.1624
807.80 0.1623
807.90 0.1623
808.00 0.1622
808.10 0.1621
808.20 0.162
808.30 0.1619
808.40 0.1619
808.50 0.1618
808.60 0.1617
808.70 0.1616
808.80 0.1616
808.90 0.1615
809.00 0.1614
809.10 0.1613
809.20 0.1612
809.30 0.1612
809.40 0.1611
809.50 0.161
809.60 0.1609
809.70 0.1609
809.80 0.1608
809.90 0.1607
810.00 0.1606
810.10 0.1606
810.20 0.1605
810.30 0.1604
810.40 0.1603
810.50 0.1603
810.60 0.1602
810.70 0.1601
810.80 0.16
810.90 0.16
811.00 0.1599
811.10 0.1598
811.20 0.1597
811.30 0.1597
811.40 0.1596
811.50 0.1595
811.60 0.1594
811.70 0.1594
811.80 0.1593
811.90 0.1592
812.00 0.1591
812.10 0.1591
812.20 0.159
812.30 0.1589
812.40 0.1588
812.50 0.1588
812.60 0.1587
812.70 0.1586
812.80 0.1585
812.90 0.1585
813.00 0.1584
813.10 0.1583
813.20 0.1582
813.30 0.1582
813.40 0.1581
813.50 0.158
813.60 0.1579
813.70 0.1579
813.80 0.1578
813.90 0.1577
814.00 0.1576
814.10 0.1576
814.20 0.1575
814.30 0.1574
814.40 0.1573
814.50 0.1573
814.60 0.1572
814.70 0.1571
814.80 0.1571
814.90 0.157
815.00 0.1569
815.10 0.1568
815.20 0.1568
815.30 0.1567
815.40 0.1566
815.50 0.1565
815.60 0.1565
815.70 0.1564
815.80 0.1563
815.90 0.1562
816.00 0.1562
816.10 0.1561
816.20 0.156
816.30 0.1559
816.40 0.1559
816.50 0.1558
816.60 0.1557
816.70 0.1557
816.80 0.1556
816.90 0.1555
817.00 0.1554
817.10 0.1554
817.20 0.1553
817.30 0.1552
817.40 0.1551
817.50 0.1551
817.60 0.155
817.70 0.1549
817.80 0.1549
817.90 0.1548
818.00 0.1547
818.10 0.1546
818.20 0.1546
818.30 0.1545
818.40 0.1544
818.50 0.1543
818.60 0.1543
818.70 0.1542
818.80 0.1541
818.90 0.1541
819.00 0.154
819.10 0.1539
819.20 0.1538
819.30 0.1538
819.40 0.1537
819.50 0.1536
819.60 0.1535
819.70 0.1535
819.80 0.1534
819.90 0.1533
820.00 0.1533
820.10 0.1532
820.20 0.1531
820.30 0.153
820.40 0.153
820.50 0.1529
820.60 0.1528
820.70 0.1528
820.80 0.1527
820.90 0.1526
821.00 0.1525
821.10 0.1525
821.20 0.1524
821.30 0.1523
821.40 0.1523
821.50 0.1522
821.60 0.1521
821.70 0.152
821.80 0.152
821.90 0.1519
822.00 0.1518
822.10 0.1518
822.20 0.1517
822.30 0.1516
822.40 0.1515
822.50 0.1515
822.60 0.1514
822.70 0.1513
822.80 0.1513
822.90 0.1512
823.00 0.1511
823.10 0.1511
823.20 0.151
823.30 0.1509
823.40 0.1508
823.50 0.1508
823.60 0.1507
823.70 0.1506
823.80 0.1506
823.90 0.1505
824.00 0.1504
824.10 0.1504
824.20 0.1503
824.30 0.1502
824.40 0.1501
824.50 0.1501
824.60 0.15
824.70 0.1499
824.80 0.1499
824.90 0.1498
825.00 0.1497
825.10 0.1497
825.20 0.1496
825.30 0.1495
825.40 0.1494
825.50 0.1494
825.60 0.1493
825.70 0.1492
825.80 0.1492
825.90 0.1491
826.00 0.149
826.10 0.149
826.20 0.1489
826.30 0.1488
826.40 0.1488
826.50 0.1487
826.60 0.1486
826.70 0.1485
826.80 0.1485
826.90 0.1484
827.00 0.1483
827.10 0.1483
827.20 0.1482
827.30 0.1481
827.40 0.1481
827.50 0.148
827.60 0.1479
827.70 0.1479
827.80 0.1478
827.90 0.1477
828.00 0.1476
828.10 0.1476
828.20 0.1475
828.30 0.1474
828.40 0.1474
828.50 0.1473
828.60 0.1472
828.70 0.1472
828.80 0.1471
828.90 0.147
829.00 0.147
829.10 0.1469
829.20 0.1468
829.30 0.1468
829.40 0.1467
829.50 0.1466
829.60 0.1466
829.70 0.1465
829.80 0.1464
829.90 0.1463
830.00 0.1463
830.10 0.1462
830.20 0.1461
830.30 0.1461
830.40 0.146
830.50 0.1459
830.60 0.1459
830.70 0.1458
830.80 0.1457
830.90 0.1457
831.00 0.1456
831.10 0.1455
831.20 0.1455
831.30 0.1454
831.40 0.1453
831.50 0.1453
831.60 0.1452
831.70 0.1451
831.80 0.1451
831.90 0.145
832.00 0.1449
832.10 0.1449
832.20 0.1448
832.30 0.1447
832.40 0.1447
832.50 0.1446
832.60 0.1445
832.70 0.1445
832.80 0.1444
832.90 0.1443
833.00 0.1443
833.10 0.1442
833.20 0.1441
833.30 0.144
833.40 0.144
833.50 0.1439
833.60 0.1438
833.70 0.1438
833.80 0.1437
833.90 0.1436
834.00 0.1436
834.10 0.1435
834.20 0.1434
834.30 0.1434
834.40 0.1433
834.50 0.1432
834.60 0.1432
834.70 0.1431
834.80 0.143
834.90 0.143
835.00 0.1429
835.10 0.1428
835.20 0.1428
835.30 0.1427
835.40 0.1426
835.50 0.1426
835.60 0.1425
835.70 0.1424
835.80 0.1424
835.90 0.1423
836.00 0.1422
836.10 0.1422
836.20 0.1421
836.30 0.142
836.40 0.142
836.50 0.1419
836.60 0.1418
836.70 0.1418
836.80 0.1417
836.90 0.1416
837.00 0.1416
837.10 0.1415
837.20 0.1414
837.30 0.1414
837.40 0.1413
837.50 0.1413
837.60 0.1412
837.70 0.1411
837.80 0.1411
837.90 0.141
838.00 0.1409
838.10 0.1409
838.20 0.1408
838.30 0.1407
838.40 0.1407
838.50 0.1406
838.60 0.1405
838.70 0.1405
838.80 0.1404
838.90 0.1403
839.00 0.1403
839.10 0.1402
839.20 0.1401
839.30 0.1401
839.40 0.14
839.50 0.14
839.60 0.1399
839.70 0.1398
839.80 0.1398
839.90 0.1397
840.00 0.1396
840.10 0.1396
840.20 0.1395
840.30 0.1394
840.40 0.1394
840.50 0.1393
840.60 0.1392
840.70 0.1392
840.80 0.1391
840.90 0.1391
841.00 0.139
841.10 0.1389
841.20 0.1389
841.30 0.1388
841.40 0.1387
841.50 0.1387
841.60 0.1386
841.70 0.1385
841.80 0.1385
841.90 0.1384
842.00 0.1383
842.10 0.1383
842.20 0.1382
842.30 0.1382
842.40 0.1381
842.50 0.138
842.60 0.138
842.70 0.1379
842.80 0.1378
842.90 0.1378
843.00 0.1377
843.10 0.1377
843.20 0.1376
843.30 0.1375
843.40 0.1375
843.50 0.1374
843.60 0.1373
843.70 0.1373
843.80 0.1372
843.90 0.1371
844.00 0.1371
844.10 0.137
844.20 0.137
844.30 0.1369
844.40 0.1368
844.50 0.1368
844.60 0.1367
844.70 0.1366
844.80 0.1366
844.90 0.1365
845.00 0.1365
845.10 0.1364
845.20 0.1363
845.30 0.1363
845.40 0.1362
845.50 0.1361
845.60 0.1361
845.70 0.136
845.80 0.136
845.90 0.1359
846.00 0.1358
846.10 0.1358
846.20 0.1357
846.30 0.1356
846.40 0.1356
846.50 0.1355
846.60 0.1355
846.70 0.1354
846.80 0.1353
846.90 0.1353
847.00 0.1352
847.10 0.1352
847.20 0.1351
847.30 0.135
847.40 0.135
847.50 0.1349
847.60 0.1348
847.70 0.1348
847.80 0.1347
847.90 0.1347
848.00 0.1346
848.10 0.1345
848.20 0.1345
848.30 0.1344
848.40 0.1344
848.50 0.1343
848.60 0.1342
848.70 0.1342
848.80 0.1341
848.90 0.1341
849.00 0.134
849.10 0.1339
849.20 0.1339
849.30 0.1338
849.40 0.1338
849.50 0.1337
849.60 0.1336
849.70 0.1336
849.80 0.1335
849.90 0.1334
850.00 0.1334
850.10 0.1333
850.20 0.1333
850.30 0.1332
850.40 0.1331
850.50 0.1331
850.60 0.133
850.70 0.133
850.80 0.1329
850.90 0.1328
851.00 0.1328
851.10 0.1327
851.20 0.1327
851.30 0.1326
851.40 0.1325
851.50 0.1325
851.60 0.1324
851.70 0.1324
851.80 0.1323
851.90 0.1322
852.00 0.1322
852.10 0.1321
852.20 0.1321
852.30 0.132
852.40 0.1319
852.50 0.1319
852.60 0.1318
852.70 0.1318
852.80 0.1317
852.90 0.1317
853.00 0.1316
853.10 0.1315
853.20 0.1315
853.30 0.1314
853.40 0.1314
853.50 0.1313
853.60 0.1312
853.70 0.1312
853.80 0.1311
853.90 0.1311
854.00 0.131
854.10 0.1309
854.20 0.1309
854.30 0.1308
854.40 0.1308
854.50 0.1307
854.60 0.1307
854.70 0.1306
854.80 0.1305
854.90 0.1305
855.00 0.1304
855.10 0.1304
855.20 0.1303
855.30 0.1303
855.40 0.1302
855.50 0.1301
855.60 0.1301
855.70 0.13
855.80 0.13
855.90 0.1299
856.00 0.1298
856.10 0.1298
856.20 0.1297
856.30 0.1297
856.40 0.1296
856.50 0.1296
856.60 0.1295
856.70 0.1294
856.80 0.1294
856.90 0.1293
857.00 0.1293
857.10 0.1292
857.20 0.1292
857.30 0.1291
857.40 0.129
857.50 0.129
857.60 0.1289
857.70 0.1289
857.80 0.1288
857.90 0.1288
858.00 0.1287
858.10 0.1286
858.20 0.1286
858.30 0.1285
858.40 0.1285
858.50 0.1284
858.60 0.1284
858.70 0.1283
858.80 0.1283
858.90 0.1282
859.00 0.1281
859.10 0.1281
859.20 0.128
859.30 0.128
859.40 0.1279
859.50 0.1279
859.60 0.1278
859.70 0.1277
859.80 0.1277
859.90 0.1276
860.00 0.1276
860.10 0.1275
860.20 0.1275
860.30 0.1274
860.40 0.1274
860.50 0.1273
860.60 0.1272
860.70 0.1272
860.80 0.1271
860.90 0.1271
861.00 0.127
861.10 0.127
861.20 0.1269
861.30 0.1269
861.40 0.1268
861.50 0.1267
861.60 0.1267
861.70 0.1266
861.80 0.1266
861.90 0.1265
862.00 0.1265
862.10 0.1264
862.20 0.1264
862.30 0.1263
862.40 0.1262
862.50 0.1262
862.60 0.1261
862.70 0.1261
862.80 0.126
862.90 0.126
863.00 0.1259
863.10 0.1259
863.20 0.1258
863.30 0.1257
863.40 0.1257
863.50 0.1256
863.60 0.1256
863.70 0.1255
863.80 0.1255
863.90 0.1254
864.00 0.1254
864.10 0.1253
864.20 0.1252
864.30 0.1252
864.40 0.1251
864.50 0.1251
864.60 0.125
864.70 0.125
864.80 0.1249
864.90 0.1249
865.00 0.1248
865.10 0.1248
865.20 0.1247
865.30 0.1246
865.40 0.1246
865.50 0.1245
865.60 0.1245
865.70 0.1244
865.80 0.1244
865.90 0.1243
866.00 0.1243
866.10 0.1242
866.20 0.1242
866.30 0.1241
866.40 0.124
866.50 0.124
866.60 0.1239
866.70 0.1239
866.80 0.1238
866.90 0.1238
867.00 0.1237
867.10 0.1237
867.20 0.1236
867.30 0.1236
867.40 0.1235
867.50 0.1235
867.60 0.1234
867.70 0.1233
867.80 0.1233
867.90 0.1232
868.00 0.1232
868.10 0.1231
868.20 0.1231
868.30 0.123
868.40 0.123
868.50 0.1229
868.60 0.1229
868.70 0.1228
868.80 0.1228
868.90 0.1227
869.00 0.1227
869.10 0.1226
869.20 0.1226
869.30 0.1225
869.40 0.1224
869.50 0.1224
869.60 0.1223
869.70 0.1223
869.80 0.1222
869.90 0.1222
870.00 0.1221
870.10 0.1221
870.20 0.122
870.30 0.122
870.40 0.1219
870.50 0.1219
870.60 0.1218
870.70 0.1218
870.80 0.1217
870.90 0.1217
871.00 0.1216
871.10 0.1216
871.20 0.1215
871.30 0.1215
871.40 0.1214
871.50 0.1213
871.60 0.1213
871.70 0.1212
871.80 0.1212
871.90 0.1211
872.00 0.1211
872.10 0.121
872.20 0.121
872.30 0.1209
872.40 0.1209
872.50 0.1208
872.60 0.1208
872.70 0.1207
872.80 0.1207
872.90 0.1206
873.00 0.1206
873.10 0.1205
873.20 0.1205
873.30 0.1204
873.40 0.1204
873.50 0.1203
873.60 0.1203
873.70 0.1202
873.80 0.1202
873.90 0.1201
874.00 0.1201
874.10 0.12
874.20 0.12
874.30 0.1199
874.40 0.1198
874.50 0.1198
874.60 0.1197
874.70 0.1197
874.80 0.1196
874.90 0.1196
875.00 0.1195
875.10 0.1195
875.20 0.1194
875.30 0.1194
875.40 0.1193
875.50 0.1193
875.60 0.1192
875.70 0.1192
875.80 0.1191
875.90 0.1191
876.00 0.119
876.10 0.119
876.20 0.1189
876.30 0.1189
876.40 0.1188
876.50 0.1188
876.60 0.1187
876.70 0.1187
876.80 0.1186
876.90 0.1186
877.00 0.1185
877.10 0.1185
877.20 0.1184
877.30 0.1184
877.40 0.1183
877.50 0.1183
877.60 0.1182
877.70 0.1182
877.80 0.1181
877.90 0.1181
878.00 0.118
878.10 0.118
878.20 0.1179
878.30 0.1179
878.40 0.1178
878.50 0.1178
878.60 0.1177
878.70 0.1177
878.80 0.1176
878.90 0.1176
879.00 0.1175
879.10 0.1175
879.20 0.1174
879.30 0.1174
879.40 0.1173
879.50 0.1173
879.60 0.1172
879.70 0.1172
879.80 0.1171
879.90 0.1171
880.00 0.117
880.10 0.117
880.20 0.1169
880.30 0.1169
880.40 0.1168
880.50 0.1168
880.60 0.1167
880.70 0.1167
880.80 0.1166
880.90 0.1166
881.00 0.1165
881.10 0.1165
881.20 0.1164
881.30 0.1164
881.40 0.1163
881.50 0.1163
881.60 0.1162
881.70 0.1162
881.80 0.1161
881.90 0.1161
882.00 0.116
882.10 0.116
882.20 0.1159
882.30 0.1159
882.40 0.1158
882.50 0.1157
882.60 0.1157
882.70 0.1156
882.80 0.1156
882.90 0.1155
883.00 0.1155
883.10 0.1154
883.20 0.1153
883.30 0.1153
883.40 0.1152
883.50 0.1152
883.60 0.1151
883.70 0.1151
883.80 0.115
883.90 0.1149
884.00 0.1149
884.10 0.1148
884.20 0.1148
884.30 0.1147
884.40 0.1147
884.50 0.1146
884.60 0.1145
884.70 0.1145
884.80 0.1144
884.90 0.1144
885.00 0.1143
885.10 0.1143
885.20 0.1142
885.30 0.1141
885.40 0.1141
885.50 0.114
885.60 0.114
885.70 0.1139
885.80 0.1139
885.90 0.1138
886.00 0.1138
886.10 0.1137
886.20 0.1136
886.30 0.1136
886.40 0.1135
886.50 0.1135
886.60 0.1134
886.70 0.1134
886.80 0.1133
886.90 0.1132
887.00 0.1132
887.10 0.1132
887.20 0.1131
887.30 0.1131
887.40 0.1131
887.50 0.113
887.60 0.113
887.70 0.113
887.80 0.1129
887.90 0.1129
888.00 0.1128
888.10 0.1128
888.20 0.1128
888.30 0.1127
888.40 0.1127
888.50 0.1127
888.60 0.1126
888.70 0.1126
888.80 0.1126
888.90 0.1125
889.00 0.1125
889.10 0.1125
889.20 0.1124
889.30 0.1124
889.40 0.1124
889.50 0.1123
889.60 0.1123
889.70 0.1123
889.80 0.1122
889.90 0.1122
890.00 0.1122
890.10 0.1121
890.20 0.1121
890.30 0.1121
890.40 0.112
890.50 0.112
890.60 0.112
890.70 0.1119
890.80 0.1119
890.90 0.1119
891.00 0.1118
891.10 0.1118
891.20 0.1118
891.30 0.1117
891.40 0.1117
891.50 0.1117
891.60 0.1116
891.70 0.1116
891.80 0.1115
891.90 0.1115
892.00 0.1115
892.10 0.1114
892.20 0.1114
892.30 0.1113
892.40 0.1113
892.50 0.1112
892.60 0.1111
892.70 0.1111
892.80 0.111
892.90 0.111
893.00 0.1109
893.10 0.1109
893.20 0.1108
893.30 0.1108
893.40 0.1107
893.50 0.1106
893.60 0.1106
893.70 0.1105
893.80 0.1105
893.90 0.1104
894.00 0.1104
894.10 0.1103
894.20 0.1103
894.30 0.1102
894.40 0.1101
894.50 0.1101
894.60 0.11
894.70 0.11
894.80 0.1099
894.90 0.1099
895.00 0.1098
895.10 0.1098
895.20 0.1097
895.30 0.1096
895.40 0.1096
895.50 0.1095
895.60 0.1095
895.70 0.1094
895.80 0.1094
895.90 0.1093
896.00 0.1093
896.10 0.1092
896.20 0.1092
896.30 0.1091
896.40 0.109
896.50 0.109
896.60 0.1089
896.70 0.1089
896.80 0.1088
896.90 0.1088
897.00 0.1087
897.10 0.1086
897.20 0.1086
897.30 0.1085
897.40 0.1084
897.50 0.1084
897.60 0.1083
897.70 0.1082
897.80 0.1081
897.90 0.1081
898.00 0.108
898.10 0.1079
898.20 0.1079
898.30 0.1078
898.40 0.1077
898.50 0.1076
898.60 0.1076
898.70 0.1075
898.80 0.1074
898.90 0.1074
899.00 0.1073
899.10 0.1072
899.20 0.1072
899.30 0.1071
899.40 0.107
899.50 0.1069
899.60 0.1069
899.70 0.1068
899.80 0.1067
899.90 0.1067
900.00 0.1066
900.10 0.1065
900.20 0.1065
900.30 0.1064
900.40 0.1063
900.50 0.1062
900.60 0.1062
900.70 0.1061
900.80 0.106
900.90 0.106
901.00 0.1059
901.10 0.1058
901.20 0.1058
901.30 0.1057
901.40 0.1056
901.50 0.1055
901.60 0.1055
901.70 0.1054
901.80 0.1053
901.90 0.1053
902.00 0.1052
902.10 0.1052
902.20 0.1052
902.30 0.1052
902.40 0.1052
902.50 0.1051
902.60 0.1051
902.70 0.1051
902.80 0.1051
902.90 0.1051
903.00 0.1051
903.10 0.1051
903.20 0.1051
903.30 0.1051
903.40 0.1051
903.50 0.105
903.60 0.105
903.70 0.105
903.80 0.105
903.90 0.105
904.00 0.105
904.10 0.105
904.20 0.105
904.30 0.105
904.40 0.105
904.50 0.1049
904.60 0.1049
904.70 0.1049
904.80 0.1049
904.90 0.1049
905.00 0.1049
905.10 0.1049
905.20 0.1049
905.30 0.1049
905.40 0.1048
905.50 0.1048
905.60 0.1048
905.70 0.1048
905.80 0.1048
905.90 0.1048
906.00 0.1048
906.10 0.1048
906.20 0.1048
906.30 0.1048
906.40 0.1047
906.50 0.1047
906.60 0.1047
906.70 0.1047
906.80 0.1047
906.90 0.1047
907.00 0.1047
907.10 0.1047
907.20 0.1046
907.30 0.1046
907.40 0.1046
907.50 0.1045
907.60 0.1045
907.70 0.1044
907.80 0.1044
907.90 0.1044
908.00 0.1043
908.10 0.1043
908.20 0.1043
908.30 0.1042
908.40 0.1042
908.50 0.1042
908.60 0.1041
908.70 0.1041
908.80 0.1041
908.90 0.104
909.00 0.104
909.10 0.104
909.20 0.1039
909.30 0.1039
909.40 0.1039
909.50 0.1038
909.60 0.1038
909.70 0.1038
909.80 0.1037
909.90 0.1037
910.00 0.1037
910.10 0.1036
910.20 0.1036
910.30 0.1036
910.40 0.1035
910.50 0.1035
910.60 0.1035
910.70 0.1034
910.80 0.1034
910.90 0.1034
911.00 0.1033
911.10 0.1033
911.20 0.1033
911.30 0.1032
911.40 0.1032
911.50 0.1032
911.60 0.1031
911.70 0.1031
911.80 0.1031
911.90 0.103
912.00 0.103
912.10 0.1029
912.20 0.1029
912.30 0.1028
912.40 0.1028
912.50 0.1027
912.60 0.1026
912.70 0.1026
912.80 0.1025
912.90 0.1025
913.00 0.1024
913.10 0.1023
913.20 0.1023
913.30 0.1022
913.40 0.1022
913.50 0.1021
913.60 0.1021
913.70 0.102
913.80 0.1019
913.90 0.1019
914.00 0.1018
914.10 0.1018
914.20 0.1017
914.30 0.1017
914.40 0.1016
914.50 0.1015
914.60 0.1015
914.70 0.1014
914.80 0.1014
914.90 0.1013
915.00 0.1013
915.10 0.1012
915.20 0.1011
915.30 0.1011
915.40 0.101
915.50 0.101
915.60 0.1009
915.70 0.1009
915.80 0.1008
915.90 0.1007
916.00 0.1007
916.10 0.1006
916.20 0.1006
916.30 0.1005
916.40 0.1005
916.50 0.1004
916.60 0.1003
916.70 0.1003
916.80 0.1002
916.90 0.1002
917.00 0.1001
917.10 0.1
917.20 0.09993
917.30 0.09983
917.40 0.09973
917.50 0.09964
917.60 0.09954
917.70 0.09944
917.80 0.09935
917.90 0.09925
918.00 0.09915
918.10 0.09906
918.20 0.09896
918.30 0.09886
918.40 0.09877
918.50 0.09867
918.60 0.09857
918.70 0.09848
918.80 0.09838
918.90 0.09828
919.00 0.09819
919.10 0.09809
919.20 0.098
919.30 0.0979
919.40 0.0978
919.50 0.09771
919.60 0.09761
919.70 0.09752
919.80 0.09742
919.90 0.09732
920.00 0.09723
920.10 0.09713
920.20 0.09704
920.30 0.09694
920.40 0.09684
920.50 0.09675
920.60 0.09665
920.70 0.09656
920.80 0.09646
920.90 0.09637
921.00 0.09627
921.10 0.09618
921.20 0.09608
921.30 0.09598
921.40 0.09589
921.50 0.09579
921.60 0.0957
921.70 0.0956
921.80 0.09551
921.90 0.09541
922.00 0.09532
922.10 0.09532
922.20 0.09532
922.30 0.09533
922.40 0.09533
922.50 0.09533
922.60 0.09534
922.70 0.09534
922.80 0.09534
922.90 0.09535
923.00 0.09535
923.10 0.09535
923.20 0.09536
923.30 0.09536
923.40 0.09536
923.50 0.09536
923.60 0.09537
923.70 0.09537
923.80 0.09537
923.90 0.09538
924.00 0.09538
924.10 0.09538
924.20 0.09539
924.30 0.09539
924.40 0.09539
924.50 0.0954
924.60 0.0954
924.70 0.0954
924.80 0.0954
924.90 0.09541
925.00 0.09541
925.10 0.09541
925.20 0.09542
925.30 0.09542
925.40 0.09542
925.50 0.09543
925.60 0.09543
925.70 0.09543
925.80 0.09543
925.90 0.09544
926.00 0.09544
926.10 0.09544
926.20 0.09545
926.30 0.09545
926.40 0.09545
926.50 0.09546
926.60 0.09546
926.70 0.09546
926.80 0.09546
926.90 0.09547
927.00 0.09547
927.10 0.09546
927.20 0.09545
927.30 0.09544
927.40 0.09543
927.50 0.09542
927.60 0.09541
927.70 0.0954
927.80 0.09539
927.90 0.09538
928.00 0.09537
928.10 0.09536
928.20 0.09535
928.30 0.09534
928.40 0.09532
928.50 0.09531
928.60 0.0953
928.70 0.09529
928.80 0.09528
928.90 0.09527
929.00 0.09526
929.10 0.09525
929.20 0.09524
929.30 0.09523
929.40 0.09522
929.50 0.09521
929.60 0.0952
929.70 0.09519
929.80 0.09518
929.90 0.09517
930.00 0.09516
930.10 0.09515
930.20 0.09514
930.30 0.09513
930.40 0.09512
930.50 0.09511
930.60 0.0951
930.70 0.09509
930.80 0.09508
930.90 0.09507
931.00 0.09505
931.10 0.09504
931.20 0.09503
931.30 0.09502
931.40 0.09501
931.50 0.095
931.60 0.09499
931.70 0.09498
931.80 0.09497
931.90 0.09496
932.00 0.09495
932.10 0.09492
932.20 0.09489
932.30 0.09487
932.40 0.09484
932.50 0.09481
932.60 0.09478
932.70 0.09475
932.80 0.09472
932.90 0.09469
933.00 0.09467
933.10 0.09464
933.20 0.09461
933.30 0.09458
933.40 0.09455
933.50 0.09452
933.60 0.0945
933.70 0.09447
933.80 0.09444
933.90 0.09441
934.00 0.09438
934.10 0.09435
934.20 0.09432
934.30 0.0943
934.40 0.09426
934.50 0.09423
934.60 0.09419
934.70 0.09416
934.80 0.09413
934.90 0.09409
935.00 0.09406
935.10 0.09402
935.20 0.09399
935.30 0.09395
935.40 0.09392
935.50 0.09389
935.60 0.09385
935.70 0.09382
935.80 0.09378
935.90 0.09375
936.00 0.09372
936.10 0.09368
936.20 0.09365
936.30 0.09361
936.40 0.09358
936.50 0.09355
936.60 0.09351
936.70 0.09348
936.80 0.09344
936.90 0.09341
937.00 0.09338
937.10 0.09334
937.20 0.0933
937.30 0.09327
937.40 0.09323
937.50 0.09319
937.60 0.09315
937.70 0.09312
937.80 0.09308
937.90 0.09304
938.00 0.09301
938.10 0.09297
938.20 0.09293
938.30 0.09289
938.40 0.09285
938.50 0.09282
938.60 0.09278
938.70 0.09274
938.80 0.0927
938.90 0.09266
939.00 0.09262
939.10 0.09258
939.20 0.09254
939.30 0.0925
939.40 0.09246
939.50 0.09242
939.60 0.09238
939.70 0.09234
939.80 0.0923
939.90 0.09226
940.00 0.09222
940.10 0.09219
940.20 0.09215
940.30 0.09211
940.40 0.09206
940.50 0.09202
940.60 0.09198
940.70 0.09194
940.80 0.0919
940.90 0.09185
941.00 0.09181
941.10 0.09177
941.20 0.09173
941.30 0.09168
941.40 0.09164
941.50 0.0916
941.60 0.09156
941.70 0.09152
941.80 0.09147
941.90 0.09143
942.00 0.09139
942.10 0.09135
942.20 0.0913
942.30 0.09126
942.40 0.09121
942.50 0.09116
942.60 0.09112
942.70 0.09107
942.80 0.09102
942.90 0.09098
943.00 0.09093
943.10 0.09088
943.20 0.09084
943.30 0.09079
943.40 0.09074
943.50 0.0907
943.60 0.09065
943.70 0.0906
943.80 0.09056
943.90 0.09051
944.00 0.09046
944.10 0.09042
944.20 0.09037
944.30 0.09032
944.40 0.09027
944.50 0.09022
944.60 0.09017
944.70 0.09012
944.80 0.09007
944.90 0.09001
945.00 0.08996
945.10 0.08991
945.20 0.08986
945.30 0.08981
945.40 0.08975
945.50 0.08969
945.60 0.08963
945.70 0.08958
945.80 0.08952
945.90 0.08946
946.00 0.0894
946.10 0.08934
946.20 0.08929
946.30 0.08923
946.40 0.08917
946.50 0.08911
946.60 0.08905
946.70 0.089
946.80 0.08894
946.90 0.08888
947.00 0.08882
947.10 0.08876
947.20 0.08869
947.30 0.08863
947.40 0.08856
947.50 0.08848
947.60 0.08841
947.70 0.08833
947.80 0.08826
947.90 0.08818
948.00 0.08811
948.10 0.08803
948.20 0.08796
948.30 0.08788
948.40 0.08781
948.50 0.08773
948.60 0.08766
948.70 0.08758
948.80 0.08751
948.90 0.08744
949.00 0.08736
949.10 0.08729
949.20 0.08721
949.30 0.08714
949.40 0.08704
949.50 0.08693
949.60 0.08683
949.70 0.08673
949.80 0.08663
949.90 0.08653
950.00 0.08643
950.10 0.08633
950.20 0.08623
950.30 0.08613
950.40 0.08603
950.50 0.08592
950.60 0.08582
950.70 0.08572
950.80 0.08562
950.90 0.08552
951.00 0.08542
951.10 0.08532
951.20 0.08522
951.30 0.08512
951.40 0.08499
951.50 0.08487
951.60 0.08474
951.70 0.08462
951.80 0.0845
951.90 0.08437
952.00 0.08425
952.10 0.08411
952.20 0.08397
952.30 0.08383
952.40 0.08369
952.50 0.08355
952.60 0.08341
952.70 0.08328
952.80 0.08314
952.90 0.08299
953.00 0.08284
953.10 0.0827
953.20 0.08255
953.30 0.0824
953.40 0.08225
953.50 0.08211
953.60 0.08196
953.70 0.08182
953.80 0.08167
953.90 0.08153
954.00 0.0814
954.10 0.08126
954.20 0.08113
954.30 0.08102
954.40 0.08092
954.50 0.08084
954.60 0.08081
954.70 0.08078
954.80 0.08083
954.90 0.08087
955.00 0.08091
955.10 0.08096
955.20 0.08104
955.30 0.08112
955.40 0.0812
955.50 0.08127
955.60 0.08135
955.70 0.08143
955.80 0.08151
955.90 0.08159
956.00 0.08166
956.10 0.08174
956.20 0.08182
956.30 0.0819
956.40 0.08197
956.50 0.08205
956.60 0.08213
956.70 0.0822
956.80 0.08228
956.90 0.08236
957.00 0.08243
957.10 0.0825
957.20 0.08256
957.30 0.08263
957.40 0.08267
957.50 0.08271
957.60 0.08275
957.70 0.08279
957.80 0.08283
957.90 0.08288
958.00 0.08292
958.10 0.08296
958.20 0.083
958.30 0.08304
958.40 0.08308
958.50 0.08313
958.60 0.08317
958.70 0.08321
958.80 0.08325
958.90 0.08329
959.00 0.08333
959.10 0.08337
959.20 0.08342
959.30 0.08346
959.40 0.08347
959.50 0.08348
959.60 0.08349
959.70 0.0835
959.80 0.08351
959.90 0.08352
960.00 0.08353
960.10 0.08354
960.20 0.08355
960.30 0.08356
960.40 0.08357
960.50 0.08358
960.60 0.08359
960.70 0.0836
960.80 0.08361
960.90 0.08362
961.00 0.08363
961.10 0.08364
961.20 0.08366
961.30 0.08367
961.40 0.08366
961.50 0.08366
961.60 0.08365
961.70 0.08365
961.80 0.08365
961.90 0.08364
962.00 0.08364
962.10 0.08363
962.20 0.08362
962.30 0.08361
962.40 0.0836
962.50 0.08359
962.60 0.08358
962.70 0.08357
962.80 0.08355
962.90 0.08354
963.00 0.08353
963.10 0.08352
963.20 0.08351
963.30 0.0835
963.40 0.08348
963.50 0.08347
963.60 0.08345
963.70 0.08343
963.80 0.08342
963.90 0.0834
964.00 0.08338
964.10 0.08337
964.20 0.08335
964.30 0.08333
964.40 0.08331
964.50 0.08329
964.60 0.08327
964.70 0.08325
964.80 0.08322
964.90 0.0832
965.00 0.08318
965.10 0.08316
965.20 0.08314
965.30 0.08311
965.40 0.08309
965.50 0.08307
965.60 0.08305
965.70 0.08303
965.80 0.083
965.90 0.08298
966.00 0.08296
966.10 0.08294
966.20 0.08292
966.30 0.0829
966.40 0.08287
966.50 0.08284
966.60 0.08282
966.70 0.08279
966.80 0.08277
966.90 0.08274
967.00 0.08272
967.10 0.08269
967.20 0.08267
967.30 0.08264
967.40 0.08261
967.50 0.08258
967.60 0.08256
967.70 0.08253
967.80 0.0825
967.90 0.08248
968.00 0.08245
968.10 0.08242
968.20 0.0824
968.30 0.08237
968.40 0.08234
968.50 0.08231
968.60 0.08229
968.70 0.08226
968.80 0.08223
968.90 0.0822
969.00 0.08217
969.10 0.08214
969.20 0.08211
969.30 0.08209
969.40 0.08206
969.50 0.08203
969.60 0.082
969.70 0.08197
969.80 0.08194
969.90 0.08191
970.00 0.08189
970.10 0.08186
970.20 0.08183
970.30 0.0818
970.40 0.08177
970.50 0.08174
970.60 0.08171
970.70 0.08168
970.80 0.08165
970.90 0.08162
971.00 0.08159
971.10 0.08156
971.20 0.08153
971.30 0.0815
971.40 0.08147
971.50 0.08144
971.60 0.08141
971.70 0.08138
971.80 0.08135
971.90 0.08133
972.00 0.0813
972.10 0.08126
972.20 0.08123
972.30 0.0812
972.40 0.08117
972.50 0.08114
972.60 0.08111
972.70 0.08108
972.80 0.08105
972.90 0.08102
973.00 0.08099
973.10 0.08096
973.20 0.08093
973.30 0.0809
973.40 0.08087
973.50 0.08084
973.60 0.08081
973.70 0.08078
973.80 0.08075
973.90 0.08072
974.00 0.08069
974.10 0.08065
974.20 0.08062
974.30 0.08059
974.40 0.08056
974.50 0.08053
974.60 0.0805
974.70 0.08047
974.80 0.08044
974.90 0.08041
975.00 0.08038
975.10 0.08035
975.20 0.08031
975.30 0.08028
975.40 0.08025
975.50 0.08022
975.60 0.08019
975.70 0.08016
975.80 0.08013
975.90 0.0801
976.00 0.08007
976.10 0.08004
976.20 0.08
976.30 0.07997
976.40 0.07994
976.50 0.07991
976.60 0.07988
976.70 0.07985
976.80 0.07982
976.90 0.07979
977.00 0.07976
977.10 0.07973
977.20 0.0797
977.30 0.07966
977.40 0.07963
977.50 0.0796
977.60 0.07957
977.70 0.07954
977.80 0.07951
977.90 0.07947
978.00 0.07944
978.10 0.07941
978.20 0.07938
978.30 0.07935
978.40 0.07932
978.50 0.07929
978.60 0.07925
978.70 0.07922
978.80 0.07919
978.90 0.07916
979.00 0.07913
979.10 0.0791
979.20 0.07907
979.30 0.07904
979.40 0.079
979.50 0.07897
979.60 0.07894
979.70 0.07891
979.80 0.07888
979.90 0.07885
980.00 0.07882
980.10 0.07879
980.20 0.07875
980.30 0.07872
980.40 0.07869
980.50 0.07866
980.60 0.07863
980.70 0.0786
980.80 0.07857
980.90 0.07854
981.00 0.07851
981.10 0.07847
981.20 0.07844
981.30 0.07841
981.40 0.07838
981.50 0.07835
981.60 0.07832
981.70 0.07829
981.80 0.07826
981.90 0.07823
982.00 0.0782
982.10 0.07816
982.20 0.07813
982.30 0.0781
982.40 0.07807
982.50 0.07804
982.60 0.07801
982.70 0.07797
982.80 0.07794
982.90 0.07791
983.00 0.07788
983.10 0.07785
983.20 0.07782
983.30 0.07778
983.40 0.07775
983.50 0.07772
983.60 0.07769
983.70 0.07766
983.80 0.07763
983.90 0.0776
984.00 0.07756
984.10 0.07753
984.20 0.0775
984.30 0.07747
984.40 0.07744
984.50 0.07741
984.60 0.07738
984.70 0.07734
984.80 0.07731
984.90 0.07728
985.00 0.07725
985.10 0.07722
985.20 0.07718
985.30 0.07715
985.40 0.07712
985.50 0.07709
985.60 0.07706
985.70 0.07703
985.80 0.07699
985.90 0.07696
986.00 0.07693
986.10 0.0769
986.20 0.07687
986.30 0.07683
986.40 0.0768
986.50 0.07677
986.60 0.07674
986.70 0.07671
986.80 0.07668
986.90 0.07664
987.00 0.07661
987.10 0.07658
987.20 0.07655
987.30 0.07651
987.40 0.07648
987.50 0.07645
987.60 0.07642
987.70 0.07638
987.80 0.07635
987.90 0.07632
988.00 0.07629
988.10 0.07626
988.20 0.07622
988.30 0.07619
988.40 0.07616
988.50 0.07613
988.60 0.07609
988.70 0.07606
988.80 0.07603
988.90 0.07599
989.00 0.07596
989.10 0.07593
989.20 0.07589
989.30 0.07586
989.40 0.07583
989.50 0.07579
989.60 0.07576
989.70 0.07573
989.80 0.07569
989.90 0.07566
990.00 0.07563
990.10 0.07559
990.20 0.07556
990.30 0.07553
990.40 0.07549
990.50 0.07546
990.60 0.07543
990.70 0.07539
990.80 0.07536
990.90 0.07532
991.00 0.07529
991.10 0.07525
991.20 0.07522
991.30 0.07518
991.40 0.07515
991.50 0.07512
991.60 0.07508
991.70 0.07505
991.80 0.07501
991.90 0.07498
992.00 0.07494
992.10 0.07491
992.20 0.07487
992.30 0.07483
992.40 0.0748
992.50 0.07476
992.60 0.07473
992.70 0.07469
992.80 0.07465
992.90 0.07461
993.00 0.07457
993.10 0.07453
993.20 0.0745
993.30 0.07446
993.40 0.07442
993.50 0.07438
993.60 0.07434
993.70 0.0743
993.80 0.07426
993.90 0.07423
994.00 0.07419
994.10 0.07415
994.20 0.07411
994.30 0.07407
994.40 0.07403
994.50 0.074
994.60 0.07396
994.70 0.07392
994.80 0.07387
994.90 0.07383
995.00 0.07379
995.10 0.07374
995.20 0.0737
995.30 0.07366
995.40 0.07362
995.50 0.07357
995.60 0.07353
995.70 0.07348
995.80 0.07344
995.90 0.07339
996.00 0.07334
996.10 0.07329
996.20 0.07324
996.30 0.0732
996.40 0.07315
996.50 0.0731
996.60 0.07305
996.70 0.073
996.80 0.07296
996.90 0.07291
997.00 0.07286
997.10 0.07281
997.20 0.07275
997.30 0.0727
997.40 0.07264
997.50 0.07259
997.60 0.07253
997.70 0.07247
997.80 0.0724
997.90 0.07233
998.00 0.07227
998.10 0.0722
998.20 0.07213
998.30 0.07206
998.40 0.072
998.50 0.07193
998.60 0.07186
998.70 0.07179
998.80 0.07173
998.90 0.07166
999.00 0.07159
999.10 0.07153
999.20 0.07146
999.30 0.07139
999.40 0.07132
999.50 0.07126
999.60 0.07119
999.70 0.0711
999.80 0.071
999.90 0.0709
1000.00 0.07079
1000.10 0.07069
1000.20 0.07059
1000.30 0.07049
1000.40 0.07039
1000.50 0.07029
1000.60 0.07019
1000.70 0.07009
1000.80 0.06999
1000.90 0.06989
1001.00 0.06979
1001.10 0.06969
1001.20 0.06959
1001.30 0.06949
1001.40 0.06939
1001.50 0.06929
1001.60 0.06919
1001.70 0.06907
1001.80 0.06894
1001.90 0.06881
1002.00 0.06868
1002.10 0.06853
1002.20 0.06838
1002.30 0.06823
1002.40 0.06807
1002.50 0.06792
1002.60 0.06777
1002.70 0.06762
1002.80 0.06747
1002.90 0.06732
1003.00 0.06716
1003.10 0.06701
1003.20 0.06684
1003.30 0.06667
1003.40 0.06649
1003.50 0.06631
1003.60 0.06614
1003.70 0.06596
1003.80 0.06578
1003.90 0.0656
1004.00 0.06542
1004.10 0.06524
1004.20 0.06506
1004.30 0.0649
1004.40 0.06474
1004.50 0.06459
1004.60 0.0645
1004.70 0.06449
1004.80 0.06459
1004.90 0.06461
1005.00 0.06462
1005.10 0.06459
1005.20 0.06454
1005.30 0.06449
1005.40 0.06445
1005.50 0.06453
1005.60 0.06466
1005.70 0.06478
1005.80 0.06491
1005.90 0.06503
1006.00 0.06516
1006.10 0.06529
1006.20 0.06541
1006.30 0.06553
1006.40 0.06565
1006.50 0.06577
1006.60 0.0659
1006.70 0.06602
1006.80 0.06614
1006.90 0.06626
1007.00 0.06638
1007.10 0.06648
1007.20 0.06658
1007.30 0.06668
1007.40 0.06677
1007.50 0.06687
1007.60 0.06697
1007.70 0.06704
1007.80 0.0671
1007.90 0.06716
1008.00 0.06722
1008.10 0.06728
1008.20 0.06734
1008.30 0.0674
1008.40 0.06746
1008.50 0.06752
1008.60 0.06758
1008.70 0.06764
1008.80 0.0677
1008.90 0.06776
1009.00 0.06782
1009.10 0.06788
1009.20 0.06794
1009.30 0.068
1009.40 0.06806
1009.50 0.06812
1009.60 0.06818
1009.70 0.06821
1009.80 0.06823
1009.90 0.06825
1010.00 0.06826
1010.10 0.06828
1010.20 0.0683
1010.30 0.06832
1010.40 0.06834
1010.50 0.06836
1010.60 0.06838
1010.70 0.0684
1010.80 0.06842
1010.90 0.06844
1011.00 0.06846
1011.10 0.06848
1011.20 0.0685
1011.30 0.06852
1011.40 0.06853
1011.50 0.06855
1011.60 0.06857
1011.70 0.06858
1011.80 0.06858
1011.90 0.06859
1012.00 0.06859
1012.10 0.06859
1012.20 0.06859
1012.30 0.06858
1012.40 0.06858
1012.50 0.06858
1012.60 0.06857
1012.70 0.06857
1012.80 0.06856
1012.90 0.06856
1013.00 0.06856
1013.10 0.06855
1013.20 0.06855
1013.30 0.06855
1013.40 0.06854
1013.50 0.06854
1013.60 0.06853
1013.70 0.06853
1013.80 0.06851
1013.90 0.0685
1014.00 0.06849
1014.10 0.06848
1014.20 0.06847
1014.30 0.06846
1014.40 0.06845
1014.50 0.06844
1014.60 0.06843
1014.70 0.06841
1014.80 0.06839
1014.90 0.06838
1015.00 0.06836
1015.10 0.06835
1015.20 0.06833
1015.30 0.06831
1015.40 0.0683
1015.50 0.06828
1015.60 0.06826
1015.70 0.06825
1015.80 0.06823
1015.90 0.06822
1016.00 0.0682
1016.10 0.06818
1016.20 0.06817
1016.30 0.06815
1016.40 0.06814
1016.50 0.06812
1016.60 0.0681
1016.70 0.06809
1016.80 0.06807
1016.90 0.06805
1017.00 0.06803
1017.10 0.06801
1017.20 0.06799
1017.30 0.06797
1017.40 0.06795
1017.50 0.06793
1017.60 0.06791
1017.70 0.06789
1017.80 0.06787
1017.90 0.06785
1018.00 0.06783
1018.10 0.06781
1018.20 0.06779
1018.30 0.06777
1018.40 0.06774
1018.50 0.06772
1018.60 0.0677
1018.70 0.06768
1018.80 0.06766
1018.90 0.06764
1019.00 0.06762
1019.10 0.06759
1019.20 0.06757
1019.30 0.06755
1019.40 0.06753
1019.50 0.06751
1019.60 0.06748
1019.70 0.06746
1019.80 0.06744
1019.90 0.06742
1020.00 0.0674
1020.10 0.06737
1020.20 0.06735
1020.30 0.06733
1020.40 0.06731
1020.50 0.06729
1020.60 0.06726
1020.70 0.06724
1020.80 0.06722
1020.90 0.0672
1021.00 0.06717
1021.10 0.06715
1021.20 0.06713
1021.30 0.0671
1021.40 0.06708
1021.50 0.06706
1021.60 0.06703
1021.70 0.06701
1021.80 0.06699
1021.90 0.06697
1022.00 0.06694
1022.10 0.06692
1022.20 0.0669
1022.30 0.06687
1022.40 0.06685
1022.50 0.06682
1022.60 0.0668
1022.70 0.06678
1022.80 0.06675
1022.90 0.06673
1023.00 0.06671
1023.10 0.06668
1023.20 0.06666
1023.30 0.06664
1023.40 0.06661
1023.50 0.06659
1023.60 0.06656
1023.70 0.06654
1023.80 0.06652
1023.90 0.06649
1024.00 0.06647
1024.10 0.06645
1024.20 0.06642
1024.30 0.0664
1024.40 0.06638
1024.50 0.06635
1024.60 0.06633
1024.70 0.06631
1024.80 0.06628
1024.90 0.06626
1025.00 0.06623
1025.10 0.06621
1025.20 0.06619
1025.30 0.06616
1025.40 0.06614
1025.50 0.06611
1025.60 0.06609
1025.70 0.06607
1025.80 0.06604
1025.90 0.06602
1026.00 0.06599
1026.10 0.06597
1026.20 0.06595
1026.30 0.06592
1026.40 0.0659
1026.50 0.06588
1026.60 0.06585
1026.70 0.06583
1026.80 0.0658
1026.90 0.06578
1027.00 0.06576
1027.10 0.06573
1027.20 0.06571
1027.30 0.06568
1027.40 0.06566
1027.50 0.06564
1027.60 0.06561
1027.70 0.06559
1027.80 0.06556
1027.90 0.06554
1028.00 0.06551
1028.10 0.06549
1028.20 0.06547
1028.30 0.06544
1028.40 0.06542
1028.50 0.06539
1028.60 0.06537
1028.70 0.06535
1028.80 0.06532
1028.90 0.0653
1029.00 0.06527
1029.10 0.06525
1029.20 0.06523
1029.30 0.0652
1029.40 0.06518
1029.50 0.06515
1029.60 0.06513
1029.70 0.06511
1029.80 0.06508
1029.90 0.06506
1030.00 0.06504
1030.10 0.06501
1030.20 0.06499
1030.30 0.06496
1030.40 0.06494
1030.50 0.06492
1030.60 0.06489
1030.70 0.06487
1030.80 0.06484
1030.90 0.06482
1031.00 0.0648
1031.10 0.06477
1031.20 0.06475
1031.30 0.06472
1031.40 0.0647
1031.50 0.06468
1031.60 0.06465
1031.70 0.06463
1031.80 0.06461
1031.90 0.06458
1032.00 0.06456
1032.10 0.06453
1032.20 0.06451
1032.30 0.06449
1032.40 0.06446
1032.50 0.06444
1032.60 0.06442
1032.70 0.06439
1032.80 0.06437
1032.90 0.06434
1033.00 0.06432
1033.10 0.0643
1033.20 0.06427
1033.30 0.06425
1033.40 0.06422
1033.50 0.0642
1033.60 0.06418
1033.70 0.06415
1033.80 0.06413
1033.90 0.06411
1034.00 0.06408
1034.10 0.06406
1034.20 0.06403
1034.30 0.06401
1034.40 0.06399
1034.50 0.06396
1034.60 0.06394
1034.70 0.06392
1034.80 0.06389
1034.90 0.06387
1035.00 0.06385
1035.10 0.06382
1035.20 0.0638
1035.30 0.06377
1035.40 0.06375
1035.50 0.06373
1035.60 0.0637
1035.70 0.06368
1035.80 0.06366
1035.90 0.06363
1036.00 0.06361
1036.10 0.06359
1036.20 0.06356
1036.30 0.06354
1036.40 0.06351
1036.50 0.06349
1036.60 0.06347
1036.70 0.06344
1036.80 0.06342
1036.90 0.0634
1037.00 0.06337
1037.10 0.06335
1037.20 0.06333
1037.30 0.0633
1037.40 0.06328
1037.50 0.06326
1037.60 0.06323
1037.70 0.06321
1037.80 0.06319
1037.90 0.06316
1038.00 0.06314
1038.10 0.06312
1038.20 0.06309
1038.30 0.06307
1038.40 0.06305
1038.50 0.06302
1038.60 0.063
1038.70 0.06298
1038.80 0.06295
1038.90 0.06293
1039.00 0.0629
1039.10 0.06288
1039.20 0.06286
1039.30 0.06284
1039.40 0.06281
1039.50 0.06279
1039.60 0.06277
1039.70 0.06274
1039.80 0.06272
1039.90 0.0627
1040.00 0.06267
1040.10 0.06265
1040.20 0.06263
1040.30 0.0626
1040.40 0.06258
1040.50 0.06256
1040.60 0.06253
1040.70 0.06251
1040.80 0.06249
1040.90 0.06246
1041.00 0.06244
1041.10 0.06242
1041.20 0.06239
1041.30 0.06237
1041.40 0.06235
1041.50 0.06232
1041.60 0.0623
1041.70 0.06228
1041.80 0.06225
1041.90 0.06223
1042.00 0.06221
1042.10 0.06219
1042.20 0.06216
1042.30 0.06214
1042.40 0.06212
1042.50 0.06209
1042.60 0.06207
1042.70 0.06205
1042.80 0.06202
1042.90 0.062
1043.00 0.06198
1043.10 0.06196
1043.20 0.06193
1043.30 0.06191
1043.40 0.06189
1043.50 0.06186
1043.60 0.06184
1043.70 0.06182
1043.80 0.06179
1043.90 0.06177
1044.00 0.06175
1044.10 0.06173
1044.20 0.0617
1044.30 0.06168
1044.40 0.06166
1044.50 0.06163
1044.60 0.06161
1044.70 0.06159
1044.80 0.06157
1044.90 0.06154
1045.00 0.06152
1045.10 0.0615
1045.20 0.06147
1045.30 0.06145
1045.40 0.06143
1045.50 0.06141
1045.60 0.06138
1045.70 0.06136
1045.80 0.06134
1045.90 0.06132
1046.00 0.06129
1046.10 0.06127
1046.20 0.06125
1046.30 0.06122
1046.40 0.0612
1046.50 0.06118
1046.60 0.06116
1046.70 0.06113
1046.80 0.06111
1046.90 0.06109
1047.00 0.06107
1047.10 0.06104
1047.20 0.06102
1047.30 0.061
1047.40 0.06098
1047.50 0.06095
1047.60 0.06093
1047.70 0.06091
1047.80 0.06089
1047.90 0.06086
1048.00 0.06084
1048.10 0.06082
1048.20 0.0608
1048.30 0.06077
1048.40 0.06075
1048.50 0.06073
1048.60 0.06071
1048.70 0.06068
1048.80 0.06066
1048.90 0.06064
1049.00 0.06062
1049.10 0.06059
1049.20 0.06057
1049.30 0.06055
1049.40 0.06053
1049.50 0.0605
1049.60 0.06048
1049.70 0.06046
1049.80 0.06044
1049.90 0.06041
1050.00 0.06039
1050.10 0.06037
1050.20 0.06035
1050.30 0.06032
1050.40 0.0603
1050.50 0.06028
1050.60 0.06026
1050.70 0.06023
1050.80 0.06021
1050.90 0.06019
1051.00 0.06017
1051.10 0.06015
1051.20 0.06012
1051.30 0.0601
1051.40 0.06008
1051.50 0.06006
1051.60 0.06003
1051.70 0.06001
1051.80 0.05999
1051.90 0.05997
1052.00 0.05995
1052.10 0.05992
1052.20 0.0599
1052.30 0.05988
1052.40 0.05986
1052.50 0.05983
1052.60 0.05981
1052.70 0.05979
1052.80 0.05977
1052.90 0.05975
1053.00 0.05972
1053.10 0.0597
1053.20 0.05968
1053.30 0.05966
1053.40 0.05964
1053.50 0.05961
1053.60 0.05959
1053.70 0.05957
1053.80 0.05955
1053.90 0.05953
1054.00 0.0595
1054.10 0.05948
1054.20 0.05946
1054.30 0.05944
1054.40 0.05942
1054.50 0.05939
1054.60 0.05937
1054.70 0.05935
1054.80 0.05933
1054.90 0.05931
1055.00 0.05928
1055.10 0.05926
1055.20 0.05924
1055.30 0.05922
1055.40 0.0592
1055.50 0.05918
1055.60 0.05915
1055.70 0.05913
1055.80 0.05911
1055.90 0.05909
1056.00 0.05907
1056.10 0.05904
1056.20 0.05902
1056.30 0.059
1056.40 0.05898
1056.50 0.05896
1056.60 0.05894
1056.70 0.05891
1056.80 0.05889
1056.90 0.05887
1057.00 0.05885
1057.10 0.05883
1057.20 0.0588
1057.30 0.05878
1057.40 0.05876
1057.50 0.05874
1057.60 0.05872
1057.70 0.0587
1057.80 0.05867
1057.90 0.05865
1058.00 0.05863
1058.10 0.05861
1058.20 0.05859
1058.30 0.05857
1058.40 0.05854
1058.50 0.05852
1058.60 0.0585
1058.70 0.05848
1058.80 0.05846
1058.90 0.05844
1059.00 0.05841
1059.10 0.05839
1059.20 0.05837
1059.30 0.05835
1059.40 0.05833
1059.50 0.05831
1059.60 0.05829
1059.70 0.05826
1059.80 0.05824
1059.90 0.05822
1060.00 0.0582
1060.10 0.05818
1060.20 0.05816
1060.30 0.05814
1060.40 0.05811
1060.50 0.05809
1060.60 0.05807
1060.70 0.05805
1060.80 0.05803
1060.90 0.05801
1061.00 0.05798
1061.10 0.05796
1061.20 0.05794
1061.30 0.05792
1061.40 0.0579
1061.50 0.05788
1061.60 0.05786
1061.70 0.05783
1061.80 0.05781
1061.90 0.05779
1062.00 0.05777
1062.10 0.05775
1062.20 0.05773
1062.30 0.05771
1062.40 0.05769
1062.50 0.05766
1062.60 0.05764
1062.70 0.05762
1062.80 0.0576
1062.90 0.05758
1063.00 0.05756
1063.10 0.05754
1063.20 0.05751
1063.30 0.05749
1063.40 0.05747
1063.50 0.05745
1063.60 0.05743
1063.70 0.05741
1063.80 0.05739
1063.90 0.05737
1064.00 0.05734
1064.10 0.05732
1064.20 0.0573
1064.30 0.05728
1064.40 0.05726
1064.50 0.05724
1064.60 0.05722
1064.70 0.0572
1064.80 0.05717
1064.90 0.05715
1065.00 0.05713
1065.10 0.05711
1065.20 0.05709
1065.30 0.05707
1065.40 0.05705
1065.50 0.05703
1065.60 0.05701
1065.70 0.05698
1065.80 0.05696
1065.90 0.05694
1066.00 0.05692
1066.10 0.0569
1066.20 0.05688
1066.30 0.05686
1066.40 0.05684
1066.50 0.05682
1066.60 0.05679
1066.70 0.05677
1066.80 0.05675
1066.90 0.05673
1067.00 0.05671
1067.10 0.05669
1067.20 0.05667
1067.30 0.05665
1067.40 0.05663
1067.50 0.0566
1067.60 0.05658
1067.70 0.05656
1067.80 0.05654
1067.90 0.05652
1068.00 0.0565
1068.10 0.05648
1068.20 0.05646
1068.30 0.05644
1068.40 0.05641
1068.50 0.05639
1068.60 0.05637
1068.70 0.05635
1068.80 0.05633
1068.90 0.05631
1069.00 0.05629
1069.10 0.05627
1069.20 0.05625
1069.30 0.05622
1069.40 0.0562
1069.50 0.05618
1069.60 0.05616
1069.70 0.05614
1069.80 0.05612
1069.90 0.0561
1070.00 0.05608
1070.10 0.05606
1070.20 0.05604
1070.30 0.05601
1070.40 0.05599
1070.50 0.05597
1070.60 0.05595
1070.70 0.05593
1070.80 0.05591
1070.90 0.05589
1071.00 0.05587
1071.10 0.05585
1071.20 0.05583
1071.30 0.05581
1071.40 0.05578
1071.50 0.05576
1071.60 0.05574
1071.70 0.05572
1071.80 0.0557
1071.90 0.05568
1072.00 0.05566
1072.10 0.05564
1072.20 0.05562
1072.30 0.0556
1072.40 0.05557
1072.50 0.05555
1072.60 0.05553
1072.70 0.05551
1072.80 0.05549
1072.90 0.05547
1073.00 0.05545
1073.10 0.05543
1073.20 0.05541
1073.30 0.05538
1073.40 0.05536
1073.50 0.05534
1073.60 0.05532
1073.70 0.0553
1073.80 0.05528
1073.90 0.05526
1074.00 0.05523
1074.10 0.05521
1074.20 0.05519
1074.30 0.05517
1074.40 0.05515
1074.50 0.05513
1074.60 0.05511
1074.70 0.05508
1074.80 0.05506
1074.90 0.05504
1075.00 0.05502
1075.10 0.055
1075.20 0.05498
1075.30 0.05496
1075.40 0.05493
1075.50 0.05491
1075.60 0.05489
1075.70 0.05487
1075.80 0.05485
1075.90 0.05483
1076.00 0.05481
1076.10 0.05479
1076.20 0.05476
1076.30 0.05474
1076.40 0.05472
1076.50 0.0547
1076.60 0.05468
1076.70 0.05466
1076.80 0.05464
1076.90 0.05462
1077.00 0.05459
1077.10 0.05457
1077.20 0.05455
1077.30 0.05453
1077.40 0.05451
1077.50 0.05448
1077.60 0.05446
1077.70 0.05444
1077.80 0.05442
1077.90 0.05439
1078.00 0.05437
1078.10 0.05435
1078.20 0.05433
1078.30 0.05431
1078.40 0.05428
1078.50 0.05426
1078.60 0.05424
1078.70 0.05422
1078.80 0.05419
1078.90 0.05417
1079.00 0.05415
1079.10 0.05413
1079.20 0.0541
1079.30 0.05408
1079.40 0.05406
1079.50 0.05404
1079.60 0.05401
1079.70 0.05399
1079.80 0.05397
1079.90 0.05394
1080.00 0.05392
1080.10 0.05389
1080.20 0.05387
1080.30 0.05385
1080.40 0.05382
1080.50 0.0538
1080.60 0.05378
1080.70 0.05375
1080.80 0.05373
1080.90 0.05371
1081.00 0.05368
1081.10 0.05366
1081.20 0.05363
1081.30 0.05361
1081.40 0.05359
1081.50 0.05356
1081.60 0.05354
1081.70 0.05351
1081.80 0.05349
1081.90 0.05346
1082.00 0.05344
1082.10 0.05341
1082.20 0.05339
1082.30 0.05336
1082.40 0.05333
1082.50 0.05331
1082.60 0.05328
1082.70 0.05325
1082.80 0.05323
1082.90 0.0532
1083.00 0.05317
1083.10 0.05315
1083.20 0.05312
1083.30 0.05309
1083.40 0.05307
1083.50 0.05304
1083.60 0.05301
1083.70 0.05298
1083.80 0.05295
1083.90 0.05292
1084.00 0.05289
1084.10 0.05286
1084.20 0.05283
1084.30 0.0528
1084.40 0.05278
1084.50 0.05274
1084.60 0.05271
1084.70 0.05267
1084.80 0.05264
1084.90 0.0526
1085.00 0.05257
1085.10 0.05253
1085.20 0.0525
1085.30 0.05246
1085.40 0.05243
1085.50 0.05239
1085.60 0.05236
1085.70 0.05232
1085.80 0.05229
1085.90 0.05226
1086.00 0.05222
1086.10 0.05219
1086.20 0.05215
1086.30 0.05212
1086.40 0.05208
1086.50 0.05204
1086.60 0.052
1086.70 0.05196
1086.80 0.05192
1086.90 0.05188
1087.00 0.05183
1087.10 0.05178
1087.20 0.05173
1087.30 0.05168
1087.40 0.05163
1087.50 0.05158
1087.60 0.05153
1087.70 0.05148
1087.80 0.05142
1087.90 0.05137
1088.00 0.05132
1088.10 0.05127
1088.20 0.05122
1088.30 0.05117
1088.40 0.05112
1088.50 0.05106
1088.60 0.05098
1088.70 0.05091
1088.80 0.05083
1088.90 0.05075
1089.00 0.05068
1089.10 0.0506
1089.20 0.05052
1089.30 0.05045
1089.40 0.05037
1089.50 0.05029
1089.60 0.05022
1089.70 0.05014
1089.80 0.05007
1089.90 0.04999
1090.00 0.04991
1090.10 0.04984
1090.20 0.04976
1090.30 0.04969
1090.40 0.04961
1090.50 0.04952
1090.60 0.0494
1090.70 0.04929
1090.80 0.04917
1090.90 0.04906
1091.00 0.04894
1091.10 0.04882
1091.20 0.04871
1091.30 0.04859
1091.40 0.04848
1091.50 0.04836
1091.60 0.04824
1091.70 0.04813
1091.80 0.04801
1091.90 0.0479
1092.00 0.04778
1092.10 0.04763
1092.20 0.04749
1092.30 0.04735
1092.40 0.04721
1092.50 0.04707
1092.60 0.04693
1092.70 0.04679
1092.80 0.04665
1092.90 0.04651
1093.00 0.04637
1093.10 0.04624
1093.20 0.04612
1093.30 0.046
1093.40 0.0459
1093.50 0.04582
1093.60 0.04582
1093.70 0.04584
1093.80 0.04587
1093.90 0.04589
1094.00 0.04587
1094.10 0.04585
1094.20 0.04582
1094.30 0.04584
1094.40 0.04594
1094.50 0.04604
1094.60 0.04614
1094.70 0.04624
1094.80 0.04634
1094.90 0.04644
1095.00 0.04654
1095.10 0.04663
1095.20 0.04673
1095.30 0.04683
1095.40 0.04693
1095.50 0.04702
1095.60 0.04712
1095.70 0.04722
1095.80 0.04732
1095.90 0.04742
1096.00 0.04751
1096.10 0.04761
1096.20 0.04771
1096.30 0.04781
1096.40 0.0479
1096.50 0.04799
1096.60 0.04806
1096.70 0.04813
1096.80 0.04821
1096.90 0.04828
1097.00 0.04835
1097.10 0.0484
1097.20 0.04844
1097.30 0.04849
1097.40 0.04854
1097.50 0.04859
1097.60 0.04863
1097.70 0.04868
1097.80 0.04873
1097.90 0.04878
1098.00 0.04882
1098.10 0.04887
1098.20 0.04892
1098.30 0.04896
1098.40 0.04901
1098.50 0.04905
1098.60 0.04907
1098.70 0.04909
1098.80 0.04911
1098.90 0.04913
1099.00 0.04914
1099.10 0.04916
1099.20 0.04918
1099.30 0.0492
1099.40 0.04922
1099.50 0.04924
1099.60 0.04926
1099.70 0.04928
1099.80 0.04929
1099.90 0.04931
1100.00 0.04933
1100.10 0.04935
1100.20 0.04937
1100.30 0.04939
1100.40 0.04941
1100.50 0.04942
1100.60 0.04942
1100.70 0.04943
1100.80 0.04943
1100.90 0.04943
1101.00 0.04943
1101.10 0.04943
1101.20 0.04944
1101.30 0.04944
1101.40 0.04944
1101.50 0.04944
1101.60 0.04945
1101.70 0.04945
1101.80 0.04945
1101.90 0.04945
1102.00 0.04946
1102.10 0.04945
1102.20 0.04945
1102.30 0.04945
1102.40 0.04944
1102.50 0.04944
1102.60 0.04943
1102.70 0.04943
1102.80 0.04942
1102.90 0.04942
1103.00 0.04941
1103.10 0.0494
1103.20 0.0494
1103.30 0.04939
1103.40 0.04939
1103.50 0.04938
1103.60 0.04937
1103.70 0.04936
1103.80 0.04935
1103.90 0.04934
1104.00 0.04933
1104.10 0.04932
1104.20 0.04931
1104.30 0.0493
1104.40 0.04929
1104.50 0.04928
1104.60 0.04927
1104.70 0.04926
1104.80 0.04925
1104.90 0.04924
1105.00 0.04923
1105.10 0.04922
1105.20 0.04921
1105.30 0.0492
1105.40 0.04919
1105.50 0.04918
1105.60 0.04917
1105.70 0.04915
1105.80 0.04914
1105.90 0.04913
1106.00 0.04912
1106.10 0.0491
1106.20 0.04909
1106.30 0.04908
1106.40 0.04907
1106.50 0.04905
1106.60 0.04904
1106.70 0.04903
1106.80 0.04902
1106.90 0.049
1107.00 0.04899
1107.10 0.04898
1107.20 0.04896
1107.30 0.04895
1107.40 0.04894
1107.50 0.04892
1107.60 0.04891
1107.70 0.04889
1107.80 0.04888
1107.90 0.04887
1108.00 0.04885
1108.10 0.04884
1108.20 0.04882
1108.30 0.04881
1108.40 0.04879
1108.50 0.04878
1108.60 0.04876
1108.70 0.04875
1108.80 0.04874
1108.90 0.04872
1109.00 0.04871
1109.10 0.04869
1109.20 0.04868
1109.30 0.04866
1109.40 0.04865
1109.50 0.04863
1109.60 0.04862
1109.70 0.0486
1109.80 0.04859
1109.90 0.04857
1110.00 0.04856
1110.10 0.04854
1110.20 0.04853
1110.30 0.04851
1110.40 0.0485
1110.50 0.04848
1110.60 0.04847
1110.70 0.04845
1110.80 0.04844
1110.90 0.04842
1111.00 0.04841
1111.10 0.04839
1111.20 0.04838
1111.30 0.04836
1111.40 0.04834
1111.50 0.04833
1111.60 0.04831
1111.70 0.0483
1111.80 0.04828
1111.90 0.04827
1112.00 0.04825
1112.10 0.04824
1112.20 0.04822
1112.30 0.04821
1112.40 0.04819
1112.50 0.04817
1112.60 0.04816
1112.70 0.04814
1112.80 0.04813
1112.90 0.04811
1113.00 0.0481
1113.10 0.04808
1113.20 0.04806
1113.30 0.04805
1113.40 0.04803
1113.50 0.04802
1113.60 0.048
1113.70 0.04799
1113.80 0.04797
1113.90 0.04795
1114.00 0.04794
1114.10 0.04792
1114.20 0.04791
1114.30 0.04789
1114.40 0.04787
1114.50 0.04786
1114.60 0.04784
1114.70 0.04783
1114.80 0.04781
1114.90 0.04779
1115.00 0.04778
1115.10 0.04776
1115.20 0.04775
1115.30 0.04773
1115.40 0.04772
1115.50 0.0477
1115.60 0.04768
1115.70 0.04767
1115.80 0.04765
1115.90 0.04764
1116.00 0.04762
1116.10 0.0476
1116.20 0.04759
1116.30 0.04757
1116.40 0.04756
1116.50 0.04754
1116.60 0.04752
1116.70 0.04751
1116.80 0.04749
1116.90 0.04748
1117.00 0.04746
1117.10 0.04745
1117.20 0.04743
1117.30 0.04741
1117.40 0.0474
1117.50 0.04738
1117.60 0.04737
1117.70 0.04735
1117.80 0.04733
1117.90 0.04732
1118.00 0.0473
1118.10 0.04728
1118.20 0.04727
1118.30 0.04725
1118.40 0.04724
1118.50 0.04722
1118.60 0.0472
1118.70 0.04719
1118.80 0.04717
1118.90 0.04716
1119.00 0.04714
1119.10 0.04712
1119.20 0.04711
1119.30 0.04709
1119.40 0.04708
1119.50 0.04706
1119.60 0.04704
1119.70 0.04703
1119.80 0.04701
1119.90 0.047
1120.00 0.04698
1120.10 0.04697
1120.20 0.04695
1120.30 0.04693
1120.40 0.04692
1120.50 0.0469
1120.60 0.04689
1120.70 0.04687
1120.80 0.04685
1120.90 0.04684
1121.00 0.04682
1121.10 0.04681
1121.20 0.04679
1121.30 0.04677
1121.40 0.04676
1121.50 0.04674
1121.60 0.04673
1121.70 0.04671
1121.80 0.0467
1121.90 0.04668
1122.00 0.04666
1122.10 0.04665
1122.20 0.04663
1122.30 0.04662
1122.40 0.0466
1122.50 0.04658
1122.60 0.04657
1122.70 0.04655
1122.80 0.04654
1122.90 0.04652
1123.00 0.0465
1123.10 0.04649
1123.20 0.04647
1123.30 0.04646
1123.40 0.04644
1123.50 0.04642
1123.60 0.04641
1123.70 0.04639
1123.80 0.04638
1123.90 0.04636
1124.00 0.04635
1124.10 0.04633
1124.20 0.04631
1124.30 0.0463
1124.40 0.04628
1124.50 0.04627
1124.60 0.04625
1124.70 0.04624
1124.80 0.04622
1124.90 0.0462
1125.00 0.04619
1125.10 0.04617
1125.20 0.04616
1125.30 0.04614
1125.40 0.04612
1125.50 0.04611
1125.60 0.04609
1125.70 0.04608
1125.80 0.04606
1125.90 0.04605
1126.00 0.04603
1126.10 0.04601
1126.20 0.046
1126.30 0.04598
1126.40 0.04597
1126.50 0.04595
1126.60 0.04594
1126.70 0.04592
1126.80 0.0459
1126.90 0.04589
1127.00 0.04587
1127.10 0.04586
1127.20 0.04584
1127.30 0.04583
1127.40 0.04581
1127.50 0.04579
1127.60 0.04578
1127.70 0.04576
1127.80 0.04575
1127.90 0.04573
1128.00 0.04572
1128.10 0.0457
1128.20 0.04569
1128.30 0.04567
1128.40 0.04565
1128.50 0.04564
1128.60 0.04562
1128.70 0.04561
1128.80 0.04559
1128.90 0.04558
1129.00 0.04556
1129.10 0.04554
1129.20 0.04553
1129.30 0.04551
1129.40 0.0455
1129.50 0.04548
1129.60 0.04547
1129.70 0.04545
1129.80 0.04544
1129.90 0.04542
1130.00 0.0454
1130.10 0.04539
1130.20 0.04537
1130.30 0.04536
1130.40 0.04534
1130.50 0.04533
1130.60 0.04531
1130.70 0.0453
1130.80 0.04528
1130.90 0.04527
1131.00 0.04525
1131.10 0.04523
1131.20 0.04522
1131.30 0.0452
1131.40 0.04519
1131.50 0.04517
1131.60 0.04516
1131.70 0.04514
1131.80 0.04513
1131.90 0.04511
1132.00 0.0451
1132.10 0.04508
1132.20 0.04506
1132.30 0.04505
1132.40 0.04503
1132.50 0.04502
1132.60 0.045
1132.70 0.04499
1132.80 0.04497
1132.90 0.04496
1133.00 0.04494
1133.10 0.04493
1133.20 0.04491
1133.30 0.0449
1133.40 0.04488
1133.50 0.04487
1133.60 0.04485
1133.70 0.04483
1133.80 0.04482
1133.90 0.0448
1134.00 0.04479
1134.10 0.04477
1134.20 0.04476
1134.30 0.04474
1134.40 0.04473
1134.50 0.04471
1134.60 0.0447
1134.70 0.04468
1134.80 0.04467
1134.90 0.04465
1135.00 0.04464
1135.10 0.04462
1135.20 0.04461
1135.30 0.04459
1135.40 0.04457
1135.50 0.04456
1135.60 0.04454
1135.70 0.04453
1135.80 0.04451
1135.90 0.0445
1136.00 0.04448
1136.10 0.04447
1136.20 0.04445
1136.30 0.04444
1136.40 0.04442
1136.50 0.04441
1136.60 0.04439
1136.70 0.04438
1136.80 0.04436
1136.90 0.04435
1137.00 0.04433
1137.10 0.04432
1137.20 0.0443
1137.30 0.04429
1137.40 0.04427
1137.50 0.04426
1137.60 0.04424
1137.70 0.04423
1137.80 0.04421
1137.90 0.0442
1138.00 0.04418
1138.10 0.04417
1138.20 0.04415
1138.30 0.04414
1138.40 0.04412
1138.50 0.04411
1138.60 0.04409
1138.70 0.04408
1138.80 0.04406
1138.90 0.04405
1139.00 0.04403
1139.10 0.04402
1139.20 0.044
1139.30 0.04399
1139.40 0.04397
1139.50 0.04396
1139.60 0.04394
1139.70 0.04393
1139.80 0.04391
1139.90 0.0439
1140.00 0.04388
1140.10 0.04387
1140.20 0.04385
1140.30 0.04384
1140.40 0.04382
1140.50 0.04381
1140.60 0.04379
1140.70 0.04378
1140.80 0.04376
1140.90 0.04375
1141.00 0.04373
1141.10 0.04372
1141.20 0.0437
1141.30 0.04369
1141.40 0.04367
1141.50 0.04366
1141.60 0.04364
1141.70 0.04363
1141.80 0.04361
1141.90 0.0436
1142.00 0.04358
1142.10 0.04357
1142.20 0.04355
1142.30 0.04354
1142.40 0.04352
1142.50 0.04351
1142.60 0.0435
1142.70 0.04348
1142.80 0.04347
1142.90 0.04345
1143.00 0.04344
1143.10 0.04342
1143.20 0.04341
1143.30 0.04339
1143.40 0.04338
1143.50 0.04336
1143.60 0.04335
1143.70 0.04333
1143.80 0.04332
1143.90 0.0433
1144.00 0.04329
1144.10 0.04327
1144.20 0.04326
1144.30 0.04324
1144.40 0.04323
1144.50 0.04322
1144.60 0.0432
1144.70 0.04319
1144.80 0.04317
1144.90 0.04316
1145.00 0.04314
1145.10 0.04313
1145.20 0.04311
1145.30 0.0431
1145.40 0.04308
1145.50 0.04307
1145.60 0.04305
1145.70 0.04304
1145.80 0.04303
1145.90 0.04301
1146.00 0.043
1146.10 0.04298
1146.20 0.04297
1146.30 0.04295
1146.40 0.04294
1146.50 0.04292
1146.60 0.04291
1146.70 0.04289
1146.80 0.04288
1146.90 0.04286
1147.00 0.04285
1147.10 0.04284
1147.20 0.04282
1147.30 0.04281
1147.40 0.04279
1147.50 0.04278
1147.60 0.04276
1147.70 0.04275
1147.80 0.04273
1147.90 0.04272
1148.00 0.04271
1148.10 0.04269
1148.20 0.04268
1148.30 0.04266
1148.40 0.04265
1148.50 0.04263
1148.60 0.04262
1148.70 0.0426
1148.80 0.04259
1148.90 0.04258
1149.00 0.04256
1149.10 0.04255
1149.20 0.04253
1149.30 0.04252
1149.40 0.0425
1149.50 0.04249
1149.60 0.04248
1149.70 0.04246
1149.80 0.04245
1149.90 0.04243
1150.00 0.04242
1150.10 0.0424
1150.20 0.04239
1150.30 0.04237
1150.40 0.04236
1150.50 0.04235
1150.60 0.04233
1150.70 0.04232
1150.80 0.0423
1150.90 0.04229
1151.00 0.04227
1151.10 0.04226
1151.20 0.04225
1151.30 0.04223
1151.40 0.04222
1151.50 0.0422
1151.60 0.04219
1151.70 0.04217
1151.80 0.04216
1151.90 0.04215
1152.00 0.04213
1152.10 0.04212
1152.20 0.0421
1152.30 0.04209
1152.40 0.04208
1152.50 0.04206
1152.60 0.04205
1152.70 0.04203
1152.80 0.04202
1152.90 0.042
1153.00 0.04199
1153.10 0.04198
1153.20 0.04196
1153.30 0.04195
1153.40 0.04193
1153.50 0.04192
1153.60 0.04191
1153.70 0.04189
1153.80 0.04188
1153.90 0.04186
1154.00 0.04185
1154.10 0.04184
1154.20 0.04182
1154.30 0.04181
1154.40 0.04179
1154.50 0.04178
1154.60 0.04176
1154.70 0.04175
1154.80 0.04174
1154.90 0.04172
1155.00 0.04171
1155.10 0.04169
1155.20 0.04168
1155.30 0.04167
1155.40 0.04165
1155.50 0.04164
1155.60 0.04162
1155.70 0.04161
1155.80 0.0416
1155.90 0.04158
1156.00 0.04157
1156.10 0.04155
1156.20 0.04154
1156.30 0.04153
1156.40 0.04151
1156.50 0.0415
1156.60 0.04148
1156.70 0.04147
1156.80 0.04146
1156.90 0.04144
1157.00 0.04143
1157.10 0.04141
1157.20 0.0414
1157.30 0.04139
1157.40 0.04137
1157.50 0.04136
1157.60 0.04135
1157.70 0.04133
1157.80 0.04132
1157.90 0.0413
1158.00 0.04129
1158.10 0.04128
1158.20 0.04126
1158.30 0.04125
1158.40 0.04123
1158.50 0.04122
1158.60 0.04121
1158.70 0.04119
1158.80 0.04118
1158.90 0.04117
1159.00 0.04115
1159.10 0.04114
1159.20 0.04112
1159.30 0.04111
1159.40 0.0411
1159.50 0.04108
1159.60 0.04107
1159.70 0.04105
1159.80 0.04104
1159.90 0.04103
1160.00 0.04101
1160.10 0.041
1160.20 0.04099
1160.30 0.04097
1160.40 0.04096
1160.50 0.04094
1160.60 0.04093
1160.70 0.04092
1160.80 0.0409
1160.90 0.04089
1161.00 0.04088
1161.10 0.04086
1161.20 0.04085
1161.30 0.04083
1161.40 0.04082
1161.50 0.04081
1161.60 0.04079
1161.70 0.04078
1161.80 0.04077
1161.90 0.04075
1162.00 0.04074
1162.10 0.04073
1162.20 0.04071
1162.30 0.0407
1162.40 0.04068
1162.50 0.04067
1162.60 0.04066
1162.70 0.04064
1162.80 0.04063
1162.90 0.04062
1163.00 0.0406
1163.10 0.04059
1163.20 0.04058
1163.30 0.04056
1163.40 0.04055
1163.50 0.04054
1163.60 0.04052
1163.70 0.04051
1163.80 0.04049
1163.90 0.04048
1164.00 0.04047
1164.10 0.04045
1164.20 0.04044
1164.30 0.04043
1164.40 0.04041
1164.50 0.0404
1164.60 0.04039
1164.70 0.04037
1164.80 0.04036
1164.90 0.04035
1165.00 0.04033
1165.10 0.04032
1165.20 0.04031
1165.30 0.04029
1165.40 0.04028
1165.50 0.04027
1165.60 0.04025
1165.70 0.04024
1165.80 0.04022
1165.90 0.04021
1166.00 0.0402
1166.10 0.04018
1166.20 0.04017
1166.30 0.04016
1166.40 0.04014
1166.50 0.04013
1166.60 0.04012
1166.70 0.0401
1166.80 0.04009
1166.90 0.04008
1167.00 0.04006
1167.10 0.04005
1167.20 0.04004
1167.30 0.04002
1167.40 0.04001
1167.50 0.04
1167.60 0.03998
1167.70 0.03997
1167.80 0.03996
1167.90 0.03994
1168.00 0.03993
1168.10 0.03992
1168.20 0.0399
1168.30 0.03989
1168.40 0.03988
1168.50 0.03986
1168.60 0.03985
1168.70 0.03984
1168.80 0.03982
1168.90 0.03981
1169.00 0.0398
1169.10 0.03978
1169.20 0.03977
1169.30 0.03976
1169.40 0.03975
1169.50 0.03973
1169.60 0.03972
1169.70 0.03971
1169.80 0.03969
1169.90 0.03968
1170.00 0.03967
1170.10 0.03965
1170.20 0.03964
1170.30 0.03963
1170.40 0.03961
1170.50 0.0396
1170.60 0.03959
1170.70 0.03957
1170.80 0.03956
1170.90 0.03955
1171.00 0.03953
1171.10 0.03952
1171.20 0.03951
1171.30 0.03949
1171.40 0.03948
1171.50 0.03947
1171.60 0.03945
1171.70 0.03944
1171.80 0.03943
1171.90 0.03942
1172.00 0.0394
1172.10 0.03939
1172.20 0.03938
1172.30 0.03936
1172.40 0.03935
1172.50 0.03934
1172.60 0.03932
1172.70 0.03931
1172.80 0.0393
1172.90 0.03929
1173.00 0.03927
1173.10 0.03926
1173.20 0.03925
1173.30 0.03923
1173.40 0.03922
1173.50 0.03921
1173.60 0.03919
1173.70 0.03918
1173.80 0.03917
1173.90 0.03916
1174.00 0.03914
1174.10 0.03913
1174.20 0.03912
1174.30 0.0391
1174.40 0.03909
1174.50 0.03908
1174.60 0.03906
1174.70 0.03905
1174.80 0.03904
1174.90 0.03903
1175.00 0.03901
1175.10 0.039
1175.20 0.03899
1175.30 0.03897
1175.40 0.03896
1175.50 0.03895
1175.60 0.03894
1175.70 0.03892
1175.80 0.03891
1175.90 0.0389
1176.00 0.03888
1176.10 0.03887
1176.20 0.03886
1176.30 0.03884
1176.40 0.03883
1176.50 0.03882
1176.60 0.03881
1176.70 0.03879
1176.80 0.03878
1176.90 0.03877
1177.00 0.03875
1177.10 0.03874
1177.20 0.03873
1177.30 0.03872
1177.40 0.0387
1177.50 0.03869
1177.60 0.03868
1177.70 0.03867
1177.80 0.03865
1177.90 0.03864
1178.00 0.03863
1178.10 0.03861
1178.20 0.0386
1178.30 0.03859
1178.40 0.03858
1178.50 0.03856
1178.60 0.03855
1178.70 0.03854
1178.80 0.03853
1178.90 0.03851
1179.00 0.0385
1179.10 0.03849
1179.20 0.03847
1179.30 0.03846
1179.40 0.03845
1179.50 0.03844
1179.60 0.03842
1179.70 0.03841
1179.80 0.0384
1179.90 0.03839
1180.00 0.03837
1180.10 0.03836
1180.20 0.03835
1180.30 0.03833
1180.40 0.03832
1180.50 0.03831
1180.60 0.0383
1180.70 0.03828
1180.80 0.03827
1180.90 0.03826
1181.00 0.03825
1181.10 0.03823
1181.20 0.03822
1181.30 0.03821
1181.40 0.0382
1181.50 0.03818
1181.60 0.03817
1181.70 0.03816
1181.80 0.03815
1181.90 0.03813
1182.00 0.03812
1182.10 0.03811
1182.20 0.03809
1182.30 0.03808
1182.40 0.03807
1182.50 0.03806
1182.60 0.03804
1182.70 0.03803
1182.80 0.03802
1182.90 0.03801
1183.00 0.03799
1183.10 0.03798
1183.20 0.03797
1183.30 0.03796
1183.40 0.03794
1183.50 0.03793
1183.60 0.03792
1183.70 0.03791
1183.80 0.0379
1183.90 0.03788
1184.00 0.03787
1184.10 0.03786
1184.20 0.03785
1184.30 0.03783
1184.40 0.03782
1184.50 0.03781
1184.60 0.0378
1184.70 0.03778
1184.80 0.03777
1184.90 0.03776
1185.00 0.03775
1185.10 0.03773
1185.20 0.03772
1185.30 0.03771
1185.40 0.0377
1185.50 0.03768
1185.60 0.03767
1185.70 0.03766
1185.80 0.03765
1185.90 0.03763
1186.00 0.03762
1186.10 0.03761
1186.20 0.0376
1186.30 0.03758
1186.40 0.03757
1186.50 0.03756
1186.60 0.03755
1186.70 0.03754
1186.80 0.03752
1186.90 0.03751
1187.00 0.0375
1187.10 0.03749
1187.20 0.03747
1187.30 0.03746
1187.40 0.03745
1187.50 0.03744
1187.60 0.03742
1187.70 0.03741
1187.80 0.0374
1187.90 0.03739
1188.00 0.03738
1188.10 0.03736
1188.20 0.03735
1188.30 0.03734
1188.40 0.03733
1188.50 0.03731
1188.60 0.0373
1188.70 0.03729
1188.80 0.03728
1188.90 0.03727
1189.00 0.03725
1189.10 0.03724
1189.20 0.03723
1189.30 0.03722
1189.40 0.0372
1189.50 0.03719
1189.60 0.03718
1189.70 0.03717
1189.80 0.03716
1189.90 0.03714
1190.00 0.03713
1190.10 0.03712
1190.20 0.03711
1190.30 0.0371
1190.40 0.03708
1190.50 0.03707
1190.60 0.03706
1190.70 0.03705
1190.80 0.03703
1190.90 0.03702
1191.00 0.03701
1191.10 0.037
1191.20 0.03699
1191.30 0.03697
1191.40 0.03696
1191.50 0.03695
1191.60 0.03694
1191.70 0.03693
1191.80 0.03691
1191.90 0.0369
1192.00 0.03689
1192.10 0.03688
1192.20 0.03686
1192.30 0.03685
1192.40 0.03684
1192.50 0.03683
1192.60 0.03682
1192.70 0.0368
1192.80 0.03679
1192.90 0.03678
1193.00 0.03677
1193.10 0.03676
1193.20 0.03674
1193.30 0.03673
1193.40 0.03672
1193.50 0.03671
1193.60 0.0367
1193.70 0.03668
1193.80 0.03667
1193.90 0.03666
1194.00 0.03665
1194.10 0.03664
1194.20 0.03663
1194.30 0.03661
1194.40 0.0366
1194.50 0.03659
1194.60 0.03658
1194.70 0.03657
1194.80 0.03655
1194.90 0.03654
1195.00 0.03653
1195.10 0.03652
1195.20 0.03651
1195.30 0.03649
1195.40 0.03648
1195.50 0.03647
1195.60 0.03646
1195.70 0.03645
1195.80 0.03643
1195.90 0.03642
1196.00 0.03641
1196.10 0.0364
1196.20 0.03639
1196.30 0.03638
1196.40 0.03636
1196.50 0.03635
1196.60 0.03634
1196.70 0.03633
1196.80 0.03632
1196.90 0.0363
1197.00 0.03629
1197.10 0.03628
1197.20 0.03627
1197.30 0.03626
1197.40 0.03624
1197.50 0.03623
1197.60 0.03622
1197.70 0.03621
1197.80 0.0362
1197.90 0.03619
1198.00 0.03617
1198.10 0.03616
1198.20 0.03615
1198.30 0.03614
1198.40 0.03613
1198.50 0.03612
1198.60 0.0361
1198.70 0.03609
1198.80 0.03608
1198.90 0.03607
1199.00 0.03606
1199.10 0.03605
1199.20 0.03603
1199.30 0.03602
1199.40 0.03601
1199.50 0.036
1199.60 0.03599
1199.70 0.03598
1199.80 0.03596
1199.90 0.03595
1200.00 0
