# Version 2.1 - nm, norm@500 to 1, cut digits, bergeron_120000_85.dat_120000
# Wavelength(nm)  Flambda(ergs/cm^s/s/nm)
300.00 6.964
300.10 6.955
300.20 6.947
300.30 6.938
300.40 6.929
300.50 6.92
300.60 6.912
300.70 6.903
300.80 6.894
300.90 6.885
301.00 6.877
301.10 6.868
301.20 6.859
301.30 6.851
301.40 6.842
301.50 6.833
301.60 6.825
301.70 6.816
301.80 6.808
301.90 6.799
302.00 6.791
302.10 6.782
302.20 6.773
302.30 6.765
302.40 6.756
302.50 6.748
302.60 6.74
302.70 6.731
302.80 6.723
302.90 6.714
303.00 6.706
303.10 6.697
303.20 6.689
303.30 6.681
303.40 6.672
303.50 6.664
303.60 6.656
303.70 6.647
303.80 6.639
303.90 6.631
304.00 6.622
304.10 6.614
304.20 6.606
304.30 6.598
304.40 6.589
304.50 6.581
304.60 6.573
304.70 6.565
304.80 6.556
304.90 6.548
305.00 6.54
305.10 6.532
305.20 6.524
305.30 6.516
305.40 6.508
305.50 6.499
305.60 6.491
305.70 6.483
305.80 6.475
305.90 6.467
306.00 6.459
306.10 6.451
306.20 6.443
306.30 6.435
306.40 6.427
306.50 6.419
306.60 6.411
306.70 6.403
306.80 6.395
306.90 6.387
307.00 6.38
307.10 6.372
307.20 6.364
307.30 6.356
307.40 6.348
307.50 6.34
307.60 6.332
307.70 6.325
307.80 6.317
307.90 6.309
308.00 6.301
308.10 6.293
308.20 6.286
308.30 6.278
308.40 6.27
308.50 6.262
308.60 6.255
308.70 6.247
308.80 6.239
308.90 6.232
309.00 6.224
309.10 6.216
309.20 6.209
309.30 6.201
309.40 6.193
309.50 6.186
309.60 6.178
309.70 6.171
309.80 6.163
309.90 6.155
310.00 6.148
310.10 6.14
310.20 6.133
310.30 6.125
310.40 6.118
310.50 6.11
310.60 6.103
310.70 6.095
310.80 6.088
310.90 6.08
311.00 6.073
311.10 6.066
311.20 6.058
311.30 6.051
311.40 6.043
311.50 6.036
311.60 6.029
311.70 6.021
311.80 6.014
311.90 6.007
312.00 5.999
312.10 5.992
312.20 5.985
312.30 5.977
312.40 5.97
312.50 5.963
312.60 5.956
312.70 5.948
312.80 5.941
312.90 5.934
313.00 5.927
313.10 5.919
313.20 5.912
313.30 5.905
313.40 5.898
313.50 5.891
313.60 5.884
313.70 5.876
313.80 5.869
313.90 5.862
314.00 5.855
314.10 5.848
314.20 5.841
314.30 5.834
314.40 5.827
314.50 5.82
314.60 5.813
314.70 5.806
314.80 5.799
314.90 5.792
315.00 5.785
315.10 5.778
315.20 5.771
315.30 5.764
315.40 5.757
315.50 5.75
315.60 5.743
315.70 5.736
315.80 5.729
315.90 5.722
316.00 5.715
316.10 5.708
316.20 5.702
316.30 5.695
316.40 5.688
316.50 5.681
316.60 5.674
316.70 5.667
316.80 5.661
316.90 5.654
317.00 5.647
317.10 5.64
317.20 5.633
317.30 5.627
317.40 5.62
317.50 5.613
317.60 5.606
317.70 5.6
317.80 5.593
317.90 5.586
318.00 5.58
318.10 5.573
318.20 5.566
318.30 5.56
318.40 5.553
318.50 5.546
318.60 5.54
318.70 5.533
318.80 5.526
318.90 5.52
319.00 5.513
319.10 5.507
319.20 5.5
319.30 5.494
319.40 5.487
319.50 5.481
319.60 5.474
319.70 5.467
319.80 5.461
319.90 5.454
320.00 5.448
320.10 5.442
320.20 5.435
320.30 5.429
320.40 5.422
320.50 5.416
320.60 5.409
320.70 5.403
320.80 5.396
320.90 5.39
321.00 5.384
321.10 5.377
321.20 5.371
321.30 5.365
321.40 5.358
321.50 5.352
321.60 5.345
321.70 5.339
321.80 5.333
321.90 5.327
322.00 5.32
322.10 5.314
322.20 5.308
322.30 5.301
322.40 5.295
322.50 5.289
322.60 5.283
322.70 5.276
322.80 5.27
322.90 5.264
323.00 5.258
323.10 5.252
323.20 5.245
323.30 5.239
323.40 5.233
323.50 5.227
323.60 5.221
323.70 5.215
323.80 5.208
323.90 5.202
324.00 5.196
324.10 5.19
324.20 5.184
324.30 5.178
324.40 5.172
324.50 5.166
324.60 5.16
324.70 5.154
324.80 5.148
324.90 5.142
325.00 5.136
325.10 5.129
325.20 5.123
325.30 5.117
325.40 5.112
325.50 5.106
325.60 5.1
325.70 5.094
325.80 5.088
325.90 5.082
326.00 5.076
326.10 5.07
326.20 5.064
326.30 5.058
326.40 5.052
326.50 5.046
326.60 5.04
326.70 5.034
326.80 5.029
326.90 5.023
327.00 5.017
327.10 5.011
327.20 5.005
327.30 4.999
327.40 4.994
327.50 4.988
327.60 4.982
327.70 4.976
327.80 4.97
327.90 4.965
328.00 4.959
328.10 4.953
328.20 4.947
328.30 4.942
328.40 4.936
328.50 4.93
328.60 4.924
328.70 4.919
328.80 4.913
328.90 4.907
329.00 4.902
329.10 4.896
329.20 4.89
329.30 4.885
329.40 4.879
329.50 4.873
329.60 4.868
329.70 4.862
329.80 4.856
329.90 4.851
330.00 4.845
330.10 4.84
330.20 4.834
330.30 4.828
330.40 4.823
330.50 4.817
330.60 4.812
330.70 4.806
330.80 4.801
330.90 4.795
331.00 4.79
331.10 4.784
331.20 4.779
331.30 4.773
331.40 4.768
331.50 4.762
331.60 4.757
331.70 4.751
331.80 4.746
331.90 4.74
332.00 4.735
332.10 4.729
332.20 4.724
332.30 4.719
332.40 4.713
332.50 4.708
332.60 4.702
332.70 4.697
332.80 4.692
332.90 4.686
333.00 4.681
333.10 4.676
333.20 4.67
333.30 4.665
333.40 4.66
333.50 4.654
333.60 4.649
333.70 4.644
333.80 4.638
333.90 4.633
334.00 4.628
334.10 4.622
334.20 4.617
334.30 4.612
334.40 4.607
334.50 4.601
334.60 4.596
334.70 4.591
334.80 4.586
334.90 4.58
335.00 4.575
335.10 4.57
335.20 4.565
335.30 4.56
335.40 4.554
335.50 4.549
335.60 4.544
335.70 4.539
335.80 4.534
335.90 4.529
336.00 4.523
336.10 4.518
336.20 4.513
336.30 4.508
336.40 4.503
336.50 4.498
336.60 4.493
336.70 4.488
336.80 4.483
336.90 4.478
337.00 4.473
337.10 4.467
337.20 4.462
337.30 4.457
337.40 4.452
337.50 4.447
337.60 4.442
337.70 4.437
337.80 4.432
337.90 4.427
338.00 4.422
338.10 4.417
338.20 4.412
338.30 4.407
338.40 4.402
338.50 4.397
338.60 4.392
338.70 4.387
338.80 4.383
338.90 4.378
339.00 4.373
339.10 4.368
339.20 4.363
339.30 4.358
339.40 4.353
339.50 4.348
339.60 4.343
339.70 4.338
339.80 4.333
339.90 4.329
340.00 4.324
340.10 4.319
340.20 4.314
340.30 4.309
340.40 4.304
340.50 4.3
340.60 4.295
340.70 4.29
340.80 4.285
340.90 4.28
341.00 4.276
341.10 4.271
341.20 4.266
341.30 4.261
341.40 4.256
341.50 4.252
341.60 4.247
341.70 4.242
341.80 4.237
341.90 4.233
342.00 4.228
342.10 4.223
342.20 4.219
342.30 4.214
342.40 4.209
342.50 4.205
342.60 4.2
342.70 4.195
342.80 4.191
342.90 4.186
343.00 4.181
343.10 4.177
343.20 4.172
343.30 4.167
343.40 4.163
343.50 4.158
343.60 4.153
343.70 4.149
343.80 4.144
343.90 4.14
344.00 4.135
344.10 4.13
344.20 4.126
344.30 4.121
344.40 4.117
344.50 4.112
344.60 4.108
344.70 4.103
344.80 4.098
344.90 4.094
345.00 4.089
345.10 4.085
345.20 4.08
345.30 4.076
345.40 4.071
345.50 4.067
345.60 4.062
345.70 4.058
345.80 4.053
345.90 4.049
346.00 4.044
346.10 4.04
346.20 4.036
346.30 4.031
346.40 4.027
346.50 4.022
346.60 4.018
346.70 4.013
346.80 4.009
346.90 4.005
347.00 4
347.10 3.996
347.20 3.991
347.30 3.987
347.40 3.983
347.50 3.978
347.60 3.974
347.70 3.969
347.80 3.965
347.90 3.961
348.00 3.956
348.10 3.952
348.20 3.948
348.30 3.943
348.40 3.939
348.50 3.935
348.60 3.93
348.70 3.926
348.80 3.922
348.90 3.918
349.00 3.913
349.10 3.909
349.20 3.905
349.30 3.9
349.40 3.896
349.50 3.892
349.60 3.888
349.70 3.883
349.80 3.879
349.90 3.875
350.00 3.871
350.10 3.866
350.20 3.862
350.30 3.858
350.40 3.854
350.50 3.85
350.60 3.846
350.70 3.841
350.80 3.837
350.90 3.833
351.00 3.829
351.10 3.825
351.20 3.82
351.30 3.816
351.40 3.812
351.50 3.808
351.60 3.804
351.70 3.8
351.80 3.796
351.90 3.791
352.00 3.787
352.10 3.783
352.20 3.779
352.30 3.775
352.40 3.771
352.50 3.767
352.60 3.763
352.70 3.759
352.80 3.755
352.90 3.751
353.00 3.747
353.10 3.743
353.20 3.738
353.30 3.734
353.40 3.73
353.50 3.726
353.60 3.722
353.70 3.718
353.80 3.714
353.90 3.71
354.00 3.706
354.10 3.702
354.20 3.698
354.30 3.694
354.40 3.69
354.50 3.686
354.60 3.682
354.70 3.678
354.80 3.674
354.90 3.671
355.00 3.667
355.10 3.663
355.20 3.659
355.30 3.655
355.40 3.651
355.50 3.647
355.60 3.643
355.70 3.639
355.80 3.635
355.90 3.631
356.00 3.627
356.10 3.623
356.20 3.62
356.30 3.616
356.40 3.612
356.50 3.608
356.60 3.604
356.70 3.6
356.80 3.596
356.90 3.593
357.00 3.589
357.10 3.585
357.20 3.581
357.30 3.577
357.40 3.573
357.50 3.57
357.60 3.566
357.70 3.562
357.80 3.558
357.90 3.554
358.00 3.55
358.10 3.547
358.20 3.543
358.30 3.539
358.40 3.535
358.50 3.532
358.60 3.528
358.70 3.524
358.80 3.52
358.90 3.517
359.00 3.513
359.10 3.509
359.20 3.505
359.30 3.502
359.40 3.498
359.50 3.494
359.60 3.49
359.70 3.487
359.80 3.483
359.90 3.479
360.00 3.476
360.10 3.472
360.20 3.468
360.30 3.465
360.40 3.461
360.50 3.457
360.60 3.454
360.70 3.45
360.80 3.446
360.90 3.443
361.00 3.439
361.10 3.435
361.20 3.432
361.30 3.428
361.40 3.424
361.50 3.421
361.60 3.417
361.70 3.414
361.80 3.41
361.90 3.406
362.00 3.403
362.10 3.399
362.20 3.396
362.30 3.392
362.40 3.388
362.50 3.385
362.60 3.381
362.70 3.378
362.80 3.374
362.90 3.371
363.00 3.367
363.10 3.364
363.20 3.36
363.30 3.356
363.40 3.353
363.50 3.349
363.60 3.346
363.70 3.342
363.80 3.339
363.90 3.335
364.00 3.332
364.10 3.328
364.20 3.325
364.30 3.321
364.40 3.318
364.50 3.314
364.60 3.311
364.70 3.307
364.80 3.304
364.90 3.301
365.00 3.297
365.10 3.294
365.20 3.29
365.30 3.287
365.40 3.283
365.50 3.28
365.60 3.276
365.70 3.273
365.80 3.27
365.90 3.266
366.00 3.263
366.10 3.259
366.20 3.256
366.30 3.252
366.40 3.249
366.50 3.246
366.60 3.242
366.70 3.239
366.80 3.235
366.90 3.232
367.00 3.229
367.10 3.225
367.20 3.222
367.30 3.219
367.40 3.215
367.50 3.212
367.60 3.208
367.70 3.205
367.80 3.202
367.90 3.198
368.00 3.195
368.10 3.192
368.20 3.188
368.30 3.185
368.40 3.182
368.50 3.178
368.60 3.175
368.70 3.172
368.80 3.168
368.90 3.165
369.00 3.162
369.10 3.158
369.20 3.155
369.30 3.152
369.40 3.148
369.50 3.145
369.60 3.142
369.70 3.138
369.80 3.135
369.90 3.132
370.00 3.128
370.10 3.125
370.20 3.122
370.30 3.119
370.40 3.115
370.50 3.112
370.60 3.109
370.70 3.106
370.80 3.102
370.90 3.099
371.00 3.096
371.10 3.093
371.20 3.089
371.30 3.086
371.40 3.083
371.50 3.08
371.60 3.077
371.70 3.073
371.80 3.07
371.90 3.067
372.00 3.064
372.10 3.061
372.20 3.057
372.30 3.054
372.40 3.051
372.50 3.048
372.60 3.045
372.70 3.042
372.80 3.039
372.90 3.035
373.00 3.032
373.10 3.029
373.20 3.026
373.30 3.023
373.40 3.02
373.50 3.017
373.60 3.014
373.70 3.011
373.80 3.008
373.90 3.004
374.00 3.001
374.10 2.998
374.20 2.995
374.30 2.992
374.40 2.989
374.50 2.986
374.60 2.983
374.70 2.98
374.80 2.977
374.90 2.974
375.00 2.97
375.10 2.967
375.20 2.964
375.30 2.961
375.40 2.958
375.50 2.955
375.60 2.952
375.70 2.949
375.80 2.946
375.90 2.943
376.00 2.94
376.10 2.937
376.20 2.934
376.30 2.931
376.40 2.928
376.50 2.925
376.60 2.922
376.70 2.919
376.80 2.916
376.90 2.913
377.00 2.91
377.10 2.907
377.20 2.904
377.30 2.901
377.40 2.898
377.50 2.895
377.60 2.892
377.70 2.889
377.80 2.886
377.90 2.883
378.00 2.88
378.10 2.877
378.20 2.874
378.30 2.871
378.40 2.869
378.50 2.866
378.60 2.863
378.70 2.86
378.80 2.857
378.90 2.854
379.00 2.851
379.10 2.848
379.20 2.845
379.30 2.843
379.40 2.84
379.50 2.837
379.60 2.834
379.70 2.831
379.80 2.828
379.90 2.825
380.00 2.822
380.10 2.82
380.20 2.817
380.30 2.814
380.40 2.811
380.50 2.808
380.60 2.806
380.70 2.803
380.80 2.8
380.90 2.797
381.00 2.794
381.10 2.791
381.20 2.789
381.30 2.786
381.40 2.783
381.50 2.78
381.60 2.778
381.70 2.775
381.80 2.772
381.90 2.769
382.00 2.767
382.10 2.764
382.20 2.761
382.30 2.758
382.40 2.756
382.50 2.753
382.60 2.75
382.70 2.747
382.80 2.745
382.90 2.742
383.00 2.739
383.10 2.737
383.20 2.734
383.30 2.731
383.40 2.728
383.50 2.726
383.60 2.723
383.70 2.72
383.80 2.718
383.90 2.715
384.00 2.712
384.10 2.71
384.20 2.707
384.30 2.705
384.40 2.702
384.50 2.699
384.60 2.697
384.70 2.694
384.80 2.691
384.90 2.689
385.00 2.686
385.10 2.684
385.20 2.681
385.30 2.678
385.40 2.676
385.50 2.673
385.60 2.67
385.70 2.668
385.80 2.665
385.90 2.663
386.00 2.66
386.10 2.657
386.20 2.655
386.30 2.652
386.40 2.65
386.50 2.647
386.60 2.644
386.70 2.642
386.80 2.639
386.90 2.637
387.00 2.634
387.10 2.632
387.20 2.629
387.30 2.626
387.40 2.624
387.50 2.621
387.60 2.619
387.70 2.616
387.80 2.613
387.90 2.611
388.00 2.608
388.10 2.606
388.20 2.603
388.30 2.601
388.40 2.598
388.50 2.596
388.60 2.593
388.70 2.591
388.80 2.588
388.90 2.586
389.00 2.584
389.10 2.581
389.20 2.579
389.30 2.576
389.40 2.574
389.50 2.571
389.60 2.569
389.70 2.567
389.80 2.564
389.90 2.562
390.00 2.56
390.10 2.557
390.20 2.555
390.30 2.553
390.40 2.55
390.50 2.548
390.60 2.546
390.70 2.543
390.80 2.541
390.90 2.539
391.00 2.536
391.10 2.534
391.20 2.532
391.30 2.529
391.40 2.527
391.50 2.524
391.60 2.522
391.70 2.52
391.80 2.517
391.90 2.515
392.00 2.512
392.10 2.51
392.20 2.508
392.30 2.505
392.40 2.503
392.50 2.5
392.60 2.498
392.70 2.495
392.80 2.493
392.90 2.49
393.00 2.488
393.10 2.485
393.20 2.483
393.30 2.48
393.40 2.478
393.50 2.475
393.60 2.473
393.70 2.47
393.80 2.468
393.90 2.465
394.00 2.462
394.10 2.46
394.20 2.457
394.30 2.455
394.40 2.452
394.50 2.449
394.60 2.447
394.70 2.444
394.80 2.441
394.90 2.439
395.00 2.436
395.10 2.433
395.20 2.431
395.30 2.428
395.40 2.425
395.50 2.423
395.60 2.42
395.70 2.417
395.80 2.415
395.90 2.412
396.00 2.409
396.10 2.407
396.20 2.404
396.30 2.401
396.40 2.399
396.50 2.396
396.60 2.394
396.70 2.391
396.80 2.389
396.90 2.386
397.00 2.384
397.10 2.382
397.20 2.38
397.30 2.378
397.40 2.376
397.50 2.375
397.60 2.373
397.70 2.371
397.80 2.369
397.90 2.368
398.00 2.366
398.10 2.364
398.20 2.362
398.30 2.361
398.40 2.359
398.50 2.357
398.60 2.356
398.70 2.354
398.80 2.352
398.90 2.351
399.00 2.349
399.10 2.347
399.20 2.345
399.30 2.344
399.40 2.342
399.50 2.34
399.60 2.338
399.70 2.337
399.80 2.335
399.90 2.333
400.00 2.331
400.10 2.33
400.20 2.328
400.30 2.326
400.40 2.324
400.50 2.322
400.60 2.32
400.70 2.318
400.80 2.316
400.90 2.315
401.00 2.313
401.10 2.311
401.20 2.309
401.30 2.307
401.40 2.305
401.50 2.303
401.60 2.301
401.70 2.299
401.80 2.297
401.90 2.295
402.00 2.293
402.10 2.291
402.20 2.288
402.30 2.286
402.40 2.284
402.50 2.282
402.60 2.28
402.70 2.278
402.80 2.276
402.90 2.274
403.00 2.271
403.10 2.269
403.20 2.267
403.30 2.265
403.40 2.262
403.50 2.26
403.60 2.258
403.70 2.256
403.80 2.253
403.90 2.251
404.00 2.249
404.10 2.246
404.20 2.244
404.30 2.241
404.40 2.239
404.50 2.237
404.60 2.234
404.70 2.232
404.80 2.229
404.90 2.227
405.00 2.224
405.10 2.222
405.20 2.219
405.30 2.216
405.40 2.214
405.50 2.211
405.60 2.209
405.70 2.206
405.80 2.203
405.90 2.201
406.00 2.198
406.10 2.195
406.20 2.192
406.30 2.189
406.40 2.187
406.50 2.184
406.60 2.181
406.70 2.178
406.80 2.175
406.90 2.172
407.00 2.169
407.10 2.166
407.20 2.163
407.30 2.16
407.40 2.157
407.50 2.154
407.60 2.151
407.70 2.148
407.80 2.145
407.90 2.141
408.00 2.138
408.10 2.135
408.20 2.132
408.30 2.128
408.40 2.125
408.50 2.122
408.60 2.119
408.70 2.115
408.80 2.112
408.90 2.109
409.00 2.106
409.10 2.102
409.20 2.099
409.30 2.096
409.40 2.093
409.50 2.091
409.60 2.088
409.70 2.086
409.80 2.084
409.90 2.082
410.00 2.081
410.10 2.08
410.20 2.078
410.30 2.076
410.40 2.073
410.50 2.07
410.60 2.069
410.70 2.067
410.80 2.066
410.90 2.065
411.00 2.064
411.10 2.063
411.20 2.063
411.30 2.062
411.40 2.061
411.50 2.061
411.60 2.06
411.70 2.06
411.80 2.059
411.90 2.059
412.00 2.058
412.10 2.058
412.20 2.057
412.30 2.056
412.40 2.056
412.50 2.055
412.60 2.054
412.70 2.054
412.80 2.053
412.90 2.052
413.00 2.052
413.10 2.051
413.20 2.05
413.30 2.049
413.40 2.048
413.50 2.047
413.60 2.046
413.70 2.045
413.80 2.044
413.90 2.043
414.00 2.042
414.10 2.041
414.20 2.04
414.30 2.039
414.40 2.038
414.50 2.037
414.60 2.036
414.70 2.035
414.80 2.034
414.90 2.032
415.00 2.031
415.10 2.03
415.20 2.029
415.30 2.027
415.40 2.026
415.50 2.025
415.60 2.023
415.70 2.022
415.80 2.021
415.90 2.019
416.00 2.018
416.10 2.017
416.20 2.015
416.30 2.014
416.40 2.012
416.50 2.011
416.60 2.009
416.70 2.008
416.80 2.006
416.90 2.005
417.00 2.003
417.10 2.002
417.20 2
417.30 1.999
417.40 1.997
417.50 1.996
417.60 1.994
417.70 1.993
417.80 1.991
417.90 1.989
418.00 1.988
418.10 1.986
418.20 1.985
418.30 1.983
418.40 1.981
418.50 1.98
418.60 1.978
418.70 1.977
418.80 1.975
418.90 1.973
419.00 1.972
419.10 1.97
419.20 1.968
419.30 1.967
419.40 1.965
419.50 1.963
419.60 1.962
419.70 1.96
419.80 1.958
419.90 1.957
420.00 1.955
420.10 1.953
420.20 1.951
420.30 1.95
420.40 1.948
420.50 1.946
420.60 1.945
420.70 1.943
420.80 1.941
420.90 1.939
421.00 1.938
421.10 1.936
421.20 1.934
421.30 1.933
421.40 1.931
421.50 1.929
421.60 1.927
421.70 1.926
421.80 1.924
421.90 1.922
422.00 1.92
422.10 1.919
422.20 1.917
422.30 1.915
422.40 1.913
422.50 1.911
422.60 1.91
422.70 1.908
422.80 1.906
422.90 1.904
423.00 1.903
423.10 1.901
423.20 1.899
423.30 1.897
423.40 1.895
423.50 1.894
423.60 1.892
423.70 1.89
423.80 1.888
423.90 1.886
424.00 1.884
424.10 1.883
424.20 1.881
424.30 1.879
424.40 1.877
424.50 1.875
424.60 1.873
424.70 1.871
424.80 1.87
424.90 1.868
425.00 1.866
425.10 1.864
425.20 1.862
425.30 1.86
425.40 1.858
425.50 1.856
425.60 1.854
425.70 1.853
425.80 1.851
425.90 1.849
426.00 1.847
426.10 1.845
426.20 1.843
426.30 1.841
426.40 1.839
426.50 1.837
426.60 1.835
426.70 1.833
426.80 1.831
426.90 1.829
427.00 1.827
427.10 1.825
427.20 1.823
427.30 1.82
427.40 1.818
427.50 1.816
427.60 1.814
427.70 1.812
427.80 1.81
427.90 1.808
428.00 1.805
428.10 1.803
428.20 1.801
428.30 1.799
428.40 1.796
428.50 1.794
428.60 1.792
428.70 1.789
428.80 1.787
428.90 1.785
429.00 1.782
429.10 1.78
429.20 1.777
429.30 1.775
429.40 1.772
429.50 1.77
429.60 1.767
429.70 1.764
429.80 1.762
429.90 1.759
430.00 1.756
430.10 1.753
430.20 1.751
430.30 1.748
430.40 1.745
430.50 1.742
430.60 1.739
430.70 1.736
430.80 1.733
430.90 1.73
431.00 1.727
431.10 1.723
431.20 1.72
431.30 1.717
431.40 1.714
431.50 1.71
431.60 1.707
431.70 1.703
431.80 1.7
431.90 1.696
432.00 1.693
432.10 1.689
432.20 1.686
432.30 1.682
432.40 1.678
432.50 1.674
432.60 1.671
432.70 1.667
432.80 1.663
432.90 1.66
433.00 1.656
433.10 1.652
433.20 1.649
433.30 1.645
433.40 1.641
433.50 1.638
433.60 1.634
433.70 1.63
433.80 1.626
433.90 1.621
434.00 1.618
434.10 1.617
434.20 1.617
434.30 1.619
434.40 1.621
434.50 1.622
434.60 1.623
434.70 1.624
434.80 1.624
434.90 1.625
435.00 1.626
435.10 1.627
435.20 1.628
435.30 1.628
435.40 1.629
435.50 1.63
435.60 1.631
435.70 1.632
435.80 1.632
435.90 1.633
436.00 1.634
436.10 1.634
436.20 1.635
436.30 1.635
436.40 1.636
436.50 1.636
436.60 1.637
436.70 1.637
436.80 1.638
436.90 1.638
437.00 1.638
437.10 1.638
437.20 1.638
437.30 1.638
437.40 1.638
437.50 1.638
437.60 1.638
437.70 1.638
437.80 1.638
437.90 1.638
438.00 1.637
438.10 1.637
438.20 1.637
438.30 1.636
438.40 1.636
438.50 1.636
438.60 1.635
438.70 1.635
438.80 1.634
438.90 1.634
439.00 1.633
439.10 1.632
439.20 1.632
439.30 1.631
439.40 1.63
439.50 1.629
439.60 1.629
439.70 1.628
439.80 1.627
439.90 1.626
440.00 1.625
440.10 1.625
440.20 1.624
440.30 1.623
440.40 1.622
440.50 1.621
440.60 1.62
440.70 1.619
440.80 1.618
440.90 1.617
441.00 1.616
441.10 1.615
441.20 1.614
441.30 1.613
441.40 1.612
441.50 1.611
441.60 1.61
441.70 1.608
441.80 1.607
441.90 1.606
442.00 1.605
442.10 1.604
442.20 1.603
442.30 1.602
442.40 1.601
442.50 1.599
442.60 1.598
442.70 1.597
442.80 1.596
442.90 1.595
443.00 1.594
443.10 1.592
443.20 1.591
443.30 1.59
443.40 1.589
443.50 1.587
443.60 1.586
443.70 1.585
443.80 1.584
443.90 1.583
444.00 1.581
444.10 1.58
444.20 1.579
444.30 1.578
444.40 1.576
444.50 1.575
444.60 1.574
444.70 1.573
444.80 1.571
444.90 1.57
445.00 1.569
445.10 1.568
445.20 1.566
445.30 1.565
445.40 1.564
445.50 1.563
445.60 1.561
445.70 1.56
445.80 1.559
445.90 1.558
446.00 1.556
446.10 1.555
446.20 1.554
446.30 1.552
446.40 1.551
446.50 1.55
446.60 1.549
446.70 1.547
446.80 1.546
446.90 1.545
447.00 1.543
447.10 1.542
447.20 1.541
447.30 1.54
447.40 1.538
447.50 1.537
447.60 1.536
447.70 1.535
447.80 1.533
447.90 1.532
448.00 1.531
448.10 1.529
448.20 1.528
448.30 1.527
448.40 1.526
448.50 1.524
448.60 1.523
448.70 1.522
448.80 1.52
448.90 1.519
449.00 1.518
449.10 1.517
449.20 1.515
449.30 1.514
449.40 1.513
449.50 1.512
449.60 1.51
449.70 1.509
449.80 1.508
449.90 1.506
450.00 1.505
450.10 1.504
450.20 1.503
450.30 1.501
450.40 1.5
450.50 1.499
450.60 1.498
450.70 1.496
450.80 1.495
450.90 1.494
451.00 1.493
451.10 1.491
451.20 1.49
451.30 1.489
451.40 1.488
451.50 1.486
451.60 1.485
451.70 1.484
451.80 1.482
451.90 1.481
452.00 1.48
452.10 1.479
452.20 1.477
452.30 1.476
452.40 1.475
452.50 1.474
452.60 1.472
452.70 1.471
452.80 1.47
452.90 1.469
453.00 1.468
453.10 1.466
453.20 1.465
453.30 1.464
453.40 1.463
453.50 1.461
453.60 1.46
453.70 1.459
453.80 1.458
453.90 1.456
454.00 1.455
454.10 1.454
454.20 1.453
454.30 1.451
454.40 1.45
454.50 1.449
454.60 1.448
454.70 1.447
454.80 1.445
454.90 1.444
455.00 1.443
455.10 1.442
455.20 1.44
455.30 1.439
455.40 1.438
455.50 1.437
455.60 1.436
455.70 1.434
455.80 1.433
455.90 1.432
456.00 1.431
456.10 1.429
456.20 1.428
456.30 1.427
456.40 1.426
456.50 1.425
456.60 1.423
456.70 1.422
456.80 1.421
456.90 1.42
457.00 1.419
457.10 1.417
457.20 1.416
457.30 1.415
457.40 1.414
457.50 1.413
457.60 1.411
457.70 1.41
457.80 1.409
457.90 1.408
458.00 1.407
458.10 1.406
458.20 1.404
458.30 1.403
458.40 1.402
458.50 1.401
458.60 1.4
458.70 1.398
458.80 1.397
458.90 1.396
459.00 1.395
459.10 1.394
459.20 1.393
459.30 1.391
459.40 1.39
459.50 1.389
459.60 1.388
459.70 1.387
459.80 1.385
459.90 1.384
460.00 1.383
460.10 1.382
460.20 1.381
460.30 1.38
460.40 1.378
460.50 1.377
460.60 1.376
460.70 1.375
460.80 1.374
460.90 1.373
461.00 1.372
461.10 1.37
461.20 1.369
461.30 1.368
461.40 1.367
461.50 1.366
461.60 1.365
461.70 1.363
461.80 1.362
461.90 1.361
462.00 1.36
462.10 1.359
462.20 1.358
462.30 1.357
462.40 1.355
462.50 1.354
462.60 1.353
462.70 1.352
462.80 1.351
462.90 1.35
463.00 1.349
463.10 1.347
463.20 1.346
463.30 1.345
463.40 1.344
463.50 1.343
463.60 1.342
463.70 1.341
463.80 1.34
463.90 1.338
464.00 1.337
464.10 1.336
464.20 1.335
464.30 1.334
464.40 1.333
464.50 1.332
464.60 1.331
464.70 1.329
464.80 1.328
464.90 1.327
465.00 1.326
465.10 1.325
465.20 1.324
465.30 1.323
465.40 1.322
465.50 1.321
465.60 1.319
465.70 1.318
465.80 1.317
465.90 1.316
466.00 1.315
466.10 1.314
466.20 1.313
466.30 1.312
466.40 1.311
466.50 1.309
466.60 1.308
466.70 1.307
466.80 1.306
466.90 1.305
467.00 1.304
467.10 1.303
467.20 1.302
467.30 1.301
467.40 1.3
467.50 1.298
467.60 1.297
467.70 1.296
467.80 1.295
467.90 1.294
468.00 1.293
468.10 1.292
468.20 1.291
468.30 1.29
468.40 1.289
468.50 1.288
468.60 1.286
468.70 1.285
468.80 1.284
468.90 1.283
469.00 1.282
469.10 1.281
469.20 1.28
469.30 1.279
469.40 1.278
469.50 1.277
469.60 1.276
469.70 1.275
469.80 1.273
469.90 1.272
470.00 1.271
470.10 1.27
470.20 1.269
470.30 1.268
470.40 1.267
470.50 1.266
470.60 1.265
470.70 1.264
470.80 1.263
470.90 1.262
471.00 1.261
471.10 1.26
471.20 1.258
471.30 1.257
471.40 1.256
471.50 1.255
471.60 1.254
471.70 1.253
471.80 1.252
471.90 1.251
472.00 1.25
472.10 1.249
472.20 1.248
472.30 1.247
472.40 1.246
472.50 1.245
472.60 1.243
472.70 1.242
472.80 1.241
472.90 1.24
473.00 1.239
473.10 1.238
473.20 1.237
473.30 1.236
473.40 1.235
473.50 1.234
473.60 1.233
473.70 1.232
473.80 1.231
473.90 1.23
474.00 1.228
474.10 1.227
474.20 1.226
474.30 1.225
474.40 1.224
474.50 1.223
474.60 1.222
474.70 1.221
474.80 1.22
474.90 1.219
475.00 1.218
475.10 1.217
475.20 1.216
475.30 1.214
475.40 1.213
475.50 1.212
475.60 1.211
475.70 1.21
475.80 1.209
475.90 1.208
476.00 1.207
476.10 1.206
476.20 1.205
476.30 1.203
476.40 1.202
476.50 1.201
476.60 1.2
476.70 1.199
476.80 1.198
476.90 1.197
477.00 1.196
477.10 1.195
477.20 1.193
477.30 1.192
477.40 1.191
477.50 1.19
477.60 1.189
477.70 1.188
477.80 1.186
477.90 1.185
478.00 1.184
478.10 1.183
478.20 1.182
478.30 1.181
478.40 1.179
478.50 1.178
478.60 1.177
478.70 1.176
478.80 1.174
478.90 1.173
479.00 1.172
479.10 1.171
479.20 1.17
479.30 1.168
479.40 1.167
479.50 1.166
479.60 1.164
479.70 1.163
479.80 1.162
479.90 1.16
480.00 1.159
480.10 1.158
480.20 1.156
480.30 1.155
480.40 1.153
480.50 1.152
480.60 1.15
480.70 1.149
480.80 1.148
480.90 1.146
481.00 1.145
481.10 1.143
481.20 1.142
481.30 1.14
481.40 1.138
481.50 1.136
481.60 1.135
481.70 1.133
481.80 1.131
481.90 1.13
482.00 1.128
482.10 1.126
482.20 1.124
482.30 1.122
482.40 1.12
482.50 1.118
482.60 1.116
482.70 1.114
482.80 1.112
482.90 1.11
483.00 1.108
483.10 1.106
483.20 1.104
483.30 1.102
483.40 1.099
483.50 1.097
483.60 1.094
483.70 1.092
483.80 1.09
483.90 1.087
484.00 1.085
484.10 1.082
484.20 1.08
484.30 1.077
484.40 1.074
484.50 1.071
484.60 1.069
484.70 1.066
484.80 1.063
484.90 1.06
485.00 1.058
485.10 1.055
485.20 1.052
485.30 1.049
485.40 1.047
485.50 1.045
485.60 1.043
485.70 1.041
485.80 1.041
485.90 1.042
486.00 1.047
486.10 1.053
486.20 1.05
486.30 1.042
486.40 1.038
486.50 1.035
486.60 1.034
486.70 1.034
486.80 1.035
486.90 1.035
487.00 1.036
487.10 1.037
487.20 1.038
487.30 1.04
487.40 1.041
487.50 1.042
487.60 1.043
487.70 1.044
487.80 1.045
487.90 1.046
488.00 1.047
488.10 1.048
488.20 1.049
488.30 1.05
488.40 1.05
488.50 1.051
488.60 1.052
488.70 1.052
488.80 1.053
488.90 1.054
489.00 1.054
489.10 1.055
489.20 1.056
489.30 1.056
489.40 1.056
489.50 1.056
489.60 1.056
489.70 1.057
489.80 1.057
489.90 1.057
490.00 1.057
490.10 1.058
490.20 1.058
490.30 1.057
490.40 1.057
490.50 1.057
490.60 1.057
490.70 1.057
490.80 1.057
490.90 1.057
491.00 1.057
491.10 1.056
491.20 1.056
491.30 1.056
491.40 1.056
491.50 1.055
491.60 1.055
491.70 1.054
491.80 1.054
491.90 1.054
492.00 1.053
492.10 1.053
492.20 1.053
492.30 1.052
492.40 1.052
492.50 1.051
492.60 1.051
492.70 1.05
492.80 1.05
492.90 1.049
493.00 1.049
493.10 1.048
493.20 1.048
493.30 1.047
493.40 1.046
493.50 1.046
493.60 1.045
493.70 1.045
493.80 1.044
493.90 1.043
494.00 1.043
494.10 1.042
494.20 1.041
494.30 1.041
494.40 1.04
494.50 1.04
494.60 1.039
494.70 1.038
494.80 1.038
494.90 1.037
495.00 1.036
495.10 1.036
495.20 1.035
495.30 1.034
495.40 1.033
495.50 1.033
495.60 1.032
495.70 1.031
495.80 1.031
495.90 1.03
496.00 1.029
496.10 1.029
496.20 1.028
496.30 1.027
496.40 1.026
496.50 1.026
496.60 1.025
496.70 1.024
496.80 1.024
496.90 1.023
497.00 1.022
497.10 1.021
497.20 1.021
497.30 1.02
497.40 1.019
497.50 1.018
497.60 1.018
497.70 1.017
497.80 1.016
497.90 1.016
498.00 1.015
498.10 1.014
498.20 1.013
498.30 1.013
498.40 1.012
498.50 1.011
498.60 1.01
498.70 1.01
498.80 1.009
498.90 1.008
499.00 1.007
499.10 1.007
499.20 1.006
499.30 1.005
499.40 1.004
499.50 1.004
499.60 1.003
499.70 1.002
499.80 1.001
499.90 1.001
500.00 1
500.10 0.9993
500.20 0.9985
500.30 0.9978
500.40 0.997
500.50 0.9963
500.60 0.9955
500.70 0.9948
500.80 0.994
500.90 0.9933
501.00 0.9926
501.10 0.9918
501.20 0.9911
501.30 0.9903
501.40 0.9896
501.50 0.9888
501.60 0.9881
501.70 0.9874
501.80 0.9866
501.90 0.9859
502.00 0.9851
502.10 0.9844
502.20 0.9837
502.30 0.9829
502.40 0.9822
502.50 0.9814
502.60 0.9807
502.70 0.9799
502.80 0.9792
502.90 0.9785
503.00 0.9777
503.10 0.977
503.20 0.9763
503.30 0.9755
503.40 0.9748
503.50 0.974
503.60 0.9733
503.70 0.9726
503.80 0.9718
503.90 0.9711
504.00 0.9704
504.10 0.9696
504.20 0.9689
504.30 0.9682
504.40 0.9674
504.50 0.9667
504.60 0.966
504.70 0.9652
504.80 0.9645
504.90 0.9638
505.00 0.9631
505.10 0.9623
505.20 0.9616
505.30 0.9609
505.40 0.9601
505.50 0.9594
505.60 0.9587
505.70 0.958
505.80 0.9572
505.90 0.9565
506.00 0.9558
506.10 0.955
506.20 0.9543
506.30 0.9536
506.40 0.9529
506.50 0.9522
506.60 0.9514
506.70 0.9507
506.80 0.95
506.90 0.9493
507.00 0.9486
507.10 0.9478
507.20 0.9471
507.30 0.9464
507.40 0.9457
507.50 0.945
507.60 0.9443
507.70 0.9435
507.80 0.9428
507.90 0.9421
508.00 0.9414
508.10 0.9407
508.20 0.94
508.30 0.9393
508.40 0.9385
508.50 0.9378
508.60 0.9371
508.70 0.9364
508.80 0.9357
508.90 0.935
509.00 0.9343
509.10 0.9336
509.20 0.9329
509.30 0.9322
509.40 0.9315
509.50 0.9308
509.60 0.9301
509.70 0.9294
509.80 0.9287
509.90 0.928
510.00 0.9273
510.10 0.9265
510.20 0.9258
510.30 0.9251
510.40 0.9244
510.50 0.9238
510.60 0.9231
510.70 0.9224
510.80 0.9217
510.90 0.921
511.00 0.9203
511.10 0.9196
511.20 0.9189
511.30 0.9182
511.40 0.9175
511.50 0.9168
511.60 0.9161
511.70 0.9154
511.80 0.9147
511.90 0.914
512.00 0.9133
512.10 0.9127
512.20 0.912
512.30 0.9113
512.40 0.9106
512.50 0.9099
512.60 0.9092
512.70 0.9085
512.80 0.9078
512.90 0.9072
513.00 0.9065
513.10 0.9058
513.20 0.9051
513.30 0.9044
513.40 0.9037
513.50 0.9031
513.60 0.9024
513.70 0.9017
513.80 0.901
513.90 0.9004
514.00 0.8997
514.10 0.899
514.20 0.8983
514.30 0.8976
514.40 0.897
514.50 0.8963
514.60 0.8956
514.70 0.8949
514.80 0.8943
514.90 0.8936
515.00 0.8929
515.10 0.8923
515.20 0.8916
515.30 0.8909
515.40 0.8903
515.50 0.8896
515.60 0.8889
515.70 0.8882
515.80 0.8876
515.90 0.8869
516.00 0.8862
516.10 0.8856
516.20 0.8849
516.30 0.8843
516.40 0.8836
516.50 0.8829
516.60 0.8823
516.70 0.8816
516.80 0.8809
516.90 0.8803
517.00 0.8796
517.10 0.879
517.20 0.8783
517.30 0.8777
517.40 0.877
517.50 0.8763
517.60 0.8757
517.70 0.875
517.80 0.8744
517.90 0.8737
518.00 0.8731
518.10 0.8724
518.20 0.8718
518.30 0.8711
518.40 0.8705
518.50 0.8698
518.60 0.8692
518.70 0.8685
518.80 0.8679
518.90 0.8672
519.00 0.8666
519.10 0.8659
519.20 0.8653
519.30 0.8646
519.40 0.864
519.50 0.8633
519.60 0.8627
519.70 0.862
519.80 0.8614
519.90 0.8608
520.00 0.8601
520.10 0.8595
520.20 0.8588
520.30 0.8582
520.40 0.8576
520.50 0.8569
520.60 0.8563
520.70 0.8556
520.80 0.855
520.90 0.8544
521.00 0.8537
521.10 0.8531
521.20 0.8525
521.30 0.8518
521.40 0.8512
521.50 0.8506
521.60 0.8499
521.70 0.8493
521.80 0.8487
521.90 0.848
522.00 0.8474
522.10 0.8468
522.20 0.8462
522.30 0.8455
522.40 0.8449
522.50 0.8443
522.60 0.8436
522.70 0.843
522.80 0.8424
522.90 0.8418
523.00 0.8411
523.10 0.8405
523.20 0.8399
523.30 0.8393
523.40 0.8386
523.50 0.838
523.60 0.8374
523.70 0.8368
523.80 0.8362
523.90 0.8355
524.00 0.8349
524.10 0.8343
524.20 0.8337
524.30 0.8331
524.40 0.8325
524.50 0.8318
524.60 0.8312
524.70 0.8306
524.80 0.83
524.90 0.8294
525.00 0.8288
525.10 0.8282
525.20 0.8276
525.30 0.8269
525.40 0.8263
525.50 0.8257
525.60 0.8251
525.70 0.8245
525.80 0.8239
525.90 0.8233
526.00 0.8227
526.10 0.8221
526.20 0.8215
526.30 0.8209
526.40 0.8202
526.50 0.8196
526.60 0.819
526.70 0.8184
526.80 0.8178
526.90 0.8172
527.00 0.8166
527.10 0.816
527.20 0.8154
527.30 0.8148
527.40 0.8142
527.50 0.8136
527.60 0.813
527.70 0.8124
527.80 0.8118
527.90 0.8112
528.00 0.8106
528.10 0.81
528.20 0.8095
528.30 0.8089
528.40 0.8083
528.50 0.8077
528.60 0.8071
528.70 0.8065
528.80 0.8059
528.90 0.8053
529.00 0.8047
529.10 0.8041
529.20 0.8035
529.30 0.8029
529.40 0.8024
529.50 0.8018
529.60 0.8012
529.70 0.8006
529.80 0.8
529.90 0.7994
530.00 0.7988
530.10 0.7982
530.20 0.7977
530.30 0.7971
530.40 0.7965
530.50 0.7959
530.60 0.7953
530.70 0.7947
530.80 0.7942
530.90 0.7936
531.00 0.793
531.10 0.7924
531.20 0.7918
531.30 0.7913
531.40 0.7907
531.50 0.7901
531.60 0.7895
531.70 0.789
531.80 0.7884
531.90 0.7878
532.00 0.7872
532.10 0.7867
532.20 0.7861
532.30 0.7855
532.40 0.7849
532.50 0.7844
532.60 0.7838
532.70 0.7832
532.80 0.7826
532.90 0.7821
533.00 0.7815
533.10 0.7809
533.20 0.7804
533.30 0.7798
533.40 0.7792
533.50 0.7787
533.60 0.7781
533.70 0.7775
533.80 0.777
533.90 0.7764
534.00 0.7758
534.10 0.7753
534.20 0.7747
534.30 0.7741
534.40 0.7736
534.50 0.773
534.60 0.7725
534.70 0.7719
534.80 0.7713
534.90 0.7708
535.00 0.7702
535.10 0.7697
535.20 0.7691
535.30 0.7685
535.40 0.768
535.50 0.7674
535.60 0.7669
535.70 0.7663
535.80 0.7658
535.90 0.7652
536.00 0.7647
536.10 0.7641
536.20 0.7635
536.30 0.763
536.40 0.7624
536.50 0.7619
536.60 0.7613
536.70 0.7608
536.80 0.7602
536.90 0.7597
537.00 0.7591
537.10 0.7586
537.20 0.758
537.30 0.7575
537.40 0.7569
537.50 0.7564
537.60 0.7558
537.70 0.7553
537.80 0.7548
537.90 0.7542
538.00 0.7537
538.10 0.7531
538.20 0.7526
538.30 0.752
538.40 0.7515
538.50 0.751
538.60 0.7504
538.70 0.7499
538.80 0.7493
538.90 0.7488
539.00 0.7482
539.10 0.7477
539.20 0.7472
539.30 0.7466
539.40 0.7461
539.50 0.7456
539.60 0.745
539.70 0.7445
539.80 0.744
539.90 0.7434
540.00 0.7429
540.10 0.7423
540.20 0.7418
540.30 0.7413
540.40 0.7407
540.50 0.7402
540.60 0.7397
540.70 0.7391
540.80 0.7386
540.90 0.7381
541.00 0.7376
541.10 0.737
541.20 0.7365
541.30 0.736
541.40 0.7354
541.50 0.7349
541.60 0.7344
541.70 0.7339
541.80 0.7333
541.90 0.7328
542.00 0.7323
542.10 0.7318
542.20 0.7312
542.30 0.7307
542.40 0.7302
542.50 0.7297
542.60 0.7291
542.70 0.7286
542.80 0.7281
542.90 0.7276
543.00 0.7271
543.10 0.7265
543.20 0.726
543.30 0.7255
543.40 0.725
543.50 0.7245
543.60 0.7239
543.70 0.7234
543.80 0.7229
543.90 0.7224
544.00 0.7219
544.10 0.7214
544.20 0.7208
544.30 0.7203
544.40 0.7198
544.50 0.7193
544.60 0.7188
544.70 0.7183
544.80 0.7178
544.90 0.7173
545.00 0.7167
545.10 0.7162
545.20 0.7157
545.30 0.7152
545.40 0.7147
545.50 0.7142
545.60 0.7137
545.70 0.7132
545.80 0.7127
545.90 0.7122
546.00 0.7116
546.10 0.7111
546.20 0.7106
546.30 0.7101
546.40 0.7096
546.50 0.7091
546.60 0.7086
546.70 0.7081
546.80 0.7076
546.90 0.7071
547.00 0.7066
547.10 0.7061
547.20 0.7056
547.30 0.7051
547.40 0.7046
547.50 0.7041
547.60 0.7036
547.70 0.7031
547.80 0.7026
547.90 0.7021
548.00 0.7016
548.10 0.7011
548.20 0.7006
548.30 0.7001
548.40 0.6996
548.50 0.6991
548.60 0.6986
548.70 0.6981
548.80 0.6976
548.90 0.6971
549.00 0.6967
549.10 0.6962
549.20 0.6957
549.30 0.6952
549.40 0.6947
549.50 0.6942
549.60 0.6937
549.70 0.6932
549.80 0.6927
549.90 0.6922
550.00 0.6917
550.10 0.6913
550.20 0.6908
550.30 0.6903
550.40 0.6898
550.50 0.6893
550.60 0.6888
550.70 0.6883
550.80 0.6878
550.90 0.6874
551.00 0.6869
551.10 0.6864
551.20 0.6859
551.30 0.6854
551.40 0.6849
551.50 0.6845
551.60 0.684
551.70 0.6835
551.80 0.683
551.90 0.6825
552.00 0.682
552.10 0.6816
552.20 0.6811
552.30 0.6806
552.40 0.6801
552.50 0.6797
552.60 0.6792
552.70 0.6787
552.80 0.6782
552.90 0.6777
553.00 0.6773
553.10 0.6768
553.20 0.6763
553.30 0.6758
553.40 0.6754
553.50 0.6749
553.60 0.6744
553.70 0.6739
553.80 0.6735
553.90 0.673
554.00 0.6725
554.10 0.672
554.20 0.6716
554.30 0.6711
554.40 0.6706
554.50 0.6702
554.60 0.6697
554.70 0.6692
554.80 0.6688
554.90 0.6683
555.00 0.6678
555.10 0.6674
555.20 0.6669
555.30 0.6664
555.40 0.666
555.50 0.6655
555.60 0.665
555.70 0.6646
555.80 0.6641
555.90 0.6636
556.00 0.6632
556.10 0.6627
556.20 0.6622
556.30 0.6618
556.40 0.6613
556.50 0.6609
556.60 0.6604
556.70 0.6599
556.80 0.6595
556.90 0.659
557.00 0.6585
557.10 0.6581
557.20 0.6576
557.30 0.6572
557.40 0.6567
557.50 0.6563
557.60 0.6558
557.70 0.6553
557.80 0.6549
557.90 0.6544
558.00 0.654
558.10 0.6535
558.20 0.6531
558.30 0.6526
558.40 0.6522
558.50 0.6517
558.60 0.6512
558.70 0.6508
558.80 0.6503
558.90 0.6499
559.00 0.6494
559.10 0.649
559.20 0.6485
559.30 0.6481
559.40 0.6476
559.50 0.6472
559.60 0.6467
559.70 0.6463
559.80 0.6458
559.90 0.6454
560.00 0.6449
560.10 0.6445
560.20 0.644
560.30 0.6436
560.40 0.6431
560.50 0.6427
560.60 0.6423
560.70 0.6418
560.80 0.6414
560.90 0.6409
561.00 0.6405
561.10 0.64
561.20 0.6396
561.30 0.6391
561.40 0.6387
561.50 0.6383
561.60 0.6378
561.70 0.6374
561.80 0.6369
561.90 0.6365
562.00 0.6361
562.10 0.6356
562.20 0.6352
562.30 0.6347
562.40 0.6343
562.50 0.6339
562.60 0.6334
562.70 0.633
562.80 0.6325
562.90 0.6321
563.00 0.6317
563.10 0.6312
563.20 0.6308
563.30 0.6304
563.40 0.6299
563.50 0.6295
563.60 0.6291
563.70 0.6286
563.80 0.6282
563.90 0.6278
564.00 0.6273
564.10 0.6269
564.20 0.6265
564.30 0.626
564.40 0.6256
564.50 0.6252
564.60 0.6247
564.70 0.6243
564.80 0.6239
564.90 0.6234
565.00 0.623
565.10 0.6226
565.20 0.6222
565.30 0.6217
565.40 0.6213
565.50 0.6209
565.60 0.6204
565.70 0.62
565.80 0.6196
565.90 0.6192
566.00 0.6187
566.10 0.6183
566.20 0.6179
566.30 0.6175
566.40 0.617
566.50 0.6166
566.60 0.6162
566.70 0.6158
566.80 0.6154
566.90 0.6149
567.00 0.6145
567.10 0.6141
567.20 0.6137
567.30 0.6132
567.40 0.6128
567.50 0.6124
567.60 0.612
567.70 0.6116
567.80 0.6111
567.90 0.6107
568.00 0.6103
568.10 0.6099
568.20 0.6095
568.30 0.6091
568.40 0.6086
568.50 0.6082
568.60 0.6078
568.70 0.6074
568.80 0.607
568.90 0.6066
569.00 0.6061
569.10 0.6057
569.20 0.6053
569.30 0.6049
569.40 0.6045
569.50 0.6041
569.60 0.6037
569.70 0.6033
569.80 0.6028
569.90 0.6024
570.00 0.602
570.10 0.6016
570.20 0.6012
570.30 0.6008
570.40 0.6004
570.50 0.6
570.60 0.5996
570.70 0.5992
570.80 0.5987
570.90 0.5983
571.00 0.5979
571.10 0.5975
571.20 0.5971
571.30 0.5967
571.40 0.5963
571.50 0.5959
571.60 0.5955
571.70 0.5951
571.80 0.5947
571.90 0.5943
572.00 0.5939
572.10 0.5935
572.20 0.5931
572.30 0.5927
572.40 0.5923
572.50 0.5919
572.60 0.5915
572.70 0.5911
572.80 0.5907
572.90 0.5903
573.00 0.5899
573.10 0.5895
573.20 0.5891
573.30 0.5887
573.40 0.5883
573.50 0.5879
573.60 0.5875
573.70 0.5871
573.80 0.5867
573.90 0.5863
574.00 0.5859
574.10 0.5855
574.20 0.5851
574.30 0.5847
574.40 0.5843
574.50 0.5839
574.60 0.5835
574.70 0.5831
574.80 0.5827
574.90 0.5823
575.00 0.5819
575.10 0.5815
575.20 0.5811
575.30 0.5807
575.40 0.5803
575.50 0.5799
575.60 0.5796
575.70 0.5792
575.80 0.5788
575.90 0.5784
576.00 0.578
576.10 0.5776
576.20 0.5772
576.30 0.5768
576.40 0.5764
576.50 0.576
576.60 0.5756
576.70 0.5753
576.80 0.5749
576.90 0.5745
577.00 0.5741
577.10 0.5737
577.20 0.5733
577.30 0.5729
577.40 0.5726
577.50 0.5722
577.60 0.5718
577.70 0.5714
577.80 0.571
577.90 0.5706
578.00 0.5702
578.10 0.5699
578.20 0.5695
578.30 0.5691
578.40 0.5687
578.50 0.5683
578.60 0.5679
578.70 0.5676
578.80 0.5672
578.90 0.5668
579.00 0.5664
579.10 0.566
579.20 0.5657
579.30 0.5653
579.40 0.5649
579.50 0.5645
579.60 0.5641
579.70 0.5638
579.80 0.5634
579.90 0.563
580.00 0.5626
580.10 0.5622
580.20 0.5619
580.30 0.5615
580.40 0.5611
580.50 0.5607
580.60 0.5604
580.70 0.56
580.80 0.5596
580.90 0.5592
581.00 0.5589
581.10 0.5585
581.20 0.5581
581.30 0.5577
581.40 0.5574
581.50 0.557
581.60 0.5566
581.70 0.5563
581.80 0.5559
581.90 0.5555
582.00 0.5551
582.10 0.5548
582.20 0.5544
582.30 0.554
582.40 0.5537
582.50 0.5533
582.60 0.5529
582.70 0.5525
582.80 0.5522
582.90 0.5518
583.00 0.5514
583.10 0.5511
583.20 0.5507
583.30 0.5503
583.40 0.55
583.50 0.5496
583.60 0.5492
583.70 0.5489
583.80 0.5485
583.90 0.5481
584.00 0.5478
584.10 0.5474
584.20 0.547
584.30 0.5467
584.40 0.5463
584.50 0.546
584.60 0.5456
584.70 0.5452
584.80 0.5449
584.90 0.5445
585.00 0.5441
585.10 0.5438
585.20 0.5434
585.30 0.5431
585.40 0.5427
585.50 0.5423
585.60 0.542
585.70 0.5416
585.80 0.5413
585.90 0.5409
586.00 0.5405
586.10 0.5402
586.20 0.5398
586.30 0.5395
586.40 0.5391
586.50 0.5387
586.60 0.5384
586.70 0.538
586.80 0.5377
586.90 0.5373
587.00 0.537
587.10 0.5366
587.20 0.5362
587.30 0.5359
587.40 0.5355
587.50 0.5352
587.60 0.5348
587.70 0.5345
587.80 0.5341
587.90 0.5338
588.00 0.5334
588.10 0.5331
588.20 0.5327
588.30 0.5324
588.40 0.532
588.50 0.5316
588.60 0.5313
588.70 0.5309
588.80 0.5306
588.90 0.5302
589.00 0.5299
589.10 0.5295
589.20 0.5292
589.30 0.5288
589.40 0.5285
589.50 0.5281
589.60 0.5278
589.70 0.5275
589.80 0.5271
589.90 0.5268
590.00 0.5264
590.10 0.5261
590.20 0.5257
590.30 0.5254
590.40 0.525
590.50 0.5247
590.60 0.5243
590.70 0.524
590.80 0.5236
590.90 0.5233
591.00 0.5229
591.10 0.5226
591.20 0.5223
591.30 0.5219
591.40 0.5216
591.50 0.5212
591.60 0.5209
591.70 0.5205
591.80 0.5202
591.90 0.5199
592.00 0.5195
592.10 0.5192
592.20 0.5188
592.30 0.5185
592.40 0.5182
592.50 0.5178
592.60 0.5175
592.70 0.5171
592.80 0.5168
592.90 0.5165
593.00 0.5161
593.10 0.5158
593.20 0.5154
593.30 0.5151
593.40 0.5148
593.50 0.5144
593.60 0.5141
593.70 0.5137
593.80 0.5134
593.90 0.5131
594.00 0.5127
594.10 0.5124
594.20 0.5121
594.30 0.5117
594.40 0.5114
594.50 0.5111
594.60 0.5107
594.70 0.5104
594.80 0.5101
594.90 0.5097
595.00 0.5094
595.10 0.5091
595.20 0.5087
595.30 0.5084
595.40 0.5081
595.50 0.5077
595.60 0.5074
595.70 0.5071
595.80 0.5067
595.90 0.5064
596.00 0.5061
596.10 0.5057
596.20 0.5054
596.30 0.5051
596.40 0.5047
596.50 0.5044
596.60 0.5041
596.70 0.5038
596.80 0.5034
596.90 0.5031
597.00 0.5028
597.10 0.5024
597.20 0.5021
597.30 0.5018
597.40 0.5015
597.50 0.5011
597.60 0.5008
597.70 0.5005
597.80 0.5002
597.90 0.4998
598.00 0.4995
598.10 0.4992
598.20 0.4989
598.30 0.4985
598.40 0.4982
598.50 0.4979
598.60 0.4976
598.70 0.4972
598.80 0.4969
598.90 0.4966
599.00 0.4963
599.10 0.4959
599.20 0.4956
599.30 0.4953
599.40 0.495
599.50 0.4947
599.60 0.4943
599.70 0.494
599.80 0.4937
599.90 0.4934
600.00 0.4931
600.10 0.4927
600.20 0.4924
600.30 0.4921
600.40 0.4918
600.50 0.4915
600.60 0.4911
600.70 0.4908
600.80 0.4905
600.90 0.4902
601.00 0.4899
601.10 0.4895
601.20 0.4892
601.30 0.4889
601.40 0.4886
601.50 0.4883
601.60 0.488
601.70 0.4876
601.80 0.4873
601.90 0.487
602.00 0.4867
602.10 0.4864
602.20 0.4861
602.30 0.4858
602.40 0.4854
602.50 0.4851
602.60 0.4848
602.70 0.4845
602.80 0.4842
602.90 0.4839
603.00 0.4836
603.10 0.4833
603.20 0.4829
603.30 0.4826
603.40 0.4823
603.50 0.482
603.60 0.4817
603.70 0.4814
603.80 0.4811
603.90 0.4808
604.00 0.4805
604.10 0.4801
604.20 0.4798
604.30 0.4795
604.40 0.4792
604.50 0.4789
604.60 0.4786
604.70 0.4783
604.80 0.478
604.90 0.4777
605.00 0.4774
605.10 0.4771
605.20 0.4768
605.30 0.4764
605.40 0.4761
605.50 0.4758
605.60 0.4755
605.70 0.4752
605.80 0.4749
605.90 0.4746
606.00 0.4743
606.10 0.474
606.20 0.4737
606.30 0.4734
606.40 0.4731
606.50 0.4728
606.60 0.4725
606.70 0.4722
606.80 0.4719
606.90 0.4716
607.00 0.4713
607.10 0.471
607.20 0.4707
607.30 0.4704
607.40 0.4701
607.50 0.4698
607.60 0.4695
607.70 0.4692
607.80 0.4689
607.90 0.4686
608.00 0.4683
608.10 0.468
608.20 0.4677
608.30 0.4674
608.40 0.4671
608.50 0.4668
608.60 0.4665
608.70 0.4662
608.80 0.4659
608.90 0.4656
609.00 0.4653
609.10 0.465
609.20 0.4647
609.30 0.4644
609.40 0.4641
609.50 0.4638
609.60 0.4635
609.70 0.4632
609.80 0.4629
609.90 0.4626
610.00 0.4623
610.10 0.462
610.20 0.4617
610.30 0.4614
610.40 0.4611
610.50 0.4608
610.60 0.4605
610.70 0.4602
610.80 0.46
610.90 0.4597
611.00 0.4594
611.10 0.4591
611.20 0.4588
611.30 0.4585
611.40 0.4582
611.50 0.4579
611.60 0.4576
611.70 0.4573
611.80 0.457
611.90 0.4567
612.00 0.4564
612.10 0.4561
612.20 0.4559
612.30 0.4556
612.40 0.4553
612.50 0.455
612.60 0.4547
612.70 0.4544
612.80 0.4541
612.90 0.4538
613.00 0.4535
613.10 0.4533
613.20 0.453
613.30 0.4527
613.40 0.4524
613.50 0.4521
613.60 0.4518
613.70 0.4515
613.80 0.4512
613.90 0.451
614.00 0.4507
614.10 0.4504
614.20 0.4501
614.30 0.4498
614.40 0.4495
614.50 0.4492
614.60 0.449
614.70 0.4487
614.80 0.4484
614.90 0.4481
615.00 0.4478
615.10 0.4475
615.20 0.4473
615.30 0.447
615.40 0.4467
615.50 0.4464
615.60 0.4461
615.70 0.4458
615.80 0.4456
615.90 0.4453
616.00 0.445
616.10 0.4447
616.20 0.4444
616.30 0.4441
616.40 0.4439
616.50 0.4436
616.60 0.4433
616.70 0.443
616.80 0.4427
616.90 0.4425
617.00 0.4422
617.10 0.4419
617.20 0.4416
617.30 0.4413
617.40 0.4411
617.50 0.4408
617.60 0.4405
617.70 0.4402
617.80 0.44
617.90 0.4397
618.00 0.4394
618.10 0.4391
618.20 0.4388
618.30 0.4386
618.40 0.4383
618.50 0.438
618.60 0.4377
618.70 0.4375
618.80 0.4372
618.90 0.4369
619.00 0.4366
619.10 0.4364
619.20 0.4361
619.30 0.4358
619.40 0.4355
619.50 0.4353
619.60 0.435
619.70 0.4347
619.80 0.4344
619.90 0.4342
620.00 0.4339
620.10 0.4336
620.20 0.4334
620.30 0.4331
620.40 0.4328
620.50 0.4325
620.60 0.4323
620.70 0.432
620.80 0.4317
620.90 0.4315
621.00 0.4312
621.10 0.4309
621.20 0.4306
621.30 0.4304
621.40 0.4301
621.50 0.4298
621.60 0.4296
621.70 0.4293
621.80 0.429
621.90 0.4287
622.00 0.4285
622.10 0.4282
622.20 0.4279
622.30 0.4277
622.40 0.4274
622.50 0.4271
622.60 0.4269
622.70 0.4266
622.80 0.4263
622.90 0.4261
623.00 0.4258
623.10 0.4255
623.20 0.4253
623.30 0.425
623.40 0.4247
623.50 0.4245
623.60 0.4242
623.70 0.4239
623.80 0.4237
623.90 0.4234
624.00 0.4231
624.10 0.4229
624.20 0.4226
624.30 0.4223
624.40 0.4221
624.50 0.4218
624.60 0.4216
624.70 0.4213
624.80 0.421
624.90 0.4208
625.00 0.4205
625.10 0.4202
625.20 0.42
625.30 0.4197
625.40 0.4195
625.50 0.4192
625.60 0.4189
625.70 0.4187
625.80 0.4184
625.90 0.4181
626.00 0.4179
626.10 0.4176
626.20 0.4174
626.30 0.4171
626.40 0.4168
626.50 0.4166
626.60 0.4163
626.70 0.4161
626.80 0.4158
626.90 0.4155
627.00 0.4153
627.10 0.415
627.20 0.4148
627.30 0.4145
627.40 0.4142
627.50 0.414
627.60 0.4137
627.70 0.4135
627.80 0.4132
627.90 0.413
628.00 0.4127
628.10 0.4124
628.20 0.4122
628.30 0.4119
628.40 0.4117
628.50 0.4114
628.60 0.4112
628.70 0.4109
628.80 0.4107
628.90 0.4104
629.00 0.4101
629.10 0.4099
629.20 0.4096
629.30 0.4094
629.40 0.4091
629.50 0.4089
629.60 0.4086
629.70 0.4084
629.80 0.4081
629.90 0.4079
630.00 0.4076
630.10 0.4073
630.20 0.4071
630.30 0.4068
630.40 0.4066
630.50 0.4063
630.60 0.4061
630.70 0.4058
630.80 0.4056
630.90 0.4053
631.00 0.4051
631.10 0.4048
631.20 0.4046
631.30 0.4043
631.40 0.4041
631.50 0.4038
631.60 0.4036
631.70 0.4033
631.80 0.4031
631.90 0.4028
632.00 0.4026
632.10 0.4023
632.20 0.4021
632.30 0.4018
632.40 0.4016
632.50 0.4013
632.60 0.4011
632.70 0.4008
632.80 0.4006
632.90 0.4003
633.00 0.4001
633.10 0.3998
633.20 0.3996
633.30 0.3993
633.40 0.3991
633.50 0.3988
633.60 0.3986
633.70 0.3983
633.80 0.3981
633.90 0.3979
634.00 0.3976
634.10 0.3974
634.20 0.3971
634.30 0.3969
634.40 0.3966
634.50 0.3964
634.60 0.3961
634.70 0.3959
634.80 0.3956
634.90 0.3954
635.00 0.3951
635.10 0.3949
635.20 0.3947
635.30 0.3944
635.40 0.3942
635.50 0.3939
635.60 0.3937
635.70 0.3934
635.80 0.3932
635.90 0.3929
636.00 0.3927
636.10 0.3925
636.20 0.3922
636.30 0.392
636.40 0.3917
636.50 0.3915
636.60 0.3912
636.70 0.391
636.80 0.3908
636.90 0.3905
637.00 0.3903
637.10 0.39
637.20 0.3898
637.30 0.3896
637.40 0.3893
637.50 0.3891
637.60 0.3888
637.70 0.3886
637.80 0.3883
637.90 0.3881
638.00 0.3879
638.10 0.3876
638.20 0.3874
638.30 0.3871
638.40 0.3869
638.50 0.3867
638.60 0.3864
638.70 0.3862
638.80 0.3859
638.90 0.3857
639.00 0.3855
639.10 0.3852
639.20 0.385
639.30 0.3847
639.40 0.3845
639.50 0.3843
639.60 0.384
639.70 0.3838
639.80 0.3835
639.90 0.3833
640.00 0.3831
640.10 0.3828
640.20 0.3826
640.30 0.3824
640.40 0.3821
640.50 0.3819
640.60 0.3816
640.70 0.3814
640.80 0.3812
640.90 0.3809
641.00 0.3807
641.10 0.3804
641.20 0.3802
641.30 0.38
641.40 0.3797
641.50 0.3795
641.60 0.3793
641.70 0.379
641.80 0.3788
641.90 0.3785
642.00 0.3783
642.10 0.3781
642.20 0.3778
642.30 0.3776
642.40 0.3773
642.50 0.3771
642.60 0.3769
642.70 0.3766
642.80 0.3764
642.90 0.3762
643.00 0.3759
643.10 0.3757
643.20 0.3754
643.30 0.3752
643.40 0.375
643.50 0.3747
643.60 0.3745
643.70 0.3742
643.80 0.374
643.90 0.3738
644.00 0.3735
644.10 0.3733
644.20 0.3731
644.30 0.3728
644.40 0.3726
644.50 0.3723
644.60 0.3721
644.70 0.3718
644.80 0.3716
644.90 0.3714
645.00 0.3711
645.10 0.3709
645.20 0.3706
645.30 0.3704
645.40 0.3702
645.50 0.3699
645.60 0.3697
645.70 0.3694
645.80 0.3692
645.90 0.3689
646.00 0.3687
646.10 0.3685
646.20 0.3682
646.30 0.368
646.40 0.3677
646.50 0.3675
646.60 0.3672
646.70 0.367
646.80 0.3667
646.90 0.3665
647.00 0.3662
647.10 0.366
647.20 0.3657
647.30 0.3655
647.40 0.3652
647.50 0.365
647.60 0.3647
647.70 0.3644
647.80 0.3642
647.90 0.3639
648.00 0.3637
648.10 0.3634
648.20 0.3632
648.30 0.3629
648.40 0.3626
648.50 0.3624
648.60 0.3621
648.70 0.3618
648.80 0.3615
648.90 0.3613
649.00 0.361
649.10 0.3607
649.20 0.3605
649.30 0.3602
649.40 0.3599
649.50 0.3596
649.60 0.3593
649.70 0.359
649.80 0.3587
649.90 0.3584
650.00 0.3581
650.10 0.3579
650.20 0.3576
650.30 0.3573
650.40 0.3569
650.50 0.3566
650.60 0.3563
650.70 0.356
650.80 0.3556
650.90 0.3553
651.00 0.355
651.10 0.3547
651.20 0.3543
651.30 0.354
651.40 0.3536
651.50 0.3533
651.60 0.3529
651.70 0.3525
651.80 0.3521
651.90 0.3517
652.00 0.3514
652.10 0.351
652.20 0.3506
652.30 0.3502
652.40 0.3498
652.50 0.3493
652.60 0.3488
652.70 0.3484
652.80 0.3479
652.90 0.3475
653.00 0.347
653.10 0.3466
653.20 0.3461
653.30 0.3456
653.40 0.3451
653.50 0.3445
653.60 0.3439
653.70 0.3434
653.80 0.3428
653.90 0.3422
654.00 0.3417
654.10 0.3411
654.20 0.3405
654.30 0.34
654.40 0.3393
654.50 0.3387
654.60 0.338
654.70 0.3374
654.80 0.3367
654.90 0.3361
655.00 0.3354
655.10 0.3348
655.20 0.3341
655.30 0.3335
655.40 0.3328
655.50 0.3322
655.60 0.3317
655.70 0.3312
655.80 0.331
655.90 0.331
656.00 0.3323
656.10 0.3341
656.20 0.3446
656.30 0.3537
656.40 0.3387
656.50 0.3323
656.60 0.3306
656.70 0.3292
656.80 0.3291
656.90 0.329
657.00 0.3291
657.10 0.3293
657.20 0.3295
657.30 0.3297
657.40 0.33
657.50 0.3303
657.60 0.3306
657.70 0.3308
657.80 0.3311
657.90 0.3313
658.00 0.3316
658.10 0.3318
658.20 0.3321
658.30 0.3323
658.40 0.3324
658.50 0.3326
658.60 0.3328
658.70 0.3329
658.80 0.3331
658.90 0.3332
659.00 0.3334
659.10 0.3335
659.20 0.3337
659.30 0.3338
659.40 0.3339
659.50 0.3339
659.60 0.334
659.70 0.334
659.80 0.3341
659.90 0.3341
660.00 0.3341
660.10 0.3342
660.20 0.3342
660.30 0.3343
660.40 0.3342
660.50 0.3342
660.60 0.3341
660.70 0.3341
660.80 0.3341
660.90 0.334
661.00 0.334
661.10 0.3339
661.20 0.3339
661.30 0.3339
661.40 0.3338
661.50 0.3337
661.60 0.3336
661.70 0.3335
661.80 0.3334
661.90 0.3333
662.00 0.3332
662.10 0.3331
662.20 0.333
662.30 0.3329
662.40 0.3328
662.50 0.3327
662.60 0.3325
662.70 0.3324
662.80 0.3323
662.90 0.3322
663.00 0.332
663.10 0.3319
663.20 0.3318
663.30 0.3317
663.40 0.3315
663.50 0.3314
663.60 0.3312
663.70 0.3311
663.80 0.3309
663.90 0.3308
664.00 0.3306
664.10 0.3305
664.20 0.3303
664.30 0.3302
664.40 0.33
664.50 0.3299
664.60 0.3297
664.70 0.3295
664.80 0.3294
664.90 0.3292
665.00 0.3291
665.10 0.3289
665.20 0.3287
665.30 0.3286
665.40 0.3284
665.50 0.3282
665.60 0.3281
665.70 0.3279
665.80 0.3277
665.90 0.3276
666.00 0.3274
666.10 0.3272
666.20 0.3271
666.30 0.3269
666.40 0.3267
666.50 0.3265
666.60 0.3264
666.70 0.3262
666.80 0.326
666.90 0.3258
667.00 0.3257
667.10 0.3255
667.20 0.3253
667.30 0.3252
667.40 0.325
667.50 0.3248
667.60 0.3246
667.70 0.3244
667.80 0.3243
667.90 0.3241
668.00 0.3239
668.10 0.3237
668.20 0.3236
668.30 0.3234
668.40 0.3232
668.50 0.323
668.60 0.3228
668.70 0.3227
668.80 0.3225
668.90 0.3223
669.00 0.3221
669.10 0.322
669.20 0.3218
669.30 0.3216
669.40 0.3214
669.50 0.3212
669.60 0.3211
669.70 0.3209
669.80 0.3207
669.90 0.3205
670.00 0.3203
670.10 0.3202
670.20 0.32
670.30 0.3198
670.40 0.3196
670.50 0.3195
670.60 0.3193
670.70 0.3191
670.80 0.3189
670.90 0.3187
671.00 0.3186
671.10 0.3184
671.20 0.3182
671.30 0.318
671.40 0.3178
671.50 0.3177
671.60 0.3175
671.70 0.3173
671.80 0.3171
671.90 0.3169
672.00 0.3168
672.10 0.3166
672.20 0.3164
672.30 0.3162
672.40 0.316
672.50 0.3159
672.60 0.3157
672.70 0.3155
672.80 0.3153
672.90 0.3151
673.00 0.315
673.10 0.3148
673.20 0.3146
673.30 0.3144
673.40 0.3143
673.50 0.3141
673.60 0.3139
673.70 0.3137
673.80 0.3135
673.90 0.3134
674.00 0.3132
674.10 0.313
674.20 0.3128
674.30 0.3127
674.40 0.3125
674.50 0.3123
674.60 0.3121
674.70 0.3119
674.80 0.3118
674.90 0.3116
675.00 0.3114
675.10 0.3112
675.20 0.3111
675.30 0.3109
675.40 0.3107
675.50 0.3105
675.60 0.3103
675.70 0.3102
675.80 0.31
675.90 0.3098
676.00 0.3096
676.10 0.3095
676.20 0.3093
676.30 0.3091
676.40 0.3089
676.50 0.3088
676.60 0.3086
676.70 0.3084
676.80 0.3082
676.90 0.3081
677.00 0.3079
677.10 0.3077
677.20 0.3075
677.30 0.3073
677.40 0.3072
677.50 0.307
677.60 0.3068
677.70 0.3066
677.80 0.3065
677.90 0.3063
678.00 0.3061
678.10 0.306
678.20 0.3058
678.30 0.3056
678.40 0.3054
678.50 0.3053
678.60 0.3051
678.70 0.3049
678.80 0.3047
678.90 0.3046
679.00 0.3044
679.10 0.3042
679.20 0.304
679.30 0.3039
679.40 0.3037
679.50 0.3035
679.60 0.3033
679.70 0.3032
679.80 0.303
679.90 0.3028
680.00 0.3027
680.10 0.3025
680.20 0.3023
680.30 0.3021
680.40 0.302
680.50 0.3018
680.60 0.3016
680.70 0.3014
680.80 0.3013
680.90 0.3011
681.00 0.3009
681.10 0.3008
681.20 0.3006
681.30 0.3004
681.40 0.3002
681.50 0.3001
681.60 0.2999
681.70 0.2997
681.80 0.2996
681.90 0.2994
682.00 0.2992
682.10 0.2991
682.20 0.2989
682.30 0.2987
682.40 0.2985
682.50 0.2984
682.60 0.2982
682.70 0.298
682.80 0.2979
682.90 0.2977
683.00 0.2975
683.10 0.2974
683.20 0.2972
683.30 0.297
683.40 0.2969
683.50 0.2967
683.60 0.2965
683.70 0.2963
683.80 0.2962
683.90 0.296
684.00 0.2958
684.10 0.2957
684.20 0.2955
684.30 0.2953
684.40 0.2952
684.50 0.295
684.60 0.2948
684.70 0.2947
684.80 0.2945
684.90 0.2943
685.00 0.2942
685.10 0.294
685.20 0.2938
685.30 0.2937
685.40 0.2935
685.50 0.2933
685.60 0.2932
685.70 0.293
685.80 0.2928
685.90 0.2927
686.00 0.2925
686.10 0.2923
686.20 0.2922
686.30 0.292
686.40 0.2918
686.50 0.2917
686.60 0.2915
686.70 0.2913
686.80 0.2912
686.90 0.291
687.00 0.2908
687.10 0.2907
687.20 0.2905
687.30 0.2904
687.40 0.2902
687.50 0.29
687.60 0.2899
687.70 0.2897
687.80 0.2895
687.90 0.2894
688.00 0.2892
688.10 0.289
688.20 0.2889
688.30 0.2887
688.40 0.2886
688.50 0.2884
688.60 0.2882
688.70 0.2881
688.80 0.2879
688.90 0.2877
689.00 0.2876
689.10 0.2874
689.20 0.2873
689.30 0.2871
689.40 0.2869
689.50 0.2868
689.60 0.2866
689.70 0.2864
689.80 0.2863
689.90 0.2861
690.00 0.286
690.10 0.2858
690.20 0.2856
690.30 0.2855
690.40 0.2853
690.50 0.2852
690.60 0.285
690.70 0.2848
690.80 0.2847
690.90 0.2845
691.00 0.2844
691.10 0.2842
691.20 0.284
691.30 0.2839
691.40 0.2837
691.50 0.2836
691.60 0.2834
691.70 0.2832
691.80 0.2831
691.90 0.2829
692.00 0.2828
692.10 0.2826
692.20 0.2824
692.30 0.2823
692.40 0.2821
692.50 0.282
692.60 0.2818
692.70 0.2817
692.80 0.2815
692.90 0.2813
693.00 0.2812
693.10 0.281
693.20 0.2809
693.30 0.2807
693.40 0.2805
693.50 0.2804
693.60 0.2802
693.70 0.2801
693.80 0.2799
693.90 0.2798
694.00 0.2796
694.10 0.2794
694.20 0.2793
694.30 0.2791
694.40 0.279
694.50 0.2788
694.60 0.2787
694.70 0.2785
694.80 0.2783
694.90 0.2782
695.00 0.278
695.10 0.2779
695.20 0.2777
695.30 0.2776
695.40 0.2774
695.50 0.2772
695.60 0.2771
695.70 0.2769
695.80 0.2768
695.90 0.2766
696.00 0.2765
696.10 0.2763
696.20 0.2762
696.30 0.276
696.40 0.2759
696.50 0.2757
696.60 0.2756
696.70 0.2754
696.80 0.2752
696.90 0.2751
697.00 0.2749
697.10 0.2748
697.20 0.2746
697.30 0.2745
697.40 0.2743
697.50 0.2742
697.60 0.274
697.70 0.2739
697.80 0.2737
697.90 0.2736
698.00 0.2734
698.10 0.2733
698.20 0.2731
698.30 0.2729
698.40 0.2728
698.50 0.2726
698.60 0.2725
698.70 0.2723
698.80 0.2722
698.90 0.272
699.00 0.2719
699.10 0.2717
699.20 0.2716
699.30 0.2714
699.40 0.2713
699.50 0.2711
699.60 0.271
699.70 0.2708
699.80 0.2707
699.90 0.2705
700.00 0.2704
700.10 0.2702
700.20 0.2701
700.30 0.2699
700.40 0.2698
700.50 0.2696
700.60 0.2695
700.70 0.2693
700.80 0.2692
700.90 0.269
701.00 0.2689
701.10 0.2687
701.20 0.2686
701.30 0.2684
701.40 0.2683
701.50 0.2681
701.60 0.268
701.70 0.2678
701.80 0.2677
701.90 0.2675
702.00 0.2674
702.10 0.2672
702.20 0.2671
702.30 0.2669
702.40 0.2668
702.50 0.2666
702.60 0.2665
702.70 0.2663
702.80 0.2662
702.90 0.266
703.00 0.2659
703.10 0.2658
703.20 0.2656
703.30 0.2655
703.40 0.2653
703.50 0.2652
703.60 0.265
703.70 0.2649
703.80 0.2647
703.90 0.2646
704.00 0.2644
704.10 0.2643
704.20 0.2641
704.30 0.264
704.40 0.2638
704.50 0.2637
704.60 0.2635
704.70 0.2634
704.80 0.2633
704.90 0.2631
705.00 0.263
705.10 0.2628
705.20 0.2627
705.30 0.2625
705.40 0.2624
705.50 0.2622
705.60 0.2621
705.70 0.2619
705.80 0.2618
705.90 0.2617
706.00 0.2615
706.10 0.2614
706.20 0.2612
706.30 0.2611
706.40 0.2609
706.50 0.2608
706.60 0.2607
706.70 0.2605
706.80 0.2604
706.90 0.2602
707.00 0.2601
707.10 0.2599
707.20 0.2598
707.30 0.2596
707.40 0.2595
707.50 0.2594
707.60 0.2592
707.70 0.2591
707.80 0.2589
707.90 0.2588
708.00 0.2586
708.10 0.2585
708.20 0.2584
708.30 0.2582
708.40 0.2581
708.50 0.2579
708.60 0.2578
708.70 0.2577
708.80 0.2575
708.90 0.2574
709.00 0.2572
709.10 0.2571
709.20 0.2569
709.30 0.2568
709.40 0.2567
709.50 0.2565
709.60 0.2564
709.70 0.2562
709.80 0.2561
709.90 0.256
710.00 0.2558
710.10 0.2557
710.20 0.2555
710.30 0.2554
710.40 0.2553
710.50 0.2551
710.60 0.255
710.70 0.2548
710.80 0.2547
710.90 0.2546
711.00 0.2544
711.10 0.2543
711.20 0.2541
711.30 0.254
711.40 0.2539
711.50 0.2537
711.60 0.2536
711.70 0.2534
711.80 0.2533
711.90 0.2532
712.00 0.253
712.10 0.2529
712.20 0.2527
712.30 0.2526
712.40 0.2525
712.50 0.2523
712.60 0.2522
712.70 0.2521
712.80 0.2519
712.90 0.2518
713.00 0.2516
713.10 0.2515
713.20 0.2514
713.30 0.2512
713.40 0.2511
713.50 0.251
713.60 0.2508
713.70 0.2507
713.80 0.2505
713.90 0.2504
714.00 0.2503
714.10 0.2501
714.20 0.25
714.30 0.2499
714.40 0.2497
714.50 0.2496
714.60 0.2494
714.70 0.2493
714.80 0.2492
714.90 0.249
715.00 0.2489
715.10 0.2488
715.20 0.2486
715.30 0.2485
715.40 0.2484
715.50 0.2482
715.60 0.2481
715.70 0.248
715.80 0.2478
715.90 0.2477
716.00 0.2476
716.10 0.2474
716.20 0.2473
716.30 0.2471
716.40 0.247
716.50 0.2469
716.60 0.2467
716.70 0.2466
716.80 0.2465
716.90 0.2463
717.00 0.2462
717.10 0.2461
717.20 0.2459
717.30 0.2458
717.40 0.2457
717.50 0.2455
717.60 0.2454
717.70 0.2453
717.80 0.2451
717.90 0.245
718.00 0.2449
718.10 0.2447
718.20 0.2446
718.30 0.2445
718.40 0.2443
718.50 0.2442
718.60 0.2441
718.70 0.2439
718.80 0.2438
718.90 0.2437
719.00 0.2435
719.10 0.2434
719.20 0.2433
719.30 0.2431
719.40 0.243
719.50 0.2429
719.60 0.2428
719.70 0.2426
719.80 0.2425
719.90 0.2424
720.00 0.2422
720.10 0.2421
720.20 0.242
720.30 0.2418
720.40 0.2417
720.50 0.2416
720.60 0.2414
720.70 0.2413
720.80 0.2412
720.90 0.241
721.00 0.2409
721.10 0.2408
721.20 0.2407
721.30 0.2405
721.40 0.2404
721.50 0.2403
721.60 0.2401
721.70 0.24
721.80 0.2399
721.90 0.2398
722.00 0.2396
722.10 0.2395
722.20 0.2394
722.30 0.2392
722.40 0.2391
722.50 0.239
722.60 0.2388
722.70 0.2387
722.80 0.2386
722.90 0.2385
723.00 0.2383
723.10 0.2382
723.20 0.2381
723.30 0.2379
723.40 0.2378
723.50 0.2377
723.60 0.2376
723.70 0.2374
723.80 0.2373
723.90 0.2372
724.00 0.237
724.10 0.2369
724.20 0.2368
724.30 0.2367
724.40 0.2365
724.50 0.2364
724.60 0.2363
724.70 0.2362
724.80 0.236
724.90 0.2359
725.00 0.2358
725.10 0.2356
725.20 0.2355
725.30 0.2354
725.40 0.2353
725.50 0.2351
725.60 0.235
725.70 0.2349
725.80 0.2348
725.90 0.2346
726.00 0.2345
726.10 0.2344
726.20 0.2343
726.30 0.2341
726.40 0.234
726.50 0.2339
726.60 0.2338
726.70 0.2336
726.80 0.2335
726.90 0.2334
727.00 0.2333
727.10 0.2331
727.20 0.233
727.30 0.2329
727.40 0.2328
727.50 0.2326
727.60 0.2325
727.70 0.2324
727.80 0.2323
727.90 0.2321
728.00 0.232
728.10 0.2319
728.20 0.2318
728.30 0.2316
728.40 0.2315
728.50 0.2314
728.60 0.2313
728.70 0.2311
728.80 0.231
728.90 0.2309
729.00 0.2308
729.10 0.2306
729.20 0.2305
729.30 0.2304
729.40 0.2303
729.50 0.2301
729.60 0.23
729.70 0.2299
729.80 0.2298
729.90 0.2296
730.00 0.2295
730.10 0.2294
730.20 0.2293
730.30 0.2292
730.40 0.229
730.50 0.2289
730.60 0.2288
730.70 0.2287
730.80 0.2286
730.90 0.2284
731.00 0.2283
731.10 0.2282
731.20 0.2281
731.30 0.228
731.40 0.2278
731.50 0.2277
731.60 0.2276
731.70 0.2275
731.80 0.2273
731.90 0.2272
732.00 0.2271
732.10 0.227
732.20 0.2269
732.30 0.2267
732.40 0.2266
732.50 0.2265
732.60 0.2264
732.70 0.2263
732.80 0.2261
732.90 0.226
733.00 0.2259
733.10 0.2258
733.20 0.2257
733.30 0.2255
733.40 0.2254
733.50 0.2253
733.60 0.2252
733.70 0.2251
733.80 0.2249
733.90 0.2248
734.00 0.2247
734.10 0.2246
734.20 0.2245
734.30 0.2244
734.40 0.2242
734.50 0.2241
734.60 0.224
734.70 0.2239
734.80 0.2238
734.90 0.2236
735.00 0.2235
735.10 0.2234
735.20 0.2233
735.30 0.2232
735.40 0.223
735.50 0.2229
735.60 0.2228
735.70 0.2227
735.80 0.2226
735.90 0.2225
736.00 0.2223
736.10 0.2222
736.20 0.2221
736.30 0.222
736.40 0.2219
736.50 0.2217
736.60 0.2216
736.70 0.2215
736.80 0.2214
736.90 0.2213
737.00 0.2212
737.10 0.221
737.20 0.2209
737.30 0.2208
737.40 0.2207
737.50 0.2206
737.60 0.2205
737.70 0.2203
737.80 0.2202
737.90 0.2201
738.00 0.22
738.10 0.2199
738.20 0.2197
738.30 0.2196
738.40 0.2195
738.50 0.2194
738.60 0.2193
738.70 0.2192
738.80 0.219
738.90 0.2189
739.00 0.2188
739.10 0.2187
739.20 0.2186
739.30 0.2185
739.40 0.2183
739.50 0.2182
739.60 0.2181
739.70 0.218
739.80 0.2179
739.90 0.2178
740.00 0.2177
740.10 0.2175
740.20 0.2174
740.30 0.2173
740.40 0.2172
740.50 0.2171
740.60 0.217
740.70 0.2169
740.80 0.2167
740.90 0.2166
741.00 0.2165
741.10 0.2164
741.20 0.2163
741.30 0.2162
741.40 0.2161
741.50 0.216
741.60 0.2158
741.70 0.2157
741.80 0.2156
741.90 0.2155
742.00 0.2154
742.10 0.2153
742.20 0.2152
742.30 0.215
742.40 0.2149
742.50 0.2148
742.60 0.2147
742.70 0.2146
742.80 0.2145
742.90 0.2144
743.00 0.2143
743.10 0.2142
743.20 0.214
743.30 0.2139
743.40 0.2138
743.50 0.2137
743.60 0.2136
743.70 0.2135
743.80 0.2134
743.90 0.2133
744.00 0.2131
744.10 0.213
744.20 0.2129
744.30 0.2128
744.40 0.2127
744.50 0.2126
744.60 0.2125
744.70 0.2124
744.80 0.2123
744.90 0.2121
745.00 0.212
745.10 0.2119
745.20 0.2118
745.30 0.2117
745.40 0.2116
745.50 0.2115
745.60 0.2114
745.70 0.2113
745.80 0.2111
745.90 0.211
746.00 0.2109
746.10 0.2108
746.20 0.2107
746.30 0.2106
746.40 0.2105
746.50 0.2104
746.60 0.2103
746.70 0.2101
746.80 0.21
746.90 0.2099
747.00 0.2098
747.10 0.2097
747.20 0.2096
747.30 0.2095
747.40 0.2094
747.50 0.2093
747.60 0.2092
747.70 0.209
747.80 0.2089
747.90 0.2088
748.00 0.2087
748.10 0.2086
748.20 0.2085
748.30 0.2084
748.40 0.2083
748.50 0.2082
748.60 0.2081
748.70 0.208
748.80 0.2078
748.90 0.2077
749.00 0.2076
749.10 0.2075
749.20 0.2074
749.30 0.2073
749.40 0.2072
749.50 0.2071
749.60 0.207
749.70 0.2069
749.80 0.2068
749.90 0.2066
750.00 0.2065
750.10 0.2064
750.20 0.2063
750.30 0.2062
750.40 0.2061
750.50 0.206
750.60 0.2059
750.70 0.2058
750.80 0.2057
750.90 0.2056
751.00 0.2055
751.10 0.2054
751.20 0.2053
751.30 0.2052
751.40 0.205
751.50 0.2049
751.60 0.2048
751.70 0.2047
751.80 0.2046
751.90 0.2045
752.00 0.2044
752.10 0.2043
752.20 0.2042
752.30 0.2041
752.40 0.204
752.50 0.2039
752.60 0.2038
752.70 0.2037
752.80 0.2036
752.90 0.2035
753.00 0.2034
753.10 0.2033
753.20 0.2032
753.30 0.203
753.40 0.2029
753.50 0.2028
753.60 0.2027
753.70 0.2026
753.80 0.2025
753.90 0.2024
754.00 0.2023
754.10 0.2022
754.20 0.2021
754.30 0.202
754.40 0.2019
754.50 0.2018
754.60 0.2017
754.70 0.2016
754.80 0.2015
754.90 0.2014
755.00 0.2013
755.10 0.2012
755.20 0.2011
755.30 0.201
755.40 0.2009
755.50 0.2007
755.60 0.2006
755.70 0.2005
755.80 0.2004
755.90 0.2003
756.00 0.2002
756.10 0.2001
756.20 0.2
756.30 0.1999
756.40 0.1998
756.50 0.1997
756.60 0.1996
756.70 0.1995
756.80 0.1994
756.90 0.1993
757.00 0.1992
757.10 0.1991
757.20 0.199
757.30 0.1989
757.40 0.1988
757.50 0.1987
757.60 0.1986
757.70 0.1985
757.80 0.1984
757.90 0.1983
758.00 0.1982
758.10 0.1981
758.20 0.198
758.30 0.1979
758.40 0.1978
758.50 0.1977
758.60 0.1976
758.70 0.1974
758.80 0.1973
758.90 0.1972
759.00 0.1971
759.10 0.197
759.20 0.1969
759.30 0.1968
759.40 0.1967
759.50 0.1966
759.60 0.1965
759.70 0.1964
759.80 0.1963
759.90 0.1962
760.00 0.1961
760.10 0.196
760.20 0.1959
760.30 0.1958
760.40 0.1957
760.50 0.1956
760.60 0.1955
760.70 0.1954
760.80 0.1953
760.90 0.1952
761.00 0.1951
761.10 0.195
761.20 0.1949
761.30 0.1948
761.40 0.1947
761.50 0.1946
761.60 0.1945
761.70 0.1944
761.80 0.1943
761.90 0.1942
762.00 0.1941
762.10 0.194
762.20 0.1939
762.30 0.1938
762.40 0.1937
762.50 0.1936
762.60 0.1935
762.70 0.1934
762.80 0.1933
762.90 0.1932
763.00 0.1931
763.10 0.193
763.20 0.193
763.30 0.1929
763.40 0.1928
763.50 0.1927
763.60 0.1926
763.70 0.1925
763.80 0.1924
763.90 0.1923
764.00 0.1922
764.10 0.1921
764.20 0.192
764.30 0.1919
764.40 0.1918
764.50 0.1917
764.60 0.1916
764.70 0.1915
764.80 0.1914
764.90 0.1913
765.00 0.1912
765.10 0.1911
765.20 0.191
765.30 0.1909
765.40 0.1908
765.50 0.1907
765.60 0.1906
765.70 0.1905
765.80 0.1904
765.90 0.1903
766.00 0.1902
766.10 0.1901
766.20 0.19
766.30 0.1899
766.40 0.1898
766.50 0.1897
766.60 0.1896
766.70 0.1895
766.80 0.1894
766.90 0.1893
767.00 0.1892
767.10 0.1891
767.20 0.189
767.30 0.189
767.40 0.1889
767.50 0.1888
767.60 0.1887
767.70 0.1886
767.80 0.1885
767.90 0.1884
768.00 0.1883
768.10 0.1882
768.20 0.1881
768.30 0.188
768.40 0.1879
768.50 0.1878
768.60 0.1877
768.70 0.1876
768.80 0.1875
768.90 0.1874
769.00 0.1873
769.10 0.1872
769.20 0.1871
769.30 0.187
769.40 0.1869
769.50 0.1868
769.60 0.1867
769.70 0.1866
769.80 0.1866
769.90 0.1865
770.00 0.1864
770.10 0.1863
770.20 0.1862
770.30 0.1861
770.40 0.186
770.50 0.1859
770.60 0.1858
770.70 0.1857
770.80 0.1856
770.90 0.1855
771.00 0.1854
771.10 0.1853
771.20 0.1852
771.30 0.1851
771.40 0.1851
771.50 0.185
771.60 0.1849
771.70 0.1848
771.80 0.1847
771.90 0.1846
772.00 0.1845
772.10 0.1844
772.20 0.1843
772.30 0.1842
772.40 0.1841
772.50 0.184
772.60 0.1839
772.70 0.1838
772.80 0.1838
772.90 0.1837
773.00 0.1836
773.10 0.1835
773.20 0.1834
773.30 0.1833
773.40 0.1832
773.50 0.1831
773.60 0.183
773.70 0.1829
773.80 0.1828
773.90 0.1827
774.00 0.1826
774.10 0.1826
774.20 0.1825
774.30 0.1824
774.40 0.1823
774.50 0.1822
774.60 0.1821
774.70 0.182
774.80 0.1819
774.90 0.1818
775.00 0.1817
775.10 0.1816
775.20 0.1815
775.30 0.1815
775.40 0.1814
775.50 0.1813
775.60 0.1812
775.70 0.1811
775.80 0.181
775.90 0.1809
776.00 0.1808
776.10 0.1807
776.20 0.1806
776.30 0.1805
776.40 0.1804
776.50 0.1804
776.60 0.1803
776.70 0.1802
776.80 0.1801
776.90 0.18
777.00 0.1799
777.10 0.1798
777.20 0.1797
777.30 0.1796
777.40 0.1795
777.50 0.1794
777.60 0.1794
777.70 0.1793
777.80 0.1792
777.90 0.1791
778.00 0.179
778.10 0.1789
778.20 0.1788
778.30 0.1787
778.40 0.1786
778.50 0.1785
778.60 0.1785
778.70 0.1784
778.80 0.1783
778.90 0.1782
779.00 0.1781
779.10 0.178
779.20 0.1779
779.30 0.1778
779.40 0.1777
779.50 0.1776
779.60 0.1776
779.70 0.1775
779.80 0.1774
779.90 0.1773
780.00 0.1772
780.10 0.1771
780.20 0.177
780.30 0.1769
780.40 0.1768
780.50 0.1768
780.60 0.1767
780.70 0.1766
780.80 0.1765
780.90 0.1764
781.00 0.1763
781.10 0.1762
781.20 0.1761
781.30 0.1761
781.40 0.176
781.50 0.1759
781.60 0.1758
781.70 0.1757
781.80 0.1756
781.90 0.1755
782.00 0.1754
782.10 0.1754
782.20 0.1753
782.30 0.1752
782.40 0.1751
782.50 0.175
782.60 0.1749
782.70 0.1748
782.80 0.1747
782.90 0.1747
783.00 0.1746
783.10 0.1745
783.20 0.1744
783.30 0.1743
783.40 0.1742
783.50 0.1741
783.60 0.1741
783.70 0.174
783.80 0.1739
783.90 0.1738
784.00 0.1737
784.10 0.1736
784.20 0.1735
784.30 0.1734
784.40 0.1734
784.50 0.1733
784.60 0.1732
784.70 0.1731
784.80 0.173
784.90 0.1729
785.00 0.1728
785.10 0.1728
785.20 0.1727
785.30 0.1726
785.40 0.1725
785.50 0.1724
785.60 0.1723
785.70 0.1722
785.80 0.1722
785.90 0.1721
786.00 0.172
786.10 0.1719
786.20 0.1718
786.30 0.1717
786.40 0.1716
786.50 0.1716
786.60 0.1715
786.70 0.1714
786.80 0.1713
786.90 0.1712
787.00 0.1711
787.10 0.171
787.20 0.171
787.30 0.1709
787.40 0.1708
787.50 0.1707
787.60 0.1706
787.70 0.1705
787.80 0.1705
787.90 0.1704
788.00 0.1703
788.10 0.1702
788.20 0.1701
788.30 0.17
788.40 0.1699
788.50 0.1699
788.60 0.1698
788.70 0.1697
788.80 0.1696
788.90 0.1695
789.00 0.1694
789.10 0.1694
789.20 0.1693
789.30 0.1692
789.40 0.1691
789.50 0.169
789.60 0.1689
789.70 0.1688
789.80 0.1688
789.90 0.1687
790.00 0.1686
790.10 0.1685
790.20 0.1684
790.30 0.1683
790.40 0.1683
790.50 0.1682
790.60 0.1681
790.70 0.168
790.80 0.1679
790.90 0.1678
791.00 0.1678
791.10 0.1677
791.20 0.1676
791.30 0.1675
791.40 0.1674
791.50 0.1674
791.60 0.1673
791.70 0.1672
791.80 0.1671
791.90 0.167
792.00 0.1669
792.10 0.1669
792.20 0.1668
792.30 0.1667
792.40 0.1666
792.50 0.1665
792.60 0.1665
792.70 0.1664
792.80 0.1663
792.90 0.1662
793.00 0.1661
793.10 0.166
793.20 0.166
793.30 0.1659
793.40 0.1658
793.50 0.1657
793.60 0.1656
793.70 0.1656
793.80 0.1655
793.90 0.1654
794.00 0.1653
794.10 0.1652
794.20 0.1652
794.30 0.1651
794.40 0.165
794.50 0.1649
794.60 0.1648
794.70 0.1647
794.80 0.1647
794.90 0.1646
795.00 0.1645
795.10 0.1644
795.20 0.1643
795.30 0.1643
795.40 0.1642
795.50 0.1641
795.60 0.164
795.70 0.1639
795.80 0.1639
795.90 0.1638
796.00 0.1637
796.10 0.1636
796.20 0.1635
796.30 0.1635
796.40 0.1634
796.50 0.1633
796.60 0.1632
796.70 0.1631
796.80 0.1631
796.90 0.163
797.00 0.1629
797.10 0.1628
797.20 0.1627
797.30 0.1627
797.40 0.1626
797.50 0.1625
797.60 0.1624
797.70 0.1623
797.80 0.1623
797.90 0.1622
798.00 0.1621
798.10 0.162
798.20 0.1619
798.30 0.1619
798.40 0.1618
798.50 0.1617
798.60 0.1616
798.70 0.1615
798.80 0.1615
798.90 0.1614
799.00 0.1613
799.10 0.1612
799.20 0.1611
799.30 0.1611
799.40 0.161
799.50 0.1609
799.60 0.1608
799.70 0.1607
799.80 0.1607
799.90 0.1606
800.00 0.1605
800.10 0.1604
800.20 0.1603
800.30 0.1603
800.40 0.1602
800.50 0.1601
800.60 0.16
800.70 0.16
800.80 0.1599
800.90 0.1598
801.00 0.1597
801.10 0.1597
801.20 0.1596
801.30 0.1595
801.40 0.1594
801.50 0.1593
801.60 0.1593
801.70 0.1592
801.80 0.1591
801.90 0.159
802.00 0.159
802.10 0.1589
802.20 0.1588
802.30 0.1587
802.40 0.1586
802.50 0.1586
802.60 0.1585
802.70 0.1584
802.80 0.1583
802.90 0.1583
803.00 0.1582
803.10 0.1581
803.20 0.158
803.30 0.158
803.40 0.1579
803.50 0.1578
803.60 0.1577
803.70 0.1577
803.80 0.1576
803.90 0.1575
804.00 0.1574
804.10 0.1573
804.20 0.1573
804.30 0.1572
804.40 0.1571
804.50 0.157
804.60 0.157
804.70 0.1569
804.80 0.1568
804.90 0.1567
805.00 0.1567
805.10 0.1566
805.20 0.1565
805.30 0.1564
805.40 0.1564
805.50 0.1563
805.60 0.1562
805.70 0.1561
805.80 0.1561
805.90 0.156
806.00 0.1559
806.10 0.1558
806.20 0.1557
806.30 0.1557
806.40 0.1556
806.50 0.1555
806.60 0.1554
806.70 0.1554
806.80 0.1553
806.90 0.1552
807.00 0.1551
807.10 0.1551
807.20 0.155
807.30 0.1549
807.40 0.1548
807.50 0.1548
807.60 0.1547
807.70 0.1546
807.80 0.1545
807.90 0.1545
808.00 0.1544
808.10 0.1543
808.20 0.1542
808.30 0.1542
808.40 0.1541
808.50 0.154
808.60 0.1539
808.70 0.1539
808.80 0.1538
808.90 0.1537
809.00 0.1536
809.10 0.1536
809.20 0.1535
809.30 0.1534
809.40 0.1533
809.50 0.1533
809.60 0.1532
809.70 0.1531
809.80 0.153
809.90 0.153
810.00 0.1529
810.10 0.1528
810.20 0.1527
810.30 0.1527
810.40 0.1526
810.50 0.1525
810.60 0.1525
810.70 0.1524
810.80 0.1523
810.90 0.1522
811.00 0.1522
811.10 0.1521
811.20 0.152
811.30 0.1519
811.40 0.1519
811.50 0.1518
811.60 0.1517
811.70 0.1517
811.80 0.1516
811.90 0.1515
812.00 0.1514
812.10 0.1514
812.20 0.1513
812.30 0.1512
812.40 0.1511
812.50 0.1511
812.60 0.151
812.70 0.1509
812.80 0.1509
812.90 0.1508
813.00 0.1507
813.10 0.1506
813.20 0.1506
813.30 0.1505
813.40 0.1504
813.50 0.1504
813.60 0.1503
813.70 0.1502
813.80 0.1501
813.90 0.1501
814.00 0.15
814.10 0.1499
814.20 0.1499
814.30 0.1498
814.40 0.1497
814.50 0.1496
814.60 0.1496
814.70 0.1495
814.80 0.1494
814.90 0.1493
815.00 0.1493
815.10 0.1492
815.20 0.1491
815.30 0.1491
815.40 0.149
815.50 0.1489
815.60 0.1488
815.70 0.1488
815.80 0.1487
815.90 0.1486
816.00 0.1486
816.10 0.1485
816.20 0.1484
816.30 0.1483
816.40 0.1483
816.50 0.1482
816.60 0.1481
816.70 0.1481
816.80 0.148
816.90 0.1479
817.00 0.1479
817.10 0.1478
817.20 0.1477
817.30 0.1476
817.40 0.1476
817.50 0.1475
817.60 0.1474
817.70 0.1474
817.80 0.1473
817.90 0.1472
818.00 0.1471
818.10 0.1471
818.20 0.147
818.30 0.1469
818.40 0.1469
818.50 0.1468
818.60 0.1467
818.70 0.1466
818.80 0.1466
818.90 0.1465
819.00 0.1464
819.10 0.1464
819.20 0.1463
819.30 0.1462
819.40 0.1462
819.50 0.1461
819.60 0.146
819.70 0.1459
819.80 0.1459
819.90 0.1458
820.00 0.1457
820.10 0.1457
820.20 0.1456
820.30 0.1455
820.40 0.1455
820.50 0.1454
820.60 0.1453
820.70 0.1452
820.80 0.1452
820.90 0.1451
821.00 0.145
821.10 0.145
821.20 0.1449
821.30 0.1448
821.40 0.1448
821.50 0.1447
821.60 0.1446
821.70 0.1446
821.80 0.1445
821.90 0.1444
822.00 0.1444
822.10 0.1443
822.20 0.1442
822.30 0.1441
822.40 0.1441
822.50 0.144
822.60 0.1439
822.70 0.1439
822.80 0.1438
822.90 0.1437
823.00 0.1437
823.10 0.1436
823.20 0.1435
823.30 0.1435
823.40 0.1434
823.50 0.1433
823.60 0.1433
823.70 0.1432
823.80 0.1431
823.90 0.1431
824.00 0.143
824.10 0.1429
824.20 0.1429
824.30 0.1428
824.40 0.1427
824.50 0.1427
824.60 0.1426
824.70 0.1425
824.80 0.1424
824.90 0.1424
825.00 0.1423
825.10 0.1422
825.20 0.1422
825.30 0.1421
825.40 0.142
825.50 0.142
825.60 0.1419
825.70 0.1418
825.80 0.1418
825.90 0.1417
826.00 0.1416
826.10 0.1416
826.20 0.1415
826.30 0.1414
826.40 0.1414
826.50 0.1413
826.60 0.1412
826.70 0.1412
826.80 0.1411
826.90 0.141
827.00 0.141
827.10 0.1409
827.20 0.1408
827.30 0.1408
827.40 0.1407
827.50 0.1406
827.60 0.1406
827.70 0.1405
827.80 0.1404
827.90 0.1404
828.00 0.1403
828.10 0.1402
828.20 0.1402
828.30 0.1401
828.40 0.14
828.50 0.14
828.60 0.1399
828.70 0.1398
828.80 0.1398
828.90 0.1397
829.00 0.1396
829.10 0.1396
829.20 0.1395
829.30 0.1395
829.40 0.1394
829.50 0.1393
829.60 0.1393
829.70 0.1392
829.80 0.1391
829.90 0.1391
830.00 0.139
830.10 0.1389
830.20 0.1389
830.30 0.1388
830.40 0.1387
830.50 0.1387
830.60 0.1386
830.70 0.1385
830.80 0.1385
830.90 0.1384
831.00 0.1383
831.10 0.1383
831.20 0.1382
831.30 0.1381
831.40 0.1381
831.50 0.138
831.60 0.1379
831.70 0.1379
831.80 0.1378
831.90 0.1378
832.00 0.1377
832.10 0.1376
832.20 0.1376
832.30 0.1375
832.40 0.1374
832.50 0.1374
832.60 0.1373
832.70 0.1372
832.80 0.1372
832.90 0.1371
833.00 0.137
833.10 0.137
833.20 0.1369
833.30 0.1369
833.40 0.1368
833.50 0.1367
833.60 0.1367
833.70 0.1366
833.80 0.1365
833.90 0.1365
834.00 0.1364
834.10 0.1363
834.20 0.1363
834.30 0.1362
834.40 0.1361
834.50 0.1361
834.60 0.136
834.70 0.136
834.80 0.1359
834.90 0.1358
835.00 0.1358
835.10 0.1357
835.20 0.1356
835.30 0.1356
835.40 0.1355
835.50 0.1354
835.60 0.1354
835.70 0.1353
835.80 0.1353
835.90 0.1352
836.00 0.1351
836.10 0.1351
836.20 0.135
836.30 0.1349
836.40 0.1349
836.50 0.1348
836.60 0.1347
836.70 0.1347
836.80 0.1346
836.90 0.1346
837.00 0.1345
837.10 0.1344
837.20 0.1344
837.30 0.1343
837.40 0.1342
837.50 0.1342
837.60 0.1341
837.70 0.1341
837.80 0.134
837.90 0.1339
838.00 0.1339
838.10 0.1338
838.20 0.1337
838.30 0.1337
838.40 0.1336
838.50 0.1336
838.60 0.1335
838.70 0.1334
838.80 0.1334
838.90 0.1333
839.00 0.1332
839.10 0.1332
839.20 0.1331
839.30 0.1331
839.40 0.133
839.50 0.1329
839.60 0.1329
839.70 0.1328
839.80 0.1328
839.90 0.1327
840.00 0.1326
840.10 0.1326
840.20 0.1325
840.30 0.1324
840.40 0.1324
840.50 0.1323
840.60 0.1323
840.70 0.1322
840.80 0.1321
840.90 0.1321
841.00 0.132
841.10 0.132
841.20 0.1319
841.30 0.1318
841.40 0.1318
841.50 0.1317
841.60 0.1316
841.70 0.1316
841.80 0.1315
841.90 0.1315
842.00 0.1314
842.10 0.1313
842.20 0.1313
842.30 0.1312
842.40 0.1312
842.50 0.1311
842.60 0.131
842.70 0.131
842.80 0.1309
842.90 0.1309
843.00 0.1308
843.10 0.1307
843.20 0.1307
843.30 0.1306
843.40 0.1305
843.50 0.1305
843.60 0.1304
843.70 0.1304
843.80 0.1303
843.90 0.1302
844.00 0.1302
844.10 0.1301
844.20 0.1301
844.30 0.13
844.40 0.1299
844.50 0.1299
844.60 0.1298
844.70 0.1298
844.80 0.1297
844.90 0.1296
845.00 0.1296
845.10 0.1295
845.20 0.1295
845.30 0.1294
845.40 0.1293
845.50 0.1293
845.60 0.1292
845.70 0.1292
845.80 0.1291
845.90 0.129
846.00 0.129
846.10 0.1289
846.20 0.1289
846.30 0.1288
846.40 0.1287
846.50 0.1287
846.60 0.1286
846.70 0.1286
846.80 0.1285
846.90 0.1284
847.00 0.1284
847.10 0.1283
847.20 0.1283
847.30 0.1282
847.40 0.1281
847.50 0.1281
847.60 0.128
847.70 0.128
847.80 0.1279
847.90 0.1279
848.00 0.1278
848.10 0.1277
848.20 0.1277
848.30 0.1276
848.40 0.1276
848.50 0.1275
848.60 0.1274
848.70 0.1274
848.80 0.1273
848.90 0.1273
849.00 0.1272
849.10 0.1271
849.20 0.1271
849.30 0.127
849.40 0.127
849.50 0.1269
849.60 0.1269
849.70 0.1268
849.80 0.1267
849.90 0.1267
850.00 0.1266
850.10 0.1266
850.20 0.1265
850.30 0.1264
850.40 0.1264
850.50 0.1263
850.60 0.1263
850.70 0.1262
850.80 0.1262
850.90 0.1261
851.00 0.126
851.10 0.126
851.20 0.1259
851.30 0.1259
851.40 0.1258
851.50 0.1258
851.60 0.1257
851.70 0.1256
851.80 0.1256
851.90 0.1255
852.00 0.1255
852.10 0.1254
852.20 0.1253
852.30 0.1253
852.40 0.1252
852.50 0.1252
852.60 0.1251
852.70 0.1251
852.80 0.125
852.90 0.1249
853.00 0.1249
853.10 0.1248
853.20 0.1248
853.30 0.1247
853.40 0.1247
853.50 0.1246
853.60 0.1245
853.70 0.1245
853.80 0.1244
853.90 0.1244
854.00 0.1243
854.10 0.1243
854.20 0.1242
854.30 0.1241
854.40 0.1241
854.50 0.124
854.60 0.124
854.70 0.1239
854.80 0.1239
854.90 0.1238
855.00 0.1237
855.10 0.1237
855.20 0.1236
855.30 0.1236
855.40 0.1235
855.50 0.1235
855.60 0.1234
855.70 0.1234
855.80 0.1233
855.90 0.1232
856.00 0.1232
856.10 0.1231
856.20 0.1231
856.30 0.123
856.40 0.123
856.50 0.1229
856.60 0.1228
856.70 0.1228
856.80 0.1227
856.90 0.1227
857.00 0.1226
857.10 0.1226
857.20 0.1225
857.30 0.1225
857.40 0.1224
857.50 0.1223
857.60 0.1223
857.70 0.1222
857.80 0.1222
857.90 0.1221
858.00 0.1221
858.10 0.122
858.20 0.122
858.30 0.1219
858.40 0.1218
858.50 0.1218
858.60 0.1217
858.70 0.1217
858.80 0.1216
858.90 0.1216
859.00 0.1215
859.10 0.1215
859.20 0.1214
859.30 0.1213
859.40 0.1213
859.50 0.1212
859.60 0.1212
859.70 0.1211
859.80 0.1211
859.90 0.121
860.00 0.121
860.10 0.1209
860.20 0.1208
860.30 0.1208
860.40 0.1207
860.50 0.1207
860.60 0.1206
860.70 0.1206
860.80 0.1205
860.90 0.1205
861.00 0.1204
861.10 0.1204
861.20 0.1203
861.30 0.1202
861.40 0.1202
861.50 0.1201
861.60 0.1201
861.70 0.12
861.80 0.12
861.90 0.1199
862.00 0.1199
862.10 0.1198
862.20 0.1198
862.30 0.1197
862.40 0.1196
862.50 0.1196
862.60 0.1195
862.70 0.1195
862.80 0.1194
862.90 0.1194
863.00 0.1193
863.10 0.1193
863.20 0.1192
863.30 0.1192
863.40 0.1191
863.50 0.1191
863.60 0.119
863.70 0.1189
863.80 0.1189
863.90 0.1188
864.00 0.1188
864.10 0.1187
864.20 0.1187
864.30 0.1186
864.40 0.1186
864.50 0.1185
864.60 0.1185
864.70 0.1184
864.80 0.1184
864.90 0.1183
865.00 0.1182
865.10 0.1182
865.20 0.1181
865.30 0.1181
865.40 0.118
865.50 0.118
865.60 0.1179
865.70 0.1179
865.80 0.1178
865.90 0.1178
866.00 0.1177
866.10 0.1177
866.20 0.1176
866.30 0.1175
866.40 0.1175
866.50 0.1174
866.60 0.1174
866.70 0.1173
866.80 0.1173
866.90 0.1172
867.00 0.1172
867.10 0.1171
867.20 0.1171
867.30 0.117
867.40 0.117
867.50 0.1169
867.60 0.1169
867.70 0.1168
867.80 0.1168
867.90 0.1167
868.00 0.1167
868.10 0.1166
868.20 0.1165
868.30 0.1165
868.40 0.1164
868.50 0.1164
868.60 0.1163
868.70 0.1163
868.80 0.1162
868.90 0.1162
869.00 0.1161
869.10 0.1161
869.20 0.116
869.30 0.116
869.40 0.1159
869.50 0.1159
869.60 0.1158
869.70 0.1158
869.80 0.1157
869.90 0.1157
870.00 0.1156
870.10 0.1156
870.20 0.1155
870.30 0.1154
870.40 0.1154
870.50 0.1153
870.60 0.1153
870.70 0.1152
870.80 0.1152
870.90 0.1151
871.00 0.1151
871.10 0.115
871.20 0.115
871.30 0.1149
871.40 0.1149
871.50 0.1148
871.60 0.1148
871.70 0.1147
871.80 0.1147
871.90 0.1146
872.00 0.1146
872.10 0.1145
872.20 0.1145
872.30 0.1144
872.40 0.1144
872.50 0.1143
872.60 0.1143
872.70 0.1142
872.80 0.1142
872.90 0.1141
873.00 0.1141
873.10 0.114
873.20 0.114
873.30 0.1139
873.40 0.1139
873.50 0.1138
873.60 0.1138
873.70 0.1137
873.80 0.1136
873.90 0.1136
874.00 0.1135
874.10 0.1135
874.20 0.1134
874.30 0.1134
874.40 0.1133
874.50 0.1133
874.60 0.1132
874.70 0.1132
874.80 0.1131
874.90 0.1131
875.00 0.113
875.10 0.113
875.20 0.1129
875.30 0.1129
875.40 0.1128
875.50 0.1128
875.60 0.1127
875.70 0.1127
875.80 0.1126
875.90 0.1126
876.00 0.1125
876.10 0.1125
876.20 0.1124
876.30 0.1124
876.40 0.1123
876.50 0.1123
876.60 0.1122
876.70 0.1122
876.80 0.1121
876.90 0.1121
877.00 0.112
877.10 0.112
877.20 0.1119
877.30 0.1119
877.40 0.1118
877.50 0.1118
877.60 0.1117
877.70 0.1117
877.80 0.1116
877.90 0.1116
878.00 0.1115
878.10 0.1115
878.20 0.1114
878.30 0.1114
878.40 0.1113
878.50 0.1113
878.60 0.1112
878.70 0.1112
878.80 0.1111
878.90 0.1111
879.00 0.111
879.10 0.111
879.20 0.1109
879.30 0.1109
879.40 0.1108
879.50 0.1108
879.60 0.1107
879.70 0.1107
879.80 0.1106
879.90 0.1106
880.00 0.1105
880.10 0.1105
880.20 0.1104
880.30 0.1104
880.40 0.1103
880.50 0.1103
880.60 0.1103
880.70 0.1102
880.80 0.1102
880.90 0.1101
881.00 0.1101
881.10 0.11
881.20 0.11
881.30 0.1099
881.40 0.1099
881.50 0.1098
881.60 0.1098
881.70 0.1097
881.80 0.1097
881.90 0.1096
882.00 0.1096
882.10 0.1095
882.20 0.1095
882.30 0.1094
882.40 0.1094
882.50 0.1093
882.60 0.1093
882.70 0.1092
882.80 0.1092
882.90 0.1091
883.00 0.1091
883.10 0.109
883.20 0.109
883.30 0.1089
883.40 0.1089
883.50 0.1088
883.60 0.1088
883.70 0.1087
883.80 0.1087
883.90 0.1086
884.00 0.1086
884.10 0.1086
884.20 0.1085
884.30 0.1085
884.40 0.1084
884.50 0.1084
884.60 0.1083
884.70 0.1083
884.80 0.1082
884.90 0.1082
885.00 0.1081
885.10 0.1081
885.20 0.108
885.30 0.108
885.40 0.1079
885.50 0.1079
885.60 0.1078
885.70 0.1078
885.80 0.1077
885.90 0.1077
886.00 0.1076
886.10 0.1076
886.20 0.1075
886.30 0.1075
886.40 0.1075
886.50 0.1074
886.60 0.1074
886.70 0.1073
886.80 0.1073
886.90 0.1072
887.00 0.1072
887.10 0.1071
887.20 0.1071
887.30 0.107
887.40 0.107
887.50 0.1069
887.60 0.1069
887.70 0.1068
887.80 0.1068
887.90 0.1067
888.00 0.1067
888.10 0.1066
888.20 0.1066
888.30 0.1066
888.40 0.1065
888.50 0.1065
888.60 0.1064
888.70 0.1064
888.80 0.1063
888.90 0.1063
889.00 0.1062
889.10 0.1062
889.20 0.1061
889.30 0.1061
889.40 0.106
889.50 0.106
889.60 0.1059
889.70 0.1059
889.80 0.1059
889.90 0.1058
890.00 0.1058
890.10 0.1057
890.20 0.1057
890.30 0.1056
890.40 0.1056
890.50 0.1055
890.60 0.1055
890.70 0.1054
890.80 0.1054
890.90 0.1053
891.00 0.1053
891.10 0.1052
891.20 0.1052
891.30 0.1052
891.40 0.1051
891.50 0.1051
891.60 0.105
891.70 0.105
891.80 0.1049
891.90 0.1049
892.00 0.1048
892.10 0.1048
892.20 0.1047
892.30 0.1047
892.40 0.1047
892.50 0.1046
892.60 0.1046
892.70 0.1045
892.80 0.1045
892.90 0.1044
893.00 0.1044
893.10 0.1043
893.20 0.1043
893.30 0.1042
893.40 0.1042
893.50 0.1041
893.60 0.1041
893.70 0.1041
893.80 0.104
893.90 0.104
894.00 0.1039
894.10 0.1039
894.20 0.1038
894.30 0.1038
894.40 0.1037
894.50 0.1037
894.60 0.1036
894.70 0.1036
894.80 0.1036
894.90 0.1035
895.00 0.1035
895.10 0.1034
895.20 0.1034
895.30 0.1033
895.40 0.1033
895.50 0.1032
895.60 0.1032
895.70 0.1032
895.80 0.1031
895.90 0.1031
896.00 0.103
896.10 0.103
896.20 0.1029
896.30 0.1029
896.40 0.1028
896.50 0.1028
896.60 0.1027
896.70 0.1027
896.80 0.1027
896.90 0.1026
897.00 0.1026
897.10 0.1025
897.20 0.1025
897.30 0.1024
897.40 0.1024
897.50 0.1023
897.60 0.1023
897.70 0.1023
897.80 0.1022
897.90 0.1022
898.00 0.1021
898.10 0.1021
898.20 0.102
898.30 0.102
898.40 0.1019
898.50 0.1019
898.60 0.1019
898.70 0.1018
898.80 0.1018
898.90 0.1017
899.00 0.1017
899.10 0.1016
899.20 0.1016
899.30 0.1015
899.40 0.1015
899.50 0.1015
899.60 0.1014
899.70 0.1014
899.80 0.1013
899.90 0.1013
900.00 0.1012
900.10 0.1012
900.20 0.1012
900.30 0.1011
900.40 0.1011
900.50 0.101
900.60 0.101
900.70 0.1009
900.80 0.1009
900.90 0.1008
901.00 0.1008
901.10 0.1008
901.20 0.1007
901.30 0.1007
901.40 0.1006
901.50 0.1006
901.60 0.1005
901.70 0.1005
901.80 0.1005
901.90 0.1004
902.00 0.1004
902.10 0.1003
902.20 0.1003
902.30 0.1002
902.40 0.1002
902.50 0.1001
902.60 0.1001
902.70 0.1001
902.80 0.1
902.90 0.09997
903.00 0.09993
903.10 0.09989
903.20 0.09984
903.30 0.0998
903.40 0.09976
903.50 0.09971
903.60 0.09967
903.70 0.09963
903.80 0.09958
903.90 0.09954
904.00 0.0995
904.10 0.09945
904.20 0.09941
904.30 0.09937
904.40 0.09933
904.50 0.09928
904.60 0.09924
904.70 0.0992
904.80 0.09915
904.90 0.09911
905.00 0.09907
905.10 0.09902
905.20 0.09898
905.30 0.09894
905.40 0.0989
905.50 0.09885
905.60 0.09881
905.70 0.09877
905.80 0.09872
905.90 0.09868
906.00 0.09864
906.10 0.0986
906.20 0.09855
906.30 0.09851
906.40 0.09847
906.50 0.09842
906.60 0.09838
906.70 0.09834
906.80 0.0983
906.90 0.09825
907.00 0.09821
907.10 0.09817
907.20 0.09813
907.30 0.09808
907.40 0.09804
907.50 0.098
907.60 0.09796
907.70 0.09792
907.80 0.09787
907.90 0.09783
908.00 0.09779
908.10 0.09775
908.20 0.09771
908.30 0.09766
908.40 0.09762
908.50 0.09758
908.60 0.09754
908.70 0.0975
908.80 0.09745
908.90 0.09741
909.00 0.09737
909.10 0.09733
909.20 0.09729
909.30 0.09724
909.40 0.0972
909.50 0.09716
909.60 0.09712
909.70 0.09708
909.80 0.09704
909.90 0.09699
910.00 0.09695
910.10 0.09691
910.20 0.09687
910.30 0.09683
910.40 0.09678
910.50 0.09674
910.60 0.0967
910.70 0.09666
910.80 0.09662
910.90 0.09658
911.00 0.09654
911.10 0.09649
911.20 0.09645
911.30 0.09641
911.40 0.09637
911.50 0.09633
911.60 0.09629
911.70 0.09624
911.80 0.0962
911.90 0.09616
912.00 0.09612
912.10 0.09608
912.20 0.09604
912.30 0.096
912.40 0.09596
912.50 0.09592
912.60 0.09587
912.70 0.09583
912.80 0.09579
912.90 0.09575
913.00 0.09571
913.10 0.09567
913.20 0.09563
913.30 0.09559
913.40 0.09555
913.50 0.09551
913.60 0.09547
913.70 0.09543
913.80 0.09538
913.90 0.09534
914.00 0.0953
914.10 0.09526
914.20 0.09522
914.30 0.09518
914.40 0.09514
914.50 0.0951
914.60 0.09506
914.70 0.09502
914.80 0.09498
914.90 0.09494
915.00 0.0949
915.10 0.09486
915.20 0.09482
915.30 0.09478
915.40 0.09474
915.50 0.0947
915.60 0.09465
915.70 0.09461
915.80 0.09457
915.90 0.09453
916.00 0.09449
916.10 0.09445
916.20 0.09441
916.30 0.09437
916.40 0.09433
916.50 0.09429
916.60 0.09425
916.70 0.09421
916.80 0.09417
916.90 0.09413
917.00 0.09409
917.10 0.09405
917.20 0.09401
917.30 0.09397
917.40 0.09393
917.50 0.09389
917.60 0.09385
917.70 0.09381
917.80 0.09377
917.90 0.09373
918.00 0.09369
918.10 0.09365
918.20 0.09361
918.30 0.09357
918.40 0.09354
918.50 0.0935
918.60 0.09346
918.70 0.09342
918.80 0.09338
918.90 0.09334
919.00 0.0933
919.10 0.09326
919.20 0.09322
919.30 0.09318
919.40 0.09314
919.50 0.0931
919.60 0.09306
919.70 0.09302
919.80 0.09298
919.90 0.09294
920.00 0.0929
920.10 0.09287
920.20 0.09283
920.30 0.09279
920.40 0.09275
920.50 0.09271
920.60 0.09267
920.70 0.09263
920.80 0.09259
920.90 0.09255
921.00 0.09251
921.10 0.09247
921.20 0.09243
921.30 0.0924
921.40 0.09236
921.50 0.09232
921.60 0.09228
921.70 0.09224
921.80 0.0922
921.90 0.09216
922.00 0.09212
922.10 0.09208
922.20 0.09204
922.30 0.092
922.40 0.09197
922.50 0.09193
922.60 0.09189
922.70 0.09185
922.80 0.09181
922.90 0.09177
923.00 0.09173
923.10 0.09169
923.20 0.09165
923.30 0.09162
923.40 0.09158
923.50 0.09154
923.60 0.0915
923.70 0.09146
923.80 0.09142
923.90 0.09138
924.00 0.09134
924.10 0.0913
924.20 0.09127
924.30 0.09123
924.40 0.09119
924.50 0.09115
924.60 0.09111
924.70 0.09107
924.80 0.09103
924.90 0.09099
925.00 0.09096
925.10 0.09092
925.20 0.09088
925.30 0.09084
925.40 0.0908
925.50 0.09076
925.60 0.09072
925.70 0.09069
925.80 0.09065
925.90 0.09061
926.00 0.09057
926.10 0.09053
926.20 0.09049
926.30 0.09045
926.40 0.09042
926.50 0.09038
926.60 0.09034
926.70 0.0903
926.80 0.09026
926.90 0.09022
927.00 0.09019
927.10 0.09015
927.20 0.09011
927.30 0.09007
927.40 0.09003
927.50 0.09
927.60 0.08996
927.70 0.08992
927.80 0.08988
927.90 0.08984
928.00 0.08981
928.10 0.08977
928.20 0.08973
928.30 0.08969
928.40 0.08966
928.50 0.08962
928.60 0.08958
928.70 0.08954
928.80 0.0895
928.90 0.08947
929.00 0.08943
929.10 0.08939
929.20 0.08935
929.30 0.08932
929.40 0.08928
929.50 0.08924
929.60 0.0892
929.70 0.08916
929.80 0.08913
929.90 0.08909
930.00 0.08905
930.10 0.08901
930.20 0.08898
930.30 0.08894
930.40 0.0889
930.50 0.08886
930.60 0.08883
930.70 0.08879
930.80 0.08875
930.90 0.08871
931.00 0.08868
931.10 0.08864
931.20 0.0886
931.30 0.08856
931.40 0.08853
931.50 0.08849
931.60 0.08845
931.70 0.08842
931.80 0.08838
931.90 0.08834
932.00 0.0883
932.10 0.08827
932.20 0.08823
932.30 0.08819
932.40 0.08816
932.50 0.08812
932.60 0.08808
932.70 0.08804
932.80 0.08801
932.90 0.08797
933.00 0.08793
933.10 0.0879
933.20 0.08786
933.30 0.08782
933.40 0.08779
933.50 0.08775
933.60 0.08771
933.70 0.08768
933.80 0.08764
933.90 0.0876
934.00 0.08757
934.10 0.08753
934.20 0.08749
934.30 0.08745
934.40 0.08742
934.50 0.08738
934.60 0.08735
934.70 0.08731
934.80 0.08727
934.90 0.08724
935.00 0.0872
935.10 0.08716
935.20 0.08713
935.30 0.08709
935.40 0.08705
935.50 0.08702
935.60 0.08698
935.70 0.08694
935.80 0.08691
935.90 0.08687
936.00 0.08684
936.10 0.0868
936.20 0.08676
936.30 0.08673
936.40 0.08669
936.50 0.08665
936.60 0.08662
936.70 0.08658
936.80 0.08654
936.90 0.08651
937.00 0.08647
937.10 0.08644
937.20 0.0864
937.30 0.08636
937.40 0.08633
937.50 0.08629
937.60 0.08626
937.70 0.08622
937.80 0.08618
937.90 0.08615
938.00 0.08611
938.10 0.08608
938.20 0.08604
938.30 0.086
938.40 0.08597
938.50 0.08593
938.60 0.0859
938.70 0.08586
938.80 0.08583
938.90 0.08579
939.00 0.08575
939.10 0.08572
939.20 0.08568
939.30 0.08565
939.40 0.08561
939.50 0.08558
939.60 0.08554
939.70 0.0855
939.80 0.08547
939.90 0.08543
940.00 0.0854
940.10 0.08536
940.20 0.08533
940.30 0.08529
940.40 0.08525
940.50 0.08522
940.60 0.08518
940.70 0.08515
940.80 0.08511
940.90 0.08508
941.00 0.08504
941.10 0.08501
941.20 0.08497
941.30 0.08494
941.40 0.0849
941.50 0.08487
941.60 0.08483
941.70 0.08479
941.80 0.08476
941.90 0.08472
942.00 0.08469
942.10 0.08465
942.20 0.08462
942.30 0.08458
942.40 0.08455
942.50 0.08451
942.60 0.08448
942.70 0.08444
942.80 0.08441
942.90 0.08437
943.00 0.08434
943.10 0.0843
943.20 0.08427
943.30 0.08423
943.40 0.0842
943.50 0.08416
943.60 0.08413
943.70 0.08409
943.80 0.08406
943.90 0.08402
944.00 0.08399
944.10 0.08395
944.20 0.08392
944.30 0.08388
944.40 0.08385
944.50 0.08381
944.60 0.08378
944.70 0.08375
944.80 0.08371
944.90 0.08368
945.00 0.08364
945.10 0.08361
945.20 0.08357
945.30 0.08354
945.40 0.0835
945.50 0.08347
945.60 0.08343
945.70 0.0834
945.80 0.08337
945.90 0.08333
946.00 0.0833
946.10 0.08326
946.20 0.08323
946.30 0.08319
946.40 0.08316
946.50 0.08312
946.60 0.08309
946.70 0.08306
946.80 0.08302
946.90 0.08299
947.00 0.08295
947.10 0.08292
947.20 0.08289
947.30 0.08285
947.40 0.08282
947.50 0.08278
947.60 0.08275
947.70 0.08272
947.80 0.08268
947.90 0.08265
948.00 0.08261
948.10 0.08258
948.20 0.08255
948.30 0.08251
948.40 0.08248
948.50 0.08244
948.60 0.08241
948.70 0.08238
948.80 0.08234
948.90 0.08231
949.00 0.08227
949.10 0.08224
949.20 0.08221
949.30 0.08217
949.40 0.08214
949.50 0.08211
949.60 0.08207
949.70 0.08204
949.80 0.08201
949.90 0.08197
950.00 0.08194
950.10 0.08191
950.20 0.08187
950.30 0.08184
950.40 0.08181
950.50 0.08177
950.60 0.08174
950.70 0.08171
950.80 0.08167
950.90 0.08164
951.00 0.08161
951.10 0.08157
951.20 0.08154
951.30 0.08151
951.40 0.08147
951.50 0.08144
951.60 0.08141
951.70 0.08137
951.80 0.08134
951.90 0.08131
952.00 0.08128
952.10 0.08124
952.20 0.08121
952.30 0.08118
952.40 0.08114
952.50 0.08111
952.60 0.08108
952.70 0.08105
952.80 0.08101
952.90 0.08098
953.00 0.08095
953.10 0.08092
953.20 0.08088
953.30 0.08085
953.40 0.08082
953.50 0.08079
953.60 0.08075
953.70 0.08072
953.80 0.08069
953.90 0.08066
954.00 0.08062
954.10 0.08059
954.20 0.08056
954.30 0.08053
954.40 0.0805
954.50 0.08046
954.60 0.08043
954.70 0.0804
954.80 0.08036
954.90 0.08033
955.00 0.0803
955.10 0.08026
955.20 0.08023
955.30 0.0802
955.40 0.08016
955.50 0.08013
955.60 0.0801
955.70 0.08006
955.80 0.08003
955.90 0.08
956.00 0.07996
956.10 0.07993
956.20 0.0799
956.30 0.07986
956.40 0.07983
956.50 0.0798
956.60 0.07976
956.70 0.07973
956.80 0.0797
956.90 0.07966
957.00 0.07963
957.10 0.0796
957.20 0.07956
957.30 0.07953
957.40 0.0795
957.50 0.07947
957.60 0.07943
957.70 0.0794
957.80 0.07937
957.90 0.07934
958.00 0.0793
958.10 0.07927
958.20 0.07924
958.30 0.0792
958.40 0.07917
958.50 0.07914
958.60 0.07911
958.70 0.07907
958.80 0.07904
958.90 0.07901
959.00 0.07898
959.10 0.07894
959.20 0.07891
959.30 0.07888
959.40 0.07885
959.50 0.07882
959.60 0.07878
959.70 0.07875
959.80 0.07872
959.90 0.07869
960.00 0.07865
960.10 0.07862
960.20 0.07859
960.30 0.07856
960.40 0.07853
960.50 0.07849
960.60 0.07846
960.70 0.07843
960.80 0.0784
960.90 0.07837
961.00 0.07833
961.10 0.0783
961.20 0.07827
961.30 0.07824
961.40 0.07821
961.50 0.07817
961.60 0.07814
961.70 0.07811
961.80 0.07808
961.90 0.07805
962.00 0.07801
962.10 0.07798
962.20 0.07795
962.30 0.07792
962.40 0.07789
962.50 0.07786
962.60 0.07783
962.70 0.07779
962.80 0.07776
962.90 0.07773
963.00 0.0777
963.10 0.07767
963.20 0.07764
963.30 0.0776
963.40 0.07757
963.50 0.07754
963.60 0.07751
963.70 0.07748
963.80 0.07745
963.90 0.07742
964.00 0.07738
964.10 0.07735
964.20 0.07732
964.30 0.07729
964.40 0.07726
964.50 0.07723
964.60 0.0772
964.70 0.07717
964.80 0.07713
964.90 0.0771
965.00 0.07707
965.10 0.07704
965.20 0.07701
965.30 0.07698
965.40 0.07695
965.50 0.07692
965.60 0.07689
965.70 0.07685
965.80 0.07682
965.90 0.07679
966.00 0.07676
966.10 0.07673
966.20 0.0767
966.30 0.07667
966.40 0.07664
966.50 0.07661
966.60 0.07658
966.70 0.07654
966.80 0.07651
966.90 0.07648
967.00 0.07645
967.10 0.07642
967.20 0.07639
967.30 0.07636
967.40 0.07633
967.50 0.0763
967.60 0.07627
967.70 0.07624
967.80 0.07621
967.90 0.07617
968.00 0.07614
968.10 0.07611
968.20 0.07608
968.30 0.07605
968.40 0.07602
968.50 0.07599
968.60 0.07596
968.70 0.07593
968.80 0.0759
968.90 0.07587
969.00 0.07584
969.10 0.07581
969.20 0.07578
969.30 0.07575
969.40 0.07572
969.50 0.07569
969.60 0.07565
969.70 0.07562
969.80 0.07559
969.90 0.07556
970.00 0.07553
970.10 0.0755
970.20 0.07547
970.30 0.07544
970.40 0.07541
970.50 0.07538
970.60 0.07535
970.70 0.07532
970.80 0.07529
970.90 0.07526
971.00 0.07523
971.10 0.0752
971.20 0.07517
971.30 0.07514
971.40 0.07511
971.50 0.07508
971.60 0.07505
971.70 0.07502
971.80 0.07499
971.90 0.07496
972.00 0.07493
972.10 0.0749
972.20 0.07487
972.30 0.07484
972.40 0.07481
972.50 0.07478
972.60 0.07475
972.70 0.07472
972.80 0.07469
972.90 0.07466
973.00 0.07463
973.10 0.0746
973.20 0.07457
973.30 0.07454
973.40 0.07451
973.50 0.07448
973.60 0.07445
973.70 0.07442
973.80 0.07439
973.90 0.07436
974.00 0.07433
974.10 0.0743
974.20 0.07427
974.30 0.07424
974.40 0.07421
974.50 0.07418
974.60 0.07415
974.70 0.07412
974.80 0.07409
974.90 0.07406
975.00 0.07403
975.10 0.074
975.20 0.07397
975.30 0.07394
975.40 0.07391
975.50 0.07388
975.60 0.07385
975.70 0.07382
975.80 0.07379
975.90 0.07376
976.00 0.07373
976.10 0.0737
976.20 0.07367
976.30 0.07364
976.40 0.07361
976.50 0.07358
976.60 0.07355
976.70 0.07352
976.80 0.0735
976.90 0.07347
977.00 0.07344
977.10 0.07341
977.20 0.07338
977.30 0.07335
977.40 0.07332
977.50 0.07329
977.60 0.07326
977.70 0.07323
977.80 0.0732
977.90 0.07317
978.00 0.07314
978.10 0.07311
978.20 0.07308
978.30 0.07305
978.40 0.07302
978.50 0.073
978.60 0.07297
978.70 0.07294
978.80 0.07291
978.90 0.07288
979.00 0.07285
979.10 0.07282
979.20 0.07279
979.30 0.07276
979.40 0.07273
979.50 0.0727
979.60 0.07267
979.70 0.07264
979.80 0.07262
979.90 0.07259
980.00 0.07256
980.10 0.07253
980.20 0.0725
980.30 0.07247
980.40 0.07244
980.50 0.07241
980.60 0.07238
980.70 0.07235
980.80 0.07232
980.90 0.07229
981.00 0.07227
981.10 0.07224
981.20 0.07221
981.30 0.07218
981.40 0.07215
981.50 0.07212
981.60 0.07209
981.70 0.07206
981.80 0.07203
981.90 0.072
982.00 0.07198
982.10 0.07195
982.20 0.07192
982.30 0.07189
982.40 0.07186
982.50 0.07183
982.60 0.0718
982.70 0.07177
982.80 0.07175
982.90 0.07172
983.00 0.07169
983.10 0.07166
983.20 0.07163
983.30 0.0716
983.40 0.07157
983.50 0.07154
983.60 0.07152
983.70 0.07149
983.80 0.07146
983.90 0.07143
984.00 0.0714
984.10 0.07137
984.20 0.07134
984.30 0.07131
984.40 0.07129
984.50 0.07126
984.60 0.07123
984.70 0.0712
984.80 0.07117
984.90 0.07114
985.00 0.07111
985.10 0.07109
985.20 0.07106
985.30 0.07103
985.40 0.071
985.50 0.07097
985.60 0.07094
985.70 0.07092
985.80 0.07089
985.90 0.07086
986.00 0.07083
986.10 0.0708
986.20 0.07077
986.30 0.07074
986.40 0.07072
986.50 0.07069
986.60 0.07066
986.70 0.07063
986.80 0.0706
986.90 0.07057
987.00 0.07055
987.10 0.07052
987.20 0.07049
987.30 0.07046
987.40 0.07043
987.50 0.0704
987.60 0.07038
987.70 0.07035
987.80 0.07032
987.90 0.07029
988.00 0.07026
988.10 0.07024
988.20 0.07021
988.30 0.07018
988.40 0.07015
988.50 0.07012
988.60 0.07009
988.70 0.07007
988.80 0.07004
988.90 0.07001
989.00 0.06998
989.10 0.06995
989.20 0.06993
989.30 0.0699
989.40 0.06987
989.50 0.06984
989.60 0.06981
989.70 0.06979
989.80 0.06976
989.90 0.06973
990.00 0.0697
990.10 0.06967
990.20 0.06965
990.30 0.06962
990.40 0.06959
990.50 0.06956
990.60 0.06953
990.70 0.06951
990.80 0.06948
990.90 0.06945
991.00 0.06942
991.10 0.06939
991.20 0.06937
991.30 0.06934
991.40 0.06931
991.50 0.06928
991.60 0.06926
991.70 0.06923
991.80 0.0692
991.90 0.06917
992.00 0.06914
992.10 0.06912
992.20 0.06909
992.30 0.06906
992.40 0.06903
992.50 0.06901
992.60 0.06898
992.70 0.06895
992.80 0.06892
992.90 0.0689
993.00 0.06887
993.10 0.06884
993.20 0.06881
993.30 0.06879
993.40 0.06876
993.50 0.06873
993.60 0.0687
993.70 0.06868
993.80 0.06865
993.90 0.06862
994.00 0.06859
994.10 0.06857
994.20 0.06854
994.30 0.06851
994.40 0.06848
994.50 0.06846
994.60 0.06843
994.70 0.0684
994.80 0.06837
994.90 0.06835
995.00 0.06832
995.10 0.06829
995.20 0.06826
995.30 0.06824
995.40 0.06821
995.50 0.06818
995.60 0.06815
995.70 0.06813
995.80 0.0681
995.90 0.06807
996.00 0.06805
996.10 0.06802
996.20 0.06799
996.30 0.06797
996.40 0.06794
996.50 0.06791
996.60 0.06788
996.70 0.06786
996.80 0.06783
996.90 0.0678
997.00 0.06778
997.10 0.06775
997.20 0.06772
997.30 0.0677
997.40 0.06767
997.50 0.06764
997.60 0.06761
997.70 0.06759
997.80 0.06756
997.90 0.06753
998.00 0.06751
998.10 0.06748
998.20 0.06745
998.30 0.06743
998.40 0.0674
998.50 0.06738
998.60 0.06735
998.70 0.06732
998.80 0.0673
998.90 0.06727
999.00 0.06724
999.10 0.06722
999.20 0.06719
999.30 0.06716
999.40 0.06714
999.50 0.06711
999.60 0.06708
999.70 0.06706
999.80 0.06703
999.90 0.067
1000.00 0.06697
1000.10 0.06695
1000.20 0.06692
1000.30 0.06689
1000.40 0.06686
1000.50 0.06684
1000.60 0.06681
1000.70 0.06678
1000.80 0.06675
1000.90 0.06673
1001.00 0.0667
1001.10 0.06667
1001.20 0.06664
1001.30 0.06662
1001.40 0.06659
1001.50 0.06656
1001.60 0.06653
1001.70 0.06651
1001.80 0.06648
1001.90 0.06646
1002.00 0.06643
1002.10 0.06641
1002.20 0.06638
1002.30 0.06636
1002.40 0.06634
1002.50 0.06631
1002.60 0.06629
1002.70 0.06626
1002.80 0.06624
1002.90 0.06621
1003.00 0.06619
1003.10 0.06616
1003.20 0.06614
1003.30 0.06612
1003.40 0.06609
1003.50 0.06607
1003.60 0.06605
1003.70 0.06602
1003.80 0.066
1003.90 0.06598
1004.00 0.06595
1004.10 0.06593
1004.20 0.06591
1004.30 0.06588
1004.40 0.06586
1004.50 0.06583
1004.60 0.06581
1004.70 0.06578
1004.80 0.06576
1004.90 0.06573
1005.00 0.0657
1005.10 0.06568
1005.20 0.06565
1005.30 0.06563
1005.40 0.0656
1005.50 0.06558
1005.60 0.06555
1005.70 0.06552
1005.80 0.06549
1005.90 0.06547
1006.00 0.06544
1006.10 0.06541
1006.20 0.06538
1006.30 0.06536
1006.40 0.06533
1006.50 0.0653
1006.60 0.06527
1006.70 0.06525
1006.80 0.06522
1006.90 0.06519
1007.00 0.06517
1007.10 0.06514
1007.20 0.06511
1007.30 0.06509
1007.40 0.06506
1007.50 0.06503
1007.60 0.06501
1007.70 0.06498
1007.80 0.06495
1007.90 0.06493
1008.00 0.0649
1008.10 0.06488
1008.20 0.06485
1008.30 0.06483
1008.40 0.0648
1008.50 0.06477
1008.60 0.06475
1008.70 0.06472
1008.80 0.0647
1008.90 0.06467
1009.00 0.06465
1009.10 0.06462
1009.20 0.06459
1009.30 0.06457
1009.40 0.06454
1009.50 0.06452
1009.60 0.06449
1009.70 0.06447
1009.80 0.06444
1009.90 0.06442
1010.00 0.06439
1010.10 0.06437
1010.20 0.06434
1010.30 0.06432
1010.40 0.06429
1010.50 0.06427
1010.60 0.06424
1010.70 0.06422
1010.80 0.06419
1010.90 0.06417
1011.00 0.06414
1011.10 0.06412
1011.20 0.06409
1011.30 0.06407
1011.40 0.06405
1011.50 0.06402
1011.60 0.064
1011.70 0.06397
1011.80 0.06395
1011.90 0.06392
1012.00 0.0639
1012.10 0.06387
1012.20 0.06385
1012.30 0.06382
1012.40 0.0638
1012.50 0.06378
1012.60 0.06375
1012.70 0.06373
1012.80 0.0637
1012.90 0.06368
1013.00 0.06365
1013.10 0.06363
1013.20 0.06361
1013.30 0.06358
1013.40 0.06356
1013.50 0.06353
1013.60 0.06351
1013.70 0.06349
1013.80 0.06346
1013.90 0.06344
1014.00 0.06341
1014.10 0.06339
1014.20 0.06337
1014.30 0.06334
1014.40 0.06332
1014.50 0.06329
1014.60 0.06327
1014.70 0.06325
1014.80 0.06322
1014.90 0.0632
1015.00 0.06317
1015.10 0.06315
1015.20 0.06313
1015.30 0.0631
1015.40 0.06308
1015.50 0.06305
1015.60 0.06303
1015.70 0.06301
1015.80 0.06298
1015.90 0.06296
1016.00 0.06294
1016.10 0.06291
1016.20 0.06289
1016.30 0.06286
1016.40 0.06284
1016.50 0.06282
1016.60 0.06279
1016.70 0.06277
1016.80 0.06275
1016.90 0.06272
1017.00 0.0627
1017.10 0.06267
1017.20 0.06265
1017.30 0.06263
1017.40 0.0626
1017.50 0.06258
1017.60 0.06256
1017.70 0.06253
1017.80 0.06251
1017.90 0.06249
1018.00 0.06246
1018.10 0.06244
1018.20 0.06241
1018.30 0.06239
1018.40 0.06237
1018.50 0.06234
1018.60 0.06232
1018.70 0.0623
1018.80 0.06227
1018.90 0.06225
1019.00 0.06223
1019.10 0.0622
1019.20 0.06218
1019.30 0.06216
1019.40 0.06213
1019.50 0.06211
1019.60 0.06209
1019.70 0.06206
1019.80 0.06204
1019.90 0.06201
1020.00 0.06199
1020.10 0.06197
1020.20 0.06194
1020.30 0.06192
1020.40 0.0619
1020.50 0.06187
1020.60 0.06185
1020.70 0.06183
1020.80 0.0618
1020.90 0.06178
1021.00 0.06176
1021.10 0.06173
1021.20 0.06171
1021.30 0.06169
1021.40 0.06166
1021.50 0.06164
1021.60 0.06162
1021.70 0.0616
1021.80 0.06157
1021.90 0.06155
1022.00 0.06153
1022.10 0.0615
1022.20 0.06148
1022.30 0.06146
1022.40 0.06143
1022.50 0.06141
1022.60 0.06139
1022.70 0.06136
1022.80 0.06134
1022.90 0.06132
1023.00 0.06129
1023.10 0.06127
1023.20 0.06125
1023.30 0.06122
1023.40 0.0612
1023.50 0.06118
1023.60 0.06116
1023.70 0.06113
1023.80 0.06111
1023.90 0.06109
1024.00 0.06106
1024.10 0.06104
1024.20 0.06102
1024.30 0.06099
1024.40 0.06097
1024.50 0.06095
1024.60 0.06092
1024.70 0.0609
1024.80 0.06088
1024.90 0.06086
1025.00 0.06083
1025.10 0.06081
1025.20 0.06079
1025.30 0.06076
1025.40 0.06074
1025.50 0.06072
1025.60 0.0607
1025.70 0.06067
1025.80 0.06065
1025.90 0.06063
1026.00 0.0606
1026.10 0.06058
1026.20 0.06056
1026.30 0.06054
1026.40 0.06051
1026.50 0.06049
1026.60 0.06047
1026.70 0.06044
1026.80 0.06042
1026.90 0.0604
1027.00 0.06038
1027.10 0.06035
1027.20 0.06033
1027.30 0.06031
1027.40 0.06028
1027.50 0.06026
1027.60 0.06024
1027.70 0.06022
1027.80 0.06019
1027.90 0.06017
1028.00 0.06015
1028.10 0.06013
1028.20 0.0601
1028.30 0.06008
1028.40 0.06006
1028.50 0.06004
1028.60 0.06001
1028.70 0.05999
1028.80 0.05997
1028.90 0.05995
1029.00 0.05992
1029.10 0.0599
1029.20 0.05988
1029.30 0.05985
1029.40 0.05983
1029.50 0.05981
1029.60 0.05979
1029.70 0.05976
1029.80 0.05974
1029.90 0.05972
1030.00 0.0597
1030.10 0.05967
1030.20 0.05965
1030.30 0.05963
1030.40 0.05961
1030.50 0.05958
1030.60 0.05956
1030.70 0.05954
1030.80 0.05952
1030.90 0.05949
1031.00 0.05947
1031.10 0.05945
1031.20 0.05943
1031.30 0.05941
1031.40 0.05938
1031.50 0.05936
1031.60 0.05934
1031.70 0.05932
1031.80 0.05929
1031.90 0.05927
1032.00 0.05925
1032.10 0.05923
1032.20 0.0592
1032.30 0.05918
1032.40 0.05916
1032.50 0.05914
1032.60 0.05911
1032.70 0.05909
1032.80 0.05907
1032.90 0.05905
1033.00 0.05903
1033.10 0.059
1033.20 0.05898
1033.30 0.05896
1033.40 0.05894
1033.50 0.05891
1033.60 0.05889
1033.70 0.05887
1033.80 0.05885
1033.90 0.05883
1034.00 0.0588
1034.10 0.05878
1034.20 0.05876
1034.30 0.05874
1034.40 0.05872
1034.50 0.05869
1034.60 0.05867
1034.70 0.05865
1034.80 0.05863
1034.90 0.05861
1035.00 0.05858
1035.10 0.05856
1035.20 0.05854
1035.30 0.05852
1035.40 0.0585
1035.50 0.05847
1035.60 0.05845
1035.70 0.05843
1035.80 0.05841
1035.90 0.05838
1036.00 0.05836
1036.10 0.05834
1036.20 0.05832
1036.30 0.0583
1036.40 0.05828
1036.50 0.05825
1036.60 0.05823
1036.70 0.05821
1036.80 0.05819
1036.90 0.05817
1037.00 0.05814
1037.10 0.05812
1037.20 0.0581
1037.30 0.05808
1037.40 0.05806
1037.50 0.05803
1037.60 0.05801
1037.70 0.05799
1037.80 0.05797
1037.90 0.05795
1038.00 0.05793
1038.10 0.0579
1038.20 0.05788
1038.30 0.05786
1038.40 0.05784
1038.50 0.05782
1038.60 0.0578
1038.70 0.05777
1038.80 0.05775
1038.90 0.05773
1039.00 0.05771
1039.10 0.05769
1039.20 0.05767
1039.30 0.05764
1039.40 0.05762
1039.50 0.0576
1039.60 0.05758
1039.70 0.05756
1039.80 0.05754
1039.90 0.05751
1040.00 0.05749
1040.10 0.05747
1040.20 0.05745
1040.30 0.05743
1040.40 0.05741
1040.50 0.05738
1040.60 0.05736
1040.70 0.05734
1040.80 0.05732
1040.90 0.0573
1041.00 0.05728
1041.10 0.05725
1041.20 0.05723
1041.30 0.05721
1041.40 0.05719
1041.50 0.05717
1041.60 0.05715
1041.70 0.05713
1041.80 0.0571
1041.90 0.05708
1042.00 0.05706
1042.10 0.05704
1042.20 0.05702
1042.30 0.057
1042.40 0.05698
1042.50 0.05695
1042.60 0.05693
1042.70 0.05691
1042.80 0.05689
1042.90 0.05687
1043.00 0.05685
1043.10 0.05683
1043.20 0.05681
1043.30 0.05678
1043.40 0.05676
1043.50 0.05674
1043.60 0.05672
1043.70 0.0567
1043.80 0.05668
1043.90 0.05666
1044.00 0.05664
1044.10 0.05661
1044.20 0.05659
1044.30 0.05657
1044.40 0.05655
1044.50 0.05653
1044.60 0.05651
1044.70 0.05649
1044.80 0.05647
1044.90 0.05644
1045.00 0.05642
1045.10 0.0564
1045.20 0.05638
1045.30 0.05636
1045.40 0.05634
1045.50 0.05632
1045.60 0.0563
1045.70 0.05628
1045.80 0.05625
1045.90 0.05623
1046.00 0.05621
1046.10 0.05619
1046.20 0.05617
1046.30 0.05615
1046.40 0.05613
1046.50 0.05611
1046.60 0.05609
1046.70 0.05606
1046.80 0.05604
1046.90 0.05602
1047.00 0.056
1047.10 0.05598
1047.20 0.05596
1047.30 0.05594
1047.40 0.05592
1047.50 0.0559
1047.60 0.05588
1047.70 0.05586
1047.80 0.05583
1047.90 0.05581
1048.00 0.05579
1048.10 0.05577
1048.20 0.05575
1048.30 0.05573
1048.40 0.05571
1048.50 0.05569
1048.60 0.05567
1048.70 0.05565
1048.80 0.05563
1048.90 0.05561
1049.00 0.05558
1049.10 0.05556
1049.20 0.05554
1049.30 0.05552
1049.40 0.0555
1049.50 0.05548
1049.60 0.05546
1049.70 0.05544
1049.80 0.05542
1049.90 0.0554
1050.00 0.05538
1050.10 0.05536
1050.20 0.05534
1050.30 0.05532
1050.40 0.05529
1050.50 0.05527
1050.60 0.05525
1050.70 0.05523
1050.80 0.05521
1050.90 0.05519
1051.00 0.05517
1051.10 0.05515
1051.20 0.05513
1051.30 0.05511
1051.40 0.05509
1051.50 0.05507
1051.60 0.05505
1051.70 0.05503
1051.80 0.05501
1051.90 0.05499
1052.00 0.05496
1052.10 0.05494
1052.20 0.05492
1052.30 0.0549
1052.40 0.05488
1052.50 0.05486
1052.60 0.05484
1052.70 0.05482
1052.80 0.0548
1052.90 0.05478
1053.00 0.05476
1053.10 0.05474
1053.20 0.05472
1053.30 0.0547
1053.40 0.05468
1053.50 0.05466
1053.60 0.05464
1053.70 0.05462
1053.80 0.0546
1053.90 0.05458
1054.00 0.05456
1054.10 0.05454
1054.20 0.05452
1054.30 0.0545
1054.40 0.05448
1054.50 0.05445
1054.60 0.05443
1054.70 0.05441
1054.80 0.05439
1054.90 0.05437
1055.00 0.05435
1055.10 0.05433
1055.20 0.05431
1055.30 0.05429
1055.40 0.05427
1055.50 0.05425
1055.60 0.05423
1055.70 0.05421
1055.80 0.05419
1055.90 0.05417
1056.00 0.05415
1056.10 0.05413
1056.20 0.05411
1056.30 0.05409
1056.40 0.05407
1056.50 0.05405
1056.60 0.05403
1056.70 0.05401
1056.80 0.05399
1056.90 0.05397
1057.00 0.05395
1057.10 0.05393
1057.20 0.05391
1057.30 0.05389
1057.40 0.05387
1057.50 0.05385
1057.60 0.05383
1057.70 0.05381
1057.80 0.05379
1057.90 0.05377
1058.00 0.05375
1058.10 0.05373
1058.20 0.05371
1058.30 0.05369
1058.40 0.05367
1058.50 0.05365
1058.60 0.05363
1058.70 0.05361
1058.80 0.05359
1058.90 0.05357
1059.00 0.05355
1059.10 0.05353
1059.20 0.05351
1059.30 0.05349
1059.40 0.05347
1059.50 0.05345
1059.60 0.05343
1059.70 0.05341
1059.80 0.05339
1059.90 0.05337
1060.00 0.05335
1060.10 0.05333
1060.20 0.05331
1060.30 0.05329
1060.40 0.05327
1060.50 0.05325
1060.60 0.05323
1060.70 0.05321
1060.80 0.05319
1060.90 0.05317
1061.00 0.05315
1061.10 0.05313
1061.20 0.05311
1061.30 0.05309
1061.40 0.05307
1061.50 0.05305
1061.60 0.05303
1061.70 0.05301
1061.80 0.05299
1061.90 0.05297
1062.00 0.05295
1062.10 0.05293
1062.20 0.05291
1062.30 0.05289
1062.40 0.05287
1062.50 0.05286
1062.60 0.05284
1062.70 0.05282
1062.80 0.0528
1062.90 0.05278
1063.00 0.05276
1063.10 0.05274
1063.20 0.05272
1063.30 0.0527
1063.40 0.05268
1063.50 0.05266
1063.60 0.05264
1063.70 0.05262
1063.80 0.0526
1063.90 0.05258
1064.00 0.05256
1064.10 0.05254
1064.20 0.05252
1064.30 0.0525
1064.40 0.05248
1064.50 0.05246
1064.60 0.05244
1064.70 0.05242
1064.80 0.0524
1064.90 0.05239
1065.00 0.05237
1065.10 0.05235
1065.20 0.05233
1065.30 0.05231
1065.40 0.05229
1065.50 0.05227
1065.60 0.05225
1065.70 0.05223
1065.80 0.05221
1065.90 0.05219
1066.00 0.05217
1066.10 0.05215
1066.20 0.05213
1066.30 0.05211
1066.40 0.05209
1066.50 0.05207
1066.60 0.05205
1066.70 0.05203
1066.80 0.05202
1066.90 0.052
1067.00 0.05198
1067.10 0.05196
1067.20 0.05194
1067.30 0.05192
1067.40 0.0519
1067.50 0.05188
1067.60 0.05186
1067.70 0.05184
1067.80 0.05182
1067.90 0.0518
1068.00 0.05178
1068.10 0.05176
1068.20 0.05174
1068.30 0.05173
1068.40 0.05171
1068.50 0.05169
1068.60 0.05167
1068.70 0.05165
1068.80 0.05163
1068.90 0.05161
1069.00 0.05159
1069.10 0.05157
1069.20 0.05155
1069.30 0.05153
1069.40 0.05151
1069.50 0.05149
1069.60 0.05148
1069.70 0.05146
1069.80 0.05144
1069.90 0.05142
1070.00 0.0514
1070.10 0.05138
1070.20 0.05136
1070.30 0.05134
1070.40 0.05132
1070.50 0.0513
1070.60 0.05128
1070.70 0.05126
1070.80 0.05125
1070.90 0.05123
1071.00 0.05121
1071.10 0.05119
1071.20 0.05117
1071.30 0.05115
1071.40 0.05113
1071.50 0.05111
1071.60 0.05109
1071.70 0.05107
1071.80 0.05105
1071.90 0.05103
1072.00 0.05102
1072.10 0.051
1072.20 0.05098
1072.30 0.05096
1072.40 0.05094
1072.50 0.05092
1072.60 0.0509
1072.70 0.05088
1072.80 0.05086
1072.90 0.05084
1073.00 0.05083
1073.10 0.05081
1073.20 0.05079
1073.30 0.05077
1073.40 0.05075
1073.50 0.05073
1073.60 0.05071
1073.70 0.05069
1073.80 0.05067
1073.90 0.05065
1074.00 0.05064
1074.10 0.05062
1074.20 0.0506
1074.30 0.05058
1074.40 0.05056
1074.50 0.05054
1074.60 0.05052
1074.70 0.0505
1074.80 0.05048
1074.90 0.05046
1075.00 0.05045
1075.10 0.05043
1075.20 0.05041
1075.30 0.05039
1075.40 0.05037
1075.50 0.05035
1075.60 0.05033
1075.70 0.05031
1075.80 0.05029
1075.90 0.05028
1076.00 0.05026
1076.10 0.05024
1076.20 0.05022
1076.30 0.0502
1076.40 0.05018
1076.50 0.05016
1076.60 0.05014
1076.70 0.05012
1076.80 0.05011
1076.90 0.05009
1077.00 0.05007
1077.10 0.05005
1077.20 0.05003
1077.30 0.05001
1077.40 0.04999
1077.50 0.04997
1077.60 0.04996
1077.70 0.04994
1077.80 0.04992
1077.90 0.0499
1078.00 0.04988
1078.10 0.04986
1078.20 0.04984
1078.30 0.04982
1078.40 0.0498
1078.50 0.04979
1078.60 0.04977
1078.70 0.04975
1078.80 0.04973
1078.90 0.04971
1079.00 0.04969
1079.10 0.04967
1079.20 0.04965
1079.30 0.04964
1079.40 0.04962
1079.50 0.0496
1079.60 0.04958
1079.70 0.04956
1079.80 0.04954
1079.90 0.04952
1080.00 0.0495
1080.10 0.04949
1080.20 0.04947
1080.30 0.04945
1080.40 0.04943
1080.50 0.04941
1080.60 0.04939
1080.70 0.04937
1080.80 0.04935
1080.90 0.04934
1081.00 0.04932
1081.10 0.0493
1081.20 0.04928
1081.30 0.04926
1081.40 0.04924
1081.50 0.04922
1081.60 0.04921
1081.70 0.04919
1081.80 0.04917
1081.90 0.04915
1082.00 0.04913
1082.10 0.04911
1082.20 0.04909
1082.30 0.04908
1082.40 0.04906
1082.50 0.04904
1082.60 0.04902
1082.70 0.049
1082.80 0.04898
1082.90 0.04896
1083.00 0.04895
1083.10 0.04893
1083.20 0.04891
1083.30 0.04889
1083.40 0.04887
1083.50 0.04885
1083.60 0.04883
1083.70 0.04882
1083.80 0.0488
1083.90 0.04878
1084.00 0.04876
1084.10 0.04874
1084.20 0.04872
1084.30 0.04871
1084.40 0.04869
1084.50 0.04867
1084.60 0.04865
1084.70 0.04863
1084.80 0.04861
1084.90 0.0486
1085.00 0.04858
1085.10 0.04856
1085.20 0.04854
1085.30 0.04852
1085.40 0.0485
1085.50 0.04849
1085.60 0.04847
1085.70 0.04845
1085.80 0.04843
1085.90 0.04841
1086.00 0.04839
1086.10 0.04838
1086.20 0.04836
1086.30 0.04834
1086.40 0.04832
1086.50 0.0483
1086.60 0.04829
1086.70 0.04827
1086.80 0.04825
1086.90 0.04823
1087.00 0.04821
1087.10 0.0482
1087.20 0.04818
1087.30 0.04816
1087.40 0.04814
1087.50 0.04813
1087.60 0.04811
1087.70 0.04809
1087.80 0.04807
1087.90 0.04805
1088.00 0.04804
1088.10 0.04802
1088.20 0.048
1088.30 0.04798
1088.40 0.04797
1088.50 0.04795
1088.60 0.04793
1088.70 0.04791
1088.80 0.0479
1088.90 0.04788
1089.00 0.04786
1089.10 0.04785
1089.20 0.04783
1089.30 0.04781
1089.40 0.0478
1089.50 0.04778
1089.60 0.04776
1089.70 0.04775
1089.80 0.04773
1089.90 0.04771
1090.00 0.04769
1090.10 0.04768
1090.20 0.04766
1090.30 0.04764
1090.40 0.04763
1090.50 0.04761
1090.60 0.0476
1090.70 0.04758
1090.80 0.04756
1090.90 0.04755
1091.00 0.04753
1091.10 0.04752
1091.20 0.0475
1091.30 0.04748
1091.40 0.04747
1091.50 0.04745
1091.60 0.04744
1091.70 0.04742
1091.80 0.04741
1091.90 0.04739
1092.00 0.04737
1092.10 0.04736
1092.20 0.04735
1092.30 0.04733
1092.40 0.04732
1092.50 0.0473
1092.60 0.04729
1092.70 0.04727
1092.80 0.04726
1092.90 0.04725
1093.00 0.04723
1093.10 0.04722
1093.20 0.04721
1093.30 0.0472
1093.40 0.04719
1093.50 0.04719
1093.60 0.04719
1093.70 0.04718
1093.80 0.04717
1093.90 0.04716
1094.00 0.04712
1094.10 0.04709
1094.20 0.04706
1094.30 0.04704
1094.40 0.04701
1094.50 0.04699
1094.60 0.04697
1094.70 0.04695
1094.80 0.04693
1094.90 0.04691
1095.00 0.04689
1095.10 0.04687
1095.20 0.04685
1095.30 0.04683
1095.40 0.04681
1095.50 0.04679
1095.60 0.04677
1095.70 0.04676
1095.80 0.04674
1095.90 0.04672
1096.00 0.0467
1096.10 0.04668
1096.20 0.04666
1096.30 0.04665
1096.40 0.04663
1096.50 0.04661
1096.60 0.04659
1096.70 0.04657
1096.80 0.04656
1096.90 0.04654
1097.00 0.04652
1097.10 0.0465
1097.20 0.04649
1097.30 0.04647
1097.40 0.04645
1097.50 0.04644
1097.60 0.04642
1097.70 0.0464
1097.80 0.04639
1097.90 0.04637
1098.00 0.04635
1098.10 0.04634
1098.20 0.04632
1098.30 0.0463
1098.40 0.04628
1098.50 0.04627
1098.60 0.04625
1098.70 0.04624
1098.80 0.04622
1098.90 0.0462
1099.00 0.04619
1099.10 0.04617
1099.20 0.04615
1099.30 0.04614
1099.40 0.04612
1099.50 0.04611
1099.60 0.04609
1099.70 0.04607
1099.80 0.04606
1099.90 0.04604
1100.00 0.04603
1100.10 0.04601
1100.20 0.04599
1100.30 0.04598
1100.40 0.04596
1100.50 0.04595
1100.60 0.04593
1100.70 0.04591
1100.80 0.0459
1100.90 0.04588
1101.00 0.04587
1101.10 0.04585
1101.20 0.04584
1101.30 0.04582
1101.40 0.0458
1101.50 0.04579
1101.60 0.04577
1101.70 0.04576
1101.80 0.04574
1101.90 0.04573
1102.00 0.04571
1102.10 0.0457
1102.20 0.04568
1102.30 0.04566
1102.40 0.04565
1102.50 0.04563
1102.60 0.04562
1102.70 0.0456
1102.80 0.04559
1102.90 0.04557
1103.00 0.04556
1103.10 0.04554
1103.20 0.04553
1103.30 0.04551
1103.40 0.04549
1103.50 0.04548
1103.60 0.04546
1103.70 0.04545
1103.80 0.04543
1103.90 0.04542
1104.00 0.0454
1104.10 0.04539
1104.20 0.04537
1104.30 0.04536
1104.40 0.04534
1104.50 0.04533
1104.60 0.04531
1104.70 0.0453
1104.80 0.04528
1104.90 0.04526
1105.00 0.04525
1105.10 0.04523
1105.20 0.04522
1105.30 0.0452
1105.40 0.04519
1105.50 0.04517
1105.60 0.04516
1105.70 0.04514
1105.80 0.04513
1105.90 0.04511
1106.00 0.0451
1106.10 0.04508
1106.20 0.04507
1106.30 0.04505
1106.40 0.04504
1106.50 0.04502
1106.60 0.04501
1106.70 0.04499
1106.80 0.04498
1106.90 0.04496
1107.00 0.04495
1107.10 0.04493
1107.20 0.04491
1107.30 0.0449
1107.40 0.04488
1107.50 0.04487
1107.60 0.04485
1107.70 0.04484
1107.80 0.04482
1107.90 0.04481
1108.00 0.04479
1108.10 0.04478
1108.20 0.04476
1108.30 0.04475
1108.40 0.04473
1108.50 0.04472
1108.60 0.0447
1108.70 0.04469
1108.80 0.04467
1108.90 0.04466
1109.00 0.04464
1109.10 0.04463
1109.20 0.04461
1109.30 0.0446
1109.40 0.04458
1109.50 0.04457
1109.60 0.04455
1109.70 0.04454
1109.80 0.04452
1109.90 0.04451
1110.00 0.04449
1110.10 0.04448
1110.20 0.04446
1110.30 0.04444
1110.40 0.04443
1110.50 0.04441
1110.60 0.0444
1110.70 0.04438
1110.80 0.04437
1110.90 0.04435
1111.00 0.04434
1111.10 0.04432
1111.20 0.04431
1111.30 0.04429
1111.40 0.04428
1111.50 0.04426
1111.60 0.04425
1111.70 0.04423
1111.80 0.04422
1111.90 0.0442
1112.00 0.04419
1112.10 0.04417
1112.20 0.04416
1112.30 0.04414
1112.40 0.04413
1112.50 0.04411
1112.60 0.0441
1112.70 0.04408
1112.80 0.04407
1112.90 0.04405
1113.00 0.04404
1113.10 0.04402
1113.20 0.04401
1113.30 0.04399
1113.40 0.04398
1113.50 0.04396
1113.60 0.04395
1113.70 0.04393
1113.80 0.04392
1113.90 0.0439
1114.00 0.04389
1114.10 0.04387
1114.20 0.04386
1114.30 0.04384
1114.40 0.04383
1114.50 0.04381
1114.60 0.0438
1114.70 0.04378
1114.80 0.04377
1114.90 0.04375
1115.00 0.04374
1115.10 0.04372
1115.20 0.04371
1115.30 0.04369
1115.40 0.04368
1115.50 0.04366
1115.60 0.04365
1115.70 0.04363
1115.80 0.04362
1115.90 0.0436
1116.00 0.04359
1116.10 0.04357
1116.20 0.04356
1116.30 0.04354
1116.40 0.04353
1116.50 0.04351
1116.60 0.0435
1116.70 0.04348
1116.80 0.04347
1116.90 0.04345
1117.00 0.04344
1117.10 0.04342
1117.20 0.04341
1117.30 0.04339
1117.40 0.04338
1117.50 0.04336
1117.60 0.04335
1117.70 0.04333
1117.80 0.04332
1117.90 0.0433
1118.00 0.04329
1118.10 0.04327
1118.20 0.04326
1118.30 0.04324
1118.40 0.04323
1118.50 0.04321
1118.60 0.0432
1118.70 0.04318
1118.80 0.04317
1118.90 0.04315
1119.00 0.04314
1119.10 0.04312
1119.20 0.04311
1119.30 0.04309
1119.40 0.04308
1119.50 0.04306
1119.60 0.04305
1119.70 0.04303
1119.80 0.04302
1119.90 0.04301
1120.00 0.04299
1120.10 0.04298
1120.20 0.04296
1120.30 0.04295
1120.40 0.04293
1120.50 0.04292
1120.60 0.0429
1120.70 0.04289
1120.80 0.04287
1120.90 0.04286
1121.00 0.04284
1121.10 0.04283
1121.20 0.04281
1121.30 0.0428
1121.40 0.04278
1121.50 0.04277
1121.60 0.04275
1121.70 0.04274
1121.80 0.04272
1121.90 0.04271
1122.00 0.04269
1122.10 0.04268
1122.20 0.04267
1122.30 0.04265
1122.40 0.04264
1122.50 0.04262
1122.60 0.04261
1122.70 0.04259
1122.80 0.04258
1122.90 0.04256
1123.00 0.04255
1123.10 0.04253
1123.20 0.04252
1123.30 0.0425
1123.40 0.04249
1123.50 0.04247
1123.60 0.04246
1123.70 0.04245
1123.80 0.04243
1123.90 0.04242
1124.00 0.0424
1124.10 0.04239
1124.20 0.04237
1124.30 0.04236
1124.40 0.04234
1124.50 0.04233
1124.60 0.04231
1124.70 0.0423
1124.80 0.04228
1124.90 0.04227
1125.00 0.04226
1125.10 0.04224
1125.20 0.04223
1125.30 0.04221
1125.40 0.0422
1125.50 0.04218
1125.60 0.04217
1125.70 0.04215
1125.80 0.04214
1125.90 0.04212
1126.00 0.04211
1126.10 0.0421
1126.20 0.04208
1126.30 0.04207
1126.40 0.04205
1126.50 0.04204
1126.60 0.04202
1126.70 0.04201
1126.80 0.04199
1126.90 0.04198
1127.00 0.04196
1127.10 0.04195
1127.20 0.04194
1127.30 0.04192
1127.40 0.04191
1127.50 0.04189
1127.60 0.04188
1127.70 0.04186
1127.80 0.04185
1127.90 0.04183
1128.00 0.04182
1128.10 0.04181
1128.20 0.04179
1128.30 0.04178
1128.40 0.04176
1128.50 0.04175
1128.60 0.04173
1128.70 0.04172
1128.80 0.0417
1128.90 0.04169
1129.00 0.04168
1129.10 0.04166
1129.20 0.04165
1129.30 0.04163
1129.40 0.04162
1129.50 0.0416
1129.60 0.04159
1129.70 0.04158
1129.80 0.04156
1129.90 0.04155
1130.00 0.04153
1130.10 0.04152
1130.20 0.0415
1130.30 0.04149
1130.40 0.04148
1130.50 0.04146
1130.60 0.04145
1130.70 0.04143
1130.80 0.04142
1130.90 0.0414
1131.00 0.04139
1131.10 0.04138
1131.20 0.04136
1131.30 0.04135
1131.40 0.04133
1131.50 0.04132
1131.60 0.0413
1131.70 0.04129
1131.80 0.04128
1131.90 0.04126
1132.00 0.04125
1132.10 0.04123
1132.20 0.04122
1132.30 0.0412
1132.40 0.04119
1132.50 0.04118
1132.60 0.04116
1132.70 0.04115
1132.80 0.04113
1132.90 0.04112
1133.00 0.04111
1133.10 0.04109
1133.20 0.04108
1133.30 0.04106
1133.40 0.04105
1133.50 0.04103
1133.60 0.04102
1133.70 0.04101
1133.80 0.04099
1133.90 0.04098
1134.00 0.04096
1134.10 0.04095
1134.20 0.04094
1134.30 0.04092
1134.40 0.04091
1134.50 0.04089
1134.60 0.04088
1134.70 0.04087
1134.80 0.04085
1134.90 0.04084
1135.00 0.04082
1135.10 0.04081
1135.20 0.0408
1135.30 0.04078
1135.40 0.04077
1135.50 0.04075
1135.60 0.04074
1135.70 0.04073
1135.80 0.04071
1135.90 0.0407
1136.00 0.04068
1136.10 0.04067
1136.20 0.04065
1136.30 0.04064
1136.40 0.04063
1136.50 0.04061
1136.60 0.0406
1136.70 0.04058
1136.80 0.04057
1136.90 0.04056
1137.00 0.04054
1137.10 0.04053
1137.20 0.04052
1137.30 0.0405
1137.40 0.04049
1137.50 0.04047
1137.60 0.04046
1137.70 0.04045
1137.80 0.04043
1137.90 0.04042
1138.00 0.0404
1138.10 0.04039
1138.20 0.04038
1138.30 0.04036
1138.40 0.04035
1138.50 0.04033
1138.60 0.04032
1138.70 0.04031
1138.80 0.04029
1138.90 0.04028
1139.00 0.04027
1139.10 0.04025
1139.20 0.04024
1139.30 0.04022
1139.40 0.04021
1139.50 0.0402
1139.60 0.04018
1139.70 0.04017
1139.80 0.04016
1139.90 0.04014
1140.00 0.04013
1140.10 0.04011
1140.20 0.0401
1140.30 0.04009
1140.40 0.04007
1140.50 0.04006
1140.60 0.04005
1140.70 0.04003
1140.80 0.04002
1140.90 0.04
1141.00 0.03999
1141.10 0.03998
1141.20 0.03996
1141.30 0.03995
1141.40 0.03994
1141.50 0.03992
1141.60 0.03991
1141.70 0.03989
1141.80 0.03988
1141.90 0.03987
1142.00 0.03985
1142.10 0.03984
1142.20 0.03983
1142.30 0.03981
1142.40 0.0398
1142.50 0.03979
1142.60 0.03977
1142.70 0.03976
1142.80 0.03974
1142.90 0.03973
1143.00 0.03972
1143.10 0.0397
1143.20 0.03969
1143.30 0.03968
1143.40 0.03966
1143.50 0.03965
1143.60 0.03964
1143.70 0.03962
1143.80 0.03961
1143.90 0.0396
1144.00 0.03958
1144.10 0.03957
1144.20 0.03955
1144.30 0.03954
1144.40 0.03953
1144.50 0.03951
1144.60 0.0395
1144.70 0.03949
1144.80 0.03947
1144.90 0.03946
1145.00 0.03945
1145.10 0.03943
1145.20 0.03942
1145.30 0.03941
1145.40 0.03939
1145.50 0.03938
1145.60 0.03937
1145.70 0.03935
1145.80 0.03934
1145.90 0.03933
1146.00 0.03931
1146.10 0.0393
1146.20 0.03928
1146.30 0.03927
1146.40 0.03926
1146.50 0.03924
1146.60 0.03923
1146.70 0.03922
1146.80 0.0392
1146.90 0.03919
1147.00 0.03918
1147.10 0.03916
1147.20 0.03915
1147.30 0.03914
1147.40 0.03912
1147.50 0.03911
1147.60 0.0391
1147.70 0.03908
1147.80 0.03907
1147.90 0.03906
1148.00 0.03904
1148.10 0.03903
1148.20 0.03902
1148.30 0.039
1148.40 0.03899
1148.50 0.03898
1148.60 0.03896
1148.70 0.03895
1148.80 0.03894
1148.90 0.03892
1149.00 0.03891
1149.10 0.0389
1149.20 0.03888
1149.30 0.03887
1149.40 0.03886
1149.50 0.03885
1149.60 0.03883
1149.70 0.03882
1149.80 0.03881
1149.90 0.03879
1150.00 0.03878
1150.10 0.03877
1150.20 0.03875
1150.30 0.03874
1150.40 0.03873
1150.50 0.03871
1150.60 0.0387
1150.70 0.03869
1150.80 0.03867
1150.90 0.03866
1151.00 0.03865
1151.10 0.03863
1151.20 0.03862
1151.30 0.03861
1151.40 0.03859
1151.50 0.03858
1151.60 0.03857
1151.70 0.03855
1151.80 0.03854
1151.90 0.03853
1152.00 0.03852
1152.10 0.0385
1152.20 0.03849
1152.30 0.03848
1152.40 0.03846
1152.50 0.03845
1152.60 0.03844
1152.70 0.03842
1152.80 0.03841
1152.90 0.0384
1153.00 0.03839
1153.10 0.03837
1153.20 0.03836
1153.30 0.03835
1153.40 0.03833
1153.50 0.03832
1153.60 0.03831
1153.70 0.03829
1153.80 0.03828
1153.90 0.03827
1154.00 0.03825
1154.10 0.03824
1154.20 0.03823
1154.30 0.03822
1154.40 0.0382
1154.50 0.03819
1154.60 0.03818
1154.70 0.03816
1154.80 0.03815
1154.90 0.03814
1155.00 0.03813
1155.10 0.03811
1155.20 0.0381
1155.30 0.03809
1155.40 0.03807
1155.50 0.03806
1155.60 0.03805
1155.70 0.03803
1155.80 0.03802
1155.90 0.03801
1156.00 0.038
1156.10 0.03798
1156.20 0.03797
1156.30 0.03796
1156.40 0.03794
1156.50 0.03793
1156.60 0.03792
1156.70 0.03791
1156.80 0.03789
1156.90 0.03788
1157.00 0.03787
1157.10 0.03785
1157.20 0.03784
1157.30 0.03783
1157.40 0.03782
1157.50 0.0378
1157.60 0.03779
1157.70 0.03778
1157.80 0.03776
1157.90 0.03775
1158.00 0.03774
1158.10 0.03773
1158.20 0.03771
1158.30 0.0377
1158.40 0.03769
1158.50 0.03768
1158.60 0.03766
1158.70 0.03765
1158.80 0.03764
1158.90 0.03762
1159.00 0.03761
1159.10 0.0376
1159.20 0.03759
1159.30 0.03757
1159.40 0.03756
1159.50 0.03755
1159.60 0.03754
1159.70 0.03752
1159.80 0.03751
1159.90 0.0375
1160.00 0.03749
1160.10 0.03747
1160.20 0.03746
1160.30 0.03745
1160.40 0.03743
1160.50 0.03742
1160.60 0.03741
1160.70 0.0374
1160.80 0.03738
1160.90 0.03737
1161.00 0.03736
1161.10 0.03735
1161.20 0.03733
1161.30 0.03732
1161.40 0.03731
1161.50 0.0373
1161.60 0.03728
1161.70 0.03727
1161.80 0.03726
1161.90 0.03725
1162.00 0.03723
1162.10 0.03722
1162.20 0.03721
1162.30 0.03719
1162.40 0.03718
1162.50 0.03717
1162.60 0.03716
1162.70 0.03714
1162.80 0.03713
1162.90 0.03712
1163.00 0.03711
1163.10 0.03709
1163.20 0.03708
1163.30 0.03707
1163.40 0.03706
1163.50 0.03704
1163.60 0.03703
1163.70 0.03702
1163.80 0.03701
1163.90 0.037
1164.00 0.03698
1164.10 0.03697
1164.20 0.03696
1164.30 0.03695
1164.40 0.03693
1164.50 0.03692
1164.60 0.03691
1164.70 0.0369
1164.80 0.03688
1164.90 0.03687
1165.00 0.03686
1165.10 0.03685
1165.20 0.03683
1165.30 0.03682
1165.40 0.03681
1165.50 0.0368
1165.60 0.03678
1165.70 0.03677
1165.80 0.03676
1165.90 0.03675
1166.00 0.03673
1166.10 0.03672
1166.20 0.03671
1166.30 0.0367
1166.40 0.03668
1166.50 0.03667
1166.60 0.03666
1166.70 0.03665
1166.80 0.03664
1166.90 0.03662
1167.00 0.03661
1167.10 0.0366
1167.20 0.03659
1167.30 0.03657
1167.40 0.03656
1167.50 0.03655
1167.60 0.03654
1167.70 0.03652
1167.80 0.03651
1167.90 0.0365
1168.00 0.03649
1168.10 0.03648
1168.20 0.03646
1168.30 0.03645
1168.40 0.03644
1168.50 0.03643
1168.60 0.03641
1168.70 0.0364
1168.80 0.03639
1168.90 0.03638
1169.00 0.03637
1169.10 0.03635
1169.20 0.03634
1169.30 0.03633
1169.40 0.03632
1169.50 0.03631
1169.60 0.03629
1169.70 0.03628
1169.80 0.03627
1169.90 0.03626
1170.00 0.03624
1170.10 0.03623
1170.20 0.03622
1170.30 0.03621
1170.40 0.0362
1170.50 0.03618
1170.60 0.03617
1170.70 0.03616
1170.80 0.03615
1170.90 0.03614
1171.00 0.03612
1171.10 0.03611
1171.20 0.0361
1171.30 0.03609
1171.40 0.03607
1171.50 0.03606
1171.60 0.03605
1171.70 0.03604
1171.80 0.03603
1171.90 0.03601
1172.00 0.036
1172.10 0.03599
1172.20 0.03598
1172.30 0.03597
1172.40 0.03595
1172.50 0.03594
1172.60 0.03593
1172.70 0.03592
1172.80 0.03591
1172.90 0.03589
1173.00 0.03588
1173.10 0.03587
1173.20 0.03586
1173.30 0.03585
1173.40 0.03583
1173.50 0.03582
1173.60 0.03581
1173.70 0.0358
1173.80 0.03579
1173.90 0.03577
1174.00 0.03576
1174.10 0.03575
1174.20 0.03574
1174.30 0.03573
1174.40 0.03571
1174.50 0.0357
1174.60 0.03569
1174.70 0.03568
1174.80 0.03567
1174.90 0.03565
1175.00 0.03564
1175.10 0.03563
1175.20 0.03562
1175.30 0.03561
1175.40 0.0356
1175.50 0.03558
1175.60 0.03557
1175.70 0.03556
1175.80 0.03555
1175.90 0.03554
1176.00 0.03552
1176.10 0.03551
1176.20 0.0355
1176.30 0.03549
1176.40 0.03548
1176.50 0.03546
1176.60 0.03545
1176.70 0.03544
1176.80 0.03543
1176.90 0.03542
1177.00 0.03541
1177.10 0.03539
1177.20 0.03538
1177.30 0.03537
1177.40 0.03536
1177.50 0.03535
1177.60 0.03533
1177.70 0.03532
1177.80 0.03531
1177.90 0.0353
1178.00 0.03529
1178.10 0.03528
1178.20 0.03526
1178.30 0.03525
1178.40 0.03524
1178.50 0.03523
1178.60 0.03522
1178.70 0.03521
1178.80 0.03519
1178.90 0.03518
1179.00 0.03517
1179.10 0.03516
1179.20 0.03515
1179.30 0.03514
1179.40 0.03512
1179.50 0.03511
1179.60 0.0351
1179.70 0.03509
1179.80 0.03508
1179.90 0.03507
1180.00 0.03505
1180.10 0.03504
1180.20 0.03503
1180.30 0.03502
1180.40 0.03501
1180.50 0.035
1180.60 0.03498
1180.70 0.03497
1180.80 0.03496
1180.90 0.03495
1181.00 0.03494
1181.10 0.03493
1181.20 0.03491
1181.30 0.0349
1181.40 0.03489
1181.50 0.03488
1181.60 0.03487
1181.70 0.03486
1181.80 0.03484
1181.90 0.03483
1182.00 0.03482
1182.10 0.03481
1182.20 0.0348
1182.30 0.03479
1182.40 0.03478
1182.50 0.03476
1182.60 0.03475
1182.70 0.03474
1182.80 0.03473
1182.90 0.03472
1183.00 0.03471
1183.10 0.03469
1183.20 0.03468
1183.30 0.03467
1183.40 0.03466
1183.50 0.03465
1183.60 0.03464
1183.70 0.03463
1183.80 0.03461
1183.90 0.0346
1184.00 0.03459
1184.10 0.03458
1184.20 0.03457
1184.30 0.03456
1184.40 0.03455
1184.50 0.03453
1184.60 0.03452
1184.70 0.03451
1184.80 0.0345
1184.90 0.03449
1185.00 0.03448
1185.10 0.03447
1185.20 0.03445
1185.30 0.03444
1185.40 0.03443
1185.50 0.03442
1185.60 0.03441
1185.70 0.0344
1185.80 0.03439
1185.90 0.03437
1186.00 0.03436
1186.10 0.03435
1186.20 0.03434
1186.30 0.03433
1186.40 0.03432
1186.50 0.03431
1186.60 0.03429
1186.70 0.03428
1186.80 0.03427
1186.90 0.03426
1187.00 0.03425
1187.10 0.03424
1187.20 0.03423
1187.30 0.03422
1187.40 0.0342
1187.50 0.03419
1187.60 0.03418
1187.70 0.03417
1187.80 0.03416
1187.90 0.03415
1188.00 0.03414
1188.10 0.03413
1188.20 0.03411
1188.30 0.0341
1188.40 0.03409
1188.50 0.03408
1188.60 0.03407
1188.70 0.03406
1188.80 0.03405
1188.90 0.03404
1189.00 0.03402
1189.10 0.03401
1189.20 0.034
1189.30 0.03399
1189.40 0.03398
1189.50 0.03397
1189.60 0.03396
1189.70 0.03395
1189.80 0.03393
1189.90 0.03392
1190.00 0.03391
1190.10 0.0339
1190.20 0.03389
1190.30 0.03388
1190.40 0.03387
1190.50 0.03386
1190.60 0.03385
1190.70 0.03383
1190.80 0.03382
1190.90 0.03381
1191.00 0.0338
1191.10 0.03379
1191.20 0.03378
1191.30 0.03377
1191.40 0.03376
1191.50 0.03374
1191.60 0.03373
1191.70 0.03372
1191.80 0.03371
1191.90 0.0337
1192.00 0.03369
1192.10 0.03368
1192.20 0.03367
1192.30 0.03366
1192.40 0.03364
1192.50 0.03363
1192.60 0.03362
1192.70 0.03361
1192.80 0.0336
1192.90 0.03359
1193.00 0.03358
1193.10 0.03357
1193.20 0.03356
1193.30 0.03355
1193.40 0.03353
1193.50 0.03352
1193.60 0.03351
1193.70 0.0335
1193.80 0.03349
1193.90 0.03348
1194.00 0.03347
1194.10 0.03346
1194.20 0.03345
1194.30 0.03344
1194.40 0.03342
1194.50 0.03341
1194.60 0.0334
1194.70 0.03339
1194.80 0.03338
1194.90 0.03337
1195.00 0.03336
1195.10 0.03335
1195.20 0.03334
1195.30 0.03333
1195.40 0.03331
1195.50 0.0333
1195.60 0.03329
1195.70 0.03328
1195.80 0.03327
1195.90 0.03326
1196.00 0.03325
1196.10 0.03324
1196.20 0.03323
1196.30 0.03322
1196.40 0.03321
1196.50 0.03319
1196.60 0.03318
1196.70 0.03317
1196.80 0.03316
1196.90 0.03315
1197.00 0.03314
1197.10 0.03313
1197.20 0.03312
1197.30 0.03311
1197.40 0.0331
1197.50 0.03309
1197.60 0.03307
1197.70 0.03306
1197.80 0.03305
1197.90 0.03304
1198.00 0.03303
1198.10 0.03302
1198.20 0.03301
1198.30 0.033
1198.40 0.03299
1198.50 0.03298
1198.60 0.03297
1198.70 0.03296
1198.80 0.03295
1198.90 0.03293
1199.00 0.03292
1199.10 0.03291
1199.20 0.0329
1199.30 0.03289
1199.40 0.03288
1199.50 0.03287
1199.60 0.03286
1199.70 0.03285
1199.80 0.03284
1199.90 0.03283
1200.00 0
