# Version 2.1 - nm, norm@500 to 1, cut digits, bergeron_13500_85.dat_13500
# Wavelength(nm)  Flambda(ergs/cm^s/s/nm)
300.00 2.208
300.10 2.207
300.20 2.205
300.30 2.203
300.40 2.202
300.50 2.2
300.60 2.199
300.70 2.197
300.80 2.196
300.90 2.194
301.00 2.193
301.10 2.191
301.20 2.189
301.30 2.188
301.40 2.186
301.50 2.185
301.60 2.183
301.70 2.182
301.80 2.18
301.90 2.179
302.00 2.177
302.10 2.176
302.20 2.174
302.30 2.173
302.40 2.171
302.50 2.17
302.60 2.168
302.70 2.167
302.80 2.165
302.90 2.163
303.00 2.162
303.10 2.16
303.20 2.159
303.30 2.157
303.40 2.156
303.50 2.154
303.60 2.153
303.70 2.151
303.80 2.15
303.90 2.148
304.00 2.147
304.10 2.145
304.20 2.144
304.30 2.142
304.40 2.141
304.50 2.139
304.60 2.138
304.70 2.136
304.80 2.135
304.90 2.133
305.00 2.132
305.10 2.13
305.20 2.129
305.30 2.127
305.40 2.126
305.50 2.124
305.60 2.123
305.70 2.121
305.80 2.12
305.90 2.119
306.00 2.117
306.10 2.116
306.20 2.114
306.30 2.113
306.40 2.111
306.50 2.11
306.60 2.108
306.70 2.107
306.80 2.105
306.90 2.104
307.00 2.102
307.10 2.101
307.20 2.099
307.30 2.098
307.40 2.096
307.50 2.095
307.60 2.094
307.70 2.092
307.80 2.091
307.90 2.089
308.00 2.088
308.10 2.086
308.20 2.085
308.30 2.083
308.40 2.082
308.50 2.08
308.60 2.079
308.70 2.078
308.80 2.076
308.90 2.075
309.00 2.073
309.10 2.072
309.20 2.07
309.30 2.069
309.40 2.068
309.50 2.066
309.60 2.065
309.70 2.063
309.80 2.062
309.90 2.06
310.00 2.059
310.10 2.058
310.20 2.056
310.30 2.055
310.40 2.053
310.50 2.052
310.60 2.05
310.70 2.049
310.80 2.048
310.90 2.046
311.00 2.045
311.10 2.043
311.20 2.042
311.30 2.04
311.40 2.039
311.50 2.038
311.60 2.036
311.70 2.035
311.80 2.033
311.90 2.032
312.00 2.031
312.10 2.029
312.20 2.028
312.30 2.026
312.40 2.025
312.50 2.024
312.60 2.022
312.70 2.021
312.80 2.019
312.90 2.018
313.00 2.017
313.10 2.015
313.20 2.014
313.30 2.012
313.40 2.011
313.50 2.01
313.60 2.008
313.70 2.007
313.80 2.006
313.90 2.004
314.00 2.003
314.10 2.001
314.20 2
314.30 1.999
314.40 1.997
314.50 1.996
314.60 1.995
314.70 1.993
314.80 1.992
314.90 1.99
315.00 1.989
315.10 1.988
315.20 1.986
315.30 1.985
315.40 1.984
315.50 1.982
315.60 1.981
315.70 1.98
315.80 1.978
315.90 1.977
316.00 1.975
316.10 1.974
316.20 1.973
316.30 1.971
316.40 1.97
316.50 1.969
316.60 1.967
316.70 1.966
316.80 1.965
316.90 1.963
317.00 1.962
317.10 1.961
317.20 1.959
317.30 1.958
317.40 1.957
317.50 1.955
317.60 1.954
317.70 1.953
317.80 1.951
317.90 1.95
318.00 1.949
318.10 1.947
318.20 1.946
318.30 1.945
318.40 1.943
318.50 1.942
318.60 1.941
318.70 1.939
318.80 1.938
318.90 1.937
319.00 1.935
319.10 1.934
319.20 1.933
319.30 1.931
319.40 1.93
319.50 1.929
319.60 1.927
319.70 1.926
319.80 1.925
319.90 1.923
320.00 1.922
320.10 1.921
320.20 1.92
320.30 1.918
320.40 1.917
320.50 1.916
320.60 1.914
320.70 1.913
320.80 1.912
320.90 1.91
321.00 1.909
321.10 1.908
321.20 1.906
321.30 1.905
321.40 1.904
321.50 1.903
321.60 1.901
321.70 1.9
321.80 1.899
321.90 1.897
322.00 1.896
322.10 1.895
322.20 1.894
322.30 1.892
322.40 1.891
322.50 1.89
322.60 1.888
322.70 1.887
322.80 1.886
322.90 1.885
323.00 1.883
323.10 1.882
323.20 1.881
323.30 1.879
323.40 1.878
323.50 1.877
323.60 1.876
323.70 1.874
323.80 1.873
323.90 1.872
324.00 1.871
324.10 1.869
324.20 1.868
324.30 1.867
324.40 1.866
324.50 1.864
324.60 1.863
324.70 1.862
324.80 1.86
324.90 1.859
325.00 1.858
325.10 1.857
325.20 1.855
325.30 1.854
325.40 1.853
325.50 1.852
325.60 1.85
325.70 1.849
325.80 1.848
325.90 1.847
326.00 1.845
326.10 1.844
326.20 1.843
326.30 1.842
326.40 1.84
326.50 1.839
326.60 1.838
326.70 1.837
326.80 1.836
326.90 1.834
327.00 1.833
327.10 1.832
327.20 1.831
327.30 1.829
327.40 1.828
327.50 1.827
327.60 1.826
327.70 1.824
327.80 1.823
327.90 1.822
328.00 1.821
328.10 1.82
328.20 1.818
328.30 1.817
328.40 1.816
328.50 1.815
328.60 1.813
328.70 1.812
328.80 1.811
328.90 1.81
329.00 1.809
329.10 1.807
329.20 1.806
329.30 1.805
329.40 1.804
329.50 1.802
329.60 1.801
329.70 1.8
329.80 1.799
329.90 1.798
330.00 1.796
330.10 1.795
330.20 1.794
330.30 1.793
330.40 1.792
330.50 1.79
330.60 1.789
330.70 1.788
330.80 1.787
330.90 1.786
331.00 1.784
331.10 1.783
331.20 1.782
331.30 1.781
331.40 1.78
331.50 1.778
331.60 1.777
331.70 1.776
331.80 1.775
331.90 1.774
332.00 1.773
332.10 1.771
332.20 1.77
332.30 1.769
332.40 1.768
332.50 1.767
332.60 1.765
332.70 1.764
332.80 1.763
332.90 1.762
333.00 1.761
333.10 1.76
333.20 1.758
333.30 1.757
333.40 1.756
333.50 1.755
333.60 1.754
333.70 1.752
333.80 1.751
333.90 1.75
334.00 1.749
334.10 1.748
334.20 1.747
334.30 1.745
334.40 1.744
334.50 1.743
334.60 1.742
334.70 1.741
334.80 1.74
334.90 1.739
335.00 1.737
335.10 1.736
335.20 1.735
335.30 1.734
335.40 1.733
335.50 1.732
335.60 1.73
335.70 1.729
335.80 1.728
335.90 1.727
336.00 1.726
336.10 1.725
336.20 1.724
336.30 1.722
336.40 1.721
336.50 1.72
336.60 1.719
336.70 1.718
336.80 1.717
336.90 1.716
337.00 1.714
337.10 1.713
337.20 1.712
337.30 1.711
337.40 1.71
337.50 1.709
337.60 1.708
337.70 1.706
337.80 1.705
337.90 1.704
338.00 1.703
338.10 1.702
338.20 1.701
338.30 1.7
338.40 1.699
338.50 1.697
338.60 1.696
338.70 1.695
338.80 1.694
338.90 1.693
339.00 1.692
339.10 1.691
339.20 1.69
339.30 1.689
339.40 1.687
339.50 1.686
339.60 1.685
339.70 1.684
339.80 1.683
339.90 1.682
340.00 1.681
340.10 1.68
340.20 1.678
340.30 1.677
340.40 1.676
340.50 1.675
340.60 1.674
340.70 1.673
340.80 1.672
340.90 1.671
341.00 1.67
341.10 1.669
341.20 1.667
341.30 1.666
341.40 1.665
341.50 1.664
341.60 1.663
341.70 1.662
341.80 1.661
341.90 1.66
342.00 1.659
342.10 1.658
342.20 1.656
342.30 1.655
342.40 1.654
342.50 1.653
342.60 1.652
342.70 1.651
342.80 1.65
342.90 1.649
343.00 1.648
343.10 1.647
343.20 1.646
343.30 1.645
343.40 1.643
343.50 1.642
343.60 1.641
343.70 1.64
343.80 1.639
343.90 1.638
344.00 1.637
344.10 1.636
344.20 1.635
344.30 1.634
344.40 1.633
344.50 1.632
344.60 1.631
344.70 1.63
344.80 1.628
344.90 1.627
345.00 1.626
345.10 1.625
345.20 1.624
345.30 1.623
345.40 1.622
345.50 1.621
345.60 1.62
345.70 1.619
345.80 1.618
345.90 1.617
346.00 1.616
346.10 1.615
346.20 1.614
346.30 1.613
346.40 1.611
346.50 1.61
346.60 1.609
346.70 1.608
346.80 1.607
346.90 1.606
347.00 1.605
347.10 1.604
347.20 1.603
347.30 1.602
347.40 1.601
347.50 1.6
347.60 1.599
347.70 1.598
347.80 1.597
347.90 1.596
348.00 1.595
348.10 1.594
348.20 1.593
348.30 1.592
348.40 1.591
348.50 1.59
348.60 1.588
348.70 1.587
348.80 1.586
348.90 1.585
349.00 1.584
349.10 1.583
349.20 1.582
349.30 1.581
349.40 1.58
349.50 1.579
349.60 1.578
349.70 1.577
349.80 1.576
349.90 1.575
350.00 1.574
350.10 1.573
350.20 1.572
350.30 1.571
350.40 1.57
350.50 1.569
350.60 1.568
350.70 1.567
350.80 1.566
350.90 1.565
351.00 1.564
351.10 1.563
351.20 1.562
351.30 1.561
351.40 1.56
351.50 1.559
351.60 1.558
351.70 1.557
351.80 1.556
351.90 1.555
352.00 1.554
352.10 1.553
352.20 1.552
352.30 1.551
352.40 1.55
352.50 1.549
352.60 1.548
352.70 1.547
352.80 1.546
352.90 1.545
353.00 1.544
353.10 1.543
353.20 1.542
353.30 1.541
353.40 1.54
353.50 1.539
353.60 1.538
353.70 1.537
353.80 1.536
353.90 1.535
354.00 1.534
354.10 1.533
354.20 1.532
354.30 1.531
354.40 1.53
354.50 1.529
354.60 1.528
354.70 1.527
354.80 1.526
354.90 1.525
355.00 1.524
355.10 1.523
355.20 1.522
355.30 1.521
355.40 1.52
355.50 1.519
355.60 1.518
355.70 1.517
355.80 1.516
355.90 1.515
356.00 1.514
356.10 1.513
356.20 1.512
356.30 1.511
356.40 1.51
356.50 1.509
356.60 1.508
356.70 1.507
356.80 1.506
356.90 1.505
357.00 1.504
357.10 1.503
357.20 1.502
357.30 1.501
357.40 1.501
357.50 1.5
357.60 1.499
357.70 1.498
357.80 1.497
357.90 1.496
358.00 1.495
358.10 1.494
358.20 1.493
358.30 1.492
358.40 1.491
358.50 1.49
358.60 1.489
358.70 1.488
358.80 1.487
358.90 1.486
359.00 1.485
359.10 1.484
359.20 1.483
359.30 1.482
359.40 1.481
359.50 1.48
359.60 1.479
359.70 1.479
359.80 1.478
359.90 1.477
360.00 1.476
360.10 1.475
360.20 1.474
360.30 1.473
360.40 1.472
360.50 1.471
360.60 1.47
360.70 1.469
360.80 1.468
360.90 1.467
361.00 1.466
361.10 1.465
361.20 1.464
361.30 1.463
361.40 1.463
361.50 1.462
361.60 1.461
361.70 1.46
361.80 1.459
361.90 1.458
362.00 1.457
362.10 1.456
362.20 1.455
362.30 1.454
362.40 1.453
362.50 1.452
362.60 1.451
362.70 1.45
362.80 1.449
362.90 1.449
363.00 1.448
363.10 1.447
363.20 1.446
363.30 1.444
363.40 1.443
363.50 1.442
363.60 1.441
363.70 1.44
363.80 1.439
363.90 1.438
364.00 1.437
364.10 1.436
364.20 1.435
364.30 1.434
364.40 1.433
364.50 1.432
364.60 1.431
364.70 1.43
364.80 1.429
364.90 1.428
365.00 1.426
365.10 1.425
365.20 1.424
365.30 1.423
365.40 1.422
365.50 1.421
365.60 1.42
365.70 1.419
365.80 1.418
365.90 1.417
366.00 1.416
366.10 1.415
366.20 1.414
366.30 1.413
366.40 1.412
366.50 1.411
366.60 1.41
366.70 1.409
366.80 1.408
366.90 1.407
367.00 1.406
367.10 1.405
367.20 1.404
367.30 1.403
367.40 1.402
367.50 1.401
367.60 1.401
367.70 1.4
367.80 1.399
367.90 1.398
368.00 1.397
368.10 1.396
368.20 1.395
368.30 1.394
368.40 1.393
368.50 1.392
368.60 1.391
368.70 1.391
368.80 1.39
368.90 1.389
369.00 1.388
369.10 1.387
369.20 1.386
369.30 1.385
369.40 1.384
369.50 1.384
369.60 1.383
369.70 1.382
369.80 1.381
369.90 1.38
370.00 1.379
370.10 1.379
370.20 1.378
370.30 1.377
370.40 1.377
370.50 1.376
370.60 1.375
370.70 1.375
370.80 1.374
370.90 1.373
371.00 1.373
371.10 1.372
371.20 1.372
371.30 1.371
371.40 1.37
371.50 1.37
371.60 1.369
371.70 1.368
371.80 1.368
371.90 1.367
372.00 1.367
372.10 1.366
372.20 1.366
372.30 1.366
372.40 1.366
372.50 1.366
372.60 1.365
372.70 1.365
372.80 1.365
372.90 1.365
373.00 1.365
373.10 1.365
373.20 1.364
373.30 1.364
373.40 1.364
373.50 1.364
373.60 1.364
373.70 1.363
373.80 1.363
373.90 1.363
374.00 1.363
374.10 1.363
374.20 1.363
374.30 1.363
374.40 1.364
374.50 1.364
374.60 1.364
374.70 1.364
374.80 1.364
374.90 1.364
375.00 1.364
375.10 1.364
375.20 1.365
375.30 1.365
375.40 1.365
375.50 1.365
375.60 1.365
375.70 1.365
375.80 1.365
375.90 1.366
376.00 1.366
376.10 1.366
376.20 1.366
376.30 1.366
376.40 1.365
376.50 1.365
376.60 1.365
376.70 1.365
376.80 1.365
376.90 1.365
377.00 1.365
377.10 1.364
377.20 1.364
377.30 1.363
377.40 1.362
377.50 1.361
377.60 1.36
377.70 1.36
377.80 1.359
377.90 1.358
378.00 1.357
378.10 1.354
378.20 1.351
378.30 1.348
378.40 1.345
378.50 1.342
378.60 1.339
378.70 1.336
378.80 1.333
378.90 1.33
379.00 1.327
379.10 1.325
379.20 1.323
379.30 1.321
379.40 1.319
379.50 1.316
379.60 1.314
379.70 1.312
379.80 1.31
379.90 1.308
380.00 1.306
380.10 1.309
380.20 1.312
380.30 1.314
380.40 1.317
380.50 1.32
380.60 1.322
380.70 1.325
380.80 1.328
380.90 1.33
381.00 1.333
381.10 1.334
381.20 1.334
381.30 1.335
381.40 1.336
381.50 1.336
381.60 1.336
381.70 1.334
381.80 1.332
381.90 1.33
382.00 1.327
382.10 1.324
382.20 1.32
382.30 1.312
382.40 1.305
382.50 1.297
382.60 1.29
382.70 1.282
382.80 1.274
382.90 1.267
383.00 1.259
383.10 1.252
383.20 1.244
383.30 1.24
383.40 1.234
383.50 1.227
383.60 1.229
383.70 1.235
383.80 1.242
383.90 1.247
384.00 1.254
384.10 1.263
384.20 1.273
384.30 1.283
384.40 1.292
384.50 1.3
384.60 1.308
384.70 1.315
384.80 1.321
384.90 1.326
385.00 1.33
385.10 1.333
385.20 1.336
385.30 1.339
385.40 1.34
385.50 1.342
385.60 1.343
385.70 1.343
385.80 1.343
385.90 1.342
386.00 1.341
386.10 1.34
386.20 1.338
386.30 1.335
386.40 1.332
386.50 1.329
386.60 1.325
386.70 1.321
386.80 1.316
386.90 1.311
387.00 1.305
387.10 1.299
387.20 1.292
387.30 1.285
387.40 1.277
387.50 1.268
387.60 1.258
387.70 1.248
387.80 1.236
387.90 1.224
388.00 1.211
388.10 1.195
388.20 1.178
388.30 1.159
388.40 1.14
388.50 1.122
388.60 1.107
388.70 1.096
388.80 1.086
388.90 1.078
389.00 1.086
389.10 1.095
389.20 1.106
389.30 1.121
389.40 1.139
389.50 1.159
389.60 1.178
389.70 1.196
389.80 1.212
389.90 1.226
390.00 1.239
390.10 1.252
390.20 1.263
390.30 1.274
390.40 1.285
390.50 1.294
390.60 1.302
390.70 1.31
390.80 1.318
390.90 1.325
391.00 1.331
391.10 1.338
391.20 1.343
391.30 1.349
391.40 1.354
391.50 1.358
391.60 1.363
391.70 1.366
391.80 1.37
391.90 1.373
392.00 1.375
392.10 1.377
392.20 1.378
392.30 1.379
392.40 1.38
392.50 1.38
392.60 1.38
392.70 1.379
392.80 1.378
392.90 1.376
393.00 1.374
393.10 1.371
393.20 1.368
393.30 1.364
393.40 1.36
393.50 1.355
393.60 1.35
393.70 1.345
393.80 1.339
393.90 1.332
394.00 1.325
394.10 1.317
394.20 1.309
394.30 1.3
394.40 1.291
394.50 1.281
394.60 1.271
394.70 1.26
394.80 1.249
394.90 1.238
395.00 1.226
395.10 1.214
395.20 1.201
395.30 1.188
395.40 1.174
395.50 1.159
395.60 1.143
395.70 1.127
395.80 1.11
395.90 1.093
396.00 1.075
396.10 1.057
396.20 1.037
396.30 1.014
396.40 0.9895
396.50 0.9608
396.60 0.9316
396.70 0.902
396.80 0.8797
396.90 0.8572
397.00 0.8345
397.10 0.8552
397.20 0.8759
397.30 0.8968
397.40 0.9256
397.50 0.9542
397.60 0.9827
397.70 1.007
397.80 1.03
397.90 1.05
398.00 1.068
398.10 1.085
398.20 1.102
398.30 1.119
398.40 1.135
398.50 1.151
398.60 1.166
398.70 1.18
398.80 1.194
398.90 1.207
399.00 1.22
399.10 1.232
399.20 1.244
399.30 1.256
399.40 1.268
399.50 1.279
399.60 1.29
399.70 1.301
399.80 1.311
399.90 1.321
400.00 1.33
400.10 1.339
400.20 1.348
400.30 1.357
400.40 1.364
400.50 1.372
400.60 1.38
400.70 1.386
400.80 1.393
400.90 1.399
401.00 1.405
401.10 1.411
401.20 1.417
401.30 1.422
401.40 1.426
401.50 1.431
401.60 1.435
401.70 1.439
401.80 1.443
401.90 1.446
402.00 1.449
402.10 1.452
402.20 1.454
402.30 1.457
402.40 1.459
402.50 1.46
402.60 1.462
402.70 1.463
402.80 1.464
402.90 1.464
403.00 1.465
403.10 1.465
403.20 1.465
403.30 1.464
403.40 1.463
403.50 1.462
403.60 1.461
403.70 1.459
403.80 1.457
403.90 1.455
404.00 1.453
404.10 1.45
404.20 1.447
404.30 1.444
404.40 1.44
404.50 1.437
404.60 1.432
404.70 1.428
404.80 1.423
404.90 1.418
405.00 1.413
405.10 1.408
405.20 1.402
405.30 1.396
405.40 1.39
405.50 1.383
405.60 1.376
405.70 1.369
405.80 1.361
405.90 1.353
406.00 1.345
406.10 1.336
406.20 1.328
406.30 1.319
406.40 1.309
406.50 1.299
406.60 1.289
406.70 1.279
406.80 1.268
406.90 1.257
407.00 1.246
407.10 1.234
407.20 1.222
407.30 1.209
407.40 1.196
407.50 1.183
407.60 1.169
407.70 1.156
407.80 1.141
407.90 1.127
408.00 1.112
408.10 1.097
408.20 1.081
408.30 1.065
408.40 1.049
408.50 1.032
408.60 1.015
408.70 0.9977
408.80 0.9797
408.90 0.9614
409.00 0.943
409.10 0.9243
409.20 0.9053
409.30 0.8861
409.40 0.8654
409.50 0.8432
409.60 0.8196
409.70 0.7921
409.80 0.7632
409.90 0.7329
410.00 0.7044
410.10 0.6815
410.20 0.6643
410.30 0.6909
410.40 0.7187
410.50 0.7475
410.60 0.7766
410.70 0.8038
410.80 0.8291
410.90 0.8507
411.00 0.871
411.10 0.8902
411.20 0.9083
411.30 0.9262
411.40 0.9439
411.50 0.9612
411.60 0.9783
411.70 0.9951
411.80 1.011
411.90 1.027
412.00 1.043
412.10 1.058
412.20 1.072
412.30 1.087
412.40 1.1
412.50 1.114
412.60 1.128
412.70 1.141
412.80 1.153
412.90 1.166
413.00 1.178
413.10 1.19
413.20 1.201
413.30 1.213
413.40 1.223
413.50 1.234
413.60 1.244
413.70 1.254
413.80 1.264
413.90 1.273
414.00 1.282
414.10 1.291
414.20 1.3
414.30 1.308
414.40 1.316
414.50 1.324
414.60 1.332
414.70 1.34
414.80 1.347
414.90 1.354
415.00 1.361
415.10 1.368
415.20 1.374
415.30 1.381
415.40 1.387
415.50 1.393
415.60 1.399
415.70 1.405
415.80 1.41
415.90 1.415
416.00 1.421
416.10 1.426
416.20 1.431
416.30 1.435
416.40 1.44
416.50 1.444
416.60 1.449
416.70 1.453
416.80 1.457
416.90 1.461
417.00 1.464
417.10 1.468
417.20 1.471
417.30 1.475
417.40 1.478
417.50 1.481
417.60 1.484
417.70 1.487
417.80 1.49
417.90 1.492
418.00 1.495
418.10 1.497
418.20 1.5
418.30 1.502
418.40 1.504
418.50 1.506
418.60 1.508
418.70 1.51
418.80 1.512
418.90 1.513
419.00 1.515
419.10 1.516
419.20 1.517
419.30 1.519
419.40 1.52
419.50 1.521
419.60 1.522
419.70 1.523
419.80 1.524
419.90 1.524
420.00 1.525
420.10 1.526
420.20 1.526
420.30 1.526
420.40 1.527
420.50 1.527
420.60 1.527
420.70 1.527
420.80 1.527
420.90 1.527
421.00 1.527
421.10 1.527
421.20 1.526
421.30 1.526
421.40 1.526
421.50 1.525
421.60 1.524
421.70 1.524
421.80 1.523
421.90 1.522
422.00 1.521
422.10 1.52
422.20 1.519
422.30 1.518
422.40 1.517
422.50 1.516
422.60 1.514
422.70 1.513
422.80 1.511
422.90 1.51
423.00 1.508
423.10 1.506
423.20 1.505
423.30 1.503
423.40 1.501
423.50 1.499
423.60 1.497
423.70 1.494
423.80 1.492
423.90 1.49
424.00 1.487
424.10 1.485
424.20 1.482
424.30 1.48
424.40 1.477
424.50 1.474
424.60 1.471
424.70 1.468
424.80 1.465
424.90 1.462
425.00 1.459
425.10 1.456
425.20 1.452
425.30 1.449
425.40 1.445
425.50 1.442
425.60 1.438
425.70 1.434
425.80 1.43
425.90 1.426
426.00 1.422
426.10 1.418
426.20 1.413
426.30 1.408
426.40 1.403
426.50 1.399
426.60 1.394
426.70 1.389
426.80 1.384
426.90 1.38
427.00 1.374
427.10 1.369
427.20 1.364
427.30 1.358
427.40 1.353
427.50 1.347
427.60 1.342
427.70 1.336
427.80 1.33
427.90 1.324
428.00 1.317
428.10 1.311
428.20 1.304
428.30 1.298
428.40 1.291
428.50 1.284
428.60 1.277
428.70 1.27
428.80 1.263
428.90 1.255
429.00 1.248
429.10 1.24
429.20 1.232
429.30 1.224
429.40 1.216
429.50 1.207
429.60 1.199
429.70 1.19
429.80 1.181
429.90 1.172
430.00 1.163
430.10 1.154
430.20 1.144
430.30 1.135
430.40 1.125
430.50 1.114
430.60 1.104
430.70 1.094
430.80 1.083
430.90 1.072
431.00 1.061
431.10 1.049
431.20 1.038
431.30 1.026
431.40 1.014
431.50 1.002
431.60 0.989
431.70 0.9762
431.80 0.9632
431.90 0.9497
432.00 0.936
432.10 0.9221
432.20 0.9076
432.30 0.8927
432.40 0.8776
432.50 0.8616
432.60 0.8452
432.70 0.8285
432.80 0.8112
432.90 0.794
433.00 0.7768
433.10 0.7603
433.20 0.7438
433.30 0.7276
433.40 0.7105
433.50 0.6921
433.60 0.6723
433.70 0.6467
433.80 0.6173
433.90 0.5842
434.00 0.5357
434.10 0.5365
434.20 0.5866
434.30 0.6187
434.40 0.6471
434.50 0.6717
434.60 0.6907
434.70 0.7083
434.80 0.7247
434.90 0.7402
435.00 0.7558
435.10 0.7717
435.20 0.788
435.30 0.8043
435.40 0.8206
435.50 0.8364
435.60 0.8517
435.70 0.8665
435.80 0.8806
435.90 0.8943
436.00 0.9077
436.10 0.9205
436.20 0.933
436.30 0.9452
436.40 0.957
436.50 0.9685
436.60 0.9798
436.70 0.9908
436.80 1.001
436.90 1.012
437.00 1.022
437.10 1.032
437.20 1.042
437.30 1.051
437.40 1.061
437.50 1.07
437.60 1.079
437.70 1.087
437.80 1.096
437.90 1.104
438.00 1.112
438.10 1.12
438.20 1.127
438.30 1.135
438.40 1.142
438.50 1.149
438.60 1.156
438.70 1.163
438.80 1.17
438.90 1.176
439.00 1.183
439.10 1.189
439.20 1.195
439.30 1.201
439.40 1.206
439.50 1.212
439.60 1.217
439.70 1.223
439.80 1.228
439.90 1.233
440.00 1.238
440.10 1.243
440.20 1.247
440.30 1.252
440.40 1.256
440.50 1.261
440.60 1.265
440.70 1.269
440.80 1.273
440.90 1.277
441.00 1.281
441.10 1.285
441.20 1.288
441.30 1.292
441.40 1.295
441.50 1.299
441.60 1.302
441.70 1.305
441.80 1.308
441.90 1.311
442.00 1.314
442.10 1.317
442.20 1.32
442.30 1.322
442.40 1.325
442.50 1.327
442.60 1.33
442.70 1.332
442.80 1.335
442.90 1.337
443.00 1.339
443.10 1.341
443.20 1.343
443.30 1.345
443.40 1.347
443.50 1.349
443.60 1.351
443.70 1.353
443.80 1.355
443.90 1.356
444.00 1.358
444.10 1.359
444.20 1.361
444.30 1.362
444.40 1.364
444.50 1.365
444.60 1.366
444.70 1.368
444.80 1.369
444.90 1.37
445.00 1.371
445.10 1.372
445.20 1.373
445.30 1.374
445.40 1.375
445.50 1.376
445.60 1.377
445.70 1.378
445.80 1.379
445.90 1.38
446.00 1.381
446.10 1.381
446.20 1.382
446.30 1.383
446.40 1.383
446.50 1.384
446.60 1.384
446.70 1.385
446.80 1.386
446.90 1.386
447.00 1.386
447.10 1.387
447.20 1.387
447.30 1.388
447.40 1.388
447.50 1.388
447.60 1.389
447.70 1.389
447.80 1.389
447.90 1.389
448.00 1.39
448.10 1.39
448.20 1.39
448.30 1.39
448.40 1.39
448.50 1.39
448.60 1.39
448.70 1.39
448.80 1.39
448.90 1.39
449.00 1.391
449.10 1.391
449.20 1.391
449.30 1.391
449.40 1.391
449.50 1.39
449.60 1.39
449.70 1.39
449.80 1.39
449.90 1.39
450.00 1.39
450.10 1.39
450.20 1.389
450.30 1.389
450.40 1.389
450.50 1.389
450.60 1.388
450.70 1.388
450.80 1.388
450.90 1.388
451.00 1.387
451.10 1.387
451.20 1.387
451.30 1.386
451.40 1.386
451.50 1.386
451.60 1.385
451.70 1.385
451.80 1.384
451.90 1.384
452.00 1.384
452.10 1.383
452.20 1.383
452.30 1.382
452.40 1.382
452.50 1.381
452.60 1.381
452.70 1.38
452.80 1.38
452.90 1.379
453.00 1.379
453.10 1.378
453.20 1.378
453.30 1.377
453.40 1.377
453.50 1.376
453.60 1.376
453.70 1.375
453.80 1.374
453.90 1.374
454.00 1.373
454.10 1.373
454.20 1.372
454.30 1.371
454.40 1.371
454.50 1.37
454.60 1.37
454.70 1.369
454.80 1.368
454.90 1.368
455.00 1.367
455.10 1.366
455.20 1.366
455.30 1.365
455.40 1.364
455.50 1.364
455.60 1.363
455.70 1.362
455.80 1.361
455.90 1.361
456.00 1.36
456.10 1.359
456.20 1.358
456.30 1.358
456.40 1.357
456.50 1.356
456.60 1.356
456.70 1.355
456.80 1.354
456.90 1.354
457.00 1.353
457.10 1.352
457.20 1.351
457.30 1.351
457.40 1.35
457.50 1.349
457.60 1.348
457.70 1.348
457.80 1.347
457.90 1.346
458.00 1.345
458.10 1.344
458.20 1.343
458.30 1.343
458.40 1.342
458.50 1.341
458.60 1.34
458.70 1.339
458.80 1.338
458.90 1.337
459.00 1.337
459.10 1.336
459.20 1.335
459.30 1.334
459.40 1.333
459.50 1.332
459.60 1.331
459.70 1.33
459.80 1.329
459.90 1.328
460.00 1.328
460.10 1.327
460.20 1.326
460.30 1.325
460.40 1.324
460.50 1.323
460.60 1.322
460.70 1.321
460.80 1.32
460.90 1.319
461.00 1.318
461.10 1.317
461.20 1.316
461.30 1.315
461.40 1.314
461.50 1.313
461.60 1.312
461.70 1.311
461.80 1.31
461.90 1.309
462.00 1.308
462.10 1.307
462.20 1.306
462.30 1.305
462.40 1.304
462.50 1.303
462.60 1.302
462.70 1.301
462.80 1.3
462.90 1.299
463.00 1.298
463.10 1.297
463.20 1.296
463.30 1.295
463.40 1.294
463.50 1.293
463.60 1.292
463.70 1.29
463.80 1.289
463.90 1.288
464.00 1.287
464.10 1.286
464.20 1.285
464.30 1.284
464.40 1.283
464.50 1.282
464.60 1.28
464.70 1.279
464.80 1.278
464.90 1.277
465.00 1.276
465.10 1.275
465.20 1.274
465.30 1.272
465.40 1.271
465.50 1.27
465.60 1.269
465.70 1.268
465.80 1.266
465.90 1.265
466.00 1.264
466.10 1.263
466.20 1.262
466.30 1.26
466.40 1.259
466.50 1.258
466.60 1.257
466.70 1.255
466.80 1.254
466.90 1.253
467.00 1.252
467.10 1.25
467.20 1.249
467.30 1.248
467.40 1.246
467.50 1.245
467.60 1.244
467.70 1.242
467.80 1.241
467.90 1.24
468.00 1.238
468.10 1.237
468.20 1.236
468.30 1.234
468.40 1.233
468.50 1.231
468.60 1.23
468.70 1.228
468.80 1.227
468.90 1.226
469.00 1.224
469.10 1.223
469.20 1.221
469.30 1.22
469.40 1.218
469.50 1.217
469.60 1.215
469.70 1.214
469.80 1.212
469.90 1.211
470.00 1.209
470.10 1.208
470.20 1.206
470.30 1.205
470.40 1.203
470.50 1.201
470.60 1.2
470.70 1.198
470.80 1.197
470.90 1.195
471.00 1.194
471.10 1.192
471.20 1.19
471.30 1.189
471.40 1.187
471.50 1.185
471.60 1.183
471.70 1.182
471.80 1.18
471.90 1.178
472.00 1.176
472.10 1.175
472.20 1.173
472.30 1.171
472.40 1.169
472.50 1.167
472.60 1.165
472.70 1.163
472.80 1.161
472.90 1.16
473.00 1.158
473.10 1.156
473.20 1.154
473.30 1.152
473.40 1.149
473.50 1.147
473.60 1.145
473.70 1.143
473.80 1.141
473.90 1.139
474.00 1.137
474.10 1.135
474.20 1.133
474.30 1.13
474.40 1.128
474.50 1.126
474.60 1.123
474.70 1.121
474.80 1.119
474.90 1.116
475.00 1.114
475.10 1.112
475.20 1.109
475.30 1.107
475.40 1.104
475.50 1.102
475.60 1.099
475.70 1.096
475.80 1.094
475.90 1.091
476.00 1.089
476.10 1.086
476.20 1.083
476.30 1.08
476.40 1.078
476.50 1.075
476.60 1.072
476.70 1.069
476.80 1.066
476.90 1.063
477.00 1.06
477.10 1.057
477.20 1.054
477.30 1.051
477.40 1.048
477.50 1.045
477.60 1.041
477.70 1.038
477.80 1.035
477.90 1.032
478.00 1.028
478.10 1.025
478.20 1.022
478.30 1.018
478.40 1.014
478.50 1.01
478.60 1.007
478.70 1.003
478.80 0.9994
478.90 0.9957
479.00 0.992
479.10 0.9883
479.20 0.9842
479.30 0.98
479.40 0.9758
479.50 0.9716
479.60 0.9674
479.70 0.9632
479.80 0.959
479.90 0.9548
480.00 0.9506
480.10 0.9464
480.20 0.9417
480.30 0.9369
480.40 0.932
480.50 0.9272
480.60 0.9223
480.70 0.9175
480.80 0.9127
480.90 0.9078
481.00 0.903
481.10 0.8982
481.20 0.8928
481.30 0.8871
481.40 0.8814
481.50 0.8757
481.60 0.87
481.70 0.8643
481.80 0.8587
481.90 0.853
482.00 0.8473
482.10 0.8417
482.20 0.8353
482.30 0.8285
482.40 0.8217
482.50 0.8149
482.60 0.8082
482.70 0.8014
482.80 0.7947
482.90 0.7879
483.00 0.7812
483.10 0.7745
483.20 0.7666
483.30 0.7581
483.40 0.7497
483.50 0.7413
483.60 0.7329
483.70 0.7245
483.80 0.7161
483.90 0.7077
484.00 0.6994
484.10 0.691
484.20 0.6815
484.30 0.6715
484.40 0.6615
484.50 0.6515
484.60 0.6415
484.70 0.6309
484.80 0.62
484.90 0.6092
485.00 0.5984
485.10 0.5875
485.20 0.5768
485.30 0.566
485.40 0.5551
485.50 0.544
485.60 0.5318
485.70 0.5192
485.80 0.502
485.90 0.4828
486.00 0.4533
486.10 0.392
486.20 0.4158
486.30 0.4655
486.40 0.488
486.50 0.5072
486.60 0.5216
486.70 0.5338
486.80 0.5448
486.90 0.5554
487.00 0.5657
487.10 0.5759
487.20 0.5861
487.30 0.5963
487.40 0.6065
487.50 0.6166
487.60 0.6268
487.70 0.6364
487.80 0.6456
487.90 0.6549
488.00 0.6641
488.10 0.6733
488.20 0.6814
488.30 0.6889
488.40 0.6964
488.50 0.7039
488.60 0.7115
488.70 0.7189
488.80 0.7264
488.90 0.7339
489.00 0.7414
489.10 0.7489
489.20 0.7552
489.30 0.7609
489.40 0.7666
489.50 0.7724
489.60 0.7781
489.70 0.7838
489.80 0.7895
489.90 0.7952
490.00 0.8009
490.10 0.8066
490.20 0.8115
490.30 0.816
490.40 0.8205
490.50 0.8251
490.60 0.8296
490.70 0.8341
490.80 0.8386
490.90 0.8431
491.00 0.8476
491.10 0.8521
491.20 0.856
491.30 0.8596
491.40 0.8631
491.50 0.8667
491.60 0.8703
491.70 0.8739
491.80 0.8775
491.90 0.8811
492.00 0.8846
492.10 0.8882
492.20 0.8913
492.30 0.8942
492.40 0.897
492.50 0.8999
492.60 0.9028
492.70 0.9056
492.80 0.9085
492.90 0.9114
493.00 0.9142
493.10 0.9171
493.20 0.9196
493.30 0.9219
493.40 0.9242
493.50 0.9265
493.60 0.9289
493.70 0.9312
493.80 0.9335
493.90 0.9358
494.00 0.9381
494.10 0.9404
494.20 0.9424
494.30 0.9442
494.40 0.946
494.50 0.9478
494.60 0.9496
494.70 0.9514
494.80 0.9532
494.90 0.955
495.00 0.9567
495.10 0.9585
495.20 0.9601
495.30 0.9615
495.40 0.9628
495.50 0.9642
495.60 0.9656
495.70 0.967
495.80 0.9684
495.90 0.9698
496.00 0.9712
496.10 0.9726
496.20 0.9737
496.30 0.9748
496.40 0.9758
496.50 0.9769
496.60 0.978
496.70 0.979
496.80 0.9801
496.90 0.9811
497.00 0.9822
497.10 0.9832
497.20 0.9841
497.30 0.9849
497.40 0.9857
497.50 0.9865
497.60 0.9873
497.70 0.988
497.80 0.9888
497.90 0.9896
498.00 0.9904
498.10 0.9912
498.20 0.9918
498.30 0.9923
498.40 0.9929
498.50 0.9934
498.60 0.994
498.70 0.9945
498.80 0.9951
498.90 0.9956
499.00 0.9962
499.10 0.9967
499.20 0.9971
499.30 0.9975
499.40 0.9979
499.50 0.9982
499.60 0.9986
499.70 0.9989
499.80 0.9993
499.90 0.9996
500.00 1
500.10 1
500.20 1.001
500.30 1.001
500.40 1.001
500.50 1.001
500.60 1.001
500.70 1.002
500.80 1.002
500.90 1.002
501.00 1.002
501.10 1.002
501.20 1.003
501.30 1.003
501.40 1.003
501.50 1.003
501.60 1.003
501.70 1.003
501.80 1.003
501.90 1.003
502.00 1.003
502.10 1.003
502.20 1.003
502.30 1.003
502.40 1.003
502.50 1.003
502.60 1.003
502.70 1.003
502.80 1.003
502.90 1.003
503.00 1.003
503.10 1.003
503.20 1.003
503.30 1.003
503.40 1.003
503.50 1.003
503.60 1.003
503.70 1.002
503.80 1.002
503.90 1.002
504.00 1.002
504.10 1.002
504.20 1.002
504.30 1.002
504.40 1.001
504.50 1.001
504.60 1.001
504.70 1.001
504.80 1.001
504.90 1.001
505.00 1
505.10 1
505.20 1
505.30 0.9997
505.40 0.9995
505.50 0.9992
505.60 0.999
505.70 0.9987
505.80 0.9985
505.90 0.9983
506.00 0.998
506.10 0.9978
506.20 0.9975
506.30 0.9972
506.40 0.9969
506.50 0.9966
506.60 0.9963
506.70 0.996
506.80 0.9957
506.90 0.9954
507.00 0.9951
507.10 0.9948
507.20 0.9945
507.30 0.9942
507.40 0.9938
507.50 0.9935
507.60 0.9932
507.70 0.9928
507.80 0.9925
507.90 0.9922
508.00 0.9918
508.10 0.9915
508.20 0.9911
508.30 0.9908
508.40 0.9904
508.50 0.99
508.60 0.9896
508.70 0.9893
508.80 0.9889
508.90 0.9885
509.00 0.9882
509.10 0.9878
509.20 0.9874
509.30 0.987
509.40 0.9866
509.50 0.9862
509.60 0.9858
509.70 0.9854
509.80 0.985
509.90 0.9846
510.00 0.9842
510.10 0.9838
510.20 0.9834
510.30 0.983
510.40 0.9825
510.50 0.9821
510.60 0.9817
510.70 0.9813
510.80 0.9808
510.90 0.9804
511.00 0.98
511.10 0.9796
511.20 0.9791
511.30 0.9787
511.40 0.9782
511.50 0.9778
511.60 0.9774
511.70 0.9769
511.80 0.9765
511.90 0.976
512.00 0.9756
512.10 0.9751
512.20 0.9747
512.30 0.9742
512.40 0.9738
512.50 0.9733
512.60 0.9728
512.70 0.9724
512.80 0.9719
512.90 0.9715
513.00 0.971
513.10 0.9706
513.20 0.9701
513.30 0.9696
513.40 0.9691
513.50 0.9687
513.60 0.9682
513.70 0.9677
513.80 0.9673
513.90 0.9668
514.00 0.9663
514.10 0.9658
514.20 0.9654
514.30 0.9649
514.40 0.9644
514.50 0.9639
514.60 0.9634
514.70 0.963
514.80 0.9625
514.90 0.962
515.00 0.9615
515.10 0.961
515.20 0.9605
515.30 0.96
515.40 0.9596
515.50 0.9591
515.60 0.9586
515.70 0.9581
515.80 0.9576
515.90 0.9571
516.00 0.9566
516.10 0.9561
516.20 0.9556
516.30 0.9551
516.40 0.9546
516.50 0.9541
516.60 0.9536
516.70 0.9532
516.80 0.9527
516.90 0.9522
517.00 0.9517
517.10 0.9512
517.20 0.9507
517.30 0.9502
517.40 0.9497
517.50 0.9492
517.60 0.9487
517.70 0.9482
517.80 0.9477
517.90 0.9472
518.00 0.9467
518.10 0.9462
518.20 0.9456
518.30 0.9451
518.40 0.9446
518.50 0.9441
518.60 0.9436
518.70 0.9431
518.80 0.9426
518.90 0.9421
519.00 0.9416
519.10 0.9411
519.20 0.9406
519.30 0.9401
519.40 0.9396
519.50 0.9391
519.60 0.9386
519.70 0.938
519.80 0.9375
519.90 0.937
520.00 0.9365
520.10 0.936
520.20 0.9355
520.30 0.935
520.40 0.9345
520.50 0.934
520.60 0.9335
520.70 0.9329
520.80 0.9324
520.90 0.9319
521.00 0.9314
521.10 0.9309
521.20 0.9304
521.30 0.9299
521.40 0.9294
521.50 0.9289
521.60 0.9283
521.70 0.9278
521.80 0.9273
521.90 0.9268
522.00 0.9263
522.10 0.9258
522.20 0.9253
522.30 0.9247
522.40 0.9242
522.50 0.9237
522.60 0.9232
522.70 0.9227
522.80 0.9222
522.90 0.9217
523.00 0.9211
523.10 0.9206
523.20 0.9201
523.30 0.9196
523.40 0.9191
523.50 0.9186
523.60 0.9181
523.70 0.9175
523.80 0.917
523.90 0.9165
524.00 0.916
524.10 0.9155
524.20 0.915
524.30 0.9145
524.40 0.9139
524.50 0.9134
524.60 0.9129
524.70 0.9124
524.80 0.9119
524.90 0.9114
525.00 0.9109
525.10 0.9104
525.20 0.9098
525.30 0.9093
525.40 0.9088
525.50 0.9083
525.60 0.9078
525.70 0.9073
525.80 0.9067
525.90 0.9062
526.00 0.9057
526.10 0.9052
526.20 0.9047
526.30 0.9042
526.40 0.9037
526.50 0.9032
526.60 0.9026
526.70 0.9021
526.80 0.9016
526.90 0.9011
527.00 0.9006
527.10 0.9001
527.20 0.8996
527.30 0.8991
527.40 0.8985
527.50 0.898
527.60 0.8975
527.70 0.897
527.80 0.8965
527.90 0.896
528.00 0.8955
528.10 0.895
528.20 0.8945
528.30 0.8939
528.40 0.8934
528.50 0.8929
528.60 0.8924
528.70 0.8919
528.80 0.8914
528.90 0.8909
529.00 0.8904
529.10 0.8899
529.20 0.8893
529.30 0.8888
529.40 0.8883
529.50 0.8878
529.60 0.8873
529.70 0.8868
529.80 0.8863
529.90 0.8858
530.00 0.8853
530.10 0.8848
530.20 0.8843
530.30 0.8838
530.40 0.8832
530.50 0.8827
530.60 0.8822
530.70 0.8817
530.80 0.8812
530.90 0.8807
531.00 0.8802
531.10 0.8797
531.20 0.8792
531.30 0.8787
531.40 0.8782
531.50 0.8777
531.60 0.8772
531.70 0.8767
531.80 0.8762
531.90 0.8757
532.00 0.8751
532.10 0.8746
532.20 0.8741
532.30 0.8736
532.40 0.8731
532.50 0.8726
532.60 0.8721
532.70 0.8716
532.80 0.8711
532.90 0.8706
533.00 0.8701
533.10 0.8696
533.20 0.8691
533.30 0.8686
533.40 0.8681
533.50 0.8676
533.60 0.8671
533.70 0.8666
533.80 0.8661
533.90 0.8656
534.00 0.8651
534.10 0.8646
534.20 0.8641
534.30 0.8636
534.40 0.8631
534.50 0.8626
534.60 0.8621
534.70 0.8616
534.80 0.8611
534.90 0.8606
535.00 0.8601
535.10 0.8596
535.20 0.8591
535.30 0.8586
535.40 0.8581
535.50 0.8577
535.60 0.8572
535.70 0.8567
535.80 0.8562
535.90 0.8557
536.00 0.8552
536.10 0.8547
536.20 0.8542
536.30 0.8537
536.40 0.8532
536.50 0.8527
536.60 0.8522
536.70 0.8517
536.80 0.8512
536.90 0.8507
537.00 0.8502
537.10 0.8498
537.20 0.8493
537.30 0.8488
537.40 0.8483
537.50 0.8478
537.60 0.8473
537.70 0.8468
537.80 0.8463
537.90 0.8458
538.00 0.8453
538.10 0.8449
538.20 0.8444
538.30 0.8439
538.40 0.8434
538.50 0.8429
538.60 0.8424
538.70 0.8419
538.80 0.8414
538.90 0.841
539.00 0.8405
539.10 0.84
539.20 0.8395
539.30 0.839
539.40 0.8385
539.50 0.838
539.60 0.8376
539.70 0.8371
539.80 0.8366
539.90 0.8361
540.00 0.8356
540.10 0.8351
540.20 0.8347
540.30 0.8342
540.40 0.8337
540.50 0.8332
540.60 0.8327
540.70 0.8322
540.80 0.8318
540.90 0.8313
541.00 0.8308
541.10 0.8303
541.20 0.8298
541.30 0.8294
541.40 0.8289
541.50 0.8284
541.60 0.8279
541.70 0.8275
541.80 0.827
541.90 0.8265
542.00 0.826
542.10 0.8255
542.20 0.8251
542.30 0.8246
542.40 0.8241
542.50 0.8236
542.60 0.8232
542.70 0.8227
542.80 0.8222
542.90 0.8217
543.00 0.8213
543.10 0.8208
543.20 0.8203
543.30 0.8198
543.40 0.8194
543.50 0.8189
543.60 0.8184
543.70 0.8179
543.80 0.8175
543.90 0.817
544.00 0.8165
544.10 0.8161
544.20 0.8156
544.30 0.8151
544.40 0.8146
544.50 0.8142
544.60 0.8137
544.70 0.8132
544.80 0.8128
544.90 0.8123
545.00 0.8118
545.10 0.8114
545.20 0.8109
545.30 0.8104
545.40 0.81
545.50 0.8095
545.60 0.809
545.70 0.8086
545.80 0.8081
545.90 0.8076
546.00 0.8072
546.10 0.8067
546.20 0.8063
546.30 0.8059
546.40 0.8056
546.50 0.8052
546.60 0.8049
546.70 0.8045
546.80 0.8042
546.90 0.8038
547.00 0.8035
547.10 0.8031
547.20 0.8027
547.30 0.8022
547.40 0.8018
547.50 0.8013
547.60 0.8008
547.70 0.8004
547.80 0.7999
547.90 0.7994
548.00 0.799
548.10 0.7985
548.20 0.798
548.30 0.7976
548.40 0.7971
548.50 0.7966
548.60 0.7962
548.70 0.7957
548.80 0.7952
548.90 0.7948
549.00 0.7943
549.10 0.7939
549.20 0.7934
549.30 0.7929
549.40 0.7925
549.50 0.792
549.60 0.7916
549.70 0.7911
549.80 0.7906
549.90 0.7902
550.00 0.7897
550.10 0.7893
550.20 0.7888
550.30 0.7883
550.40 0.7879
550.50 0.7874
550.60 0.787
550.70 0.7865
550.80 0.7861
550.90 0.7856
551.00 0.7851
551.10 0.7847
551.20 0.7842
551.30 0.7838
551.40 0.7833
551.50 0.7829
551.60 0.7824
551.70 0.782
551.80 0.7815
551.90 0.7811
552.00 0.7806
552.10 0.7802
552.20 0.7797
552.30 0.7792
552.40 0.7788
552.50 0.7783
552.60 0.7779
552.70 0.7774
552.80 0.777
552.90 0.7765
553.00 0.7761
553.10 0.7756
553.20 0.7752
553.30 0.7747
553.40 0.7743
553.50 0.7739
553.60 0.7734
553.70 0.773
553.80 0.7725
553.90 0.7721
554.00 0.7716
554.10 0.7712
554.20 0.7707
554.30 0.7703
554.40 0.7698
554.50 0.7694
554.60 0.769
554.70 0.7685
554.80 0.7681
554.90 0.7676
555.00 0.7672
555.10 0.7667
555.20 0.7663
555.30 0.7659
555.40 0.7654
555.50 0.765
555.60 0.7645
555.70 0.7641
555.80 0.7636
555.90 0.7632
556.00 0.7628
556.10 0.7623
556.20 0.7619
556.30 0.7615
556.40 0.761
556.50 0.7606
556.60 0.7601
556.70 0.7597
556.80 0.7593
556.90 0.7588
557.00 0.7584
557.10 0.758
557.20 0.7575
557.30 0.7571
557.40 0.7566
557.50 0.7562
557.60 0.7558
557.70 0.7553
557.80 0.7549
557.90 0.7545
558.00 0.754
558.10 0.7536
558.20 0.7532
558.30 0.7527
558.40 0.7523
558.50 0.7519
558.60 0.7514
558.70 0.751
558.80 0.7506
558.90 0.7502
559.00 0.7497
559.10 0.7493
559.20 0.7489
559.30 0.7484
559.40 0.748
559.50 0.7476
559.60 0.7471
559.70 0.7467
559.80 0.7463
559.90 0.7459
560.00 0.7454
560.10 0.745
560.20 0.7446
560.30 0.7442
560.40 0.7437
560.50 0.7433
560.60 0.7429
560.70 0.7425
560.80 0.742
560.90 0.7416
561.00 0.7412
561.10 0.7408
561.20 0.7403
561.30 0.7399
561.40 0.7395
561.50 0.7391
561.60 0.7386
561.70 0.7382
561.80 0.7378
561.90 0.7374
562.00 0.737
562.10 0.7365
562.20 0.7361
562.30 0.7357
562.40 0.7353
562.50 0.7349
562.60 0.7344
562.70 0.734
562.80 0.7336
562.90 0.7332
563.00 0.7328
563.10 0.7323
563.20 0.7319
563.30 0.7315
563.40 0.7311
563.50 0.7307
563.60 0.7303
563.70 0.7298
563.80 0.7294
563.90 0.729
564.00 0.7286
564.10 0.7282
564.20 0.7278
564.30 0.7273
564.40 0.7269
564.50 0.7265
564.60 0.7261
564.70 0.7257
564.80 0.7253
564.90 0.7249
565.00 0.7245
565.10 0.724
565.20 0.7236
565.30 0.7232
565.40 0.7228
565.50 0.7224
565.60 0.722
565.70 0.7216
565.80 0.7212
565.90 0.7208
566.00 0.7203
566.10 0.7199
566.20 0.7195
566.30 0.7191
566.40 0.7187
566.50 0.7183
566.60 0.7179
566.70 0.7175
566.80 0.7171
566.90 0.7167
567.00 0.7163
567.10 0.7159
567.20 0.7155
567.30 0.7151
567.40 0.7146
567.50 0.7142
567.60 0.7138
567.70 0.7134
567.80 0.713
567.90 0.7126
568.00 0.7122
568.10 0.7118
568.20 0.7114
568.30 0.711
568.40 0.7106
568.50 0.7102
568.60 0.7098
568.70 0.7094
568.80 0.709
568.90 0.7086
569.00 0.7082
569.10 0.7078
569.20 0.7074
569.30 0.707
569.40 0.7066
569.50 0.7062
569.60 0.7058
569.70 0.7054
569.80 0.705
569.90 0.7046
570.00 0.7042
570.10 0.7038
570.20 0.7034
570.30 0.703
570.40 0.7026
570.50 0.7022
570.60 0.7018
570.70 0.7014
570.80 0.701
570.90 0.7006
571.00 0.7002
571.10 0.6998
571.20 0.6994
571.30 0.699
571.40 0.6987
571.50 0.6983
571.60 0.6979
571.70 0.6975
571.80 0.6971
571.90 0.6967
572.00 0.6963
572.10 0.6959
572.20 0.6955
572.30 0.6951
572.40 0.6947
572.50 0.6943
572.60 0.6939
572.70 0.6936
572.80 0.6932
572.90 0.6928
573.00 0.6924
573.10 0.692
573.20 0.6916
573.30 0.6912
573.40 0.6908
573.50 0.6904
573.60 0.69
573.70 0.6897
573.80 0.6893
573.90 0.6889
574.00 0.6885
574.10 0.6881
574.20 0.6877
574.30 0.6873
574.40 0.6869
574.50 0.6866
574.60 0.6862
574.70 0.6858
574.80 0.6854
574.90 0.685
575.00 0.6846
575.10 0.6843
575.20 0.6839
575.30 0.6835
575.40 0.6831
575.50 0.6827
575.60 0.6823
575.70 0.682
575.80 0.6816
575.90 0.6812
576.00 0.6808
576.10 0.6804
576.20 0.68
576.30 0.6797
576.40 0.6793
576.50 0.6789
576.60 0.6785
576.70 0.6781
576.80 0.6778
576.90 0.6774
577.00 0.677
577.10 0.6766
577.20 0.6762
577.30 0.6759
577.40 0.6755
577.50 0.6751
577.60 0.6747
577.70 0.6744
577.80 0.674
577.90 0.6736
578.00 0.6732
578.10 0.6729
578.20 0.6725
578.30 0.6721
578.40 0.6717
578.50 0.6714
578.60 0.671
578.70 0.6706
578.80 0.6702
578.90 0.6699
579.00 0.6695
579.10 0.6691
579.20 0.6687
579.30 0.6684
579.40 0.668
579.50 0.6676
579.60 0.6672
579.70 0.6669
579.80 0.6665
579.90 0.6661
580.00 0.6658
580.10 0.6654
580.20 0.665
580.30 0.6646
580.40 0.6643
580.50 0.6639
580.60 0.6635
580.70 0.6632
580.80 0.6628
580.90 0.6624
581.00 0.6621
581.10 0.6617
581.20 0.6613
581.30 0.661
581.40 0.6606
581.50 0.6602
581.60 0.6598
581.70 0.6595
581.80 0.6591
581.90 0.6587
582.00 0.6584
582.10 0.658
582.20 0.6577
582.30 0.6573
582.40 0.6569
582.50 0.6566
582.60 0.6562
582.70 0.6558
582.80 0.6555
582.90 0.6551
583.00 0.6547
583.10 0.6544
583.20 0.654
583.30 0.6536
583.40 0.6533
583.50 0.6529
583.60 0.6526
583.70 0.6522
583.80 0.6518
583.90 0.6515
584.00 0.6511
584.10 0.6508
584.20 0.6504
584.30 0.65
584.40 0.6497
584.50 0.6493
584.60 0.6489
584.70 0.6486
584.80 0.6482
584.90 0.6479
585.00 0.6475
585.10 0.6472
585.20 0.6468
585.30 0.6464
585.40 0.6461
585.50 0.6457
585.60 0.6454
585.70 0.645
585.80 0.6447
585.90 0.6443
586.00 0.6439
586.10 0.6436
586.20 0.6432
586.30 0.6429
586.40 0.6425
586.50 0.6422
586.60 0.6418
586.70 0.6415
586.80 0.6411
586.90 0.6407
587.00 0.6404
587.10 0.64
587.20 0.6397
587.30 0.6393
587.40 0.639
587.50 0.6386
587.60 0.6383
587.70 0.6379
587.80 0.6376
587.90 0.6372
588.00 0.6369
588.10 0.6365
588.20 0.6362
588.30 0.6358
588.40 0.6355
588.50 0.6351
588.60 0.6348
588.70 0.6344
588.80 0.6341
588.90 0.6337
589.00 0.6334
589.10 0.633
589.20 0.6327
589.30 0.6323
589.40 0.632
589.50 0.6316
589.60 0.6313
589.70 0.6309
589.80 0.6306
589.90 0.6302
590.00 0.6299
590.10 0.6295
590.20 0.6292
590.30 0.6289
590.40 0.6285
590.50 0.6282
590.60 0.6278
590.70 0.6275
590.80 0.6271
590.90 0.6268
591.00 0.6264
591.10 0.6261
591.20 0.6258
591.30 0.6254
591.40 0.6251
591.50 0.6247
591.60 0.6244
591.70 0.624
591.80 0.6237
591.90 0.6233
592.00 0.623
592.10 0.6227
592.20 0.6223
592.30 0.622
592.40 0.6216
592.50 0.6213
592.60 0.621
592.70 0.6206
592.80 0.6203
592.90 0.6199
593.00 0.6196
593.10 0.6193
593.20 0.6189
593.30 0.6186
593.40 0.6182
593.50 0.6179
593.60 0.6176
593.70 0.6172
593.80 0.6169
593.90 0.6166
594.00 0.6162
594.10 0.6159
594.20 0.6155
594.30 0.6152
594.40 0.6149
594.50 0.6145
594.60 0.6142
594.70 0.6139
594.80 0.6135
594.90 0.6132
595.00 0.6129
595.10 0.6125
595.20 0.6122
595.30 0.6119
595.40 0.6115
595.50 0.6112
595.60 0.6109
595.70 0.6105
595.80 0.6102
595.90 0.6099
596.00 0.6095
596.10 0.6092
596.20 0.6087
596.30 0.6082
596.40 0.6076
596.50 0.6071
596.60 0.6065
596.70 0.606
596.80 0.6055
596.90 0.6049
597.00 0.6044
597.10 0.6039
597.20 0.6034
597.30 0.6031
597.40 0.6028
597.50 0.6024
597.60 0.6021
597.70 0.6018
597.80 0.6014
597.90 0.6011
598.00 0.6008
598.10 0.6004
598.20 0.6001
598.30 0.5998
598.40 0.5994
598.50 0.5991
598.60 0.5988
598.70 0.5984
598.80 0.5981
598.90 0.5978
599.00 0.5974
599.10 0.5971
599.20 0.5968
599.30 0.5964
599.40 0.5961
599.50 0.5958
599.60 0.5954
599.70 0.5951
599.80 0.5948
599.90 0.5945
600.00 0.5941
600.10 0.5938
600.20 0.5935
600.30 0.5931
600.40 0.5928
600.50 0.5925
600.60 0.5921
600.70 0.5918
600.80 0.5915
600.90 0.5912
601.00 0.5908
601.10 0.5905
601.20 0.5902
601.30 0.5898
601.40 0.5895
601.50 0.5892
601.60 0.5889
601.70 0.5885
601.80 0.5882
601.90 0.5879
602.00 0.5875
602.10 0.5872
602.20 0.5869
602.30 0.5866
602.40 0.5862
602.50 0.5859
602.60 0.5856
602.70 0.5853
602.80 0.5849
602.90 0.5846
603.00 0.5843
603.10 0.584
603.20 0.5836
603.30 0.5833
603.40 0.583
603.50 0.5827
603.60 0.5823
603.70 0.582
603.80 0.5817
603.90 0.5814
604.00 0.581
604.10 0.5807
604.20 0.5804
604.30 0.5801
604.40 0.5797
604.50 0.5794
604.60 0.5791
604.70 0.5788
604.80 0.5785
604.90 0.5781
605.00 0.5778
605.10 0.5775
605.20 0.5772
605.30 0.5769
605.40 0.5765
605.50 0.5762
605.60 0.5759
605.70 0.5756
605.80 0.5752
605.90 0.5749
606.00 0.5746
606.10 0.5743
606.20 0.574
606.30 0.5736
606.40 0.5733
606.50 0.573
606.60 0.5727
606.70 0.5724
606.80 0.572
606.90 0.5717
607.00 0.5714
607.10 0.5711
607.20 0.5708
607.30 0.5705
607.40 0.5701
607.50 0.5698
607.60 0.5695
607.70 0.5692
607.80 0.5689
607.90 0.5685
608.00 0.5682
608.10 0.5679
608.20 0.5676
608.30 0.5673
608.40 0.567
608.50 0.5666
608.60 0.5663
608.70 0.566
608.80 0.5657
608.90 0.5654
609.00 0.5651
609.10 0.5647
609.20 0.5644
609.30 0.5641
609.40 0.5638
609.50 0.5635
609.60 0.5632
609.70 0.5628
609.80 0.5625
609.90 0.5622
610.00 0.5619
610.10 0.5616
610.20 0.5613
610.30 0.561
610.40 0.5606
610.50 0.5603
610.60 0.56
610.70 0.5597
610.80 0.5594
610.90 0.5591
611.00 0.5588
611.10 0.5584
611.20 0.5581
611.30 0.5578
611.40 0.5575
611.50 0.5572
611.60 0.5569
611.70 0.5566
611.80 0.5562
611.90 0.5559
612.00 0.5556
612.10 0.5553
612.20 0.555
612.30 0.5547
612.40 0.5544
612.50 0.5541
612.60 0.5537
612.70 0.5534
612.80 0.5531
612.90 0.5528
613.00 0.5525
613.10 0.5522
613.20 0.5519
613.30 0.5516
613.40 0.5513
613.50 0.5509
613.60 0.5506
613.70 0.5503
613.80 0.55
613.90 0.5497
614.00 0.5494
614.10 0.5491
614.20 0.5488
614.30 0.5485
614.40 0.5481
614.50 0.5478
614.60 0.5475
614.70 0.5472
614.80 0.5469
614.90 0.5466
615.00 0.5463
615.10 0.546
615.20 0.5457
615.30 0.5453
615.40 0.545
615.50 0.5447
615.60 0.5444
615.70 0.5441
615.80 0.5438
615.90 0.5435
616.00 0.5432
616.10 0.5429
616.20 0.5425
616.30 0.5422
616.40 0.5419
616.50 0.5416
616.60 0.5413
616.70 0.541
616.80 0.5407
616.90 0.5404
617.00 0.5401
617.10 0.5398
617.20 0.5395
617.30 0.5391
617.40 0.5388
617.50 0.5385
617.60 0.5382
617.70 0.5379
617.80 0.5376
617.90 0.5373
618.00 0.537
618.10 0.5367
618.20 0.5364
618.30 0.536
618.40 0.5357
618.50 0.5354
618.60 0.5351
618.70 0.5348
618.80 0.5345
618.90 0.5342
619.00 0.5339
619.10 0.5336
619.20 0.5333
619.30 0.5329
619.40 0.5326
619.50 0.5323
619.60 0.532
619.70 0.5317
619.80 0.5314
619.90 0.5311
620.00 0.5308
620.10 0.5305
620.20 0.5302
620.30 0.5298
620.40 0.5295
620.50 0.5292
620.60 0.5289
620.70 0.5286
620.80 0.5283
620.90 0.528
621.00 0.5277
621.10 0.5274
621.20 0.527
621.30 0.5267
621.40 0.5264
621.50 0.5261
621.60 0.5258
621.70 0.5255
621.80 0.5252
621.90 0.5249
622.00 0.5246
622.10 0.5242
622.20 0.5239
622.30 0.5236
622.40 0.5233
622.50 0.523
622.60 0.5227
622.70 0.5224
622.80 0.5221
622.90 0.5217
623.00 0.5214
623.10 0.5211
623.20 0.5208
623.30 0.5205
623.40 0.5202
623.50 0.5199
623.60 0.5196
623.70 0.5192
623.80 0.5189
623.90 0.5186
624.00 0.5183
624.10 0.518
624.20 0.5177
624.30 0.5174
624.40 0.5171
624.50 0.5167
624.60 0.5164
624.70 0.5161
624.80 0.5158
624.90 0.5155
625.00 0.5152
625.10 0.5149
625.20 0.5145
625.30 0.5142
625.40 0.5139
625.50 0.5136
625.60 0.5133
625.70 0.513
625.80 0.5126
625.90 0.5123
626.00 0.512
626.10 0.5117
626.20 0.5114
626.30 0.5111
626.40 0.5107
626.50 0.5104
626.60 0.5101
626.70 0.5098
626.80 0.5095
626.90 0.5091
627.00 0.5088
627.10 0.5085
627.20 0.5082
627.30 0.5079
627.40 0.5075
627.50 0.5072
627.60 0.5069
627.70 0.5066
627.80 0.5063
627.90 0.5059
628.00 0.5056
628.10 0.5053
628.20 0.505
628.30 0.5046
628.40 0.5043
628.50 0.504
628.60 0.5037
628.70 0.5033
628.80 0.503
628.90 0.5027
629.00 0.5024
629.10 0.502
629.20 0.5017
629.30 0.5014
629.40 0.5011
629.50 0.5007
629.60 0.5004
629.70 0.5001
629.80 0.4998
629.90 0.4994
630.00 0.4991
630.10 0.4988
630.20 0.4984
630.30 0.4981
630.40 0.4978
630.50 0.4974
630.60 0.4971
630.70 0.4968
630.80 0.4964
630.90 0.4961
631.00 0.4958
631.10 0.4954
631.20 0.4951
631.30 0.4947
631.40 0.4944
631.50 0.4941
631.60 0.4937
631.70 0.4934
631.80 0.493
631.90 0.4927
632.00 0.4924
632.10 0.492
632.20 0.4917
632.30 0.4913
632.40 0.491
632.50 0.4906
632.60 0.4903
632.70 0.4899
632.80 0.4896
632.90 0.4892
633.00 0.4889
633.10 0.4885
633.20 0.4882
633.30 0.4878
633.40 0.4875
633.50 0.4871
633.60 0.4867
633.70 0.4864
633.80 0.486
633.90 0.4857
634.00 0.4853
634.10 0.4849
634.20 0.4846
634.30 0.4842
634.40 0.4839
634.50 0.4835
634.60 0.4831
634.70 0.4827
634.80 0.4824
634.90 0.482
635.00 0.4816
635.10 0.4813
635.20 0.4809
635.30 0.4805
635.40 0.4801
635.50 0.4797
635.60 0.4794
635.70 0.479
635.80 0.4786
635.90 0.4782
636.00 0.4778
636.10 0.4774
636.20 0.477
636.30 0.4767
636.40 0.4763
636.50 0.4759
636.60 0.4755
636.70 0.4751
636.80 0.4747
636.90 0.4743
637.00 0.4739
637.10 0.4735
637.20 0.4731
637.30 0.4726
637.40 0.4722
637.50 0.4718
637.60 0.4714
637.70 0.471
637.80 0.4705
637.90 0.4701
638.00 0.4697
638.10 0.4693
638.20 0.4689
638.30 0.4684
638.40 0.468
638.50 0.4676
638.60 0.4671
638.70 0.4667
638.80 0.4662
638.90 0.4658
639.00 0.4654
639.10 0.4649
639.20 0.4645
639.30 0.464
639.40 0.4636
639.50 0.4631
639.60 0.4626
639.70 0.4622
639.80 0.4617
639.90 0.4612
640.00 0.4608
640.10 0.4603
640.20 0.4598
640.30 0.4594
640.40 0.4589
640.50 0.4584
640.60 0.4579
640.70 0.4574
640.80 0.4569
640.90 0.4564
641.00 0.4559
641.10 0.4554
641.20 0.4549
641.30 0.4544
641.40 0.4539
641.50 0.4533
641.60 0.4528
641.70 0.4523
641.80 0.4517
641.90 0.4512
642.00 0.4507
642.10 0.4502
642.20 0.4496
642.30 0.4491
642.40 0.4485
642.50 0.4479
642.60 0.4474
642.70 0.4468
642.80 0.4462
642.90 0.4457
643.00 0.4451
643.10 0.4445
643.20 0.444
643.30 0.4434
643.40 0.4427
643.50 0.4421
643.60 0.4415
643.70 0.4409
643.80 0.4403
643.90 0.4396
644.00 0.439
644.10 0.4384
644.20 0.4378
644.30 0.4372
644.40 0.4365
644.50 0.4358
644.60 0.4351
644.70 0.4344
644.80 0.4338
644.90 0.4331
645.00 0.4324
645.10 0.4317
645.20 0.4311
645.30 0.4304
645.40 0.4296
645.50 0.4289
645.60 0.4281
645.70 0.4274
645.80 0.4266
645.90 0.4259
646.00 0.4251
646.10 0.4244
646.20 0.4237
646.30 0.4229
646.40 0.4221
646.50 0.4212
646.60 0.4204
646.70 0.4196
646.80 0.4187
646.90 0.4179
647.00 0.4171
647.10 0.4163
647.20 0.4154
647.30 0.4146
647.40 0.4137
647.50 0.4127
647.60 0.4118
647.70 0.4108
647.80 0.4099
647.90 0.409
648.00 0.408
648.10 0.4071
648.20 0.4061
648.30 0.4052
648.40 0.4041
648.50 0.403
648.60 0.4019
648.70 0.4008
648.80 0.3998
648.90 0.3987
649.00 0.3976
649.10 0.3965
649.20 0.3954
649.30 0.3943
649.40 0.3931
649.50 0.3918
649.60 0.3906
649.70 0.3893
649.80 0.3881
649.90 0.3869
650.00 0.3856
650.10 0.3844
650.20 0.3831
650.30 0.3818
650.40 0.3804
650.50 0.3789
650.60 0.3775
650.70 0.376
650.80 0.3746
650.90 0.3732
651.00 0.3717
651.10 0.3703
651.20 0.3688
651.30 0.3673
651.40 0.3656
651.50 0.3639
651.60 0.3622
651.70 0.3605
651.80 0.3589
651.90 0.3572
652.00 0.3555
652.10 0.3538
652.20 0.3521
652.30 0.3503
652.40 0.3483
652.50 0.3463
652.60 0.3443
652.70 0.3423
652.80 0.3403
652.90 0.3383
653.00 0.3363
653.10 0.3343
653.20 0.3323
653.30 0.3302
653.40 0.3277
653.50 0.3253
653.60 0.3229
653.70 0.3204
653.80 0.318
653.90 0.3155
654.00 0.3131
654.10 0.3107
654.20 0.3082
654.30 0.3058
654.40 0.303
654.50 0.3003
654.60 0.2976
654.70 0.2948
654.80 0.2921
654.90 0.2891
655.00 0.2861
655.10 0.2832
655.20 0.2802
655.30 0.2772
655.40 0.2739
655.50 0.2706
655.60 0.2669
655.70 0.263
655.80 0.2584
655.90 0.253
656.00 0.2448
656.10 0.2356
656.20 0.2124
656.30 0.1938
656.40 0.2241
656.50 0.2392
656.60 0.2473
656.70 0.2547
656.80 0.2591
656.90 0.2634
657.00 0.2668
657.10 0.2702
657.20 0.2732
657.30 0.2762
657.40 0.2789
657.50 0.2816
657.60 0.2843
657.70 0.287
657.80 0.2896
657.90 0.2921
658.00 0.2945
658.10 0.297
658.20 0.2994
658.30 0.3018
658.40 0.3039
658.50 0.3061
658.60 0.3082
658.70 0.3103
658.80 0.3124
658.90 0.3145
659.00 0.3167
659.10 0.3188
659.20 0.3209
659.30 0.3229
659.40 0.3246
659.50 0.3262
659.60 0.3279
659.70 0.3296
659.80 0.3312
659.90 0.3329
660.00 0.3345
660.10 0.3362
660.20 0.3378
660.30 0.3394
660.40 0.3407
660.50 0.342
660.60 0.3434
660.70 0.3447
660.80 0.346
660.90 0.3473
661.00 0.3486
661.10 0.3499
661.20 0.3512
661.30 0.3525
661.40 0.3535
661.50 0.3546
661.60 0.3556
661.70 0.3567
661.80 0.3577
661.90 0.3588
662.00 0.3598
662.10 0.3608
662.20 0.3619
662.30 0.3629
662.40 0.3637
662.50 0.3645
662.60 0.3653
662.70 0.3662
662.80 0.367
662.90 0.3678
663.00 0.3686
663.10 0.3695
663.20 0.3703
663.30 0.3711
663.40 0.3717
663.50 0.3724
663.60 0.373
663.70 0.3737
663.80 0.3743
663.90 0.3749
664.00 0.3756
664.10 0.3762
664.20 0.3769
664.30 0.3775
664.40 0.378
664.50 0.3785
664.60 0.379
664.70 0.3795
664.80 0.38
664.90 0.3804
665.00 0.3809
665.10 0.3814
665.20 0.3819
665.30 0.3824
665.40 0.3828
665.50 0.3831
665.60 0.3835
665.70 0.3839
665.80 0.3843
665.90 0.3846
666.00 0.385
666.10 0.3854
666.20 0.3857
666.30 0.3861
666.40 0.3864
666.50 0.3867
666.60 0.387
666.70 0.3872
666.80 0.3875
666.90 0.3878
667.00 0.3881
667.10 0.3884
667.20 0.3887
667.30 0.3889
667.40 0.3891
667.50 0.3894
667.60 0.3896
667.70 0.3898
667.80 0.39
667.90 0.3902
668.00 0.3904
668.10 0.3906
668.20 0.3908
668.30 0.391
668.40 0.3912
668.50 0.3913
668.60 0.3915
668.70 0.3916
668.80 0.3918
668.90 0.3919
669.00 0.3921
669.10 0.3922
669.20 0.3924
669.30 0.3925
669.40 0.3926
669.50 0.3927
669.60 0.3928
669.70 0.3929
669.80 0.393
669.90 0.3931
670.00 0.3932
670.10 0.3933
670.20 0.3934
670.30 0.3935
670.40 0.3935
670.50 0.3936
670.60 0.3936
670.70 0.3937
670.80 0.3937
670.90 0.3938
671.00 0.3938
671.10 0.3939
671.20 0.3939
671.30 0.394
671.40 0.394
671.50 0.394
671.60 0.394
671.70 0.3941
671.80 0.3941
671.90 0.3941
672.00 0.3941
672.10 0.3941
672.20 0.3942
672.30 0.3942
672.40 0.3942
672.50 0.3941
672.60 0.3941
672.70 0.3941
672.80 0.3941
672.90 0.3941
673.00 0.3941
673.10 0.3941
673.20 0.3941
673.30 0.394
673.40 0.394
673.50 0.394
673.60 0.3939
673.70 0.3939
673.80 0.3939
673.90 0.3938
674.00 0.3938
674.10 0.3937
674.20 0.3937
674.30 0.3937
674.40 0.3936
674.50 0.3936
674.60 0.3935
674.70 0.3934
674.80 0.3934
674.90 0.3933
675.00 0.3933
675.10 0.3932
675.20 0.3931
675.30 0.3931
675.40 0.393
675.50 0.3929
675.60 0.3928
675.70 0.3928
675.80 0.3927
675.90 0.3926
676.00 0.3925
676.10 0.3925
676.20 0.3924
676.30 0.3923
676.40 0.3922
676.50 0.3921
676.60 0.392
676.70 0.3919
676.80 0.3918
676.90 0.3918
677.00 0.3917
677.10 0.3916
677.20 0.3915
677.30 0.3914
677.40 0.3913
677.50 0.3912
677.60 0.3911
677.70 0.391
677.80 0.3909
677.90 0.3908
678.00 0.3906
678.10 0.3905
678.20 0.3904
678.30 0.3903
678.40 0.3902
678.50 0.3901
678.60 0.39
678.70 0.3899
678.80 0.3898
678.90 0.3896
679.00 0.3895
679.10 0.3894
679.20 0.3893
679.30 0.3892
679.40 0.389
679.50 0.3889
679.60 0.3888
679.70 0.3887
679.80 0.3885
679.90 0.3884
680.00 0.3883
680.10 0.3882
680.20 0.388
680.30 0.3879
680.40 0.3878
680.50 0.3877
680.60 0.3875
680.70 0.3874
680.80 0.3873
680.90 0.3871
681.00 0.387
681.10 0.3869
681.20 0.3867
681.30 0.3866
681.40 0.3865
681.50 0.3863
681.60 0.3862
681.70 0.386
681.80 0.3859
681.90 0.3858
682.00 0.3856
682.10 0.3855
682.20 0.3854
682.30 0.3852
682.40 0.3851
682.50 0.3849
682.60 0.3848
682.70 0.3846
682.80 0.3845
682.90 0.3844
683.00 0.3842
683.10 0.3841
683.20 0.3839
683.30 0.3838
683.40 0.3836
683.50 0.3835
683.60 0.3833
683.70 0.3832
683.80 0.383
683.90 0.3829
684.00 0.3828
684.10 0.3826
684.20 0.3825
684.30 0.3823
684.40 0.3822
684.50 0.382
684.60 0.3819
684.70 0.3817
684.80 0.3816
684.90 0.3814
685.00 0.3813
685.10 0.3811
685.20 0.381
685.30 0.3808
685.40 0.3806
685.50 0.3805
685.60 0.3803
685.70 0.3802
685.80 0.38
685.90 0.3799
686.00 0.3797
686.10 0.3796
686.20 0.3794
686.30 0.3793
686.40 0.3791
686.50 0.379
686.60 0.3788
686.70 0.3786
686.80 0.3785
686.90 0.3783
687.00 0.3782
687.10 0.378
687.20 0.3779
687.30 0.3777
687.40 0.3775
687.50 0.3774
687.60 0.3772
687.70 0.3771
687.80 0.3769
687.90 0.3768
688.00 0.3766
688.10 0.3764
688.20 0.3763
688.30 0.3761
688.40 0.376
688.50 0.3758
688.60 0.3757
688.70 0.3755
688.80 0.3753
688.90 0.3752
689.00 0.375
689.10 0.3749
689.20 0.3747
689.30 0.3745
689.40 0.3744
689.50 0.3742
689.60 0.374
689.70 0.3739
689.80 0.3737
689.90 0.3735
690.00 0.3734
690.10 0.3732
690.20 0.373
690.30 0.3729
690.40 0.3727
690.50 0.3725
690.60 0.3724
690.70 0.3722
690.80 0.372
690.90 0.3719
691.00 0.3717
691.10 0.3715
691.20 0.3714
691.30 0.3712
691.40 0.371
691.50 0.3709
691.60 0.3707
691.70 0.3705
691.80 0.3704
691.90 0.3702
692.00 0.3701
692.10 0.3699
692.20 0.3697
692.30 0.3696
692.40 0.3694
692.50 0.3692
692.60 0.3691
692.70 0.3689
692.80 0.3687
692.90 0.3686
693.00 0.3684
693.10 0.3682
693.20 0.3681
693.30 0.3679
693.40 0.3678
693.50 0.3676
693.60 0.3674
693.70 0.3673
693.80 0.3671
693.90 0.3669
694.00 0.3668
694.10 0.3666
694.20 0.3664
694.30 0.3663
694.40 0.3661
694.50 0.366
694.60 0.3658
694.70 0.3656
694.80 0.3655
694.90 0.3653
695.00 0.3651
695.10 0.365
695.20 0.3648
695.30 0.3647
695.40 0.3645
695.50 0.3643
695.60 0.3642
695.70 0.364
695.80 0.3638
695.90 0.3637
696.00 0.3635
696.10 0.3634
696.20 0.3632
696.30 0.363
696.40 0.3629
696.50 0.3627
696.60 0.3625
696.70 0.3624
696.80 0.3622
696.90 0.3621
697.00 0.3619
697.10 0.3617
697.20 0.3616
697.30 0.3614
697.40 0.3613
697.50 0.3611
697.60 0.3609
697.70 0.3608
697.80 0.3606
697.90 0.3605
698.00 0.3603
698.10 0.3601
698.20 0.36
698.30 0.3598
698.40 0.3597
698.50 0.3595
698.60 0.3593
698.70 0.3592
698.80 0.359
698.90 0.3589
699.00 0.3587
699.10 0.3585
699.20 0.3584
699.30 0.3582
699.40 0.3581
699.50 0.3579
699.60 0.3577
699.70 0.3576
699.80 0.3574
699.90 0.3573
700.00 0.3571
700.10 0.357
700.20 0.3568
700.30 0.3567
700.40 0.3565
700.50 0.3564
700.60 0.3562
700.70 0.3561
700.80 0.3559
700.90 0.3558
701.00 0.3556
701.10 0.3555
701.20 0.3554
701.30 0.3552
701.40 0.3551
701.50 0.3549
701.60 0.3548
701.70 0.3546
701.80 0.3545
701.90 0.3543
702.00 0.3542
702.10 0.3541
702.20 0.3539
702.30 0.3538
702.40 0.3536
702.50 0.3535
702.60 0.3533
702.70 0.3532
702.80 0.353
702.90 0.3529
703.00 0.3528
703.10 0.3526
703.20 0.3525
703.30 0.3523
703.40 0.3522
703.50 0.352
703.60 0.3519
703.70 0.3518
703.80 0.3516
703.90 0.3515
704.00 0.3513
704.10 0.3512
704.20 0.351
704.30 0.3509
704.40 0.3508
704.50 0.3506
704.60 0.3505
704.70 0.3503
704.80 0.3502
704.90 0.35
705.00 0.3499
705.10 0.3497
705.20 0.3496
705.30 0.3494
705.40 0.3493
705.50 0.3491
705.60 0.3489
705.70 0.3488
705.80 0.3486
705.90 0.3484
706.00 0.3483
706.10 0.3481
706.20 0.348
706.30 0.3478
706.40 0.3476
706.50 0.3475
706.60 0.3473
706.70 0.3472
706.80 0.347
706.90 0.3468
707.00 0.3467
707.10 0.3465
707.20 0.3464
707.30 0.3462
707.40 0.346
707.50 0.3459
707.60 0.3457
707.70 0.3456
707.80 0.3454
707.90 0.3452
708.00 0.3451
708.10 0.3449
708.20 0.3448
708.30 0.3446
708.40 0.3444
708.50 0.3443
708.60 0.3441
708.70 0.344
708.80 0.3438
708.90 0.3436
709.00 0.3435
709.10 0.3433
709.20 0.3432
709.30 0.343
709.40 0.3429
709.50 0.3427
709.60 0.3425
709.70 0.3424
709.80 0.3422
709.90 0.3421
710.00 0.3419
710.10 0.3417
710.20 0.3416
710.30 0.3414
710.40 0.3413
710.50 0.3411
710.60 0.341
710.70 0.3408
710.80 0.3406
710.90 0.3405
711.00 0.3403
711.10 0.3402
711.20 0.34
711.30 0.3398
711.40 0.3397
711.50 0.3395
711.60 0.3394
711.70 0.3392
711.80 0.3391
711.90 0.3389
712.00 0.3387
712.10 0.3386
712.20 0.3384
712.30 0.3383
712.40 0.3381
712.50 0.338
712.60 0.3378
712.70 0.3377
712.80 0.3375
712.90 0.3373
713.00 0.3372
713.10 0.337
713.20 0.3369
713.30 0.3367
713.40 0.3366
713.50 0.3364
713.60 0.3362
713.70 0.3361
713.80 0.3359
713.90 0.3358
714.00 0.3356
714.10 0.3355
714.20 0.3353
714.30 0.3352
714.40 0.335
714.50 0.3349
714.60 0.3347
714.70 0.3345
714.80 0.3344
714.90 0.3342
715.00 0.3341
715.10 0.3339
715.20 0.3338
715.30 0.3336
715.40 0.3335
715.50 0.3333
715.60 0.3332
715.70 0.3331
715.80 0.3329
715.90 0.3328
716.00 0.3326
716.10 0.3325
716.20 0.3323
716.30 0.3322
716.40 0.332
716.50 0.3319
716.60 0.3317
716.70 0.3316
716.80 0.3314
716.90 0.3313
717.00 0.3312
717.10 0.331
717.20 0.3309
717.30 0.3307
717.40 0.3306
717.50 0.3304
717.60 0.3303
717.70 0.3301
717.80 0.33
717.90 0.3299
718.00 0.3297
718.10 0.3296
718.20 0.3294
718.30 0.3293
718.40 0.3291
718.50 0.329
718.60 0.3288
718.70 0.3287
718.80 0.3286
718.90 0.3284
719.00 0.3283
719.10 0.3281
719.20 0.328
719.30 0.3278
719.40 0.3277
719.50 0.3275
719.60 0.3274
719.70 0.3273
719.80 0.3271
719.90 0.327
720.00 0.3268
720.10 0.3267
720.20 0.3265
720.30 0.3264
720.40 0.3262
720.50 0.3261
720.60 0.3259
720.70 0.3258
720.80 0.3256
720.90 0.3255
721.00 0.3253
721.10 0.3252
721.20 0.325
721.30 0.3248
721.40 0.3247
721.50 0.3245
721.60 0.3244
721.70 0.3242
721.80 0.3241
721.90 0.3239
722.00 0.3238
722.10 0.3236
722.20 0.3235
722.30 0.3233
722.40 0.3232
722.50 0.323
722.60 0.3229
722.70 0.3227
722.80 0.3226
722.90 0.3224
723.00 0.3223
723.10 0.3221
723.20 0.322
723.30 0.3218
723.40 0.3217
723.50 0.3215
723.60 0.3214
723.70 0.3212
723.80 0.3211
723.90 0.3209
724.00 0.3208
724.10 0.3206
724.20 0.3205
724.30 0.3203
724.40 0.3202
724.50 0.32
724.60 0.3199
724.70 0.3197
724.80 0.3196
724.90 0.3194
725.00 0.3193
725.10 0.3191
725.20 0.319
725.30 0.3188
725.40 0.3187
725.50 0.3186
725.60 0.3184
725.70 0.3183
725.80 0.3181
725.90 0.318
726.00 0.3178
726.10 0.3177
726.20 0.3175
726.30 0.3174
726.40 0.3172
726.50 0.3171
726.60 0.3169
726.70 0.3168
726.80 0.3166
726.90 0.3165
727.00 0.3163
727.10 0.3162
727.20 0.3161
727.30 0.3159
727.40 0.3158
727.50 0.3156
727.60 0.3155
727.70 0.3153
727.80 0.3152
727.90 0.315
728.00 0.3149
728.10 0.3147
728.20 0.3146
728.30 0.3144
728.40 0.3143
728.50 0.3142
728.60 0.314
728.70 0.3139
728.80 0.3137
728.90 0.3136
729.00 0.3134
729.10 0.3133
729.20 0.3131
729.30 0.313
729.40 0.3128
729.50 0.3127
729.60 0.3126
729.70 0.3124
729.80 0.3123
729.90 0.3121
730.00 0.312
730.10 0.3118
730.20 0.3117
730.30 0.3115
730.40 0.3114
730.50 0.3113
730.60 0.3111
730.70 0.311
730.80 0.3108
730.90 0.3107
731.00 0.3105
731.10 0.3104
731.20 0.3103
731.30 0.3101
731.40 0.31
731.50 0.3098
731.60 0.3097
731.70 0.3095
731.80 0.3094
731.90 0.3093
732.00 0.3091
732.10 0.309
732.20 0.3088
732.30 0.3087
732.40 0.3085
732.50 0.3084
732.60 0.3083
732.70 0.3081
732.80 0.308
732.90 0.3078
733.00 0.3077
733.10 0.3076
733.20 0.3074
733.30 0.3073
733.40 0.3071
733.50 0.307
733.60 0.3068
733.70 0.3067
733.80 0.3066
733.90 0.3064
734.00 0.3063
734.10 0.3061
734.20 0.306
734.30 0.3059
734.40 0.3057
734.50 0.3056
734.60 0.3054
734.70 0.3053
734.80 0.3052
734.90 0.305
735.00 0.3049
735.10 0.3047
735.20 0.3046
735.30 0.3045
735.40 0.3043
735.50 0.3042
735.60 0.304
735.70 0.3039
735.80 0.3038
735.90 0.3036
736.00 0.3035
736.10 0.3033
736.20 0.3032
736.30 0.3031
736.40 0.3029
736.50 0.3028
736.60 0.3026
736.70 0.3025
736.80 0.3024
736.90 0.3022
737.00 0.3021
737.10 0.302
737.20 0.3018
737.30 0.3017
737.40 0.3015
737.50 0.3014
737.60 0.3013
737.70 0.3011
737.80 0.301
737.90 0.3008
738.00 0.3007
738.10 0.3006
738.20 0.3004
738.30 0.3003
738.40 0.3002
738.50 0.3
738.60 0.2999
738.70 0.2997
738.80 0.2996
738.90 0.2995
739.00 0.2993
739.10 0.2992
739.20 0.299
739.30 0.2989
739.40 0.2988
739.50 0.2986
739.60 0.2985
739.70 0.2984
739.80 0.2982
739.90 0.2981
740.00 0.298
740.10 0.2978
740.20 0.2977
740.30 0.2975
740.40 0.2974
740.50 0.2973
740.60 0.2971
740.70 0.297
740.80 0.2969
740.90 0.2967
741.00 0.2966
741.10 0.2965
741.20 0.2963
741.30 0.2962
741.40 0.2961
741.50 0.2959
741.60 0.2958
741.70 0.2957
741.80 0.2955
741.90 0.2954
742.00 0.2953
742.10 0.2951
742.20 0.295
742.30 0.2949
742.40 0.2947
742.50 0.2946
742.60 0.2944
742.70 0.2943
742.80 0.2942
742.90 0.294
743.00 0.2939
743.10 0.2938
743.20 0.2936
743.30 0.2935
743.40 0.2934
743.50 0.2932
743.60 0.2931
743.70 0.293
743.80 0.2928
743.90 0.2927
744.00 0.2926
744.10 0.2924
744.20 0.2923
744.30 0.2922
744.40 0.292
744.50 0.2919
744.60 0.2918
744.70 0.2916
744.80 0.2915
744.90 0.2914
745.00 0.2913
745.10 0.2911
745.20 0.291
745.30 0.2909
745.40 0.2907
745.50 0.2906
745.60 0.2905
745.70 0.2903
745.80 0.2902
745.90 0.2901
746.00 0.2899
746.10 0.2898
746.20 0.2897
746.30 0.2895
746.40 0.2894
746.50 0.2893
746.60 0.2891
746.70 0.289
746.80 0.2889
746.90 0.2887
747.00 0.2886
747.10 0.2885
747.20 0.2884
747.30 0.2882
747.40 0.2881
747.50 0.288
747.60 0.2878
747.70 0.2877
747.80 0.2876
747.90 0.2874
748.00 0.2873
748.10 0.2872
748.20 0.287
748.30 0.2869
748.40 0.2868
748.50 0.2867
748.60 0.2865
748.70 0.2864
748.80 0.2863
748.90 0.2861
749.00 0.286
749.10 0.2859
749.20 0.2857
749.30 0.2856
749.40 0.2855
749.50 0.2854
749.60 0.2852
749.70 0.2851
749.80 0.285
749.90 0.2848
750.00 0.2847
750.10 0.2846
750.20 0.2844
750.30 0.2843
750.40 0.2842
750.50 0.2841
750.60 0.2839
750.70 0.2838
750.80 0.2837
750.90 0.2836
751.00 0.2834
751.10 0.2833
751.20 0.2832
751.30 0.283
751.40 0.2829
751.50 0.2828
751.60 0.2827
751.70 0.2825
751.80 0.2824
751.90 0.2823
752.00 0.2822
752.10 0.282
752.20 0.2819
752.30 0.2818
752.40 0.2816
752.50 0.2815
752.60 0.2814
752.70 0.2813
752.80 0.2811
752.90 0.281
753.00 0.2809
753.10 0.2808
753.20 0.2806
753.30 0.2805
753.40 0.2804
753.50 0.2803
753.60 0.2801
753.70 0.28
753.80 0.2799
753.90 0.2798
754.00 0.2796
754.10 0.2795
754.20 0.2794
754.30 0.2793
754.40 0.2791
754.50 0.279
754.60 0.2789
754.70 0.2788
754.80 0.2786
754.90 0.2785
755.00 0.2784
755.10 0.2783
755.20 0.2781
755.30 0.278
755.40 0.2779
755.50 0.2778
755.60 0.2776
755.70 0.2775
755.80 0.2774
755.90 0.2773
756.00 0.2771
756.10 0.277
756.20 0.2769
756.30 0.2768
756.40 0.2766
756.50 0.2765
756.60 0.2764
756.70 0.2763
756.80 0.2761
756.90 0.276
757.00 0.2759
757.10 0.2758
757.20 0.2756
757.30 0.2755
757.40 0.2754
757.50 0.2753
757.60 0.2751
757.70 0.275
757.80 0.2749
757.90 0.2748
758.00 0.2746
758.10 0.2745
758.20 0.2744
758.30 0.2743
758.40 0.2742
758.50 0.274
758.60 0.2739
758.70 0.2738
758.80 0.2737
758.90 0.2735
759.00 0.2734
759.10 0.2733
759.20 0.2732
759.30 0.273
759.40 0.2729
759.50 0.2728
759.60 0.2727
759.70 0.2726
759.80 0.2724
759.90 0.2723
760.00 0.2722
760.10 0.2721
760.20 0.2719
760.30 0.2718
760.40 0.2717
760.50 0.2716
760.60 0.2715
760.70 0.2713
760.80 0.2712
760.90 0.2711
761.00 0.271
761.10 0.2709
761.20 0.2707
761.30 0.2706
761.40 0.2705
761.50 0.2704
761.60 0.2703
761.70 0.2701
761.80 0.27
761.90 0.2699
762.00 0.2698
762.10 0.2697
762.20 0.2695
762.30 0.2694
762.40 0.2693
762.50 0.2692
762.60 0.2691
762.70 0.2689
762.80 0.2688
762.90 0.2687
763.00 0.2686
763.10 0.2685
763.20 0.2683
763.30 0.2682
763.40 0.2681
763.50 0.268
763.60 0.2679
763.70 0.2677
763.80 0.2676
763.90 0.2675
764.00 0.2674
764.10 0.2673
764.20 0.2672
764.30 0.267
764.40 0.2669
764.50 0.2668
764.60 0.2667
764.70 0.2666
764.80 0.2664
764.90 0.2663
765.00 0.2662
765.10 0.2661
765.20 0.266
765.30 0.2658
765.40 0.2657
765.50 0.2656
765.60 0.2655
765.70 0.2654
765.80 0.2653
765.90 0.2651
766.00 0.265
766.10 0.2649
766.20 0.2648
766.30 0.2647
766.40 0.2645
766.50 0.2644
766.60 0.2643
766.70 0.2642
766.80 0.2641
766.90 0.264
767.00 0.2638
767.10 0.2637
767.20 0.2636
767.30 0.2635
767.40 0.2634
767.50 0.2633
767.60 0.2631
767.70 0.263
767.80 0.2629
767.90 0.2628
768.00 0.2627
768.10 0.2626
768.20 0.2624
768.30 0.2623
768.40 0.2622
768.50 0.2621
768.60 0.262
768.70 0.2619
768.80 0.2617
768.90 0.2616
769.00 0.2615
769.10 0.2614
769.20 0.2613
769.30 0.2612
769.40 0.261
769.50 0.2609
769.60 0.2608
769.70 0.2607
769.80 0.2606
769.90 0.2605
770.00 0.2603
770.10 0.2602
770.20 0.2601
770.30 0.26
770.40 0.2599
770.50 0.2598
770.60 0.2597
770.70 0.2595
770.80 0.2594
770.90 0.2593
771.00 0.2592
771.10 0.2591
771.20 0.259
771.30 0.2589
771.40 0.2587
771.50 0.2586
771.60 0.2585
771.70 0.2584
771.80 0.2583
771.90 0.2582
772.00 0.2581
772.10 0.258
772.20 0.2578
772.30 0.2577
772.40 0.2576
772.50 0.2575
772.60 0.2574
772.70 0.2573
772.80 0.2572
772.90 0.257
773.00 0.2569
773.10 0.2568
773.20 0.2567
773.30 0.2566
773.40 0.2565
773.50 0.2564
773.60 0.2563
773.70 0.2561
773.80 0.256
773.90 0.2559
774.00 0.2558
774.10 0.2557
774.20 0.2556
774.30 0.2555
774.40 0.2554
774.50 0.2552
774.60 0.2551
774.70 0.255
774.80 0.2549
774.90 0.2548
775.00 0.2547
775.10 0.2546
775.20 0.2545
775.30 0.2543
775.40 0.2542
775.50 0.2541
775.60 0.254
775.70 0.2539
775.80 0.2538
775.90 0.2537
776.00 0.2536
776.10 0.2535
776.20 0.2533
776.30 0.2532
776.40 0.2531
776.50 0.253
776.60 0.2529
776.70 0.2528
776.80 0.2527
776.90 0.2526
777.00 0.2525
777.10 0.2523
777.20 0.2522
777.30 0.2521
777.40 0.252
777.50 0.2519
777.60 0.2518
777.70 0.2517
777.80 0.2516
777.90 0.2515
778.00 0.2513
778.10 0.2512
778.20 0.2511
778.30 0.251
778.40 0.2509
778.50 0.2508
778.60 0.2507
778.70 0.2506
778.80 0.2505
778.90 0.2504
779.00 0.2502
779.10 0.2501
779.20 0.25
779.30 0.2499
779.40 0.2498
779.50 0.2497
779.60 0.2496
779.70 0.2495
779.80 0.2494
779.90 0.2493
780.00 0.2491
780.10 0.249
780.20 0.2489
780.30 0.2488
780.40 0.2487
780.50 0.2486
780.60 0.2485
780.70 0.2484
780.80 0.2483
780.90 0.2482
781.00 0.2481
781.10 0.248
781.20 0.2478
781.30 0.2477
781.40 0.2476
781.50 0.2475
781.60 0.2474
781.70 0.2473
781.80 0.2472
781.90 0.2471
782.00 0.247
782.10 0.2469
782.20 0.2468
782.30 0.2467
782.40 0.2466
782.50 0.2464
782.60 0.2463
782.70 0.2462
782.80 0.2461
782.90 0.246
783.00 0.2459
783.10 0.2458
783.20 0.2457
783.30 0.2456
783.40 0.2455
783.50 0.2454
783.60 0.2453
783.70 0.2452
783.80 0.2451
783.90 0.245
784.00 0.2448
784.10 0.2447
784.20 0.2446
784.30 0.2445
784.40 0.2444
784.50 0.2443
784.60 0.2442
784.70 0.2441
784.80 0.244
784.90 0.2439
785.00 0.2438
785.10 0.2437
785.20 0.2436
785.30 0.2435
785.40 0.2434
785.50 0.2433
785.60 0.2431
785.70 0.243
785.80 0.2429
785.90 0.2428
786.00 0.2427
786.10 0.2426
786.20 0.2425
786.30 0.2424
786.40 0.2423
786.50 0.2422
786.60 0.2421
786.70 0.242
786.80 0.2419
786.90 0.2418
787.00 0.2417
787.10 0.2416
787.20 0.2415
787.30 0.2414
787.40 0.2412
787.50 0.2411
787.60 0.241
787.70 0.2409
787.80 0.2408
787.90 0.2407
788.00 0.2406
788.10 0.2405
788.20 0.2404
788.30 0.2403
788.40 0.2402
788.50 0.2401
788.60 0.24
788.70 0.2399
788.80 0.2398
788.90 0.2397
789.00 0.2396
789.10 0.2395
789.20 0.2394
789.30 0.2393
789.40 0.2392
789.50 0.2391
789.60 0.2389
789.70 0.2388
789.80 0.2387
789.90 0.2386
790.00 0.2385
790.10 0.2384
790.20 0.2383
790.30 0.2382
790.40 0.2381
790.50 0.238
790.60 0.2379
790.70 0.2378
790.80 0.2377
790.90 0.2376
791.00 0.2375
791.10 0.2374
791.20 0.2373
791.30 0.2372
791.40 0.2371
791.50 0.237
791.60 0.2369
791.70 0.2368
791.80 0.2367
791.90 0.2366
792.00 0.2365
792.10 0.2364
792.20 0.2363
792.30 0.2362
792.40 0.2361
792.50 0.236
792.60 0.2359
792.70 0.2358
792.80 0.2357
792.90 0.2356
793.00 0.2355
793.10 0.2354
793.20 0.2353
793.30 0.2352
793.40 0.2351
793.50 0.235
793.60 0.2349
793.70 0.2348
793.80 0.2347
793.90 0.2346
794.00 0.2345
794.10 0.2344
794.20 0.2343
794.30 0.2342
794.40 0.2341
794.50 0.234
794.60 0.2339
794.70 0.2338
794.80 0.2337
794.90 0.2336
795.00 0.2335
795.10 0.2334
795.20 0.2333
795.30 0.2332
795.40 0.2331
795.50 0.233
795.60 0.2329
795.70 0.2328
795.80 0.2327
795.90 0.2326
796.00 0.2325
796.10 0.2324
796.20 0.2323
796.30 0.2322
796.40 0.2321
796.50 0.232
796.60 0.2319
796.70 0.2318
796.80 0.2317
796.90 0.2316
797.00 0.2315
797.10 0.2314
797.20 0.2313
797.30 0.2312
797.40 0.2311
797.50 0.231
797.60 0.2309
797.70 0.2308
797.80 0.2307
797.90 0.2306
798.00 0.2305
798.10 0.2304
798.20 0.2303
798.30 0.2302
798.40 0.2301
798.50 0.23
798.60 0.2299
798.70 0.2298
798.80 0.2297
798.90 0.2296
799.00 0.2295
799.10 0.2294
799.20 0.2293
799.30 0.2292
799.40 0.2291
799.50 0.229
799.60 0.2289
799.70 0.2288
799.80 0.2287
799.90 0.2286
800.00 0.2285
800.10 0.2284
800.20 0.2283
800.30 0.2282
800.40 0.2281
800.50 0.228
800.60 0.2279
800.70 0.2278
800.80 0.2277
800.90 0.2276
801.00 0.2275
801.10 0.2274
801.20 0.2273
801.30 0.2272
801.40 0.2271
801.50 0.227
801.60 0.2269
801.70 0.2268
801.80 0.2267
801.90 0.2266
802.00 0.2265
802.10 0.2264
802.20 0.2263
802.30 0.2263
802.40 0.2262
802.50 0.2261
802.60 0.226
802.70 0.2259
802.80 0.2258
802.90 0.2257
803.00 0.2256
803.10 0.2255
803.20 0.2254
803.30 0.2253
803.40 0.2252
803.50 0.2251
803.60 0.225
803.70 0.2249
803.80 0.2248
803.90 0.2247
804.00 0.2246
804.10 0.2245
804.20 0.2244
804.30 0.2243
804.40 0.2242
804.50 0.2241
804.60 0.224
804.70 0.224
804.80 0.2239
804.90 0.2238
805.00 0.2237
805.10 0.2236
805.20 0.2235
805.30 0.2234
805.40 0.2233
805.50 0.2232
805.60 0.2231
805.70 0.223
805.80 0.2229
805.90 0.2228
806.00 0.2227
806.10 0.2226
806.20 0.2225
806.30 0.2224
806.40 0.2223
806.50 0.2222
806.60 0.2221
806.70 0.2221
806.80 0.222
806.90 0.2219
807.00 0.2218
807.10 0.2217
807.20 0.2216
807.30 0.2215
807.40 0.2214
807.50 0.2213
807.60 0.2212
807.70 0.2211
807.80 0.221
807.90 0.2209
808.00 0.2208
808.10 0.2207
808.20 0.2206
808.30 0.2205
808.40 0.2204
808.50 0.2204
808.60 0.2203
808.70 0.2202
808.80 0.2201
808.90 0.22
809.00 0.2199
809.10 0.2198
809.20 0.2197
809.30 0.2196
809.40 0.2195
809.50 0.2194
809.60 0.2193
809.70 0.2192
809.80 0.2191
809.90 0.219
810.00 0.219
810.10 0.2189
810.20 0.2188
810.30 0.2187
810.40 0.2186
810.50 0.2185
810.60 0.2184
810.70 0.2183
810.80 0.2182
810.90 0.2181
811.00 0.218
811.10 0.2179
811.20 0.2178
811.30 0.2178
811.40 0.2177
811.50 0.2176
811.60 0.2175
811.70 0.2174
811.80 0.2173
811.90 0.2172
812.00 0.2171
812.10 0.217
812.20 0.2169
812.30 0.2168
812.40 0.2167
812.50 0.2167
812.60 0.2166
812.70 0.2165
812.80 0.2164
812.90 0.2163
813.00 0.2162
813.10 0.2161
813.20 0.216
813.30 0.2159
813.40 0.2158
813.50 0.2157
813.60 0.2157
813.70 0.2156
813.80 0.2155
813.90 0.2154
814.00 0.2153
814.10 0.2152
814.20 0.2151
814.30 0.215
814.40 0.2149
814.50 0.2148
814.60 0.2147
814.70 0.2147
814.80 0.2146
814.90 0.2145
815.00 0.2144
815.10 0.2143
815.20 0.2142
815.30 0.2141
815.40 0.214
815.50 0.2139
815.60 0.2138
815.70 0.2138
815.80 0.2137
815.90 0.2136
816.00 0.2135
816.10 0.2134
816.20 0.2133
816.30 0.2132
816.40 0.2131
816.50 0.213
816.60 0.2129
816.70 0.2129
816.80 0.2128
816.90 0.2127
817.00 0.2126
817.10 0.2125
817.20 0.2124
817.30 0.2123
817.40 0.2122
817.50 0.2121
817.60 0.212
817.70 0.212
817.80 0.2119
817.90 0.2118
818.00 0.2117
818.10 0.2116
818.20 0.2115
818.30 0.2114
818.40 0.2113
818.50 0.2112
818.60 0.2112
818.70 0.2111
818.80 0.211
818.90 0.2109
819.00 0.2108
819.10 0.2107
819.20 0.2106
819.30 0.2105
819.40 0.2104
819.50 0.2104
819.60 0.2103
819.70 0.2102
819.80 0.2101
819.90 0.21
820.00 0.2099
820.10 0.2098
820.20 0.2098
820.30 0.2097
820.40 0.2096
820.50 0.2095
820.60 0.2094
820.70 0.2093
820.80 0.2092
820.90 0.2091
821.00 0.209
821.10 0.209
821.20 0.2089
821.30 0.2088
821.40 0.2087
821.50 0.2086
821.60 0.2085
821.70 0.2084
821.80 0.2083
821.90 0.2083
822.00 0.2082
822.10 0.2081
822.20 0.208
822.30 0.2079
822.40 0.2078
822.50 0.2077
822.60 0.2077
822.70 0.2076
822.80 0.2075
822.90 0.2074
823.00 0.2073
823.10 0.2072
823.20 0.2071
823.30 0.207
823.40 0.207
823.50 0.2069
823.60 0.2068
823.70 0.2067
823.80 0.2066
823.90 0.2065
824.00 0.2064
824.10 0.2064
824.20 0.2063
824.30 0.2062
824.40 0.2061
824.50 0.206
824.60 0.2059
824.70 0.2058
824.80 0.2058
824.90 0.2057
825.00 0.2056
825.10 0.2055
825.20 0.2054
825.30 0.2053
825.40 0.2052
825.50 0.2052
825.60 0.2051
825.70 0.205
825.80 0.2049
825.90 0.2048
826.00 0.2047
826.10 0.2046
826.20 0.2046
826.30 0.2045
826.40 0.2044
826.50 0.2043
826.60 0.2042
826.70 0.2041
826.80 0.204
826.90 0.204
827.00 0.2039
827.10 0.2038
827.20 0.2037
827.30 0.2036
827.40 0.2035
827.50 0.2035
827.60 0.2034
827.70 0.2033
827.80 0.2032
827.90 0.2031
828.00 0.203
828.10 0.2029
828.20 0.2029
828.30 0.2028
828.40 0.2027
828.50 0.2026
828.60 0.2025
828.70 0.2024
828.80 0.2024
828.90 0.2023
829.00 0.2022
829.10 0.2021
829.20 0.202
829.30 0.2019
829.40 0.2019
829.50 0.2018
829.60 0.2017
829.70 0.2016
829.80 0.2015
829.90 0.2014
830.00 0.2013
830.10 0.2013
830.20 0.2012
830.30 0.2011
830.40 0.201
830.50 0.2009
830.60 0.2008
830.70 0.2008
830.80 0.2007
830.90 0.2006
831.00 0.2005
831.10 0.2004
831.20 0.2003
831.30 0.2003
831.40 0.2002
831.50 0.2001
831.60 0.2
831.70 0.1999
831.80 0.1998
831.90 0.1998
832.00 0.1997
832.10 0.1996
832.20 0.1995
832.30 0.1994
832.40 0.1994
832.50 0.1993
832.60 0.1992
832.70 0.1991
832.80 0.199
832.90 0.1989
833.00 0.1989
833.10 0.1988
833.20 0.1987
833.30 0.1986
833.40 0.1985
833.50 0.1984
833.60 0.1984
833.70 0.1983
833.80 0.1982
833.90 0.1981
834.00 0.198
834.10 0.198
834.20 0.1979
834.30 0.1978
834.40 0.1977
834.50 0.1976
834.60 0.1975
834.70 0.1975
834.80 0.1974
834.90 0.1973
835.00 0.1972
835.10 0.1971
835.20 0.1971
835.30 0.197
835.40 0.1969
835.50 0.1968
835.60 0.1967
835.70 0.1967
835.80 0.1966
835.90 0.1965
836.00 0.1964
836.10 0.1963
836.20 0.1962
836.30 0.1962
836.40 0.1961
836.50 0.196
836.60 0.1959
836.70 0.1958
836.80 0.1958
836.90 0.1957
837.00 0.1956
837.10 0.1955
837.20 0.1954
837.30 0.1954
837.40 0.1953
837.50 0.1952
837.60 0.1951
837.70 0.195
837.80 0.195
837.90 0.1949
838.00 0.1948
838.10 0.1947
838.20 0.1946
838.30 0.1946
838.40 0.1945
838.50 0.1944
838.60 0.1943
838.70 0.1942
838.80 0.1942
838.90 0.1941
839.00 0.194
839.10 0.1939
839.20 0.1938
839.30 0.1938
839.40 0.1937
839.50 0.1936
839.60 0.1935
839.70 0.1934
839.80 0.1934
839.90 0.1933
840.00 0.1932
840.10 0.1931
840.20 0.193
840.30 0.193
840.40 0.1929
840.50 0.1928
840.60 0.1927
840.70 0.1926
840.80 0.1926
840.90 0.1925
841.00 0.1924
841.10 0.1923
841.20 0.1923
841.30 0.1922
841.40 0.1921
841.50 0.192
841.60 0.1919
841.70 0.1919
841.80 0.1918
841.90 0.1917
842.00 0.1916
842.10 0.1915
842.20 0.1915
842.30 0.1914
842.40 0.1913
842.50 0.1912
842.60 0.1911
842.70 0.1911
842.80 0.191
842.90 0.1909
843.00 0.1908
843.10 0.1908
843.20 0.1907
843.30 0.1906
843.40 0.1905
843.50 0.1904
843.60 0.1904
843.70 0.1903
843.80 0.1902
843.90 0.1901
844.00 0.1901
844.10 0.19
844.20 0.1899
844.30 0.1898
844.40 0.1897
844.50 0.1897
844.60 0.1896
844.70 0.1895
844.80 0.1894
844.90 0.1894
845.00 0.1893
845.10 0.1892
845.20 0.1891
845.30 0.189
845.40 0.189
845.50 0.1889
845.60 0.1888
845.70 0.1887
845.80 0.1887
845.90 0.1886
846.00 0.1885
846.10 0.1884
846.20 0.1884
846.30 0.1883
846.40 0.1882
846.50 0.1881
846.60 0.188
846.70 0.188
846.80 0.1879
846.90 0.1878
847.00 0.1877
847.10 0.1877
847.20 0.1876
847.30 0.1875
847.40 0.1874
847.50 0.1874
847.60 0.1873
847.70 0.1872
847.80 0.1871
847.90 0.1871
848.00 0.187
848.10 0.1869
848.20 0.1869
848.30 0.1868
848.40 0.1867
848.50 0.1866
848.60 0.1866
848.70 0.1865
848.80 0.1864
848.90 0.1863
849.00 0.1863
849.10 0.1862
849.20 0.1861
849.30 0.186
849.40 0.186
849.50 0.1859
849.60 0.1858
849.70 0.1858
849.80 0.1857
849.90 0.1856
850.00 0.1855
850.10 0.1855
850.20 0.1854
850.30 0.1853
850.40 0.1852
850.50 0.1852
850.60 0.1851
850.70 0.185
850.80 0.1849
850.90 0.1849
851.00 0.1848
851.10 0.1847
851.20 0.1847
851.30 0.1846
851.40 0.1845
851.50 0.1844
851.60 0.1844
851.70 0.1843
851.80 0.1842
851.90 0.1841
852.00 0.1841
852.10 0.184
852.20 0.1839
852.30 0.1839
852.40 0.1838
852.50 0.1837
852.60 0.1836
852.70 0.1836
852.80 0.1835
852.90 0.1834
853.00 0.1834
853.10 0.1833
853.20 0.1832
853.30 0.1831
853.40 0.1831
853.50 0.183
853.60 0.1829
853.70 0.1829
853.80 0.1828
853.90 0.1827
854.00 0.1826
854.10 0.1826
854.20 0.1825
854.30 0.1824
854.40 0.1824
854.50 0.1823
854.60 0.1822
854.70 0.1821
854.80 0.1821
854.90 0.182
855.00 0.1819
855.10 0.1819
855.20 0.1818
855.30 0.1817
855.40 0.1816
855.50 0.1816
855.60 0.1815
855.70 0.1814
855.80 0.1814
855.90 0.1813
856.00 0.1812
856.10 0.1811
856.20 0.1811
856.30 0.181
856.40 0.1809
856.50 0.1809
856.60 0.1808
856.70 0.1807
856.80 0.1807
856.90 0.1806
857.00 0.1805
857.10 0.1804
857.20 0.1804
857.30 0.1803
857.40 0.1802
857.50 0.1802
857.60 0.1801
857.70 0.18
857.80 0.18
857.90 0.1799
858.00 0.1798
858.10 0.1798
858.20 0.1797
858.30 0.1796
858.40 0.1796
858.50 0.1795
858.60 0.1794
858.70 0.1794
858.80 0.1793
858.90 0.1792
859.00 0.1791
859.10 0.1791
859.20 0.179
859.30 0.1789
859.40 0.1789
859.50 0.1788
859.60 0.1787
859.70 0.1787
859.80 0.1786
859.90 0.1785
860.00 0.1785
860.10 0.1784
860.20 0.1783
860.30 0.1783
860.40 0.1782
860.50 0.1781
860.60 0.1781
860.70 0.178
860.80 0.1779
860.90 0.1779
861.00 0.1778
861.10 0.1777
861.20 0.1777
861.30 0.1776
861.40 0.1775
861.50 0.1775
861.60 0.1774
861.70 0.1773
861.80 0.1773
861.90 0.1772
862.00 0.1771
862.10 0.1771
862.20 0.177
862.30 0.1769
862.40 0.1769
862.50 0.1768
862.60 0.1767
862.70 0.1767
862.80 0.1766
862.90 0.1765
863.00 0.1765
863.10 0.1764
863.20 0.1763
863.30 0.1763
863.40 0.1762
863.50 0.1761
863.60 0.1761
863.70 0.176
863.80 0.1759
863.90 0.1759
864.00 0.1758
864.10 0.1757
864.20 0.1757
864.30 0.1756
864.40 0.1755
864.50 0.1755
864.60 0.1754
864.70 0.1753
864.80 0.1753
864.90 0.1752
865.00 0.1751
865.10 0.1751
865.20 0.175
865.30 0.1749
865.40 0.1749
865.50 0.1748
865.60 0.1747
865.70 0.1747
865.80 0.1746
865.90 0.1745
866.00 0.1745
866.10 0.1744
866.20 0.1743
866.30 0.1743
866.40 0.1742
866.50 0.1741
866.60 0.1741
866.70 0.174
866.80 0.1739
866.90 0.1739
867.00 0.1738
867.10 0.1738
867.20 0.1737
867.30 0.1736
867.40 0.1736
867.50 0.1735
867.60 0.1735
867.70 0.1734
867.80 0.1733
867.90 0.1733
868.00 0.1732
868.10 0.1732
868.20 0.1731
868.30 0.173
868.40 0.173
868.50 0.1729
868.60 0.1729
868.70 0.1728
868.80 0.1727
868.90 0.1727
869.00 0.1726
869.10 0.1726
869.20 0.1725
869.30 0.1725
869.40 0.1724
869.50 0.1723
869.60 0.1723
869.70 0.1722
869.80 0.1722
869.90 0.1721
870.00 0.172
870.10 0.172
870.20 0.1719
870.30 0.1719
870.40 0.1718
870.50 0.1717
870.60 0.1717
870.70 0.1716
870.80 0.1716
870.90 0.1715
871.00 0.1715
871.10 0.1714
871.20 0.1713
871.30 0.1713
871.40 0.1712
871.50 0.1712
871.60 0.1711
871.70 0.171
871.80 0.171
871.90 0.1709
872.00 0.1709
872.10 0.1708
872.20 0.1707
872.30 0.1707
872.40 0.1706
872.50 0.1706
872.60 0.1705
872.70 0.1704
872.80 0.1704
872.90 0.1703
873.00 0.1703
873.10 0.1702
873.20 0.1701
873.30 0.1701
873.40 0.17
873.50 0.17
873.60 0.1699
873.70 0.1698
873.80 0.1698
873.90 0.1697
874.00 0.1697
874.10 0.1696
874.20 0.1695
874.30 0.1695
874.40 0.1694
874.50 0.1694
874.60 0.1693
874.70 0.1693
874.80 0.1692
874.90 0.1691
875.00 0.1691
875.10 0.169
875.20 0.169
875.30 0.1689
875.40 0.1688
875.50 0.1688
875.60 0.1687
875.70 0.1687
875.80 0.1686
875.90 0.1685
876.00 0.1685
876.10 0.1684
876.20 0.1684
876.30 0.1683
876.40 0.1682
876.50 0.1682
876.60 0.1681
876.70 0.1681
876.80 0.168
876.90 0.168
877.00 0.1679
877.10 0.1678
877.20 0.1678
877.30 0.1677
877.40 0.1677
877.50 0.1676
877.60 0.1676
877.70 0.1675
877.80 0.1675
877.90 0.1674
878.00 0.1674
878.10 0.1673
878.20 0.1673
878.30 0.1672
878.40 0.1672
878.50 0.1671
878.60 0.167
878.70 0.167
878.80 0.1669
878.90 0.1669
879.00 0.1668
879.10 0.1668
879.20 0.1667
879.30 0.1667
879.40 0.1666
879.50 0.1666
879.60 0.1665
879.70 0.1665
879.80 0.1664
879.90 0.1664
880.00 0.1663
880.10 0.1663
880.20 0.1662
880.30 0.1662
880.40 0.1661
880.50 0.1661
880.60 0.166
880.70 0.166
880.80 0.1659
880.90 0.1658
881.00 0.1658
881.10 0.1657
881.20 0.1657
881.30 0.1656
881.40 0.1656
881.50 0.1655
881.60 0.1655
881.70 0.1654
881.80 0.1654
881.90 0.1653
882.00 0.1653
882.10 0.1652
882.20 0.1651
882.30 0.1651
882.40 0.165
882.50 0.1649
882.60 0.1649
882.70 0.1648
882.80 0.1647
882.90 0.1646
883.00 0.1646
883.10 0.1645
883.20 0.1644
883.30 0.1644
883.40 0.1643
883.50 0.1642
883.60 0.1641
883.70 0.1641
883.80 0.164
883.90 0.1639
884.00 0.1639
884.10 0.1638
884.20 0.1637
884.30 0.1637
884.40 0.1636
884.50 0.1635
884.60 0.1634
884.70 0.1634
884.80 0.1633
884.90 0.1632
885.00 0.1632
885.10 0.1631
885.20 0.163
885.30 0.1629
885.40 0.1629
885.50 0.1628
885.60 0.1627
885.70 0.1627
885.80 0.1626
885.90 0.1625
886.00 0.1625
886.10 0.1624
886.20 0.1623
886.30 0.1622
886.40 0.1622
886.50 0.1621
886.60 0.162
886.70 0.162
886.80 0.1619
886.90 0.1618
887.00 0.1618
887.10 0.1617
887.20 0.1617
887.30 0.1617
887.40 0.1616
887.50 0.1616
887.60 0.1616
887.70 0.1615
887.80 0.1615
887.90 0.1615
888.00 0.1614
888.10 0.1614
888.20 0.1614
888.30 0.1613
888.40 0.1613
888.50 0.1613
888.60 0.1612
888.70 0.1612
888.80 0.1612
888.90 0.1611
889.00 0.1611
889.10 0.1611
889.20 0.161
889.30 0.161
889.40 0.161
889.50 0.1609
889.60 0.1609
889.70 0.1609
889.80 0.1608
889.90 0.1608
890.00 0.1608
890.10 0.1607
890.20 0.1607
890.30 0.1607
890.40 0.1606
890.50 0.1606
890.60 0.1606
890.70 0.1605
890.80 0.1605
890.90 0.1605
891.00 0.1604
891.10 0.1604
891.20 0.1604
891.30 0.1603
891.40 0.1603
891.50 0.1603
891.60 0.1602
891.70 0.1602
891.80 0.1602
891.90 0.1601
892.00 0.1601
892.10 0.1601
892.20 0.16
892.30 0.16
892.40 0.1599
892.50 0.1599
892.60 0.1598
892.70 0.1597
892.80 0.1597
892.90 0.1596
893.00 0.1596
893.10 0.1595
893.20 0.1595
893.30 0.1594
893.40 0.1594
893.50 0.1593
893.60 0.1593
893.70 0.1592
893.80 0.1592
893.90 0.1591
894.00 0.1591
894.10 0.159
894.20 0.159
894.30 0.1589
894.40 0.1589
894.50 0.1588
894.60 0.1588
894.70 0.1587
894.80 0.1587
894.90 0.1586
895.00 0.1586
895.10 0.1585
895.20 0.1585
895.30 0.1584
895.40 0.1583
895.50 0.1583
895.60 0.1582
895.70 0.1582
895.80 0.1581
895.90 0.1581
896.00 0.158
896.10 0.158
896.20 0.1579
896.30 0.1579
896.40 0.1578
896.50 0.1578
896.60 0.1577
896.70 0.1577
896.80 0.1576
896.90 0.1576
897.00 0.1575
897.10 0.1574
897.20 0.1573
897.30 0.1572
897.40 0.1571
897.50 0.157
897.60 0.1569
897.70 0.1568
897.80 0.1567
897.90 0.1566
898.00 0.1565
898.10 0.1564
898.20 0.1563
898.30 0.1562
898.40 0.1561
898.50 0.1559
898.60 0.1558
898.70 0.1557
898.80 0.1556
898.90 0.1555
899.00 0.1554
899.10 0.1553
899.20 0.1552
899.30 0.1551
899.40 0.155
899.50 0.1549
899.60 0.1548
899.70 0.1547
899.80 0.1546
899.90 0.1545
900.00 0.1544
900.10 0.1543
900.20 0.1542
900.30 0.1541
900.40 0.154
900.50 0.1539
900.60 0.1538
900.70 0.1537
900.80 0.1536
900.90 0.1535
901.00 0.1533
901.10 0.1532
901.20 0.1531
901.30 0.153
901.40 0.1529
901.50 0.1528
901.60 0.1527
901.70 0.1526
901.80 0.1525
901.90 0.1524
902.00 0.1523
902.10 0.1523
902.20 0.1523
902.30 0.1523
902.40 0.1523
902.50 0.1523
902.60 0.1523
902.70 0.1523
902.80 0.1523
902.90 0.1523
903.00 0.1523
903.10 0.1523
903.20 0.1523
903.30 0.1523
903.40 0.1523
903.50 0.1523
903.60 0.1523
903.70 0.1523
903.80 0.1523
903.90 0.1523
904.00 0.1523
904.10 0.1523
904.20 0.1523
904.30 0.1523
904.40 0.1523
904.50 0.1523
904.60 0.1523
904.70 0.1522
904.80 0.1522
904.90 0.1522
905.00 0.1522
905.10 0.1522
905.20 0.1522
905.30 0.1522
905.40 0.1522
905.50 0.1522
905.60 0.1522
905.70 0.1522
905.80 0.1522
905.90 0.1522
906.00 0.1522
906.10 0.1522
906.20 0.1522
906.30 0.1522
906.40 0.1522
906.50 0.1522
906.60 0.1522
906.70 0.1522
906.80 0.1522
906.90 0.1522
907.00 0.1522
907.10 0.1522
907.20 0.1521
907.30 0.1521
907.40 0.1521
907.50 0.152
907.60 0.152
907.70 0.152
907.80 0.1519
907.90 0.1519
908.00 0.1519
908.10 0.1518
908.20 0.1518
908.30 0.1518
908.40 0.1517
908.50 0.1517
908.60 0.1517
908.70 0.1516
908.80 0.1516
908.90 0.1516
909.00 0.1515
909.10 0.1515
909.20 0.1515
909.30 0.1514
909.40 0.1514
909.50 0.1514
909.60 0.1514
909.70 0.1513
909.80 0.1513
909.90 0.1513
910.00 0.1512
910.10 0.1512
910.20 0.1512
910.30 0.1511
910.40 0.1511
910.50 0.1511
910.60 0.151
910.70 0.151
910.80 0.151
910.90 0.1509
911.00 0.1509
911.10 0.1509
911.20 0.1508
911.30 0.1508
911.40 0.1508
911.50 0.1507
911.60 0.1507
911.70 0.1507
911.80 0.1506
911.90 0.1506
912.00 0.1506
912.10 0.1505
912.20 0.1505
912.30 0.1504
912.40 0.1503
912.50 0.1503
912.60 0.1502
912.70 0.1501
912.80 0.1501
912.90 0.15
913.00 0.1499
913.10 0.1499
913.20 0.1498
913.30 0.1497
913.40 0.1497
913.50 0.1496
913.60 0.1495
913.70 0.1495
913.80 0.1494
913.90 0.1493
914.00 0.1493
914.10 0.1492
914.20 0.1491
914.30 0.1491
914.40 0.149
914.50 0.1489
914.60 0.1489
914.70 0.1488
914.80 0.1487
914.90 0.1487
915.00 0.1486
915.10 0.1485
915.20 0.1485
915.30 0.1484
915.40 0.1483
915.50 0.1483
915.60 0.1482
915.70 0.1481
915.80 0.1481
915.90 0.148
916.00 0.1479
916.10 0.1479
916.20 0.1478
916.30 0.1477
916.40 0.1477
916.50 0.1476
916.60 0.1475
916.70 0.1475
916.80 0.1474
916.90 0.1473
917.00 0.1473
917.10 0.1471
917.20 0.147
917.30 0.1469
917.40 0.1468
917.50 0.1466
917.60 0.1465
917.70 0.1464
917.80 0.1463
917.90 0.1461
918.00 0.146
918.10 0.1459
918.20 0.1458
918.30 0.1456
918.40 0.1455
918.50 0.1454
918.60 0.1452
918.70 0.1451
918.80 0.145
918.90 0.1449
919.00 0.1447
919.10 0.1446
919.20 0.1445
919.30 0.1444
919.40 0.1442
919.50 0.1441
919.60 0.144
919.70 0.1439
919.80 0.1437
919.90 0.1436
920.00 0.1435
920.10 0.1434
920.20 0.1432
920.30 0.1431
920.40 0.143
920.50 0.1429
920.60 0.1427
920.70 0.1426
920.80 0.1425
920.90 0.1424
921.00 0.1422
921.10 0.1421
921.20 0.142
921.30 0.1419
921.40 0.1417
921.50 0.1416
921.60 0.1415
921.70 0.1414
921.80 0.1412
921.90 0.1411
922.00 0.141
922.10 0.1409
922.20 0.1408
922.30 0.1407
922.40 0.1406
922.50 0.1406
922.60 0.1405
922.70 0.1404
922.80 0.1403
922.90 0.1402
923.00 0.1401
923.10 0.1401
923.20 0.14
923.30 0.1399
923.40 0.1398
923.50 0.1397
923.60 0.1396
923.70 0.1396
923.80 0.1395
923.90 0.1394
924.00 0.1393
924.10 0.1392
924.20 0.1391
924.30 0.1391
924.40 0.139
924.50 0.1389
924.60 0.1388
924.70 0.1387
924.80 0.1386
924.90 0.1386
925.00 0.1385
925.10 0.1384
925.20 0.1383
925.30 0.1382
925.40 0.1381
925.50 0.1381
925.60 0.138
925.70 0.1379
925.80 0.1378
925.90 0.1377
926.00 0.1376
926.10 0.1376
926.20 0.1375
926.30 0.1374
926.40 0.1373
926.50 0.1372
926.60 0.1371
926.70 0.1371
926.80 0.137
926.90 0.1369
927.00 0.1368
927.10 0.1369
927.20 0.1369
927.30 0.137
927.40 0.137
927.50 0.137
927.60 0.1371
927.70 0.1371
927.80 0.1372
927.90 0.1372
928.00 0.1373
928.10 0.1373
928.20 0.1374
928.30 0.1374
928.40 0.1375
928.50 0.1375
928.60 0.1376
928.70 0.1376
928.80 0.1377
928.90 0.1377
929.00 0.1377
929.10 0.1378
929.20 0.1378
929.30 0.1379
929.40 0.1379
929.50 0.138
929.60 0.138
929.70 0.1381
929.80 0.1381
929.90 0.1382
930.00 0.1382
930.10 0.1383
930.20 0.1383
930.30 0.1383
930.40 0.1384
930.50 0.1384
930.60 0.1385
930.70 0.1385
930.80 0.1386
930.90 0.1386
931.00 0.1387
931.10 0.1387
931.20 0.1388
931.30 0.1388
931.40 0.1388
931.50 0.1389
931.60 0.1389
931.70 0.139
931.80 0.139
931.90 0.1391
932.00 0.1391
932.10 0.1391
932.20 0.1391
932.30 0.1391
932.40 0.1391
932.50 0.1391
932.60 0.1391
932.70 0.1391
932.80 0.1391
932.90 0.1391
933.00 0.1391
933.10 0.1391
933.20 0.1391
933.30 0.1391
933.40 0.1391
933.50 0.1391
933.60 0.1391
933.70 0.1391
933.80 0.1391
933.90 0.1391
934.00 0.1391
934.10 0.1391
934.20 0.1391
934.30 0.1391
934.40 0.139
934.50 0.139
934.60 0.139
934.70 0.139
934.80 0.1389
934.90 0.1389
935.00 0.1389
935.10 0.1389
935.20 0.1388
935.30 0.1388
935.40 0.1388
935.50 0.1388
935.60 0.1387
935.70 0.1387
935.80 0.1387
935.90 0.1387
936.00 0.1386
936.10 0.1386
936.20 0.1386
936.30 0.1386
936.40 0.1385
936.50 0.1385
936.60 0.1385
936.70 0.1385
936.80 0.1384
936.90 0.1384
937.00 0.1384
937.10 0.1383
937.20 0.1383
937.30 0.1383
937.40 0.1382
937.50 0.1382
937.60 0.1381
937.70 0.1381
937.80 0.1381
937.90 0.138
938.00 0.138
938.10 0.1379
938.20 0.1379
938.30 0.1379
938.40 0.1378
938.50 0.1378
938.60 0.1377
938.70 0.1377
938.80 0.1376
938.90 0.1376
939.00 0.1375
939.10 0.1375
939.20 0.1374
939.30 0.1373
939.40 0.1373
939.50 0.1372
939.60 0.1372
939.70 0.1371
939.80 0.1371
939.90 0.137
940.00 0.137
940.10 0.1369
940.20 0.1369
940.30 0.1368
940.40 0.1368
940.50 0.1367
940.60 0.1366
940.70 0.1366
940.80 0.1365
940.90 0.1364
941.00 0.1364
941.10 0.1363
941.20 0.1362
941.30 0.1362
941.40 0.1361
941.50 0.136
941.60 0.136
941.70 0.1359
941.80 0.1358
941.90 0.1358
942.00 0.1357
942.10 0.1356
942.20 0.1355
942.30 0.1355
942.40 0.1354
942.50 0.1353
942.60 0.1352
942.70 0.1351
942.80 0.135
942.90 0.1349
943.00 0.1348
943.10 0.1347
943.20 0.1346
943.30 0.1345
943.40 0.1344
943.50 0.1343
943.60 0.1343
943.70 0.1342
943.80 0.1341
943.90 0.134
944.00 0.1339
944.10 0.1338
944.20 0.1337
944.30 0.1336
944.40 0.1335
944.50 0.1334
944.60 0.1332
944.70 0.1331
944.80 0.133
944.90 0.1329
945.00 0.1328
945.10 0.1326
945.20 0.1325
945.30 0.1324
945.40 0.1323
945.50 0.1321
945.60 0.132
945.70 0.1318
945.80 0.1317
945.90 0.1315
946.00 0.1313
946.10 0.1312
946.20 0.131
946.30 0.1309
946.40 0.1307
946.50 0.1306
946.60 0.1304
946.70 0.1303
946.80 0.1301
946.90 0.13
947.00 0.1298
947.10 0.1297
947.20 0.1295
947.30 0.1293
947.40 0.1291
947.50 0.1289
947.60 0.1287
947.70 0.1285
947.80 0.1282
947.90 0.128
948.00 0.1278
948.10 0.1276
948.20 0.1274
948.30 0.1272
948.40 0.127
948.50 0.1268
948.60 0.1266
948.70 0.1263
948.80 0.1261
948.90 0.1259
949.00 0.1257
949.10 0.1255
949.20 0.1253
949.30 0.1251
949.40 0.1248
949.50 0.1246
949.60 0.1243
949.70 0.1241
949.80 0.1239
949.90 0.1236
950.00 0.1234
950.10 0.1231
950.20 0.1229
950.30 0.1226
950.40 0.1224
950.50 0.1221
950.60 0.1219
950.70 0.1216
950.80 0.1214
950.90 0.1212
951.00 0.1209
951.10 0.1207
951.20 0.1204
951.30 0.1202
951.40 0.12
951.50 0.1197
951.60 0.1195
951.70 0.1193
951.80 0.1191
951.90 0.1189
952.00 0.1186
952.10 0.1185
952.20 0.1183
952.30 0.1182
952.40 0.118
952.50 0.1178
952.60 0.1177
952.70 0.1175
952.80 0.1174
952.90 0.1173
953.00 0.1173
953.10 0.1173
953.20 0.1172
953.30 0.1172
953.40 0.1171
953.50 0.1171
953.60 0.1176
953.70 0.118
953.80 0.1185
953.90 0.1189
954.00 0.1196
954.10 0.1202
954.20 0.1208
954.30 0.1191
954.40 0.1168
954.50 0.1162
954.60 0.1155
954.70 0.1149
954.80 0.1145
954.90 0.1141
955.00 0.1136
955.10 0.1132
955.20 0.113
955.30 0.1129
955.40 0.1127
955.50 0.1126
955.60 0.1124
955.70 0.1122
955.80 0.1121
955.90 0.1121
956.00 0.1122
956.10 0.1122
956.20 0.1122
956.30 0.1123
956.40 0.1123
956.50 0.1123
956.60 0.1124
956.70 0.1124
956.80 0.1124
956.90 0.1125
957.00 0.1125
957.10 0.1126
957.20 0.1127
957.30 0.1128
957.40 0.1129
957.50 0.113
957.60 0.1132
957.70 0.1133
957.80 0.1134
957.90 0.1135
958.00 0.1137
958.10 0.1138
958.20 0.1139
958.30 0.114
958.40 0.1141
958.50 0.1143
958.60 0.1144
958.70 0.1145
958.80 0.1146
958.90 0.1147
959.00 0.1149
959.10 0.115
959.20 0.1151
959.30 0.1152
959.40 0.1153
959.50 0.1154
959.60 0.1156
959.70 0.1157
959.80 0.1158
959.90 0.1159
960.00 0.116
960.10 0.1161
960.20 0.1162
960.30 0.1163
960.40 0.1164
960.50 0.1166
960.60 0.1167
960.70 0.1168
960.80 0.1169
960.90 0.117
961.00 0.1171
961.10 0.1172
961.20 0.1173
961.30 0.1174
961.40 0.1175
961.50 0.1176
961.60 0.1177
961.70 0.1178
961.80 0.1179
961.90 0.118
962.00 0.1181
962.10 0.1182
962.20 0.1183
962.30 0.1183
962.40 0.1184
962.50 0.1185
962.60 0.1186
962.70 0.1187
962.80 0.1187
962.90 0.1188
963.00 0.1189
963.10 0.119
963.20 0.1191
963.30 0.1191
963.40 0.1192
963.50 0.1193
963.60 0.1193
963.70 0.1194
963.80 0.1195
963.90 0.1195
964.00 0.1196
964.10 0.1197
964.20 0.1197
964.30 0.1198
964.40 0.1198
964.50 0.1199
964.60 0.1199
964.70 0.12
964.80 0.12
964.90 0.1201
965.00 0.1201
965.10 0.1202
965.20 0.1202
965.30 0.1203
965.40 0.1203
965.50 0.1204
965.60 0.1204
965.70 0.1205
965.80 0.1205
965.90 0.1206
966.00 0.1206
966.10 0.1206
966.20 0.1207
966.30 0.1207
966.40 0.1208
966.50 0.1208
966.60 0.1208
966.70 0.1209
966.80 0.1209
966.90 0.1209
967.00 0.121
967.10 0.121
967.20 0.121
967.30 0.121
967.40 0.1211
967.50 0.1211
967.60 0.1211
967.70 0.1211
967.80 0.1212
967.90 0.1212
968.00 0.1212
968.10 0.1212
968.20 0.1212
968.30 0.1213
968.40 0.1213
968.50 0.1213
968.60 0.1213
968.70 0.1213
968.80 0.1213
968.90 0.1213
969.00 0.1213
969.10 0.1213
969.20 0.1213
969.30 0.1214
969.40 0.1214
969.50 0.1214
969.60 0.1214
969.70 0.1214
969.80 0.1214
969.90 0.1214
970.00 0.1214
970.10 0.1214
970.20 0.1214
970.30 0.1214
970.40 0.1214
970.50 0.1214
970.60 0.1214
970.70 0.1214
970.80 0.1214
970.90 0.1214
971.00 0.1214
971.10 0.1214
971.20 0.1214
971.30 0.1214
971.40 0.1214
971.50 0.1214
971.60 0.1214
971.70 0.1214
971.80 0.1214
971.90 0.1214
972.00 0.1214
972.10 0.1213
972.20 0.1213
972.30 0.1213
972.40 0.1213
972.50 0.1213
972.60 0.1213
972.70 0.1212
972.80 0.1212
972.90 0.1212
973.00 0.1212
973.10 0.1212
973.20 0.1212
973.30 0.1211
973.40 0.1211
973.50 0.1211
973.60 0.1211
973.70 0.1211
973.80 0.1211
973.90 0.121
974.00 0.121
974.10 0.121
974.20 0.121
974.30 0.121
974.40 0.121
974.50 0.1209
974.60 0.1209
974.70 0.1209
974.80 0.1208
974.90 0.1208
975.00 0.1208
975.10 0.1207
975.20 0.1207
975.30 0.1207
975.40 0.1207
975.50 0.1206
975.60 0.1206
975.70 0.1206
975.80 0.1205
975.90 0.1205
976.00 0.1205
976.10 0.1205
976.20 0.1204
976.30 0.1204
976.40 0.1204
976.50 0.1203
976.60 0.1203
976.70 0.1203
976.80 0.1203
976.90 0.1202
977.00 0.1202
977.10 0.1201
977.20 0.1201
977.30 0.1201
977.40 0.12
977.50 0.12
977.60 0.1199
977.70 0.1199
977.80 0.1198
977.90 0.1198
978.00 0.1197
978.10 0.1197
978.20 0.1196
978.30 0.1196
978.40 0.1195
978.50 0.1195
978.60 0.1195
978.70 0.1194
978.80 0.1194
978.90 0.1193
979.00 0.1193
979.10 0.1192
979.20 0.1192
979.30 0.1191
979.40 0.1191
979.50 0.119
979.60 0.119
979.70 0.119
979.80 0.1189
979.90 0.1189
980.00 0.1188
980.10 0.1188
980.20 0.1187
980.30 0.1187
980.40 0.1186
980.50 0.1186
980.60 0.1185
980.70 0.1185
980.80 0.1184
980.90 0.1184
981.00 0.1184
981.10 0.1183
981.20 0.1183
981.30 0.1182
981.40 0.1182
981.50 0.1181
981.60 0.1181
981.70 0.118
981.80 0.118
981.90 0.1179
982.00 0.1179
982.10 0.1178
982.20 0.1178
982.30 0.1177
982.40 0.1176
982.50 0.1176
982.60 0.1175
982.70 0.1174
982.80 0.1174
982.90 0.1173
983.00 0.1172
983.10 0.1172
983.20 0.1171
983.30 0.1171
983.40 0.117
983.50 0.1169
983.60 0.1169
983.70 0.1168
983.80 0.1167
983.90 0.1167
984.00 0.1166
984.10 0.1165
984.20 0.1165
984.30 0.1164
984.40 0.1163
984.50 0.1163
984.60 0.1162
984.70 0.1161
984.80 0.1161
984.90 0.116
985.00 0.1159
985.10 0.1158
985.20 0.1157
985.30 0.1157
985.40 0.1156
985.50 0.1155
985.60 0.1154
985.70 0.1153
985.80 0.1152
985.90 0.1152
986.00 0.1151
986.10 0.115
986.20 0.1149
986.30 0.1148
986.40 0.1148
986.50 0.1147
986.60 0.1146
986.70 0.1145
986.80 0.1144
986.90 0.1144
987.00 0.1143
987.10 0.1142
987.20 0.1141
987.30 0.114
987.40 0.1139
987.50 0.1138
987.60 0.1137
987.70 0.1136
987.80 0.1135
987.90 0.1134
988.00 0.1133
988.10 0.1132
988.20 0.1131
988.30 0.113
988.40 0.1129
988.50 0.1128
988.60 0.1127
988.70 0.1126
988.80 0.1125
988.90 0.1124
989.00 0.1123
989.10 0.1122
989.20 0.112
989.30 0.1119
989.40 0.1118
989.50 0.1117
989.60 0.1116
989.70 0.1115
989.80 0.1113
989.90 0.1112
990.00 0.1111
990.10 0.111
990.20 0.1109
990.30 0.1108
990.40 0.1107
990.50 0.1105
990.60 0.1104
990.70 0.1103
990.80 0.1102
990.90 0.11
991.00 0.1099
991.10 0.1098
991.20 0.1096
991.30 0.1095
991.40 0.1094
991.50 0.1092
991.60 0.1091
991.70 0.109
991.80 0.1088
991.90 0.1087
992.00 0.1086
992.10 0.1084
992.20 0.1083
992.30 0.1081
992.40 0.108
992.50 0.1078
992.60 0.1077
992.70 0.1075
992.80 0.1074
992.90 0.1072
993.00 0.107
993.10 0.1069
993.20 0.1067
993.30 0.1066
993.40 0.1064
993.50 0.1062
993.60 0.1061
993.70 0.1059
993.80 0.1057
993.90 0.1056
994.00 0.1054
994.10 0.1053
994.20 0.1051
994.30 0.1049
994.40 0.1048
994.50 0.1046
994.60 0.1044
994.70 0.1043
994.80 0.1041
994.90 0.1039
995.00 0.1037
995.10 0.1035
995.20 0.1034
995.30 0.1032
995.40 0.103
995.50 0.1028
995.60 0.1026
995.70 0.1025
995.80 0.1023
995.90 0.1021
996.00 0.1019
996.10 0.1017
996.20 0.1015
996.30 0.1013
996.40 0.1011
996.50 0.1009
996.60 0.1007
996.70 0.1005
996.80 0.1003
996.90 0.1001
997.00 0.0999
997.10 0.0997
997.20 0.09949
997.30 0.09928
997.40 0.09907
997.50 0.09886
997.60 0.09866
997.70 0.09844
997.80 0.09821
997.90 0.09799
998.00 0.09777
998.10 0.09754
998.20 0.09732
998.30 0.0971
998.40 0.09687
998.50 0.09665
998.60 0.09643
998.70 0.0962
998.80 0.09598
998.90 0.09576
999.00 0.09554
999.10 0.09532
999.20 0.09509
999.30 0.09487
999.40 0.09465
999.50 0.09443
999.60 0.0942
999.70 0.09397
999.80 0.09374
999.90 0.09351
1000.00 0.09327
1000.10 0.09304
1000.20 0.0928
1000.30 0.09257
1000.40 0.09234
1000.50 0.0921
1000.60 0.09187
1000.70 0.09164
1000.80 0.09141
1000.90 0.09117
1001.00 0.09094
1001.10 0.09071
1001.20 0.09047
1001.30 0.09024
1001.40 0.09001
1001.50 0.08978
1001.60 0.08954
1001.70 0.08932
1001.80 0.0891
1001.90 0.08887
1002.00 0.08865
1002.10 0.08846
1002.20 0.08826
1002.30 0.08807
1002.40 0.08788
1002.50 0.08769
1002.60 0.08749
1002.70 0.0873
1002.80 0.08711
1002.90 0.08692
1003.00 0.08672
1003.10 0.08653
1003.20 0.08645
1003.30 0.08639
1003.40 0.08634
1003.50 0.08629
1003.60 0.08624
1003.70 0.08618
1003.80 0.08613
1003.90 0.08628
1004.00 0.0865
1004.10 0.08671
1004.20 0.08693
1004.30 0.08738
1004.40 0.0879
1004.50 0.08847
1004.60 0.08912
1004.70 0.08811
1004.80 0.08739
1004.90 0.08684
1005.00 0.0863
1005.10 0.08598
1005.20 0.08575
1005.30 0.08551
1005.40 0.08527
1005.50 0.08523
1005.60 0.08524
1005.70 0.08526
1005.80 0.08528
1005.90 0.08529
1006.00 0.08531
1006.10 0.08533
1006.20 0.08542
1006.30 0.08554
1006.40 0.08566
1006.50 0.08578
1006.60 0.0859
1006.70 0.08601
1006.80 0.08613
1006.90 0.08625
1007.00 0.08637
1007.10 0.08652
1007.20 0.08667
1007.30 0.08682
1007.40 0.08697
1007.50 0.08713
1007.60 0.08728
1007.70 0.08743
1007.80 0.08759
1007.90 0.08775
1008.00 0.0879
1008.10 0.08806
1008.20 0.08822
1008.30 0.08838
1008.40 0.08853
1008.50 0.08869
1008.60 0.08885
1008.70 0.089
1008.80 0.08916
1008.90 0.08932
1009.00 0.08948
1009.10 0.08963
1009.20 0.08979
1009.30 0.08995
1009.40 0.0901
1009.50 0.09026
1009.60 0.09041
1009.70 0.09056
1009.80 0.09069
1009.90 0.09083
1010.00 0.09097
1010.10 0.0911
1010.20 0.09124
1010.30 0.09137
1010.40 0.09151
1010.50 0.09165
1010.60 0.09178
1010.70 0.09192
1010.80 0.09205
1010.90 0.09219
1011.00 0.09233
1011.10 0.09246
1011.20 0.0926
1011.30 0.09273
1011.40 0.09287
1011.50 0.09301
1011.60 0.09314
1011.70 0.09326
1011.80 0.09338
1011.90 0.0935
1012.00 0.09362
1012.10 0.09373
1012.20 0.09383
1012.30 0.09394
1012.40 0.09404
1012.50 0.09415
1012.60 0.09425
1012.70 0.09436
1012.80 0.09446
1012.90 0.09457
1013.00 0.09467
1013.10 0.09478
1013.20 0.09488
1013.30 0.09499
1013.40 0.09509
1013.50 0.0952
1013.60 0.0953
1013.70 0.09539
1013.80 0.09548
1013.90 0.09557
1014.00 0.09566
1014.10 0.09574
1014.20 0.09583
1014.30 0.09592
1014.40 0.09601
1014.50 0.09609
1014.60 0.09618
1014.70 0.09626
1014.80 0.09633
1014.90 0.0964
1015.00 0.09647
1015.10 0.09654
1015.20 0.09661
1015.30 0.09668
1015.40 0.09675
1015.50 0.09682
1015.60 0.09689
1015.70 0.09696
1015.80 0.09703
1015.90 0.0971
1016.00 0.09717
1016.10 0.09724
1016.20 0.09731
1016.30 0.09738
1016.40 0.09745
1016.50 0.09752
1016.60 0.09759
1016.70 0.09765
1016.80 0.09771
1016.90 0.09777
1017.00 0.09783
1017.10 0.09788
1017.20 0.09793
1017.30 0.09798
1017.40 0.09803
1017.50 0.09808
1017.60 0.09813
1017.70 0.09817
1017.80 0.09822
1017.90 0.09827
1018.00 0.09832
1018.10 0.09837
1018.20 0.09842
1018.30 0.09847
1018.40 0.09852
1018.50 0.09857
1018.60 0.09862
1018.70 0.09866
1018.80 0.09869
1018.90 0.09873
1019.00 0.09876
1019.10 0.0988
1019.20 0.09883
1019.30 0.09887
1019.40 0.0989
1019.50 0.09894
1019.60 0.09897
1019.70 0.09901
1019.80 0.09904
1019.90 0.09908
1020.00 0.09912
1020.10 0.09915
1020.20 0.09919
1020.30 0.09922
1020.40 0.09926
1020.50 0.09929
1020.60 0.09933
1020.70 0.09935
1020.80 0.09938
1020.90 0.0994
1021.00 0.09943
1021.10 0.09945
1021.20 0.09947
1021.30 0.0995
1021.40 0.09952
1021.50 0.09955
1021.60 0.09957
1021.70 0.0996
1021.80 0.09962
1021.90 0.09964
1022.00 0.09967
1022.10 0.09968
1022.20 0.0997
1022.30 0.09971
1022.40 0.09972
1022.50 0.09974
1022.60 0.09975
1022.70 0.09976
1022.80 0.09978
1022.90 0.09979
1023.00 0.0998
1023.10 0.09982
1023.20 0.09983
1023.30 0.09984
1023.40 0.09986
1023.50 0.09987
1023.60 0.09988
1023.70 0.0999
1023.80 0.09991
1023.90 0.09992
1024.00 0.09994
1024.10 0.09995
1024.20 0.09996
1024.30 0.09998
1024.40 0.09999
1024.50 0.1
1024.60 0.1
1024.70 0.1
1024.80 0.1
1024.90 0.1
1025.00 0.1
1025.10 0.1
1025.20 0.1
1025.30 0.1
1025.40 0.1
1025.50 0.1
1025.60 0.1001
1025.70 0.1001
1025.80 0.1001
1025.90 0.1001
1026.00 0.1001
1026.10 0.1001
1026.20 0.1001
1026.30 0.1001
1026.40 0.1001
1026.50 0.1001
1026.60 0.1001
1026.70 0.1001
1026.80 0.1001
1026.90 0.1001
1027.00 0.1001
1027.10 0.1001
1027.20 0.1001
1027.30 0.1001
1027.40 0.1001
1027.50 0.1
1027.60 0.1
1027.70 0.1
1027.80 0.1
1027.90 0.1
1028.00 0.1
1028.10 0.1
1028.20 0.09999
1028.30 0.09998
1028.40 0.09997
1028.50 0.09996
1028.60 0.09995
1028.70 0.09995
1028.80 0.09994
1028.90 0.09993
1029.00 0.09992
1029.10 0.09991
1029.20 0.0999
1029.30 0.09989
1029.40 0.09989
1029.50 0.09988
1029.60 0.09987
1029.70 0.09986
1029.80 0.09985
1029.90 0.09984
1030.00 0.09983
1030.10 0.09983
1030.20 0.09982
1030.30 0.09981
1030.40 0.0998
1030.50 0.09979
1030.60 0.09978
1030.70 0.09978
1030.80 0.09977
1030.90 0.09976
1031.00 0.09975
1031.10 0.09974
1031.20 0.09973
1031.30 0.09972
1031.40 0.09972
1031.50 0.09971
1031.60 0.0997
1031.70 0.09969
1031.80 0.09968
1031.90 0.09967
1032.00 0.09966
1032.10 0.09965
1032.20 0.09963
1032.30 0.09961
1032.40 0.09959
1032.50 0.09957
1032.60 0.09955
1032.70 0.09953
1032.80 0.09951
1032.90 0.0995
1033.00 0.09948
1033.10 0.09946
1033.20 0.09944
1033.30 0.09942
1033.40 0.0994
1033.50 0.09938
1033.60 0.09937
1033.70 0.09935
1033.80 0.09933
1033.90 0.09931
1034.00 0.09929
1034.10 0.09927
1034.20 0.09925
1034.30 0.09923
1034.40 0.09922
1034.50 0.0992
1034.60 0.09918
1034.70 0.09916
1034.80 0.09914
1034.90 0.09912
1035.00 0.0991
1035.10 0.09909
1035.20 0.09907
1035.30 0.09905
1035.40 0.09903
1035.50 0.09901
1035.60 0.09899
1035.70 0.09897
1035.80 0.09896
1035.90 0.09894
1036.00 0.09892
1036.10 0.0989
1036.20 0.09888
1036.30 0.09886
1036.40 0.09884
1036.50 0.09883
1036.60 0.09881
1036.70 0.09879
1036.80 0.09877
1036.90 0.09875
1037.00 0.09873
1037.10 0.09871
1037.20 0.09868
1037.30 0.09866
1037.40 0.09863
1037.50 0.09861
1037.60 0.09858
1037.70 0.09855
1037.80 0.09853
1037.90 0.0985
1038.00 0.09848
1038.10 0.09845
1038.20 0.09843
1038.30 0.0984
1038.40 0.09838
1038.50 0.09835
1038.60 0.09833
1038.70 0.0983
1038.80 0.09828
1038.90 0.09825
1039.00 0.09822
1039.10 0.0982
1039.20 0.09817
1039.30 0.09815
1039.40 0.09812
1039.50 0.0981
1039.60 0.09807
1039.70 0.09805
1039.80 0.09802
1039.90 0.098
1040.00 0.09797
1040.10 0.09795
1040.20 0.09792
1040.30 0.0979
1040.40 0.09787
1040.50 0.09785
1040.60 0.09782
1040.70 0.0978
1040.80 0.09777
1040.90 0.09775
1041.00 0.09772
1041.10 0.0977
1041.20 0.09767
1041.30 0.09765
1041.40 0.09762
1041.50 0.09759
1041.60 0.09757
1041.70 0.09754
1041.80 0.09752
1041.90 0.09749
1042.00 0.09747
1042.10 0.09744
1042.20 0.09741
1042.30 0.09738
1042.40 0.09735
1042.50 0.09732
1042.60 0.09729
1042.70 0.09726
1042.80 0.09723
1042.90 0.0972
1043.00 0.09717
1043.10 0.09714
1043.20 0.09712
1043.30 0.09709
1043.40 0.09706
1043.50 0.09703
1043.60 0.097
1043.70 0.09697
1043.80 0.09694
1043.90 0.09691
1044.00 0.09688
1044.10 0.09685
1044.20 0.09682
1044.30 0.09679
1044.40 0.09676
1044.50 0.09673
1044.60 0.0967
1044.70 0.09667
1044.80 0.09665
1044.90 0.09662
1045.00 0.09659
1045.10 0.09656
1045.20 0.09653
1045.30 0.0965
1045.40 0.09647
1045.50 0.09644
1045.60 0.09641
1045.70 0.09638
1045.80 0.09635
1045.90 0.09632
1046.00 0.09629
1046.10 0.09627
1046.20 0.09624
1046.30 0.09621
1046.40 0.09618
1046.50 0.09615
1046.60 0.09612
1046.70 0.09609
1046.80 0.09606
1046.90 0.09603
1047.00 0.096
1047.10 0.09597
1047.20 0.09594
1047.30 0.0959
1047.40 0.09587
1047.50 0.09584
1047.60 0.0958
1047.70 0.09577
1047.80 0.09574
1047.90 0.0957
1048.00 0.09567
1048.10 0.09564
1048.20 0.0956
1048.30 0.09557
1048.40 0.09554
1048.50 0.0955
1048.60 0.09547
1048.70 0.09544
1048.80 0.0954
1048.90 0.09537
1049.00 0.09534
1049.10 0.0953
1049.20 0.09527
1049.30 0.09524
1049.40 0.09521
1049.50 0.09517
1049.60 0.09514
1049.70 0.09511
1049.80 0.09507
1049.90 0.09504
1050.00 0.09501
1050.10 0.09497
1050.20 0.09494
1050.30 0.09491
1050.40 0.09487
1050.50 0.09484
1050.60 0.09481
1050.70 0.09478
1050.80 0.09474
1050.90 0.09471
1051.00 0.09468
1051.10 0.09464
1051.20 0.09461
1051.30 0.09458
1051.40 0.09455
1051.50 0.09451
1051.60 0.09448
1051.70 0.09445
1051.80 0.09441
1051.90 0.09438
1052.00 0.09435
1052.10 0.09431
1052.20 0.09428
1052.30 0.09424
1052.40 0.0942
1052.50 0.09417
1052.60 0.09413
1052.70 0.09409
1052.80 0.09406
1052.90 0.09402
1053.00 0.09398
1053.10 0.09395
1053.20 0.09391
1053.30 0.09387
1053.40 0.09384
1053.50 0.0938
1053.60 0.09377
1053.70 0.09373
1053.80 0.09369
1053.90 0.09366
1054.00 0.09362
1054.10 0.09358
1054.20 0.09355
1054.30 0.09351
1054.40 0.09348
1054.50 0.09344
1054.60 0.0934
1054.70 0.09337
1054.80 0.09333
1054.90 0.09329
1055.00 0.09326
1055.10 0.09322
1055.20 0.09319
1055.30 0.09315
1055.40 0.09311
1055.50 0.09308
1055.60 0.09304
1055.70 0.09301
1055.80 0.09297
1055.90 0.09293
1056.00 0.0929
1056.10 0.09286
1056.20 0.09283
1056.30 0.09279
1056.40 0.09275
1056.50 0.09272
1056.60 0.09268
1056.70 0.09265
1056.80 0.09261
1056.90 0.09257
1057.00 0.09254
1057.10 0.0925
1057.20 0.09246
1057.30 0.09241
1057.40 0.09237
1057.50 0.09233
1057.60 0.09229
1057.70 0.09225
1057.80 0.09221
1057.90 0.09217
1058.00 0.09213
1058.10 0.09209
1058.20 0.09205
1058.30 0.092
1058.40 0.09196
1058.50 0.09192
1058.60 0.09188
1058.70 0.09184
1058.80 0.0918
1058.90 0.09176
1059.00 0.09172
1059.10 0.09168
1059.20 0.09164
1059.30 0.09159
1059.40 0.09155
1059.50 0.09151
1059.60 0.09147
1059.70 0.09143
1059.80 0.09139
1059.90 0.09135
1060.00 0.09131
1060.10 0.09127
1060.20 0.09123
1060.30 0.09119
1060.40 0.09115
1060.50 0.09111
1060.60 0.09106
1060.70 0.09102
1060.80 0.09098
1060.90 0.09094
1061.00 0.0909
1061.10 0.09086
1061.20 0.09082
1061.30 0.09078
1061.40 0.09074
1061.50 0.0907
1061.60 0.09066
1061.70 0.09062
1061.80 0.09058
1061.90 0.09054
1062.00 0.0905
1062.10 0.09045
1062.20 0.0904
1062.30 0.09035
1062.40 0.09031
1062.50 0.09026
1062.60 0.09021
1062.70 0.09017
1062.80 0.09012
1062.90 0.09007
1063.00 0.09003
1063.10 0.08998
1063.20 0.08993
1063.30 0.08988
1063.40 0.08984
1063.50 0.08979
1063.60 0.08974
1063.70 0.0897
1063.80 0.08965
1063.90 0.0896
1064.00 0.08956
1064.10 0.08951
1064.20 0.08946
1064.30 0.08942
1064.40 0.08937
1064.50 0.08932
1064.60 0.08928
1064.70 0.08923
1064.80 0.08918
1064.90 0.08913
1065.00 0.08909
1065.10 0.08904
1065.20 0.08899
1065.30 0.08895
1065.40 0.0889
1065.50 0.08885
1065.60 0.08881
1065.70 0.08876
1065.80 0.08872
1065.90 0.08867
1066.00 0.08862
1066.10 0.08858
1066.20 0.08853
1066.30 0.08848
1066.40 0.08844
1066.50 0.08839
1066.60 0.08834
1066.70 0.0883
1066.80 0.08825
1066.90 0.0882
1067.00 0.08816
1067.10 0.0881
1067.20 0.08804
1067.30 0.08799
1067.40 0.08793
1067.50 0.08788
1067.60 0.08782
1067.70 0.08776
1067.80 0.08771
1067.90 0.08765
1068.00 0.08759
1068.10 0.08754
1068.20 0.08748
1068.30 0.08743
1068.40 0.08737
1068.50 0.08731
1068.60 0.08726
1068.70 0.0872
1068.80 0.08714
1068.90 0.08709
1069.00 0.08703
1069.10 0.08698
1069.20 0.08692
1069.30 0.08686
1069.40 0.08681
1069.50 0.08675
1069.60 0.0867
1069.70 0.08664
1069.80 0.08658
1069.90 0.08653
1070.00 0.08647
1070.10 0.08642
1070.20 0.08636
1070.30 0.08631
1070.40 0.08625
1070.50 0.08619
1070.60 0.08614
1070.70 0.08608
1070.80 0.08603
1070.90 0.08597
1071.00 0.08592
1071.10 0.08586
1071.20 0.0858
1071.30 0.08575
1071.40 0.08569
1071.50 0.08564
1071.60 0.08558
1071.70 0.08553
1071.80 0.08547
1071.90 0.08541
1072.00 0.08536
1072.10 0.0853
1072.20 0.08523
1072.30 0.08517
1072.40 0.0851
1072.50 0.08504
1072.60 0.08497
1072.70 0.08491
1072.80 0.08485
1072.90 0.08478
1073.00 0.08472
1073.10 0.08466
1073.20 0.08459
1073.30 0.08453
1073.40 0.08446
1073.50 0.0844
1073.60 0.08432
1073.70 0.08425
1073.80 0.08418
1073.90 0.0841
1074.00 0.08403
1074.10 0.08395
1074.20 0.08388
1074.30 0.08381
1074.40 0.08373
1074.50 0.08366
1074.60 0.08359
1074.70 0.08351
1074.80 0.08344
1074.90 0.08337
1075.00 0.08329
1075.10 0.08322
1075.20 0.08315
1075.30 0.08307
1075.40 0.083
1075.50 0.08293
1075.60 0.08285
1075.70 0.08278
1075.80 0.08271
1075.90 0.08263
1076.00 0.08256
1076.10 0.08249
1076.20 0.08241
1076.30 0.08234
1076.40 0.08227
1076.50 0.08219
1076.60 0.08212
1076.70 0.08205
1076.80 0.08198
1076.90 0.0819
1077.00 0.08183
1077.10 0.08175
1077.20 0.08167
1077.30 0.08159
1077.40 0.08151
1077.50 0.08142
1077.60 0.08133
1077.70 0.08125
1077.80 0.08116
1077.90 0.08107
1078.00 0.08098
1078.10 0.08089
1078.20 0.08081
1078.30 0.08072
1078.40 0.08063
1078.50 0.08054
1078.60 0.08046
1078.70 0.08037
1078.80 0.08028
1078.90 0.08019
1079.00 0.08011
1079.10 0.08002
1079.20 0.07993
1079.30 0.07984
1079.40 0.07976
1079.50 0.07966
1079.60 0.07956
1079.70 0.07946
1079.80 0.07936
1079.90 0.07926
1080.00 0.07917
1080.10 0.07907
1080.20 0.07897
1080.30 0.07887
1080.40 0.07877
1080.50 0.07867
1080.60 0.07857
1080.70 0.07847
1080.80 0.07837
1080.90 0.07827
1081.00 0.07817
1081.10 0.07807
1081.20 0.07797
1081.30 0.07787
1081.40 0.07777
1081.50 0.07767
1081.60 0.07756
1081.70 0.07746
1081.80 0.07735
1081.90 0.07724
1082.00 0.07713
1082.10 0.07702
1082.20 0.0769
1082.30 0.07678
1082.40 0.07667
1082.50 0.07655
1082.60 0.07644
1082.70 0.07632
1082.80 0.0762
1082.90 0.07609
1083.00 0.07597
1083.10 0.07586
1083.20 0.07574
1083.30 0.07563
1083.40 0.07551
1083.50 0.07539
1083.60 0.07526
1083.70 0.07514
1083.80 0.07501
1083.90 0.07488
1084.00 0.07475
1084.10 0.07463
1084.20 0.0745
1084.30 0.07437
1084.40 0.07425
1084.50 0.07411
1084.60 0.07397
1084.70 0.07383
1084.80 0.07369
1084.90 0.07355
1085.00 0.0734
1085.10 0.07326
1085.20 0.07312
1085.30 0.07298
1085.40 0.07283
1085.50 0.07269
1085.60 0.07255
1085.70 0.07241
1085.80 0.07227
1085.90 0.07213
1086.00 0.07198
1086.10 0.07184
1086.20 0.0717
1086.30 0.07156
1086.40 0.07142
1086.50 0.07127
1086.60 0.07111
1086.70 0.07096
1086.80 0.0708
1086.90 0.07065
1087.00 0.07049
1087.10 0.07032
1087.20 0.07016
1087.30 0.06999
1087.40 0.06982
1087.50 0.06965
1087.60 0.06949
1087.70 0.06932
1087.80 0.06915
1087.90 0.06898
1088.00 0.06882
1088.10 0.06865
1088.20 0.06848
1088.30 0.06831
1088.40 0.06815
1088.50 0.06798
1088.60 0.06779
1088.70 0.06761
1088.80 0.06742
1088.90 0.06724
1089.00 0.06706
1089.10 0.06687
1089.20 0.06669
1089.30 0.06651
1089.40 0.06633
1089.50 0.06614
1089.60 0.06596
1089.70 0.06578
1089.80 0.06559
1089.90 0.06541
1090.00 0.06523
1090.10 0.06505
1090.20 0.06486
1090.30 0.06468
1090.40 0.0645
1090.50 0.06431
1090.60 0.06412
1090.70 0.06393
1090.80 0.06375
1090.90 0.06356
1091.00 0.06337
1091.10 0.06318
1091.20 0.06299
1091.30 0.0628
1091.40 0.06261
1091.50 0.06242
1091.60 0.06224
1091.70 0.06205
1091.80 0.06186
1091.90 0.06167
1092.00 0.06148
1092.10 0.06131
1092.20 0.06114
1092.30 0.06096
1092.40 0.06079
1092.50 0.06061
1092.60 0.06044
1092.70 0.06028
1092.80 0.06016
1092.90 0.06005
1093.00 0.05993
1093.10 0.05988
1093.20 0.05997
1093.30 0.0601
1093.40 0.0605
1093.50 0.06065
1093.60 0.06019
1093.70 0.05992
1093.80 0.05979
1093.90 0.05973
1094.00 0.05982
1094.10 0.0599
1094.20 0.05998
1094.30 0.06008
1094.40 0.06022
1094.50 0.06036
1094.60 0.0605
1094.70 0.06063
1094.80 0.06077
1094.90 0.06091
1095.00 0.06105
1095.10 0.0612
1095.20 0.06135
1095.30 0.06149
1095.40 0.06164
1095.50 0.06179
1095.60 0.06194
1095.70 0.06209
1095.80 0.06224
1095.90 0.06238
1096.00 0.06253
1096.10 0.06268
1096.20 0.06283
1096.30 0.06298
1096.40 0.06312
1096.50 0.06327
1096.60 0.06341
1096.70 0.06356
1096.80 0.0637
1096.90 0.06385
1097.00 0.06399
1097.10 0.06413
1097.20 0.06426
1097.30 0.0644
1097.40 0.06453
1097.50 0.06467
1097.60 0.0648
1097.70 0.06494
1097.80 0.06508
1097.90 0.06521
1098.00 0.06535
1098.10 0.06548
1098.20 0.06562
1098.30 0.06575
1098.40 0.06589
1098.50 0.06602
1098.60 0.06613
1098.70 0.06625
1098.80 0.06636
1098.90 0.06648
1099.00 0.06659
1099.10 0.06671
1099.20 0.06682
1099.30 0.06694
1099.40 0.06706
1099.50 0.06717
1099.60 0.06729
1099.70 0.0674
1099.80 0.06752
1099.90 0.06763
1100.00 0.06775
1100.10 0.06786
1100.20 0.06798
1100.30 0.06809
1100.40 0.0682
1100.50 0.06831
1100.60 0.06841
1100.70 0.0685
1100.80 0.06859
1100.90 0.06869
1101.00 0.06878
1101.10 0.06887
1101.20 0.06896
1101.30 0.06906
1101.40 0.06915
1101.50 0.06924
1101.60 0.06934
1101.70 0.06943
1101.80 0.06952
1101.90 0.06962
1102.00 0.06971
1102.10 0.06979
1102.20 0.06987
1102.30 0.06995
1102.40 0.07004
1102.50 0.07012
1102.60 0.07019
1102.70 0.07026
1102.80 0.07034
1102.90 0.07041
1103.00 0.07048
1103.10 0.07056
1103.20 0.07063
1103.30 0.0707
1103.40 0.07078
1103.50 0.07085
1103.60 0.07091
1103.70 0.07097
1103.80 0.07103
1103.90 0.07109
1104.00 0.07115
1104.10 0.07121
1104.20 0.07127
1104.30 0.07133
1104.40 0.07139
1104.50 0.07145
1104.60 0.07151
1104.70 0.07157
1104.80 0.07163
1104.90 0.07169
1105.00 0.07175
1105.10 0.0718
1105.20 0.07186
1105.30 0.07192
1105.40 0.07198
1105.50 0.07204
1105.60 0.07209
1105.70 0.07213
1105.80 0.07218
1105.90 0.07222
1106.00 0.07227
1106.10 0.07231
1106.20 0.07236
1106.30 0.07241
1106.40 0.07245
1106.50 0.0725
1106.60 0.07254
1106.70 0.07259
1106.80 0.07264
1106.90 0.07268
1107.00 0.07273
1107.10 0.07277
1107.20 0.0728
1107.30 0.07284
1107.40 0.07288
1107.50 0.07292
1107.60 0.07295
1107.70 0.07298
1107.80 0.07301
1107.90 0.07305
1108.00 0.07308
1108.10 0.07311
1108.20 0.07314
1108.30 0.07317
1108.40 0.07321
1108.50 0.07324
1108.60 0.07327
1108.70 0.0733
1108.80 0.07333
1108.90 0.07336
1109.00 0.0734
1109.10 0.07343
1109.20 0.07346
1109.30 0.07349
1109.40 0.07352
1109.50 0.07355
1109.60 0.07357
1109.70 0.07359
1109.80 0.07361
1109.90 0.07364
1110.00 0.07366
1110.10 0.07368
1110.20 0.0737
1110.30 0.07372
1110.40 0.07374
1110.50 0.07376
1110.60 0.07378
1110.70 0.0738
1110.80 0.07382
1110.90 0.07384
1111.00 0.07386
1111.10 0.07388
1111.20 0.0739
1111.30 0.07393
1111.40 0.07395
1111.50 0.07397
1111.60 0.07399
1111.70 0.07401
1111.80 0.07403
1111.90 0.07405
1112.00 0.07407
1112.10 0.07408
1112.20 0.0741
1112.30 0.07411
1112.40 0.07412
1112.50 0.07413
1112.60 0.07415
1112.70 0.07416
1112.80 0.07417
1112.90 0.07418
1113.00 0.07419
1113.10 0.07421
1113.20 0.07422
1113.30 0.07423
1113.40 0.07424
1113.50 0.07425
1113.60 0.07426
1113.70 0.07426
1113.80 0.07427
1113.90 0.07427
1114.00 0.07428
1114.10 0.07428
1114.20 0.07429
1114.30 0.0743
1114.40 0.0743
1114.50 0.07431
1114.60 0.07431
1114.70 0.07432
1114.80 0.07432
1114.90 0.07433
1115.00 0.07433
1115.10 0.07434
1115.20 0.07434
1115.30 0.07435
1115.40 0.07435
1115.50 0.07436
1115.60 0.07436
1115.70 0.07437
1115.80 0.07437
1115.90 0.07438
1116.00 0.07438
1116.10 0.07439
1116.20 0.07439
1116.30 0.0744
1116.40 0.0744
1116.50 0.07441
1116.60 0.07441
1116.70 0.07442
1116.80 0.07442
1116.90 0.07442
1117.00 0.07443
1117.10 0.07443
1117.20 0.07442
1117.30 0.07442
1117.40 0.07441
1117.50 0.07441
1117.60 0.0744
1117.70 0.0744
1117.80 0.0744
1117.90 0.07439
1118.00 0.07439
1118.10 0.07438
1118.20 0.07438
1118.30 0.07437
1118.40 0.07437
1118.50 0.07437
1118.60 0.07436
1118.70 0.07436
1118.80 0.07435
1118.90 0.07435
1119.00 0.07434
1119.10 0.07434
1119.20 0.07433
1119.30 0.07433
1119.40 0.07433
1119.50 0.07432
1119.60 0.07432
1119.70 0.07431
1119.80 0.07431
1119.90 0.0743
1120.00 0.0743
1120.10 0.0743
1120.20 0.07429
1120.30 0.07429
1120.40 0.07428
1120.50 0.07428
1120.60 0.07427
1120.70 0.07427
1120.80 0.07427
1120.90 0.07426
1121.00 0.07426
1121.10 0.07425
1121.20 0.07425
1121.30 0.07424
1121.40 0.07424
1121.50 0.07424
1121.60 0.07423
1121.70 0.07423
1121.80 0.07422
1121.90 0.07422
1122.00 0.07421
1122.10 0.0742
1122.20 0.07419
1122.30 0.07418
1122.40 0.07417
1122.50 0.07416
1122.60 0.07415
1122.70 0.07414
1122.80 0.07412
1122.90 0.07411
1123.00 0.0741
1123.10 0.07409
1123.20 0.07408
1123.30 0.07407
1123.40 0.07406
1123.50 0.07405
1123.60 0.07403
1123.70 0.07402
1123.80 0.07401
1123.90 0.074
1124.00 0.07399
1124.10 0.07398
1124.20 0.07397
1124.30 0.07396
1124.40 0.07394
1124.50 0.07393
1124.60 0.07392
1124.70 0.07391
1124.80 0.0739
1124.90 0.07389
1125.00 0.07388
1125.10 0.07387
1125.20 0.07385
1125.30 0.07384
1125.40 0.07383
1125.50 0.07382
1125.60 0.07381
1125.70 0.0738
1125.80 0.07379
1125.90 0.07378
1126.00 0.07377
1126.10 0.07375
1126.20 0.07374
1126.30 0.07373
1126.40 0.07372
1126.50 0.07371
1126.60 0.0737
1126.70 0.07369
1126.80 0.07368
1126.90 0.07367
1127.00 0.07365
1127.10 0.07364
1127.20 0.07362
1127.30 0.07361
1127.40 0.07359
1127.50 0.07358
1127.60 0.07356
1127.70 0.07355
1127.80 0.07353
1127.90 0.07352
1128.00 0.0735
1128.10 0.07349
1128.20 0.07347
1128.30 0.07345
1128.40 0.07344
1128.50 0.07342
1128.60 0.07341
1128.70 0.07339
1128.80 0.07338
1128.90 0.07336
1129.00 0.07335
1129.10 0.07333
1129.20 0.07332
1129.30 0.0733
1129.40 0.07329
1129.50 0.07327
1129.60 0.07326
1129.70 0.07324
1129.80 0.07323
1129.90 0.07321
1130.00 0.07319
1130.10 0.07318
1130.20 0.07316
1130.30 0.07315
1130.40 0.07313
1130.50 0.07312
1130.60 0.0731
1130.70 0.07309
1130.80 0.07307
1130.90 0.07306
1131.00 0.07304
1131.10 0.07303
1131.20 0.07301
1131.30 0.073
1131.40 0.07298
1131.50 0.07297
1131.60 0.07295
1131.70 0.07294
1131.80 0.07292
1131.90 0.07291
1132.00 0.07289
1132.10 0.07287
1132.20 0.07285
1132.30 0.07284
1132.40 0.07282
1132.50 0.0728
1132.60 0.07278
1132.70 0.07276
1132.80 0.07275
1132.90 0.07273
1133.00 0.07271
1133.10 0.07269
1133.20 0.07267
1133.30 0.07266
1133.40 0.07264
1133.50 0.07262
1133.60 0.0726
1133.70 0.07258
1133.80 0.07257
1133.90 0.07255
1134.00 0.07253
1134.10 0.07251
1134.20 0.0725
1134.30 0.07248
1134.40 0.07246
1134.50 0.07244
1134.60 0.07242
1134.70 0.07241
1134.80 0.07239
1134.90 0.07237
1135.00 0.07235
1135.10 0.07233
1135.20 0.07232
1135.30 0.0723
1135.40 0.07228
1135.50 0.07226
1135.60 0.07224
1135.70 0.07223
1135.80 0.07221
1135.90 0.07219
1136.00 0.07217
1136.10 0.07216
1136.20 0.07214
1136.30 0.07212
1136.40 0.0721
1136.50 0.07208
1136.60 0.07207
1136.70 0.07205
1136.80 0.07203
1136.90 0.07201
1137.00 0.072
1137.10 0.07198
1137.20 0.07196
1137.30 0.07194
1137.40 0.07192
1137.50 0.0719
1137.60 0.07188
1137.70 0.07186
1137.80 0.07184
1137.90 0.07182
1138.00 0.0718
1138.10 0.07178
1138.20 0.07177
1138.30 0.07175
1138.40 0.07173
1138.50 0.07171
1138.60 0.07169
1138.70 0.07167
1138.80 0.07165
1138.90 0.07163
1139.00 0.07161
1139.10 0.07159
1139.20 0.07157
1139.30 0.07156
1139.40 0.07154
1139.50 0.07152
1139.60 0.0715
1139.70 0.07148
1139.80 0.07146
1139.90 0.07144
1140.00 0.07142
1140.10 0.0714
1140.20 0.07138
1140.30 0.07137
1140.40 0.07135
1140.50 0.07133
1140.60 0.07131
1140.70 0.07129
1140.80 0.07127
1140.90 0.07125
1141.00 0.07123
1141.10 0.07121
1141.20 0.07119
1141.30 0.07118
1141.40 0.07116
1141.50 0.07114
1141.60 0.07112
1141.70 0.0711
1141.80 0.07108
1141.90 0.07106
1142.00 0.07104
1142.10 0.07102
1142.20 0.071
1142.30 0.07098
1142.40 0.07096
1142.50 0.07094
1142.60 0.07092
1142.70 0.0709
1142.80 0.07088
1142.90 0.07086
1143.00 0.07084
1143.10 0.07082
1143.20 0.0708
1143.30 0.07078
1143.40 0.07076
1143.50 0.07074
1143.60 0.07072
1143.70 0.0707
1143.80 0.07068
1143.90 0.07066
1144.00 0.07064
1144.10 0.07062
1144.20 0.0706
1144.30 0.07058
1144.40 0.07056
1144.50 0.07054
1144.60 0.07052
1144.70 0.0705
1144.80 0.07048
1144.90 0.07046
1145.00 0.07044
1145.10 0.07042
1145.20 0.0704
1145.30 0.07038
1145.40 0.07036
1145.50 0.07034
1145.60 0.07032
1145.70 0.0703
1145.80 0.07028
1145.90 0.07026
1146.00 0.07024
1146.10 0.07022
1146.20 0.0702
1146.30 0.07018
1146.40 0.07016
1146.50 0.07014
1146.60 0.07012
1146.70 0.0701
1146.80 0.07008
1146.90 0.07006
1147.00 0.07004
1147.10 0.07002
1147.20 0.07
1147.30 0.06998
1147.40 0.06996
1147.50 0.06994
1147.60 0.06992
1147.70 0.0699
1147.80 0.06988
1147.90 0.06986
1148.00 0.06984
1148.10 0.06982
1148.20 0.0698
1148.30 0.06978
1148.40 0.06976
1148.50 0.06974
1148.60 0.06972
1148.70 0.0697
1148.80 0.06968
1148.90 0.06966
1149.00 0.06964
1149.10 0.06962
1149.20 0.0696
1149.30 0.06958
1149.40 0.06956
1149.50 0.06954
1149.60 0.06952
1149.70 0.0695
1149.80 0.06948
1149.90 0.06946
1150.00 0.06944
1150.10 0.06942
1150.20 0.0694
1150.30 0.06938
1150.40 0.06936
1150.50 0.06934
1150.60 0.06932
1150.70 0.0693
1150.80 0.06928
1150.90 0.06926
1151.00 0.06924
1151.10 0.06922
1151.20 0.0692
1151.30 0.06918
1151.40 0.06916
1151.50 0.06914
1151.60 0.06912
1151.70 0.0691
1151.80 0.06908
1151.90 0.06906
1152.00 0.06904
1152.10 0.06901
1152.20 0.06899
1152.30 0.06897
1152.40 0.06895
1152.50 0.06893
1152.60 0.06891
1152.70 0.06889
1152.80 0.06887
1152.90 0.06885
1153.00 0.06883
1153.10 0.06881
1153.20 0.06879
1153.30 0.06877
1153.40 0.06875
1153.50 0.06873
1153.60 0.06871
1153.70 0.06869
1153.80 0.06867
1153.90 0.06865
1154.00 0.06862
1154.10 0.0686
1154.20 0.06858
1154.30 0.06856
1154.40 0.06854
1154.50 0.06852
1154.60 0.0685
1154.70 0.06848
1154.80 0.06846
1154.90 0.06844
1155.00 0.06842
1155.10 0.0684
1155.20 0.06838
1155.30 0.06836
1155.40 0.06834
1155.50 0.06832
1155.60 0.0683
1155.70 0.06828
1155.80 0.06826
1155.90 0.06824
1156.00 0.06822
1156.10 0.0682
1156.20 0.06818
1156.30 0.06816
1156.40 0.06813
1156.50 0.06811
1156.60 0.06809
1156.70 0.06807
1156.80 0.06805
1156.90 0.06803
1157.00 0.06801
1157.10 0.06799
1157.20 0.06797
1157.30 0.06795
1157.40 0.06793
1157.50 0.06791
1157.60 0.06789
1157.70 0.06787
1157.80 0.06785
1157.90 0.06783
1158.00 0.06781
1158.10 0.06779
1158.20 0.06777
1158.30 0.06775
1158.40 0.06773
1158.50 0.06771
1158.60 0.06768
1158.70 0.06766
1158.80 0.06764
1158.90 0.06762
1159.00 0.0676
1159.10 0.06758
1159.20 0.06756
1159.30 0.06754
1159.40 0.06752
1159.50 0.0675
1159.60 0.06748
1159.70 0.06746
1159.80 0.06744
1159.90 0.06742
1160.00 0.0674
1160.10 0.06738
1160.20 0.06736
1160.30 0.06734
1160.40 0.06732
1160.50 0.0673
1160.60 0.06728
1160.70 0.06726
1160.80 0.06724
1160.90 0.06722
1161.00 0.0672
1161.10 0.06717
1161.20 0.06715
1161.30 0.06713
1161.40 0.06711
1161.50 0.06709
1161.60 0.06707
1161.70 0.06705
1161.80 0.06703
1161.90 0.06701
1162.00 0.06699
1162.10 0.06697
1162.20 0.06695
1162.30 0.06693
1162.40 0.06691
1162.50 0.06689
1162.60 0.06687
1162.70 0.06685
1162.80 0.06683
1162.90 0.06681
1163.00 0.06679
1163.10 0.06677
1163.20 0.06675
1163.30 0.06673
1163.40 0.06671
1163.50 0.06669
1163.60 0.06667
1163.70 0.06665
1163.80 0.06663
1163.90 0.06661
1164.00 0.06659
1164.10 0.06657
1164.20 0.06655
1164.30 0.06653
1164.40 0.06651
1164.50 0.06649
1164.60 0.06647
1164.70 0.06645
1164.80 0.06643
1164.90 0.06641
1165.00 0.06638
1165.10 0.06636
1165.20 0.06634
1165.30 0.06632
1165.40 0.0663
1165.50 0.06628
1165.60 0.06626
1165.70 0.06624
1165.80 0.06622
1165.90 0.0662
1166.00 0.06618
1166.10 0.06616
1166.20 0.06614
1166.30 0.06612
1166.40 0.0661
1166.50 0.06608
1166.60 0.06606
1166.70 0.06604
1166.80 0.06602
1166.90 0.066
1167.00 0.06598
1167.10 0.06596
1167.20 0.06594
1167.30 0.06592
1167.40 0.0659
1167.50 0.06588
1167.60 0.06586
1167.70 0.06584
1167.80 0.06582
1167.90 0.0658
1168.00 0.06578
1168.10 0.06576
1168.20 0.06574
1168.30 0.06572
1168.40 0.0657
1168.50 0.06568
1168.60 0.06566
1168.70 0.06564
1168.80 0.06562
1168.90 0.0656
1169.00 0.06558
1169.10 0.06556
1169.20 0.06554
1169.30 0.06552
1169.40 0.0655
1169.50 0.06548
1169.60 0.06546
1169.70 0.06544
1169.80 0.06542
1169.90 0.0654
1170.00 0.06538
1170.10 0.06536
1170.20 0.06534
1170.30 0.06532
1170.40 0.0653
1170.50 0.06528
1170.60 0.06526
1170.70 0.06524
1170.80 0.06522
1170.90 0.0652
1171.00 0.06518
1171.10 0.06516
1171.20 0.06514
1171.30 0.06512
1171.40 0.0651
1171.50 0.06508
1171.60 0.06506
1171.70 0.06504
1171.80 0.06502
1171.90 0.065
1172.00 0.06498
1172.10 0.06496
1172.20 0.06494
1172.30 0.06492
1172.40 0.0649
1172.50 0.06488
1172.60 0.06486
1172.70 0.06484
1172.80 0.06482
1172.90 0.0648
1173.00 0.06478
1173.10 0.06476
1173.20 0.06474
1173.30 0.06472
1173.40 0.0647
1173.50 0.06468
1173.60 0.06466
1173.70 0.06464
1173.80 0.06462
1173.90 0.0646
1174.00 0.06458
1174.10 0.06456
1174.20 0.06454
1174.30 0.06452
1174.40 0.0645
1174.50 0.06448
1174.60 0.06446
1174.70 0.06444
1174.80 0.06442
1174.90 0.0644
1175.00 0.06438
1175.10 0.06436
1175.20 0.06434
1175.30 0.06432
1175.40 0.0643
1175.50 0.06428
1175.60 0.06426
1175.70 0.06424
1175.80 0.06422
1175.90 0.0642
1176.00 0.06418
1176.10 0.06416
1176.20 0.06414
1176.30 0.06412
1176.40 0.0641
1176.50 0.06408
1176.60 0.06406
1176.70 0.06404
1176.80 0.06403
1176.90 0.06401
1177.00 0.06399
1177.10 0.06397
1177.20 0.06395
1177.30 0.06393
1177.40 0.06391
1177.50 0.06389
1177.60 0.06387
1177.70 0.06385
1177.80 0.06383
1177.90 0.06381
1178.00 0.06379
1178.10 0.06377
1178.20 0.06375
1178.30 0.06373
1178.40 0.06371
1178.50 0.06369
1178.60 0.06367
1178.70 0.06365
1178.80 0.06363
1178.90 0.06361
1179.00 0.06359
1179.10 0.06357
1179.20 0.06355
1179.30 0.06353
1179.40 0.06351
1179.50 0.06349
1179.60 0.06347
1179.70 0.06345
1179.80 0.06343
1179.90 0.06342
1180.00 0.0634
1180.10 0.06338
1180.20 0.06336
1180.30 0.06334
1180.40 0.06332
1180.50 0.0633
1180.60 0.06328
1180.70 0.06326
1180.80 0.06324
1180.90 0.06322
1181.00 0.0632
1181.10 0.06318
1181.20 0.06316
1181.30 0.06314
1181.40 0.06312
1181.50 0.0631
1181.60 0.06308
1181.70 0.06306
1181.80 0.06304
1181.90 0.06302
1182.00 0.06301
1182.10 0.06299
1182.20 0.06297
1182.30 0.06295
1182.40 0.06293
1182.50 0.06291
1182.60 0.06289
1182.70 0.06287
1182.80 0.06285
1182.90 0.06283
1183.00 0.06281
1183.10 0.06279
1183.20 0.06277
1183.30 0.06275
1183.40 0.06273
1183.50 0.06271
1183.60 0.06269
1183.70 0.06268
1183.80 0.06266
1183.90 0.06264
1184.00 0.06262
1184.10 0.0626
1184.20 0.06258
1184.30 0.06256
1184.40 0.06254
1184.50 0.06252
1184.60 0.0625
1184.70 0.06248
1184.80 0.06246
1184.90 0.06244
1185.00 0.06242
1185.10 0.0624
1185.20 0.06239
1185.30 0.06237
1185.40 0.06235
1185.50 0.06233
1185.60 0.06231
1185.70 0.06229
1185.80 0.06227
1185.90 0.06225
1186.00 0.06223
1186.10 0.06221
1186.20 0.06219
1186.30 0.06217
1186.40 0.06215
1186.50 0.06213
1186.60 0.06212
1186.70 0.0621
1186.80 0.06208
1186.90 0.06206
1187.00 0.06204
1187.10 0.06202
1187.20 0.062
1187.30 0.06198
1187.40 0.06196
1187.50 0.06194
1187.60 0.06192
1187.70 0.0619
1187.80 0.06189
1187.90 0.06187
1188.00 0.06185
1188.10 0.06183
1188.20 0.06181
1188.30 0.06179
1188.40 0.06177
1188.50 0.06175
1188.60 0.06173
1188.70 0.06171
1188.80 0.06169
1188.90 0.06167
1189.00 0.06166
1189.10 0.06164
1189.20 0.06162
1189.30 0.0616
1189.40 0.06158
1189.50 0.06156
1189.60 0.06154
1189.70 0.06152
1189.80 0.0615
1189.90 0.06148
1190.00 0.06146
1190.10 0.06145
1190.20 0.06143
1190.30 0.06141
1190.40 0.06139
1190.50 0.06137
1190.60 0.06135
1190.70 0.06133
1190.80 0.06131
1190.90 0.06129
1191.00 0.06127
1191.10 0.06126
1191.20 0.06124
1191.30 0.06122
1191.40 0.0612
1191.50 0.06118
1191.60 0.06116
1191.70 0.06114
1191.80 0.06112
1191.90 0.0611
1192.00 0.06108
1192.10 0.06107
1192.20 0.06105
1192.30 0.06103
1192.40 0.06101
1192.50 0.06099
1192.60 0.06097
1192.70 0.06095
1192.80 0.06093
1192.90 0.06091
1193.00 0.06089
1193.10 0.06088
1193.20 0.06086
1193.30 0.06084
1193.40 0.06082
1193.50 0.0608
1193.60 0.06078
1193.70 0.06076
1193.80 0.06074
1193.90 0.06072
1194.00 0.06071
1194.10 0.06069
1194.20 0.06067
1194.30 0.06065
1194.40 0.06063
1194.50 0.06061
1194.60 0.06059
1194.70 0.06057
1194.80 0.06055
1194.90 0.06054
1195.00 0.06052
1195.10 0.0605
1195.20 0.06048
1195.30 0.06046
1195.40 0.06044
1195.50 0.06042
1195.60 0.0604
1195.70 0.06038
1195.80 0.06037
1195.90 0.06035
1196.00 0.06033
1196.10 0.06031
1196.20 0.06029
1196.30 0.06027
1196.40 0.06025
1196.50 0.06023
1196.60 0.06022
1196.70 0.0602
1196.80 0.06018
1196.90 0.06016
1197.00 0.06014
1197.10 0.06012
1197.20 0.0601
1197.30 0.06008
1197.40 0.06007
1197.50 0.06005
1197.60 0.06003
1197.70 0.06001
1197.80 0.05999
1197.90 0.05997
1198.00 0.05995
1198.10 0.05993
1198.20 0.05992
1198.30 0.0599
1198.40 0.05988
1198.50 0.05986
1198.60 0.05984
1198.70 0.05982
1198.80 0.0598
1198.90 0.05978
1199.00 0.05977
1199.10 0.05975
1199.20 0.05973
1199.30 0.05971
1199.40 0.05969
1199.50 0.05967
1199.60 0.05965
1199.70 0.05964
1199.80 0.05962
1199.90 0.0596
1200.00 0
