# Version 2.1 - nm, norm@500 to 1, cut digits, bergeron_4000_75.dat_4000
# Wavelength(nm)  Flambda(ergs/cm^s/s/nm)
300.00 0.1677
300.10 0.168
300.20 0.1683
300.30 0.1687
300.40 0.169
300.50 0.1693
300.60 0.1697
300.70 0.17
300.80 0.1703
300.90 0.1706
301.00 0.171
301.10 0.1713
301.20 0.1716
301.30 0.1719
301.40 0.1722
301.50 0.1726
301.60 0.1729
301.70 0.1732
301.80 0.1735
301.90 0.1739
302.00 0.1742
302.10 0.1745
302.20 0.1748
302.30 0.1752
302.40 0.1755
302.50 0.1758
302.60 0.1762
302.70 0.1765
302.80 0.1768
302.90 0.1772
303.00 0.1775
303.10 0.1778
303.20 0.1781
303.30 0.1785
303.40 0.1788
303.50 0.1791
303.60 0.1795
303.70 0.1798
303.80 0.1801
303.90 0.1804
304.00 0.1808
304.10 0.1811
304.20 0.1814
304.30 0.1818
304.40 0.1821
304.50 0.1825
304.60 0.1828
304.70 0.1831
304.80 0.1835
304.90 0.1838
305.00 0.1841
305.10 0.1845
305.20 0.1848
305.30 0.1852
305.40 0.1855
305.50 0.1858
305.60 0.1862
305.70 0.1865
305.80 0.1868
305.90 0.1872
306.00 0.1875
306.10 0.1878
306.20 0.1882
306.30 0.1885
306.40 0.1889
306.50 0.1892
306.60 0.1896
306.70 0.1899
306.80 0.1902
306.90 0.1906
307.00 0.1909
307.10 0.1913
307.20 0.1916
307.30 0.1919
307.40 0.1923
307.50 0.1926
307.60 0.193
307.70 0.1933
307.80 0.1936
307.90 0.194
308.00 0.1943
308.10 0.1947
308.20 0.195
308.30 0.1954
308.40 0.1957
308.50 0.1961
308.60 0.1964
308.70 0.1968
308.80 0.1971
308.90 0.1975
309.00 0.1978
309.10 0.1982
309.20 0.1985
309.30 0.1989
309.40 0.1992
309.50 0.1995
309.60 0.1999
309.70 0.2002
309.80 0.2006
309.90 0.2009
310.00 0.2013
310.10 0.2016
310.20 0.202
310.30 0.2023
310.40 0.2027
310.50 0.2031
310.60 0.2034
310.70 0.2038
310.80 0.2041
310.90 0.2045
311.00 0.2048
311.10 0.2052
311.20 0.2055
311.30 0.2059
311.40 0.2062
311.50 0.2066
311.60 0.2069
311.70 0.2073
311.80 0.2077
311.90 0.208
312.00 0.2084
312.10 0.2087
312.20 0.2091
312.30 0.2094
312.40 0.2098
312.50 0.2101
312.60 0.2105
312.70 0.2109
312.80 0.2112
312.90 0.2116
313.00 0.2119
313.10 0.2123
313.20 0.2127
313.30 0.213
313.40 0.2134
313.50 0.2137
313.60 0.2141
313.70 0.2144
313.80 0.2148
313.90 0.2152
314.00 0.2155
314.10 0.2159
314.20 0.2162
314.30 0.2166
314.40 0.217
314.50 0.2174
314.60 0.2177
314.70 0.2181
314.80 0.2184
314.90 0.2188
315.00 0.2192
315.10 0.2195
315.20 0.2199
315.30 0.2203
315.40 0.2206
315.50 0.221
315.60 0.2214
315.70 0.2217
315.80 0.2221
315.90 0.2224
316.00 0.2228
316.10 0.2232
316.20 0.2235
316.30 0.2239
316.40 0.2243
316.50 0.2247
316.60 0.225
316.70 0.2254
316.80 0.2258
316.90 0.2261
317.00 0.2265
317.10 0.2269
317.20 0.2273
317.30 0.2276
317.40 0.228
317.50 0.2284
317.60 0.2287
317.70 0.2291
317.80 0.2295
317.90 0.2298
318.00 0.2302
318.10 0.2306
318.20 0.2309
318.30 0.2313
318.40 0.2317
318.50 0.2321
318.60 0.2325
318.70 0.2328
318.80 0.2332
318.90 0.2336
319.00 0.234
319.10 0.2343
319.20 0.2347
319.30 0.2351
319.40 0.2355
319.50 0.2358
319.60 0.2362
319.70 0.2366
319.80 0.2369
319.90 0.2373
320.00 0.2377
320.10 0.2381
320.20 0.2385
320.30 0.2388
320.40 0.2392
320.50 0.2396
320.60 0.24
320.70 0.2404
320.80 0.2408
320.90 0.2411
321.00 0.2415
321.10 0.2419
321.20 0.2423
321.30 0.2426
321.40 0.243
321.50 0.2434
321.60 0.2438
321.70 0.2442
321.80 0.2445
321.90 0.2449
322.00 0.2453
322.10 0.2457
322.20 0.2461
322.30 0.2465
322.40 0.2468
322.50 0.2472
322.60 0.2476
322.70 0.248
322.80 0.2484
322.90 0.2488
323.00 0.2492
323.10 0.2495
323.20 0.2499
323.30 0.2503
323.40 0.2507
323.50 0.2511
323.60 0.2515
323.70 0.2518
323.80 0.2522
323.90 0.2526
324.00 0.253
324.10 0.2534
324.20 0.2538
324.30 0.2542
324.40 0.2546
324.50 0.255
324.60 0.2553
324.70 0.2557
324.80 0.2561
324.90 0.2565
325.00 0.2569
325.10 0.2573
325.20 0.2577
325.30 0.2581
325.40 0.2585
325.50 0.2588
325.60 0.2592
325.70 0.2596
325.80 0.26
325.90 0.2604
326.00 0.2608
326.10 0.2612
326.20 0.2616
326.30 0.262
326.40 0.2624
326.50 0.2628
326.60 0.2632
326.70 0.2636
326.80 0.264
326.90 0.2644
327.00 0.2647
327.10 0.2651
327.20 0.2655
327.30 0.2659
327.40 0.2663
327.50 0.2667
327.60 0.2671
327.70 0.2675
327.80 0.2679
327.90 0.2683
328.00 0.2687
328.10 0.2691
328.20 0.2695
328.30 0.2699
328.40 0.2703
328.50 0.2707
328.60 0.2711
328.70 0.2715
328.80 0.2719
328.90 0.2723
329.00 0.2727
329.10 0.2731
329.20 0.2735
329.30 0.2739
329.40 0.2743
329.50 0.2747
329.60 0.2751
329.70 0.2755
329.80 0.2759
329.90 0.2763
330.00 0.2766
330.10 0.2771
330.20 0.2775
330.30 0.2779
330.40 0.2783
330.50 0.2787
330.60 0.2791
330.70 0.2795
330.80 0.2799
330.90 0.2803
331.00 0.2807
331.10 0.2811
331.20 0.2815
331.30 0.2819
331.40 0.2823
331.50 0.2827
331.60 0.2831
331.70 0.2835
331.80 0.2839
331.90 0.2843
332.00 0.2847
332.10 0.2851
332.20 0.2855
332.30 0.2859
332.40 0.2864
332.50 0.2868
332.60 0.2872
332.70 0.2876
332.80 0.288
332.90 0.2884
333.00 0.2888
333.10 0.2892
333.20 0.2896
333.30 0.29
333.40 0.2904
333.50 0.2909
333.60 0.2913
333.70 0.2917
333.80 0.2921
333.90 0.2925
334.00 0.2929
334.10 0.2933
334.20 0.2937
334.30 0.2941
334.40 0.2945
334.50 0.295
334.60 0.2954
334.70 0.2958
334.80 0.2962
334.90 0.2966
335.00 0.297
335.10 0.2974
335.20 0.2978
335.30 0.2983
335.40 0.2987
335.50 0.2991
335.60 0.2995
335.70 0.2999
335.80 0.3003
335.90 0.3007
336.00 0.3011
336.10 0.3015
336.20 0.302
336.30 0.3024
336.40 0.3028
336.50 0.3032
336.60 0.3036
336.70 0.304
336.80 0.3045
336.90 0.3049
337.00 0.3053
337.10 0.3057
337.20 0.3061
337.30 0.3065
337.40 0.3069
337.50 0.3074
337.60 0.3078
337.70 0.3082
337.80 0.3086
337.90 0.309
338.00 0.3094
338.10 0.3098
338.20 0.3103
338.30 0.3107
338.40 0.3111
338.50 0.3115
338.60 0.3119
338.70 0.3124
338.80 0.3128
338.90 0.3132
339.00 0.3136
339.10 0.3141
339.20 0.3145
339.30 0.3149
339.40 0.3153
339.50 0.3157
339.60 0.3161
339.70 0.3166
339.80 0.317
339.90 0.3174
340.00 0.3178
340.10 0.3182
340.20 0.3187
340.30 0.3191
340.40 0.3195
340.50 0.3199
340.60 0.3204
340.70 0.3208
340.80 0.3212
340.90 0.3216
341.00 0.3221
341.10 0.3225
341.20 0.3229
341.30 0.3233
341.40 0.3238
341.50 0.3242
341.60 0.3246
341.70 0.325
341.80 0.3254
341.90 0.3259
342.00 0.3263
342.10 0.3267
342.20 0.3271
342.30 0.3276
342.40 0.328
342.50 0.3284
342.60 0.3289
342.70 0.3293
342.80 0.3297
342.90 0.3301
343.00 0.3306
343.10 0.331
343.20 0.3314
343.30 0.3318
343.40 0.3323
343.50 0.3327
343.60 0.3331
343.70 0.3335
343.80 0.334
343.90 0.3344
344.00 0.3348
344.10 0.3352
344.20 0.3357
344.30 0.3361
344.40 0.3365
344.50 0.337
344.60 0.3374
344.70 0.3378
344.80 0.3383
344.90 0.3387
345.00 0.3391
345.10 0.3396
345.20 0.34
345.30 0.3404
345.40 0.3409
345.50 0.3413
345.60 0.3417
345.70 0.3421
345.80 0.3426
345.90 0.343
346.00 0.3434
346.10 0.3438
346.20 0.3443
346.30 0.3447
346.40 0.3452
346.50 0.3456
346.60 0.346
346.70 0.3465
346.80 0.3469
346.90 0.3473
347.00 0.3478
347.10 0.3482
347.20 0.3486
347.30 0.3491
347.40 0.3495
347.50 0.3499
347.60 0.3504
347.70 0.3508
347.80 0.3512
347.90 0.3517
348.00 0.3521
348.10 0.3525
348.20 0.353
348.30 0.3534
348.40 0.3538
348.50 0.3543
348.60 0.3547
348.70 0.3552
348.80 0.3556
348.90 0.356
349.00 0.3565
349.10 0.3569
349.20 0.3574
349.30 0.3578
349.40 0.3582
349.50 0.3587
349.60 0.3591
349.70 0.3595
349.80 0.36
349.90 0.3604
350.00 0.3608
350.10 0.3613
350.20 0.3617
350.30 0.3621
350.40 0.3626
350.50 0.363
350.60 0.3635
350.70 0.3639
350.80 0.3644
350.90 0.3648
351.00 0.3652
351.10 0.3657
351.20 0.3661
351.30 0.3666
351.40 0.367
351.50 0.3674
351.60 0.3679
351.70 0.3683
351.80 0.3687
351.90 0.3692
352.00 0.3696
352.10 0.3701
352.20 0.3705
352.30 0.3709
352.40 0.3714
352.50 0.3718
352.60 0.3723
352.70 0.3727
352.80 0.3732
352.90 0.3736
353.00 0.3741
353.10 0.3745
353.20 0.3749
353.30 0.3754
353.40 0.3758
353.50 0.3763
353.60 0.3767
353.70 0.3771
353.80 0.3776
353.90 0.378
354.00 0.3784
354.10 0.3789
354.20 0.3793
354.30 0.3798
354.40 0.3802
354.50 0.3807
354.60 0.3811
354.70 0.3816
354.80 0.382
354.90 0.3825
355.00 0.3829
355.10 0.3834
355.20 0.3838
355.30 0.3843
355.40 0.3847
355.50 0.3851
355.60 0.3856
355.70 0.386
355.80 0.3865
355.90 0.3869
356.00 0.3874
356.10 0.3878
356.20 0.3883
356.30 0.3887
356.40 0.3892
356.50 0.3896
356.60 0.3901
356.70 0.3905
356.80 0.391
356.90 0.3914
357.00 0.3918
357.10 0.3923
357.20 0.3927
357.30 0.3932
357.40 0.3936
357.50 0.3941
357.60 0.3945
357.70 0.395
357.80 0.3954
357.90 0.3958
358.00 0.3963
358.10 0.3967
358.20 0.3972
358.30 0.3977
358.40 0.3981
358.50 0.3986
358.60 0.399
358.70 0.3995
358.80 0.3999
358.90 0.4004
359.00 0.4008
359.10 0.4013
359.20 0.4017
359.30 0.4022
359.40 0.4026
359.50 0.4031
359.60 0.4035
359.70 0.4039
359.80 0.4044
359.90 0.4048
360.00 0.4053
360.10 0.4057
360.20 0.4062
360.30 0.4067
360.40 0.4071
360.50 0.4076
360.60 0.408
360.70 0.4085
360.80 0.4089
360.90 0.4094
361.00 0.4098
361.10 0.4103
361.20 0.4107
361.30 0.4112
361.40 0.4116
361.50 0.4121
361.60 0.4125
361.70 0.413
361.80 0.4134
361.90 0.4139
362.00 0.4143
362.10 0.4148
362.20 0.4152
362.30 0.4157
362.40 0.4161
362.50 0.4166
362.60 0.4171
362.70 0.4175
362.80 0.418
362.90 0.4184
363.00 0.4189
363.10 0.4193
363.20 0.4198
363.30 0.4202
363.40 0.4207
363.50 0.4212
363.60 0.4216
363.70 0.4221
363.80 0.4225
363.90 0.423
364.00 0.4234
364.10 0.4239
364.20 0.4243
364.30 0.4248
364.40 0.4252
364.50 0.4257
364.60 0.4261
364.70 0.4266
364.80 0.427
364.90 0.4275
365.00 0.428
365.10 0.4284
365.20 0.4289
365.30 0.4293
365.40 0.4298
365.50 0.4302
365.60 0.4307
365.70 0.4312
365.80 0.4316
365.90 0.4321
366.00 0.4325
366.10 0.433
366.20 0.4334
366.30 0.4339
366.40 0.4344
366.50 0.4348
366.60 0.4353
366.70 0.4357
366.80 0.4362
366.90 0.4367
367.00 0.4371
367.10 0.4376
367.20 0.438
367.30 0.4385
367.40 0.4389
367.50 0.4394
367.60 0.4399
367.70 0.4403
367.80 0.4408
367.90 0.4412
368.00 0.4417
368.10 0.4421
368.20 0.4426
368.30 0.4431
368.40 0.4435
368.50 0.444
368.60 0.4444
368.70 0.4449
368.80 0.4454
368.90 0.4458
369.00 0.4463
369.10 0.4468
369.20 0.4472
369.30 0.4477
369.40 0.4481
369.50 0.4486
369.60 0.449
369.70 0.4495
369.80 0.4499
369.90 0.4504
370.00 0.4509
370.10 0.4513
370.20 0.4518
370.30 0.4523
370.40 0.4527
370.50 0.4532
370.60 0.4536
370.70 0.4541
370.80 0.4546
370.90 0.455
371.00 0.4555
371.10 0.456
371.20 0.4564
371.30 0.4569
371.40 0.4573
371.50 0.4578
371.60 0.4583
371.70 0.4587
371.80 0.4592
371.90 0.4596
372.00 0.4601
372.10 0.4606
372.20 0.461
372.30 0.4615
372.40 0.4619
372.50 0.4624
372.60 0.4629
372.70 0.4633
372.80 0.4638
372.90 0.4643
373.00 0.4647
373.10 0.4652
373.20 0.4656
373.30 0.4661
373.40 0.4666
373.50 0.467
373.60 0.4675
373.70 0.4679
373.80 0.4684
373.90 0.4689
374.00 0.4693
374.10 0.4698
374.20 0.4702
374.30 0.4707
374.40 0.4712
374.50 0.4717
374.60 0.4721
374.70 0.4726
374.80 0.473
374.90 0.4735
375.00 0.474
375.10 0.4744
375.20 0.4749
375.30 0.4754
375.40 0.4758
375.50 0.4763
375.60 0.4767
375.70 0.4772
375.80 0.4777
375.90 0.4781
376.00 0.4786
376.10 0.479
376.20 0.4795
376.30 0.48
376.40 0.4804
376.50 0.4809
376.60 0.4814
376.70 0.4818
376.80 0.4823
376.90 0.4827
377.00 0.4832
377.10 0.4837
377.20 0.4841
377.30 0.4846
377.40 0.4851
377.50 0.4855
377.60 0.486
377.70 0.4865
377.80 0.4869
377.90 0.4874
378.00 0.4878
378.10 0.4883
378.20 0.4888
378.30 0.4892
378.40 0.4897
378.50 0.4902
378.60 0.4906
378.70 0.4911
378.80 0.4916
378.90 0.492
379.00 0.4925
379.10 0.493
379.20 0.4934
379.30 0.4939
379.40 0.4944
379.50 0.4948
379.60 0.4953
379.70 0.4958
379.80 0.4962
379.90 0.4967
380.00 0.4971
380.10 0.4976
380.20 0.4981
380.30 0.4986
380.40 0.499
380.50 0.4995
380.60 0.5
380.70 0.5004
380.80 0.5009
380.90 0.5013
381.00 0.5018
381.10 0.5023
381.20 0.5027
381.30 0.5032
381.40 0.5037
381.50 0.5041
381.60 0.5046
381.70 0.5051
381.80 0.5055
381.90 0.506
382.00 0.5065
382.10 0.5069
382.20 0.5074
382.30 0.5079
382.40 0.5083
382.50 0.5088
382.60 0.5093
382.70 0.5097
382.80 0.5102
382.90 0.5107
383.00 0.5111
383.10 0.5116
383.20 0.512
383.30 0.5125
383.40 0.513
383.50 0.5134
383.60 0.5139
383.70 0.5144
383.80 0.5149
383.90 0.5153
384.00 0.5158
384.10 0.5163
384.20 0.5167
384.30 0.5172
384.40 0.5177
384.50 0.5181
384.60 0.5186
384.70 0.5191
384.80 0.5195
384.90 0.52
385.00 0.5204
385.10 0.5209
385.20 0.5214
385.30 0.5218
385.40 0.5223
385.50 0.5228
385.60 0.5232
385.70 0.5237
385.80 0.5242
385.90 0.5246
386.00 0.5251
386.10 0.5256
386.20 0.526
386.30 0.5265
386.40 0.527
386.50 0.5274
386.60 0.5279
386.70 0.5284
386.80 0.5288
386.90 0.5293
387.00 0.5298
387.10 0.5302
387.20 0.5307
387.30 0.5312
387.40 0.5317
387.50 0.5321
387.60 0.5326
387.70 0.533
387.80 0.5335
387.90 0.534
388.00 0.5344
388.10 0.5349
388.20 0.5354
388.30 0.5358
388.40 0.5363
388.50 0.5368
388.60 0.5373
388.70 0.5377
388.80 0.5382
388.90 0.5386
389.00 0.5391
389.10 0.5396
389.20 0.54
389.30 0.5405
389.40 0.541
389.50 0.5414
389.60 0.5419
389.70 0.5424
389.80 0.5429
389.90 0.5433
390.00 0.5438
390.10 0.5442
390.20 0.5447
390.30 0.5452
390.40 0.5457
390.50 0.5461
390.60 0.5466
390.70 0.5471
390.80 0.5475
390.90 0.548
391.00 0.5484
391.10 0.5489
391.20 0.5494
391.30 0.5499
391.40 0.5503
391.50 0.5508
391.60 0.5513
391.70 0.5517
391.80 0.5522
391.90 0.5527
392.00 0.5531
392.10 0.5536
392.20 0.5541
392.30 0.5545
392.40 0.555
392.50 0.5555
392.60 0.5559
392.70 0.5564
392.80 0.5568
392.90 0.5573
393.00 0.5578
393.10 0.5583
393.20 0.5587
393.30 0.5592
393.40 0.5597
393.50 0.5601
393.60 0.5606
393.70 0.5611
393.80 0.5615
393.90 0.562
394.00 0.5625
394.10 0.5629
394.20 0.5634
394.30 0.5639
394.40 0.5643
394.50 0.5648
394.60 0.5653
394.70 0.5657
394.80 0.5662
394.90 0.5667
395.00 0.5671
395.10 0.5676
395.20 0.5681
395.30 0.5685
395.40 0.569
395.50 0.5695
395.60 0.5699
395.70 0.5704
395.80 0.5708
395.90 0.5713
396.00 0.5718
396.10 0.5723
396.20 0.5727
396.30 0.5732
396.40 0.5737
396.50 0.5741
396.60 0.5746
396.70 0.575
396.80 0.5755
396.90 0.576
397.00 0.5765
397.10 0.5769
397.20 0.5774
397.30 0.5779
397.40 0.5783
397.50 0.5788
397.60 0.5793
397.70 0.5797
397.80 0.5802
397.90 0.5806
398.00 0.5811
398.10 0.5816
398.20 0.582
398.30 0.5825
398.40 0.583
398.50 0.5834
398.60 0.5839
398.70 0.5844
398.80 0.5848
398.90 0.5853
399.00 0.5858
399.10 0.5862
399.20 0.5867
399.30 0.5872
399.40 0.5876
399.50 0.5881
399.60 0.5886
399.70 0.589
399.80 0.5895
399.90 0.59
400.00 0.5904
400.10 0.5909
400.20 0.5914
400.30 0.5918
400.40 0.5923
400.50 0.5928
400.60 0.5932
400.70 0.5937
400.80 0.5942
400.90 0.5946
401.00 0.5951
401.10 0.5955
401.20 0.596
401.30 0.5965
401.40 0.5969
401.50 0.5974
401.60 0.5979
401.70 0.5983
401.80 0.5988
401.90 0.5993
402.00 0.5997
402.10 0.6002
402.20 0.6007
402.30 0.6011
402.40 0.6016
402.50 0.602
402.60 0.6025
402.70 0.603
402.80 0.6034
402.90 0.6039
403.00 0.6044
403.10 0.6048
403.20 0.6053
403.30 0.6058
403.40 0.6062
403.50 0.6067
403.60 0.6072
403.70 0.6076
403.80 0.6081
403.90 0.6086
404.00 0.609
404.10 0.6095
404.20 0.6099
404.30 0.6104
404.40 0.6109
404.50 0.6113
404.60 0.6118
404.70 0.6123
404.80 0.6127
404.90 0.6132
405.00 0.6136
405.10 0.6141
405.20 0.6146
405.30 0.615
405.40 0.6155
405.50 0.616
405.60 0.6164
405.70 0.6169
405.80 0.6174
405.90 0.6178
406.00 0.6183
406.10 0.6187
406.20 0.6192
406.30 0.6197
406.40 0.6201
406.50 0.6206
406.60 0.6211
406.70 0.6215
406.80 0.622
406.90 0.6224
407.00 0.6229
407.10 0.6234
407.20 0.6238
407.30 0.6243
407.40 0.6247
407.50 0.6252
407.60 0.6257
407.70 0.6261
407.80 0.6266
407.90 0.6271
408.00 0.6275
408.10 0.628
408.20 0.6284
408.30 0.6289
408.40 0.6294
408.50 0.6298
408.60 0.6303
408.70 0.6308
408.80 0.6312
408.90 0.6317
409.00 0.6321
409.10 0.6326
409.20 0.6331
409.30 0.6335
409.40 0.634
409.50 0.6344
409.60 0.6349
409.70 0.6354
409.80 0.6358
409.90 0.6363
410.00 0.6367
410.10 0.6372
410.20 0.6377
410.30 0.6381
410.40 0.6386
410.50 0.6391
410.60 0.6395
410.70 0.64
410.80 0.6404
410.90 0.6409
411.00 0.6413
411.10 0.6418
411.20 0.6423
411.30 0.6427
411.40 0.6432
411.50 0.6437
411.60 0.6441
411.70 0.6446
411.80 0.645
411.90 0.6455
412.00 0.646
412.10 0.6464
412.20 0.6469
412.30 0.6473
412.40 0.6478
412.50 0.6482
412.60 0.6487
412.70 0.6492
412.80 0.6496
412.90 0.6501
413.00 0.6505
413.10 0.651
413.20 0.6515
413.30 0.6519
413.40 0.6524
413.50 0.6528
413.60 0.6533
413.70 0.6538
413.80 0.6542
413.90 0.6547
414.00 0.6551
414.10 0.6556
414.20 0.656
414.30 0.6565
414.40 0.657
414.50 0.6574
414.60 0.6579
414.70 0.6583
414.80 0.6588
414.90 0.6592
415.00 0.6597
415.10 0.6602
415.20 0.6606
415.30 0.6611
415.40 0.6615
415.50 0.662
415.60 0.6624
415.70 0.6629
415.80 0.6633
415.90 0.6638
416.00 0.6643
416.10 0.6647
416.20 0.6652
416.30 0.6656
416.40 0.6661
416.50 0.6665
416.60 0.667
416.70 0.6675
416.80 0.6679
416.90 0.6684
417.00 0.6688
417.10 0.6693
417.20 0.6697
417.30 0.6702
417.40 0.6706
417.50 0.6711
417.60 0.6716
417.70 0.672
417.80 0.6725
417.90 0.6729
418.00 0.6734
418.10 0.6738
418.20 0.6743
418.30 0.6748
418.40 0.6752
418.50 0.6757
418.60 0.6761
418.70 0.6766
418.80 0.677
418.90 0.6775
419.00 0.6779
419.10 0.6784
419.20 0.6788
419.30 0.6793
419.40 0.6797
419.50 0.6802
419.60 0.6807
419.70 0.6811
419.80 0.6816
419.90 0.682
420.00 0.6825
420.10 0.6829
420.20 0.6834
420.30 0.6838
420.40 0.6843
420.50 0.6847
420.60 0.6852
420.70 0.6856
420.80 0.6861
420.90 0.6865
421.00 0.687
421.10 0.6874
421.20 0.6879
421.30 0.6883
421.40 0.6888
421.50 0.6893
421.60 0.6897
421.70 0.6902
421.80 0.6906
421.90 0.6911
422.00 0.6915
422.10 0.692
422.20 0.6924
422.30 0.6929
422.40 0.6933
422.50 0.6938
422.60 0.6942
422.70 0.6947
422.80 0.6951
422.90 0.6956
423.00 0.696
423.10 0.6965
423.20 0.6969
423.30 0.6974
423.40 0.6978
423.50 0.6983
423.60 0.6987
423.70 0.6992
423.80 0.6996
423.90 0.7001
424.00 0.7005
424.10 0.701
424.20 0.7014
424.30 0.7019
424.40 0.7023
424.50 0.7028
424.60 0.7032
424.70 0.7037
424.80 0.7041
424.90 0.7046
425.00 0.705
425.10 0.7055
425.20 0.7059
425.30 0.7064
425.40 0.7068
425.50 0.7072
425.60 0.7077
425.70 0.7081
425.80 0.7086
425.90 0.709
426.00 0.7095
426.10 0.7099
426.20 0.7104
426.30 0.7108
426.40 0.7113
426.50 0.7117
426.60 0.7122
426.70 0.7126
426.80 0.7131
426.90 0.7135
427.00 0.714
427.10 0.7144
427.20 0.7148
427.30 0.7153
427.40 0.7157
427.50 0.7162
427.60 0.7166
427.70 0.7171
427.80 0.7175
427.90 0.718
428.00 0.7184
428.10 0.7189
428.20 0.7193
428.30 0.7198
428.40 0.7202
428.50 0.7206
428.60 0.7211
428.70 0.7215
428.80 0.722
428.90 0.7224
429.00 0.7229
429.10 0.7233
429.20 0.7237
429.30 0.7242
429.40 0.7246
429.50 0.7251
429.60 0.7255
429.70 0.726
429.80 0.7264
429.90 0.7269
430.00 0.7273
430.10 0.7277
430.20 0.7282
430.30 0.7286
430.40 0.7291
430.50 0.7295
430.60 0.7299
430.70 0.7304
430.80 0.7308
430.90 0.7313
431.00 0.7317
431.10 0.7322
431.20 0.7326
431.30 0.733
431.40 0.7335
431.50 0.7339
431.60 0.7344
431.70 0.7348
431.80 0.7353
431.90 0.7357
432.00 0.7361
432.10 0.7366
432.20 0.737
432.30 0.7375
432.40 0.7379
432.50 0.7383
432.60 0.7388
432.70 0.7392
432.80 0.7397
432.90 0.7401
433.00 0.7405
433.10 0.741
433.20 0.7414
433.30 0.7419
433.40 0.7423
433.50 0.7427
433.60 0.7432
433.70 0.7436
433.80 0.744
433.90 0.7445
434.00 0.7449
434.10 0.7453
434.20 0.7458
434.30 0.7462
434.40 0.7467
434.50 0.7471
434.60 0.7476
434.70 0.748
434.80 0.7484
434.90 0.7489
435.00 0.7493
435.10 0.7498
435.20 0.7502
435.30 0.7506
435.40 0.7511
435.50 0.7515
435.60 0.7519
435.70 0.7524
435.80 0.7528
435.90 0.7532
436.00 0.7537
436.10 0.7541
436.20 0.7545
436.30 0.755
436.40 0.7554
436.50 0.7558
436.60 0.7563
436.70 0.7567
436.80 0.7572
436.90 0.7576
437.00 0.758
437.10 0.7585
437.20 0.7589
437.30 0.7593
437.40 0.7598
437.50 0.7602
437.60 0.7606
437.70 0.7611
437.80 0.7615
437.90 0.7619
438.00 0.7624
438.10 0.7628
438.20 0.7632
438.30 0.7637
438.40 0.7641
438.50 0.7645
438.60 0.765
438.70 0.7654
438.80 0.7658
438.90 0.7663
439.00 0.7667
439.10 0.7671
439.20 0.7676
439.30 0.768
439.40 0.7684
439.50 0.7689
439.60 0.7693
439.70 0.7697
439.80 0.7701
439.90 0.7706
440.00 0.771
440.10 0.7714
440.20 0.7719
440.30 0.7723
440.40 0.7727
440.50 0.7732
440.60 0.7736
440.70 0.774
440.80 0.7744
440.90 0.7749
441.00 0.7753
441.10 0.7757
441.20 0.7762
441.30 0.7766
441.40 0.777
441.50 0.7775
441.60 0.7779
441.70 0.7783
441.80 0.7787
441.90 0.7792
442.00 0.7796
442.10 0.78
442.20 0.7805
442.30 0.7809
442.40 0.7813
442.50 0.7817
442.60 0.7822
442.70 0.7826
442.80 0.783
442.90 0.7835
443.00 0.7839
443.10 0.7843
443.20 0.7847
443.30 0.7852
443.40 0.7856
443.50 0.786
443.60 0.7864
443.70 0.7869
443.80 0.7873
443.90 0.7877
444.00 0.7881
444.10 0.7886
444.20 0.789
444.30 0.7894
444.40 0.7898
444.50 0.7903
444.60 0.7907
444.70 0.7911
444.80 0.7915
444.90 0.792
445.00 0.7924
445.10 0.7928
445.20 0.7932
445.30 0.7937
445.40 0.7941
445.50 0.7945
445.60 0.7949
445.70 0.7953
445.80 0.7958
445.90 0.7962
446.00 0.7966
446.10 0.797
446.20 0.7975
446.30 0.7979
446.40 0.7983
446.50 0.7987
446.60 0.7991
446.70 0.7996
446.80 0.8
446.90 0.8004
447.00 0.8008
447.10 0.8013
447.20 0.8017
447.30 0.8021
447.40 0.8025
447.50 0.8029
447.60 0.8034
447.70 0.8038
447.80 0.8042
447.90 0.8046
448.00 0.805
448.10 0.8055
448.20 0.8059
448.30 0.8063
448.40 0.8067
448.50 0.8071
448.60 0.8075
448.70 0.808
448.80 0.8084
448.90 0.8088
449.00 0.8092
449.10 0.8096
449.20 0.8101
449.30 0.8105
449.40 0.8109
449.50 0.8113
449.60 0.8117
449.70 0.8121
449.80 0.8126
449.90 0.813
450.00 0.8134
450.10 0.8138
450.20 0.8142
450.30 0.8146
450.40 0.8151
450.50 0.8155
450.60 0.8159
450.70 0.8163
450.80 0.8167
450.90 0.8171
451.00 0.8175
451.10 0.818
451.20 0.8184
451.30 0.8188
451.40 0.8192
451.50 0.8196
451.60 0.8201
451.70 0.8205
451.80 0.8209
451.90 0.8213
452.00 0.8217
452.10 0.8221
452.20 0.8225
452.30 0.8229
452.40 0.8234
452.50 0.8238
452.60 0.8242
452.70 0.8246
452.80 0.825
452.90 0.8254
453.00 0.8258
453.10 0.8262
453.20 0.8267
453.30 0.8271
453.40 0.8275
453.50 0.8279
453.60 0.8283
453.70 0.8287
453.80 0.8291
453.90 0.8295
454.00 0.8299
454.10 0.8304
454.20 0.8308
454.30 0.8312
454.40 0.8316
454.50 0.832
454.60 0.8324
454.70 0.8328
454.80 0.8332
454.90 0.8336
455.00 0.834
455.10 0.8344
455.20 0.8349
455.30 0.8353
455.40 0.8357
455.50 0.8361
455.60 0.8365
455.70 0.8369
455.80 0.8373
455.90 0.8377
456.00 0.8381
456.10 0.8385
456.20 0.8389
456.30 0.8393
456.40 0.8397
456.50 0.8402
456.60 0.8406
456.70 0.841
456.80 0.8414
456.90 0.8418
457.00 0.8422
457.10 0.8426
457.20 0.843
457.30 0.8434
457.40 0.8438
457.50 0.8442
457.60 0.8446
457.70 0.845
457.80 0.8454
457.90 0.8458
458.00 0.8462
458.10 0.8466
458.20 0.847
458.30 0.8474
458.40 0.8478
458.50 0.8482
458.60 0.8486
458.70 0.8491
458.80 0.8495
458.90 0.8499
459.00 0.8503
459.10 0.8507
459.20 0.8511
459.30 0.8515
459.40 0.8519
459.50 0.8523
459.60 0.8527
459.70 0.8531
459.80 0.8535
459.90 0.8539
460.00 0.8543
460.10 0.8547
460.20 0.8551
460.30 0.8555
460.40 0.8559
460.50 0.8563
460.60 0.8567
460.70 0.8571
460.80 0.8575
460.90 0.8579
461.00 0.8583
461.10 0.8587
461.20 0.8591
461.30 0.8595
461.40 0.8599
461.50 0.8603
461.60 0.8607
461.70 0.8611
461.80 0.8615
461.90 0.8619
462.00 0.8623
462.10 0.8626
462.20 0.863
462.30 0.8634
462.40 0.8638
462.50 0.8642
462.60 0.8646
462.70 0.865
462.80 0.8654
462.90 0.8658
463.00 0.8662
463.10 0.8666
463.20 0.867
463.30 0.8674
463.40 0.8678
463.50 0.8682
463.60 0.8686
463.70 0.869
463.80 0.8694
463.90 0.8698
464.00 0.8702
464.10 0.8706
464.20 0.871
464.30 0.8713
464.40 0.8717
464.50 0.8721
464.60 0.8725
464.70 0.8729
464.80 0.8733
464.90 0.8737
465.00 0.8741
465.10 0.8745
465.20 0.8749
465.30 0.8753
465.40 0.8757
465.50 0.8761
465.60 0.8764
465.70 0.8768
465.80 0.8772
465.90 0.8776
466.00 0.878
466.10 0.8784
466.20 0.8788
466.30 0.8792
466.40 0.8796
466.50 0.88
466.60 0.8804
466.70 0.8807
466.80 0.8811
466.90 0.8815
467.00 0.8819
467.10 0.8823
467.20 0.8827
467.30 0.8831
467.40 0.8835
467.50 0.8838
467.60 0.8842
467.70 0.8846
467.80 0.885
467.90 0.8854
468.00 0.8858
468.10 0.8862
468.20 0.8866
468.30 0.8869
468.40 0.8873
468.50 0.8877
468.60 0.8881
468.70 0.8885
468.80 0.8889
468.90 0.8893
469.00 0.8896
469.10 0.89
469.20 0.8904
469.30 0.8908
469.40 0.8912
469.50 0.8916
469.60 0.892
469.70 0.8923
469.80 0.8927
469.90 0.8931
470.00 0.8935
470.10 0.8939
470.20 0.8943
470.30 0.8946
470.40 0.895
470.50 0.8954
470.60 0.8958
470.70 0.8962
470.80 0.8965
470.90 0.8969
471.00 0.8973
471.10 0.8977
471.20 0.8981
471.30 0.8984
471.40 0.8988
471.50 0.8992
471.60 0.8996
471.70 0.9
471.80 0.9004
471.90 0.9007
472.00 0.9011
472.10 0.9015
472.20 0.9019
472.30 0.9023
472.40 0.9026
472.50 0.903
472.60 0.9034
472.70 0.9038
472.80 0.9041
472.90 0.9045
473.00 0.9049
473.10 0.9053
473.20 0.9057
473.30 0.906
473.40 0.9064
473.50 0.9068
473.60 0.9072
473.70 0.9075
473.80 0.9079
473.90 0.9083
474.00 0.9087
474.10 0.909
474.20 0.9094
474.30 0.9098
474.40 0.9102
474.50 0.9106
474.60 0.9109
474.70 0.9113
474.80 0.9117
474.90 0.9121
475.00 0.9124
475.10 0.9128
475.20 0.9132
475.30 0.9135
475.40 0.9139
475.50 0.9143
475.60 0.9147
475.70 0.915
475.80 0.9154
475.90 0.9158
476.00 0.9162
476.10 0.9165
476.20 0.9169
476.30 0.9173
476.40 0.9176
476.50 0.918
476.60 0.9184
476.70 0.9188
476.80 0.9191
476.90 0.9195
477.00 0.9199
477.10 0.9202
477.20 0.9206
477.30 0.921
477.40 0.9214
477.50 0.9217
477.60 0.9221
477.70 0.9225
477.80 0.9228
477.90 0.9232
478.00 0.9236
478.10 0.9239
478.20 0.9243
478.30 0.9247
478.40 0.925
478.50 0.9254
478.60 0.9258
478.70 0.9261
478.80 0.9265
478.90 0.9269
479.00 0.9272
479.10 0.9276
479.20 0.928
479.30 0.9283
479.40 0.9287
479.50 0.9291
479.60 0.9294
479.70 0.9298
479.80 0.9302
479.90 0.9305
480.00 0.9309
480.10 0.9313
480.20 0.9316
480.30 0.932
480.40 0.9324
480.50 0.9327
480.60 0.9331
480.70 0.9335
480.80 0.9338
480.90 0.9342
481.00 0.9345
481.10 0.9349
481.20 0.9353
481.30 0.9356
481.40 0.936
481.50 0.9364
481.60 0.9367
481.70 0.9371
481.80 0.9374
481.90 0.9378
482.00 0.9382
482.10 0.9385
482.20 0.9389
482.30 0.9392
482.40 0.9396
482.50 0.94
482.60 0.9403
482.70 0.9407
482.80 0.941
482.90 0.9414
483.00 0.9418
483.10 0.9421
483.20 0.9425
483.30 0.9428
483.40 0.9432
483.50 0.9436
483.60 0.9439
483.70 0.9443
483.80 0.9446
483.90 0.945
484.00 0.9453
484.10 0.9457
484.20 0.9461
484.30 0.9464
484.40 0.9468
484.50 0.9471
484.60 0.9475
484.70 0.9478
484.80 0.9482
484.90 0.9485
485.00 0.9489
485.10 0.9493
485.20 0.9496
485.30 0.95
485.40 0.9503
485.50 0.9507
485.60 0.951
485.70 0.9513
485.80 0.9517
485.90 0.952
486.00 0.9523
486.10 0.9526
486.20 0.953
486.30 0.9534
486.40 0.9538
486.50 0.9541
486.60 0.9545
486.70 0.9549
486.80 0.9552
486.90 0.9556
487.00 0.956
487.10 0.9563
487.20 0.9567
487.30 0.957
487.40 0.9574
487.50 0.9577
487.60 0.9581
487.70 0.9584
487.80 0.9588
487.90 0.9591
488.00 0.9595
488.10 0.9598
488.20 0.9602
488.30 0.9605
488.40 0.9609
488.50 0.9612
488.60 0.9616
488.70 0.9619
488.80 0.9623
488.90 0.9626
489.00 0.963
489.10 0.9633
489.20 0.9637
489.30 0.964
489.40 0.9644
489.50 0.9647
489.60 0.965
489.70 0.9654
489.80 0.9657
489.90 0.9661
490.00 0.9664
490.10 0.9668
490.20 0.9671
490.30 0.9675
490.40 0.9678
490.50 0.9682
490.60 0.9685
490.70 0.9688
490.80 0.9692
490.90 0.9695
491.00 0.9699
491.10 0.9702
491.20 0.9706
491.30 0.9709
491.40 0.9713
491.50 0.9716
491.60 0.9719
491.70 0.9723
491.80 0.9726
491.90 0.973
492.00 0.9733
492.10 0.9736
492.20 0.974
492.30 0.9743
492.40 0.9747
492.50 0.975
492.60 0.9754
492.70 0.9757
492.80 0.976
492.90 0.9764
493.00 0.9767
493.10 0.9771
493.20 0.9774
493.30 0.9777
493.40 0.9781
493.50 0.9784
493.60 0.9787
493.70 0.9791
493.80 0.9794
493.90 0.9798
494.00 0.9801
494.10 0.9804
494.20 0.9808
494.30 0.9811
494.40 0.9814
494.50 0.9818
494.60 0.9821
494.70 0.9825
494.80 0.9828
494.90 0.9831
495.00 0.9835
495.10 0.9838
495.20 0.9841
495.30 0.9845
495.40 0.9848
495.50 0.9851
495.60 0.9855
495.70 0.9858
495.80 0.9861
495.90 0.9865
496.00 0.9868
496.10 0.9872
496.20 0.9875
496.30 0.9878
496.40 0.9881
496.50 0.9885
496.60 0.9888
496.70 0.9891
496.80 0.9895
496.90 0.9898
497.00 0.9901
497.10 0.9905
497.20 0.9908
497.30 0.9911
497.40 0.9915
497.50 0.9918
497.60 0.9921
497.70 0.9925
497.80 0.9928
497.90 0.9931
498.00 0.9934
498.10 0.9938
498.20 0.9941
498.30 0.9944
498.40 0.9948
498.50 0.9951
498.60 0.9954
498.70 0.9958
498.80 0.9961
498.90 0.9964
499.00 0.9967
499.10 0.9971
499.20 0.9974
499.30 0.9977
499.40 0.998
499.50 0.9984
499.60 0.9987
499.70 0.999
499.80 0.9993
499.90 0.9997
500.00 1
500.10 1
500.20 1.001
500.30 1.001
500.40 1.001
500.50 1.002
500.60 1.002
500.70 1.002
500.80 1.003
500.90 1.003
501.00 1.003
501.10 1.004
501.20 1.004
501.30 1.004
501.40 1.005
501.50 1.005
501.60 1.005
501.70 1.006
501.80 1.006
501.90 1.006
502.00 1.006
502.10 1.007
502.20 1.007
502.30 1.007
502.40 1.008
502.50 1.008
502.60 1.008
502.70 1.009
502.80 1.009
502.90 1.009
503.00 1.01
503.10 1.01
503.20 1.01
503.30 1.011
503.40 1.011
503.50 1.011
503.60 1.012
503.70 1.012
503.80 1.012
503.90 1.013
504.00 1.013
504.10 1.013
504.20 1.013
504.30 1.014
504.40 1.014
504.50 1.014
504.60 1.015
504.70 1.015
504.80 1.015
504.90 1.016
505.00 1.016
505.10 1.016
505.20 1.017
505.30 1.017
505.40 1.017
505.50 1.018
505.60 1.018
505.70 1.018
505.80 1.019
505.90 1.019
506.00 1.019
506.10 1.019
506.20 1.02
506.30 1.02
506.40 1.02
506.50 1.021
506.60 1.021
506.70 1.021
506.80 1.022
506.90 1.022
507.00 1.022
507.10 1.023
507.20 1.023
507.30 1.023
507.40 1.024
507.50 1.024
507.60 1.024
507.70 1.024
507.80 1.025
507.90 1.025
508.00 1.025
508.10 1.026
508.20 1.026
508.30 1.026
508.40 1.027
508.50 1.027
508.60 1.027
508.70 1.028
508.80 1.028
508.90 1.028
509.00 1.028
509.10 1.029
509.20 1.029
509.30 1.029
509.40 1.03
509.50 1.03
509.60 1.03
509.70 1.031
509.80 1.031
509.90 1.031
510.00 1.032
510.10 1.032
510.20 1.032
510.30 1.032
510.40 1.033
510.50 1.033
510.60 1.033
510.70 1.034
510.80 1.034
510.90 1.034
511.00 1.035
511.10 1.035
511.20 1.035
511.30 1.035
511.40 1.036
511.50 1.036
511.60 1.036
511.70 1.037
511.80 1.037
511.90 1.037
512.00 1.038
512.10 1.038
512.20 1.038
512.30 1.038
512.40 1.039
512.50 1.039
512.60 1.039
512.70 1.04
512.80 1.04
512.90 1.04
513.00 1.041
513.10 1.041
513.20 1.041
513.30 1.041
513.40 1.042
513.50 1.042
513.60 1.042
513.70 1.043
513.80 1.043
513.90 1.043
514.00 1.044
514.10 1.044
514.20 1.044
514.30 1.044
514.40 1.045
514.50 1.045
514.60 1.045
514.70 1.046
514.80 1.046
514.90 1.046
515.00 1.047
515.10 1.047
515.20 1.047
515.30 1.047
515.40 1.048
515.50 1.048
515.60 1.048
515.70 1.049
515.80 1.049
515.90 1.049
516.00 1.049
516.10 1.05
516.20 1.05
516.30 1.05
516.40 1.051
516.50 1.051
516.60 1.051
516.70 1.052
516.80 1.052
516.90 1.052
517.00 1.052
517.10 1.053
517.20 1.053
517.30 1.053
517.40 1.054
517.50 1.054
517.60 1.054
517.70 1.054
517.80 1.055
517.90 1.055
518.00 1.055
518.10 1.056
518.20 1.056
518.30 1.056
518.40 1.056
518.50 1.057
518.60 1.057
518.70 1.057
518.80 1.058
518.90 1.058
519.00 1.058
519.10 1.058
519.20 1.059
519.30 1.059
519.40 1.059
519.50 1.06
519.60 1.06
519.70 1.06
519.80 1.06
519.90 1.061
520.00 1.061
520.10 1.061
520.20 1.062
520.30 1.062
520.40 1.062
520.50 1.062
520.60 1.063
520.70 1.063
520.80 1.063
520.90 1.064
521.00 1.064
521.10 1.064
521.20 1.064
521.30 1.065
521.40 1.065
521.50 1.065
521.60 1.066
521.70 1.066
521.80 1.066
521.90 1.066
522.00 1.067
522.10 1.067
522.20 1.067
522.30 1.067
522.40 1.068
522.50 1.068
522.60 1.068
522.70 1.069
522.80 1.069
522.90 1.069
523.00 1.069
523.10 1.07
523.20 1.07
523.30 1.07
523.40 1.071
523.50 1.071
523.60 1.071
523.70 1.071
523.80 1.072
523.90 1.072
524.00 1.072
524.10 1.072
524.20 1.073
524.30 1.073
524.40 1.073
524.50 1.074
524.60 1.074
524.70 1.074
524.80 1.074
524.90 1.075
525.00 1.075
525.10 1.075
525.20 1.076
525.30 1.076
525.40 1.076
525.50 1.076
525.60 1.077
525.70 1.077
525.80 1.077
525.90 1.077
526.00 1.078
526.10 1.078
526.20 1.078
526.30 1.079
526.40 1.079
526.50 1.079
526.60 1.079
526.70 1.08
526.80 1.08
526.90 1.08
527.00 1.08
527.10 1.081
527.20 1.081
527.30 1.081
527.40 1.081
527.50 1.082
527.60 1.082
527.70 1.082
527.80 1.083
527.90 1.083
528.00 1.083
528.10 1.083
528.20 1.084
528.30 1.084
528.40 1.084
528.50 1.084
528.60 1.085
528.70 1.085
528.80 1.085
528.90 1.085
529.00 1.086
529.10 1.086
529.20 1.086
529.30 1.087
529.40 1.087
529.50 1.087
529.60 1.087
529.70 1.088
529.80 1.088
529.90 1.088
530.00 1.088
530.10 1.089
530.20 1.089
530.30 1.089
530.40 1.089
530.50 1.09
530.60 1.09
530.70 1.09
530.80 1.09
530.90 1.091
531.00 1.091
531.10 1.091
531.20 1.092
531.30 1.092
531.40 1.092
531.50 1.092
531.60 1.093
531.70 1.093
531.80 1.093
531.90 1.093
532.00 1.094
532.10 1.094
532.20 1.094
532.30 1.094
532.40 1.095
532.50 1.095
532.60 1.095
532.70 1.095
532.80 1.096
532.90 1.096
533.00 1.096
533.10 1.096
533.20 1.097
533.30 1.097
533.40 1.097
533.50 1.097
533.60 1.098
533.70 1.098
533.80 1.098
533.90 1.098
534.00 1.099
534.10 1.099
534.20 1.099
534.30 1.099
534.40 1.1
534.50 1.1
534.60 1.1
534.70 1.101
534.80 1.101
534.90 1.101
535.00 1.101
535.10 1.102
535.20 1.102
535.30 1.102
535.40 1.102
535.50 1.103
535.60 1.103
535.70 1.103
535.80 1.103
535.90 1.104
536.00 1.104
536.10 1.104
536.20 1.104
536.30 1.105
536.40 1.105
536.50 1.105
536.60 1.105
536.70 1.106
536.80 1.106
536.90 1.106
537.00 1.106
537.10 1.107
537.20 1.107
537.30 1.107
537.40 1.107
537.50 1.108
537.60 1.108
537.70 1.108
537.80 1.108
537.90 1.109
538.00 1.109
538.10 1.109
538.20 1.109
538.30 1.11
538.40 1.11
538.50 1.11
538.60 1.11
538.70 1.111
538.80 1.111
538.90 1.111
539.00 1.111
539.10 1.111
539.20 1.112
539.30 1.112
539.40 1.112
539.50 1.112
539.60 1.113
539.70 1.113
539.80 1.113
539.90 1.113
540.00 1.114
540.10 1.114
540.20 1.114
540.30 1.114
540.40 1.115
540.50 1.115
540.60 1.115
540.70 1.115
540.80 1.116
540.90 1.116
541.00 1.116
541.10 1.116
541.20 1.117
541.30 1.117
541.40 1.117
541.50 1.117
541.60 1.118
541.70 1.118
541.80 1.118
541.90 1.118
542.00 1.119
542.10 1.119
542.20 1.119
542.30 1.119
542.40 1.119
542.50 1.12
542.60 1.12
542.70 1.12
542.80 1.12
542.90 1.121
543.00 1.121
543.10 1.121
543.20 1.121
543.30 1.122
543.40 1.122
543.50 1.122
543.60 1.122
543.70 1.123
543.80 1.123
543.90 1.123
544.00 1.123
544.10 1.123
544.20 1.124
544.30 1.124
544.40 1.124
544.50 1.124
544.60 1.125
544.70 1.125
544.80 1.125
544.90 1.125
545.00 1.126
545.10 1.126
545.20 1.126
545.30 1.126
545.40 1.127
545.50 1.127
545.60 1.127
545.70 1.127
545.80 1.127
545.90 1.128
546.00 1.128
546.10 1.128
546.20 1.128
546.30 1.129
546.40 1.129
546.50 1.129
546.60 1.129
546.70 1.13
546.80 1.13
546.90 1.13
547.00 1.13
547.10 1.13
547.20 1.131
547.30 1.131
547.40 1.131
547.50 1.131
547.60 1.132
547.70 1.132
547.80 1.132
547.90 1.132
548.00 1.132
548.10 1.133
548.20 1.133
548.30 1.133
548.40 1.133
548.50 1.134
548.60 1.134
548.70 1.134
548.80 1.134
548.90 1.135
549.00 1.135
549.10 1.135
549.20 1.135
549.30 1.135
549.40 1.136
549.50 1.136
549.60 1.136
549.70 1.136
549.80 1.136
549.90 1.137
550.00 1.137
550.10 1.137
550.20 1.137
550.30 1.138
550.40 1.138
550.50 1.138
550.60 1.138
550.70 1.138
550.80 1.139
550.90 1.139
551.00 1.139
551.10 1.139
551.20 1.14
551.30 1.14
551.40 1.14
551.50 1.14
551.60 1.14
551.70 1.141
551.80 1.141
551.90 1.141
552.00 1.141
552.10 1.142
552.20 1.142
552.30 1.142
552.40 1.142
552.50 1.142
552.60 1.143
552.70 1.143
552.80 1.143
552.90 1.143
553.00 1.143
553.10 1.144
553.20 1.144
553.30 1.144
553.40 1.144
553.50 1.145
553.60 1.145
553.70 1.145
553.80 1.145
553.90 1.145
554.00 1.146
554.10 1.146
554.20 1.146
554.30 1.146
554.40 1.147
554.50 1.147
554.60 1.147
554.70 1.147
554.80 1.147
554.90 1.148
555.00 1.148
555.10 1.148
555.20 1.148
555.30 1.148
555.40 1.149
555.50 1.149
555.60 1.149
555.70 1.149
555.80 1.15
555.90 1.15
556.00 1.15
556.10 1.15
556.20 1.15
556.30 1.151
556.40 1.151
556.50 1.151
556.60 1.151
556.70 1.151
556.80 1.152
556.90 1.152
557.00 1.152
557.10 1.152
557.20 1.152
557.30 1.153
557.40 1.153
557.50 1.153
557.60 1.153
557.70 1.153
557.80 1.154
557.90 1.154
558.00 1.154
558.10 1.154
558.20 1.154
558.30 1.155
558.40 1.155
558.50 1.155
558.60 1.155
558.70 1.156
558.80 1.156
558.90 1.156
559.00 1.156
559.10 1.156
559.20 1.157
559.30 1.157
559.40 1.157
559.50 1.157
559.60 1.157
559.70 1.158
559.80 1.158
559.90 1.158
560.00 1.158
560.10 1.158
560.20 1.159
560.30 1.159
560.40 1.159
560.50 1.159
560.60 1.159
560.70 1.16
560.80 1.16
560.90 1.16
561.00 1.16
561.10 1.16
561.20 1.161
561.30 1.161
561.40 1.161
561.50 1.161
561.60 1.161
561.70 1.161
561.80 1.162
561.90 1.162
562.00 1.162
562.10 1.162
562.20 1.162
562.30 1.163
562.40 1.163
562.50 1.163
562.60 1.163
562.70 1.164
562.80 1.164
562.90 1.164
563.00 1.164
563.10 1.164
563.20 1.165
563.30 1.165
563.40 1.165
563.50 1.165
563.60 1.165
563.70 1.165
563.80 1.166
563.90 1.166
564.00 1.166
564.10 1.166
564.20 1.166
564.30 1.167
564.40 1.167
564.50 1.167
564.60 1.167
564.70 1.167
564.80 1.168
564.90 1.168
565.00 1.168
565.10 1.168
565.20 1.168
565.30 1.169
565.40 1.169
565.50 1.169
565.60 1.169
565.70 1.169
565.80 1.169
565.90 1.17
566.00 1.17
566.10 1.17
566.20 1.17
566.30 1.17
566.40 1.171
566.50 1.171
566.60 1.171
566.70 1.171
566.80 1.171
566.90 1.172
567.00 1.172
567.10 1.172
567.20 1.172
567.30 1.172
567.40 1.173
567.50 1.173
567.60 1.173
567.70 1.173
567.80 1.173
567.90 1.173
568.00 1.174
568.10 1.174
568.20 1.174
568.30 1.174
568.40 1.174
568.50 1.175
568.60 1.175
568.70 1.175
568.80 1.175
568.90 1.175
569.00 1.175
569.10 1.176
569.20 1.176
569.30 1.176
569.40 1.176
569.50 1.176
569.60 1.177
569.70 1.177
569.80 1.177
569.90 1.177
570.00 1.177
570.10 1.177
570.20 1.178
570.30 1.178
570.40 1.178
570.50 1.178
570.60 1.178
570.70 1.179
570.80 1.179
570.90 1.179
571.00 1.179
571.10 1.179
571.20 1.179
571.30 1.18
571.40 1.18
571.50 1.18
571.60 1.18
571.70 1.18
571.80 1.181
571.90 1.181
572.00 1.181
572.10 1.181
572.20 1.181
572.30 1.181
572.40 1.182
572.50 1.182
572.60 1.182
572.70 1.182
572.80 1.182
572.90 1.182
573.00 1.183
573.10 1.183
573.20 1.183
573.30 1.183
573.40 1.183
573.50 1.184
573.60 1.184
573.70 1.184
573.80 1.184
573.90 1.184
574.00 1.184
574.10 1.185
574.20 1.185
574.30 1.185
574.40 1.185
574.50 1.185
574.60 1.185
574.70 1.186
574.80 1.186
574.90 1.186
575.00 1.186
575.10 1.186
575.20 1.187
575.30 1.187
575.40 1.187
575.50 1.187
575.60 1.187
575.70 1.187
575.80 1.188
575.90 1.188
576.00 1.188
576.10 1.188
576.20 1.188
576.30 1.188
576.40 1.189
576.50 1.189
576.60 1.189
576.70 1.189
576.80 1.189
576.90 1.189
577.00 1.19
577.10 1.19
577.20 1.19
577.30 1.19
577.40 1.19
577.50 1.19
577.60 1.191
577.70 1.191
577.80 1.191
577.90 1.191
578.00 1.191
578.10 1.191
578.20 1.192
578.30 1.192
578.40 1.192
578.50 1.192
578.60 1.192
578.70 1.192
578.80 1.193
578.90 1.193
579.00 1.193
579.10 1.193
579.20 1.193
579.30 1.193
579.40 1.194
579.50 1.194
579.60 1.194
579.70 1.194
579.80 1.194
579.90 1.194
580.00 1.195
580.10 1.195
580.20 1.195
580.30 1.195
580.40 1.195
580.50 1.195
580.60 1.195
580.70 1.196
580.80 1.196
580.90 1.196
581.00 1.196
581.10 1.196
581.20 1.196
581.30 1.197
581.40 1.197
581.50 1.197
581.60 1.197
581.70 1.197
581.80 1.197
581.90 1.198
582.00 1.198
582.10 1.198
582.20 1.198
582.30 1.198
582.40 1.198
582.50 1.198
582.60 1.199
582.70 1.199
582.80 1.199
582.90 1.199
583.00 1.199
583.10 1.199
583.20 1.2
583.30 1.2
583.40 1.2
583.50 1.2
583.60 1.2
583.70 1.2
583.80 1.201
583.90 1.201
584.00 1.201
584.10 1.201
584.20 1.201
584.30 1.201
584.40 1.201
584.50 1.202
584.60 1.202
584.70 1.202
584.80 1.202
584.90 1.202
585.00 1.202
585.10 1.203
585.20 1.203
585.30 1.203
585.40 1.203
585.50 1.203
585.60 1.203
585.70 1.203
585.80 1.204
585.90 1.204
586.00 1.204
586.10 1.204
586.20 1.204
586.30 1.204
586.40 1.204
586.50 1.205
586.60 1.205
586.70 1.205
586.80 1.205
586.90 1.205
587.00 1.205
587.10 1.206
587.20 1.206
587.30 1.206
587.40 1.206
587.50 1.206
587.60 1.206
587.70 1.206
587.80 1.207
587.90 1.207
588.00 1.207
588.10 1.207
588.20 1.207
588.30 1.207
588.40 1.207
588.50 1.208
588.60 1.208
588.70 1.208
588.80 1.208
588.90 1.208
589.00 1.208
589.10 1.209
589.20 1.209
589.30 1.209
589.40 1.209
589.50 1.209
589.60 1.209
589.70 1.209
589.80 1.21
589.90 1.21
590.00 1.21
590.10 1.21
590.20 1.21
590.30 1.21
590.40 1.21
590.50 1.211
590.60 1.211
590.70 1.211
590.80 1.211
590.90 1.211
591.00 1.211
591.10 1.211
591.20 1.212
591.30 1.212
591.40 1.212
591.50 1.212
591.60 1.212
591.70 1.212
591.80 1.212
591.90 1.213
592.00 1.213
592.10 1.213
592.20 1.213
592.30 1.213
592.40 1.213
592.50 1.213
592.60 1.213
592.70 1.214
592.80 1.214
592.90 1.214
593.00 1.214
593.10 1.214
593.20 1.214
593.30 1.214
593.40 1.215
593.50 1.215
593.60 1.215
593.70 1.215
593.80 1.215
593.90 1.215
594.00 1.215
594.10 1.216
594.20 1.216
594.30 1.216
594.40 1.216
594.50 1.216
594.60 1.216
594.70 1.216
594.80 1.216
594.90 1.217
595.00 1.217
595.10 1.217
595.20 1.217
595.30 1.217
595.40 1.217
595.50 1.217
595.60 1.218
595.70 1.218
595.80 1.218
595.90 1.218
596.00 1.218
596.10 1.218
596.20 1.218
596.30 1.218
596.40 1.219
596.50 1.219
596.60 1.219
596.70 1.219
596.80 1.219
596.90 1.219
597.00 1.219
597.10 1.219
597.20 1.22
597.30 1.22
597.40 1.22
597.50 1.22
597.60 1.22
597.70 1.22
597.80 1.22
597.90 1.22
598.00 1.221
598.10 1.221
598.20 1.221
598.30 1.221
598.40 1.221
598.50 1.221
598.60 1.221
598.70 1.222
598.80 1.222
598.90 1.222
599.00 1.222
599.10 1.222
599.20 1.222
599.30 1.222
599.40 1.222
599.50 1.223
599.60 1.223
599.70 1.223
599.80 1.223
599.90 1.223
600.00 1.223
600.10 1.223
600.20 1.223
600.30 1.224
600.40 1.224
600.50 1.224
600.60 1.224
600.70 1.224
600.80 1.224
600.90 1.224
601.00 1.224
601.10 1.225
601.20 1.225
601.30 1.225
601.40 1.225
601.50 1.225
601.60 1.225
601.70 1.225
601.80 1.225
601.90 1.226
602.00 1.226
602.10 1.226
602.20 1.226
602.30 1.226
602.40 1.226
602.50 1.226
602.60 1.226
602.70 1.226
602.80 1.227
602.90 1.227
603.00 1.227
603.10 1.227
603.20 1.227
603.30 1.227
603.40 1.227
603.50 1.227
603.60 1.228
603.70 1.228
603.80 1.228
603.90 1.228
604.00 1.228
604.10 1.228
604.20 1.228
604.30 1.228
604.40 1.229
604.50 1.229
604.60 1.229
604.70 1.229
604.80 1.229
604.90 1.229
605.00 1.229
605.10 1.229
605.20 1.229
605.30 1.23
605.40 1.23
605.50 1.23
605.60 1.23
605.70 1.23
605.80 1.23
605.90 1.23
606.00 1.23
606.10 1.23
606.20 1.231
606.30 1.231
606.40 1.231
606.50 1.231
606.60 1.231
606.70 1.231
606.80 1.231
606.90 1.231
607.00 1.231
607.10 1.232
607.20 1.232
607.30 1.232
607.40 1.232
607.50 1.232
607.60 1.232
607.70 1.232
607.80 1.232
607.90 1.232
608.00 1.233
608.10 1.233
608.20 1.233
608.30 1.233
608.40 1.233
608.50 1.233
608.60 1.233
608.70 1.233
608.80 1.233
608.90 1.234
609.00 1.234
609.10 1.234
609.20 1.234
609.30 1.234
609.40 1.234
609.50 1.234
609.60 1.234
609.70 1.234
609.80 1.235
609.90 1.235
610.00 1.235
610.10 1.235
610.20 1.235
610.30 1.235
610.40 1.235
610.50 1.235
610.60 1.235
610.70 1.236
610.80 1.236
610.90 1.236
611.00 1.236
611.10 1.236
611.20 1.236
611.30 1.236
611.40 1.236
611.50 1.236
611.60 1.236
611.70 1.237
611.80 1.237
611.90 1.237
612.00 1.237
612.10 1.237
612.20 1.237
612.30 1.237
612.40 1.237
612.50 1.237
612.60 1.238
612.70 1.238
612.80 1.238
612.90 1.238
613.00 1.238
613.10 1.238
613.20 1.238
613.30 1.238
613.40 1.238
613.50 1.238
613.60 1.239
613.70 1.239
613.80 1.239
613.90 1.239
614.00 1.239
614.10 1.239
614.20 1.239
614.30 1.239
614.40 1.239
614.50 1.239
614.60 1.24
614.70 1.24
614.80 1.24
614.90 1.24
615.00 1.24
615.10 1.24
615.20 1.24
615.30 1.24
615.40 1.24
615.50 1.24
615.60 1.241
615.70 1.241
615.80 1.241
615.90 1.241
616.00 1.241
616.10 1.241
616.20 1.241
616.30 1.241
616.40 1.241
616.50 1.241
616.60 1.241
616.70 1.242
616.80 1.242
616.90 1.242
617.00 1.242
617.10 1.242
617.20 1.242
617.30 1.242
617.40 1.242
617.50 1.242
617.60 1.242
617.70 1.243
617.80 1.243
617.90 1.243
618.00 1.243
618.10 1.243
618.20 1.243
618.30 1.243
618.40 1.243
618.50 1.243
618.60 1.243
618.70 1.243
618.80 1.244
618.90 1.244
619.00 1.244
619.10 1.244
619.20 1.244
619.30 1.244
619.40 1.244
619.50 1.244
619.60 1.244
619.70 1.244
619.80 1.244
619.90 1.245
620.00 1.245
620.10 1.245
620.20 1.245
620.30 1.245
620.40 1.245
620.50 1.245
620.60 1.245
620.70 1.245
620.80 1.245
620.90 1.245
621.00 1.246
621.10 1.246
621.20 1.246
621.30 1.246
621.40 1.246
621.50 1.246
621.60 1.246
621.70 1.246
621.80 1.246
621.90 1.246
622.00 1.246
622.10 1.247
622.20 1.247
622.30 1.247
622.40 1.247
622.50 1.247
622.60 1.247
622.70 1.247
622.80 1.247
622.90 1.247
623.00 1.247
623.10 1.247
623.20 1.247
623.30 1.248
623.40 1.248
623.50 1.248
623.60 1.248
623.70 1.248
623.80 1.248
623.90 1.248
624.00 1.248
624.10 1.248
624.20 1.248
624.30 1.248
624.40 1.248
624.50 1.249
624.60 1.249
624.70 1.249
624.80 1.249
624.90 1.249
625.00 1.249
625.10 1.249
625.20 1.249
625.30 1.249
625.40 1.249
625.50 1.249
625.60 1.249
625.70 1.25
625.80 1.25
625.90 1.25
626.00 1.25
626.10 1.25
626.20 1.25
626.30 1.25
626.40 1.25
626.50 1.25
626.60 1.25
626.70 1.25
626.80 1.25
626.90 1.25
627.00 1.251
627.10 1.251
627.20 1.251
627.30 1.251
627.40 1.251
627.50 1.251
627.60 1.251
627.70 1.251
627.80 1.251
627.90 1.251
628.00 1.251
628.10 1.251
628.20 1.251
628.30 1.252
628.40 1.252
628.50 1.252
628.60 1.252
628.70 1.252
628.80 1.252
628.90 1.252
629.00 1.252
629.10 1.252
629.20 1.252
629.30 1.252
629.40 1.252
629.50 1.252
629.60 1.253
629.70 1.253
629.80 1.253
629.90 1.253
630.00 1.253
630.10 1.253
630.20 1.253
630.30 1.253
630.40 1.253
630.50 1.253
630.60 1.253
630.70 1.253
630.80 1.253
630.90 1.253
631.00 1.254
631.10 1.254
631.20 1.254
631.30 1.254
631.40 1.254
631.50 1.254
631.60 1.254
631.70 1.254
631.80 1.254
631.90 1.254
632.00 1.254
632.10 1.254
632.20 1.254
632.30 1.254
632.40 1.255
632.50 1.255
632.60 1.255
632.70 1.255
632.80 1.255
632.90 1.255
633.00 1.255
633.10 1.255
633.20 1.255
633.30 1.255
633.40 1.255
633.50 1.255
633.60 1.255
633.70 1.255
633.80 1.255
633.90 1.256
634.00 1.256
634.10 1.256
634.20 1.256
634.30 1.256
634.40 1.256
634.50 1.256
634.60 1.256
634.70 1.256
634.80 1.256
634.90 1.256
635.00 1.256
635.10 1.256
635.20 1.256
635.30 1.256
635.40 1.257
635.50 1.257
635.60 1.257
635.70 1.257
635.80 1.257
635.90 1.257
636.00 1.257
636.10 1.257
636.20 1.257
636.30 1.257
636.40 1.257
636.50 1.257
636.60 1.257
636.70 1.257
636.80 1.257
636.90 1.258
637.00 1.258
637.10 1.258
637.20 1.258
637.30 1.258
637.40 1.258
637.50 1.258
637.60 1.258
637.70 1.258
637.80 1.258
637.90 1.258
638.00 1.258
638.10 1.258
638.20 1.258
638.30 1.258
638.40 1.258
638.50 1.259
638.60 1.259
638.70 1.259
638.80 1.259
638.90 1.259
639.00 1.259
639.10 1.259
639.20 1.259
639.30 1.259
639.40 1.259
639.50 1.259
639.60 1.259
639.70 1.259
639.80 1.259
639.90 1.259
640.00 1.259
640.10 1.259
640.20 1.26
640.30 1.26
640.40 1.26
640.50 1.26
640.60 1.26
640.70 1.26
640.80 1.26
640.90 1.26
641.00 1.26
641.10 1.26
641.20 1.26
641.30 1.26
641.40 1.26
641.50 1.26
641.60 1.26
641.70 1.26
641.80 1.26
641.90 1.26
642.00 1.261
642.10 1.261
642.20 1.261
642.30 1.261
642.40 1.261
642.50 1.261
642.60 1.261
642.70 1.261
642.80 1.261
642.90 1.261
643.00 1.261
643.10 1.261
643.20 1.261
643.30 1.261
643.40 1.261
643.50 1.261
643.60 1.261
643.70 1.261
643.80 1.262
643.90 1.262
644.00 1.262
644.10 1.262
644.20 1.262
644.30 1.262
644.40 1.262
644.50 1.262
644.60 1.262
644.70 1.262
644.80 1.262
644.90 1.262
645.00 1.262
645.10 1.262
645.20 1.262
645.30 1.262
645.40 1.262
645.50 1.262
645.60 1.262
645.70 1.262
645.80 1.263
645.90 1.263
646.00 1.263
646.10 1.263
646.20 1.263
646.30 1.263
646.40 1.263
646.50 1.263
646.60 1.263
646.70 1.263
646.80 1.263
646.90 1.263
647.00 1.263
647.10 1.263
647.20 1.263
647.30 1.263
647.40 1.263
647.50 1.263
647.60 1.263
647.70 1.263
647.80 1.263
647.90 1.264
648.00 1.264
648.10 1.264
648.20 1.264
648.30 1.264
648.40 1.264
648.50 1.264
648.60 1.264
648.70 1.264
648.80 1.264
648.90 1.264
649.00 1.264
649.10 1.264
649.20 1.264
649.30 1.264
649.40 1.264
649.50 1.264
649.60 1.264
649.70 1.264
649.80 1.264
649.90 1.264
650.00 1.264
650.10 1.265
650.20 1.265
650.30 1.265
650.40 1.265
650.50 1.265
650.60 1.265
650.70 1.265
650.80 1.265
650.90 1.265
651.00 1.265
651.10 1.265
651.20 1.265
651.30 1.265
651.40 1.265
651.50 1.265
651.60 1.265
651.70 1.265
651.80 1.265
651.90 1.265
652.00 1.265
652.10 1.265
652.20 1.265
652.30 1.265
652.40 1.265
652.50 1.265
652.60 1.266
652.70 1.266
652.80 1.266
652.90 1.266
653.00 1.266
653.10 1.266
653.20 1.266
653.30 1.266
653.40 1.266
653.50 1.266
653.60 1.266
653.70 1.266
653.80 1.266
653.90 1.266
654.00 1.266
654.10 1.266
654.20 1.266
654.30 1.266
654.40 1.266
654.50 1.266
654.60 1.266
654.70 1.266
654.80 1.266
654.90 1.266
655.00 1.266
655.10 1.266
655.20 1.266
655.30 1.266
655.40 1.266
655.50 1.266
655.60 1.266
655.70 1.266
655.80 1.266
655.90 1.266
656.00 1.266
656.10 1.266
656.20 1.266
656.30 1.266
656.40 1.266
656.50 1.266
656.60 1.266
656.70 1.266
656.80 1.267
656.90 1.267
657.00 1.267
657.10 1.267
657.20 1.267
657.30 1.267
657.40 1.267
657.50 1.267
657.60 1.267
657.70 1.267
657.80 1.267
657.90 1.267
658.00 1.267
658.10 1.267
658.20 1.267
658.30 1.267
658.40 1.268
658.50 1.268
658.60 1.268
658.70 1.268
658.80 1.268
658.90 1.268
659.00 1.268
659.10 1.268
659.20 1.268
659.30 1.268
659.40 1.268
659.50 1.268
659.60 1.268
659.70 1.268
659.80 1.268
659.90 1.268
660.00 1.268
660.10 1.268
660.20 1.268
660.30 1.268
660.40 1.268
660.50 1.268
660.60 1.268
660.70 1.268
660.80 1.268
660.90 1.268
661.00 1.268
661.10 1.268
661.20 1.268
661.30 1.268
661.40 1.268
661.50 1.268
661.60 1.268
661.70 1.268
661.80 1.269
661.90 1.269
662.00 1.269
662.10 1.269
662.20 1.269
662.30 1.269
662.40 1.269
662.50 1.269
662.60 1.269
662.70 1.269
662.80 1.269
662.90 1.269
663.00 1.269
663.10 1.269
663.20 1.269
663.30 1.269
663.40 1.269
663.50 1.269
663.60 1.269
663.70 1.269
663.80 1.269
663.90 1.269
664.00 1.269
664.10 1.269
664.20 1.269
664.30 1.269
664.40 1.269
664.50 1.269
664.60 1.269
664.70 1.269
664.80 1.269
664.90 1.269
665.00 1.269
665.10 1.269
665.20 1.269
665.30 1.269
665.40 1.269
665.50 1.269
665.60 1.269
665.70 1.269
665.80 1.269
665.90 1.269
666.00 1.269
666.10 1.269
666.20 1.27
666.30 1.27
666.40 1.27
666.50 1.27
666.60 1.27
666.70 1.27
666.80 1.27
666.90 1.27
667.00 1.27
667.10 1.27
667.20 1.27
667.30 1.27
667.40 1.27
667.50 1.27
667.60 1.27
667.70 1.27
667.80 1.27
667.90 1.27
668.00 1.27
668.10 1.27
668.20 1.27
668.30 1.27
668.40 1.27
668.50 1.27
668.60 1.27
668.70 1.27
668.80 1.27
668.90 1.27
669.00 1.27
669.10 1.27
669.20 1.27
669.30 1.27
669.40 1.27
669.50 1.27
669.60 1.27
669.70 1.27
669.80 1.27
669.90 1.27
670.00 1.27
670.10 1.27
670.20 1.27
670.30 1.27
670.40 1.27
670.50 1.27
670.60 1.27
670.70 1.27
670.80 1.27
670.90 1.27
671.00 1.27
671.10 1.27
671.20 1.27
671.30 1.27
671.40 1.27
671.50 1.27
671.60 1.27
671.70 1.27
671.80 1.27
671.90 1.27
672.00 1.27
672.10 1.27
672.20 1.27
672.30 1.27
672.40 1.27
672.50 1.27
672.60 1.271
672.70 1.271
672.80 1.271
672.90 1.271
673.00 1.271
673.10 1.271
673.20 1.271
673.30 1.271
673.40 1.271
673.50 1.271
673.60 1.271
673.70 1.271
673.80 1.271
673.90 1.271
674.00 1.271
674.10 1.271
674.20 1.271
674.30 1.271
674.40 1.271
674.50 1.271
674.60 1.271
674.70 1.271
674.80 1.271
674.90 1.271
675.00 1.271
675.10 1.271
675.20 1.271
675.30 1.271
675.40 1.271
675.50 1.271
675.60 1.271
675.70 1.271
675.80 1.271
675.90 1.271
676.00 1.271
676.10 1.271
676.20 1.271
676.30 1.271
676.40 1.271
676.50 1.271
676.60 1.271
676.70 1.271
676.80 1.271
676.90 1.271
677.00 1.271
677.10 1.271
677.20 1.271
677.30 1.271
677.40 1.271
677.50 1.271
677.60 1.271
677.70 1.271
677.80 1.271
677.90 1.271
678.00 1.271
678.10 1.271
678.20 1.271
678.30 1.271
678.40 1.271
678.50 1.271
678.60 1.271
678.70 1.271
678.80 1.271
678.90 1.271
679.00 1.271
679.10 1.271
679.20 1.271
679.30 1.271
679.40 1.271
679.50 1.271
679.60 1.271
679.70 1.271
679.80 1.271
679.90 1.271
680.00 1.271
680.10 1.271
680.20 1.271
680.30 1.271
680.40 1.271
680.50 1.271
680.60 1.271
680.70 1.271
680.80 1.271
680.90 1.271
681.00 1.271
681.10 1.271
681.20 1.271
681.30 1.271
681.40 1.271
681.50 1.271
681.60 1.271
681.70 1.271
681.80 1.271
681.90 1.271
682.00 1.271
682.10 1.271
682.20 1.271
682.30 1.271
682.40 1.271
682.50 1.271
682.60 1.271
682.70 1.271
682.80 1.271
682.90 1.271
683.00 1.271
683.10 1.271
683.20 1.271
683.30 1.271
683.40 1.271
683.50 1.271
683.60 1.271
683.70 1.271
683.80 1.271
683.90 1.271
684.00 1.271
684.10 1.271
684.20 1.271
684.30 1.271
684.40 1.271
684.50 1.271
684.60 1.271
684.70 1.271
684.80 1.271
684.90 1.271
685.00 1.271
685.10 1.271
685.20 1.271
685.30 1.271
685.40 1.271
685.50 1.271
685.60 1.271
685.70 1.271
685.80 1.271
685.90 1.271
686.00 1.271
686.10 1.271
686.20 1.271
686.30 1.271
686.40 1.271
686.50 1.271
686.60 1.271
686.70 1.271
686.80 1.271
686.90 1.271
687.00 1.271
687.10 1.271
687.20 1.271
687.30 1.271
687.40 1.271
687.50 1.271
687.60 1.271
687.70 1.271
687.80 1.271
687.90 1.271
688.00 1.271
688.10 1.271
688.20 1.271
688.30 1.271
688.40 1.271
688.50 1.271
688.60 1.271
688.70 1.271
688.80 1.271
688.90 1.271
689.00 1.271
689.10 1.271
689.20 1.271
689.30 1.27
689.40 1.27
689.50 1.27
689.60 1.27
689.70 1.27
689.80 1.27
689.90 1.27
690.00 1.27
690.10 1.27
690.20 1.27
690.30 1.27
690.40 1.27
690.50 1.27
690.60 1.27
690.70 1.27
690.80 1.27
690.90 1.27
691.00 1.27
691.10 1.27
691.20 1.27
691.30 1.27
691.40 1.27
691.50 1.27
691.60 1.27
691.70 1.27
691.80 1.27
691.90 1.27
692.00 1.27
692.10 1.27
692.20 1.27
692.30 1.27
692.40 1.27
692.50 1.27
692.60 1.27
692.70 1.27
692.80 1.27
692.90 1.27
693.00 1.27
693.10 1.27
693.20 1.27
693.30 1.27
693.40 1.27
693.50 1.27
693.60 1.27
693.70 1.27
693.80 1.27
693.90 1.27
694.00 1.27
694.10 1.27
694.20 1.27
694.30 1.27
694.40 1.27
694.50 1.27
694.60 1.27
694.70 1.27
694.80 1.27
694.90 1.27
695.00 1.27
695.10 1.27
695.20 1.27
695.30 1.27
695.40 1.27
695.50 1.27
695.60 1.27
695.70 1.27
695.80 1.27
695.90 1.27
696.00 1.27
696.10 1.27
696.20 1.269
696.30 1.269
696.40 1.269
696.50 1.269
696.60 1.269
696.70 1.269
696.80 1.269
696.90 1.269
697.00 1.269
697.10 1.269
697.20 1.269
697.30 1.269
697.40 1.269
697.50 1.269
697.60 1.269
697.70 1.269
697.80 1.269
697.90 1.269
698.00 1.269
698.10 1.269
698.20 1.269
698.30 1.269
698.40 1.269
698.50 1.269
698.60 1.269
698.70 1.269
698.80 1.269
698.90 1.269
699.00 1.269
699.10 1.269
699.20 1.269
699.30 1.269
699.40 1.269
699.50 1.269
699.60 1.269
699.70 1.269
699.80 1.269
699.90 1.269
700.00 1.269
700.10 1.269
700.20 1.269
700.30 1.269
700.40 1.269
700.50 1.269
700.60 1.269
700.70 1.269
700.80 1.268
700.90 1.268
701.00 1.268
701.10 1.268
701.20 1.268
701.30 1.268
701.40 1.268
701.50 1.268
701.60 1.268
701.70 1.268
701.80 1.268
701.90 1.268
702.00 1.268
702.10 1.268
702.20 1.268
702.30 1.268
702.40 1.268
702.50 1.268
702.60 1.268
702.70 1.268
702.80 1.268
702.90 1.268
703.00 1.268
703.10 1.268
703.20 1.268
703.30 1.268
703.40 1.268
703.50 1.268
703.60 1.268
703.70 1.268
703.80 1.268
703.90 1.268
704.00 1.268
704.10 1.268
704.20 1.268
704.30 1.268
704.40 1.268
704.50 1.268
704.60 1.267
704.70 1.267
704.80 1.267
704.90 1.267
705.00 1.267
705.10 1.267
705.20 1.267
705.30 1.267
705.40 1.267
705.50 1.267
705.60 1.267
705.70 1.267
705.80 1.267
705.90 1.267
706.00 1.267
706.10 1.267
706.20 1.267
706.30 1.267
706.40 1.267
706.50 1.267
706.60 1.267
706.70 1.267
706.80 1.267
706.90 1.267
707.00 1.267
707.10 1.267
707.20 1.267
707.30 1.267
707.40 1.267
707.50 1.267
707.60 1.267
707.70 1.266
707.80 1.266
707.90 1.266
708.00 1.266
708.10 1.266
708.20 1.266
708.30 1.266
708.40 1.266
708.50 1.266
708.60 1.266
708.70 1.266
708.80 1.266
708.90 1.266
709.00 1.266
709.10 1.266
709.20 1.266
709.30 1.266
709.40 1.266
709.50 1.266
709.60 1.266
709.70 1.266
709.80 1.266
709.90 1.266
710.00 1.266
710.10 1.266
710.20 1.266
710.30 1.266
710.40 1.266
710.50 1.266
710.60 1.265
710.70 1.265
710.80 1.265
710.90 1.265
711.00 1.265
711.10 1.265
711.20 1.265
711.30 1.265
711.40 1.265
711.50 1.265
711.60 1.265
711.70 1.265
711.80 1.265
711.90 1.265
712.00 1.265
712.10 1.265
712.20 1.265
712.30 1.265
712.40 1.265
712.50 1.265
712.60 1.265
712.70 1.265
712.80 1.265
712.90 1.265
713.00 1.265
713.10 1.265
713.20 1.264
713.30 1.264
713.40 1.264
713.50 1.264
713.60 1.264
713.70 1.264
713.80 1.264
713.90 1.264
714.00 1.264
714.10 1.264
714.20 1.264
714.30 1.264
714.40 1.264
714.50 1.264
714.60 1.264
714.70 1.264
714.80 1.264
714.90 1.264
715.00 1.264
715.10 1.264
715.20 1.264
715.30 1.264
715.40 1.264
715.50 1.264
715.60 1.264
715.70 1.263
715.80 1.263
715.90 1.263
716.00 1.263
716.10 1.263
716.20 1.263
716.30 1.263
716.40 1.263
716.50 1.263
716.60 1.263
716.70 1.263
716.80 1.263
716.90 1.263
717.00 1.263
717.10 1.263
717.20 1.263
717.30 1.263
717.40 1.263
717.50 1.263
717.60 1.263
717.70 1.263
717.80 1.263
717.90 1.263
718.00 1.263
718.10 1.262
718.20 1.262
718.30 1.262
718.40 1.262
718.50 1.262
718.60 1.262
718.70 1.262
718.80 1.262
718.90 1.262
719.00 1.262
719.10 1.262
719.20 1.262
719.30 1.262
719.40 1.262
719.50 1.262
719.60 1.262
719.70 1.262
719.80 1.262
719.90 1.262
720.00 1.262
720.10 1.262
720.20 1.262
720.30 1.261
720.40 1.261
720.50 1.261
720.60 1.261
720.70 1.261
720.80 1.261
720.90 1.261
721.00 1.261
721.10 1.261
721.20 1.261
721.30 1.261
721.40 1.261
721.50 1.261
721.60 1.261
721.70 1.261
721.80 1.261
721.90 1.261
722.00 1.261
722.10 1.261
722.20 1.261
722.30 1.261
722.40 1.26
722.50 1.26
722.60 1.26
722.70 1.26
722.80 1.26
722.90 1.26
723.00 1.26
723.10 1.26
723.20 1.26
723.30 1.26
723.40 1.26
723.50 1.26
723.60 1.26
723.70 1.26
723.80 1.26
723.90 1.26
724.00 1.26
724.10 1.26
724.20 1.26
724.30 1.26
724.40 1.259
724.50 1.259
724.60 1.259
724.70 1.259
724.80 1.259
724.90 1.259
725.00 1.259
725.10 1.259
725.20 1.259
725.30 1.259
725.40 1.259
725.50 1.259
725.60 1.259
725.70 1.259
725.80 1.259
725.90 1.259
726.00 1.259
726.10 1.259
726.20 1.259
726.30 1.258
726.40 1.258
726.50 1.258
726.60 1.258
726.70 1.258
726.80 1.258
726.90 1.258
727.00 1.258
727.10 1.258
727.20 1.258
727.30 1.258
727.40 1.258
727.50 1.258
727.60 1.258
727.70 1.258
727.80 1.258
727.90 1.258
728.00 1.258
728.10 1.258
728.20 1.257
728.30 1.257
728.40 1.257
728.50 1.257
728.60 1.257
728.70 1.257
728.80 1.257
728.90 1.257
729.00 1.257
729.10 1.257
729.20 1.257
729.30 1.257
729.40 1.257
729.50 1.257
729.60 1.257
729.70 1.257
729.80 1.257
729.90 1.257
730.00 1.257
730.10 1.256
730.20 1.256
730.30 1.256
730.40 1.256
730.50 1.256
730.60 1.256
730.70 1.256
730.80 1.256
730.90 1.256
731.00 1.256
731.10 1.256
731.20 1.256
731.30 1.256
731.40 1.256
731.50 1.256
731.60 1.256
731.70 1.256
731.80 1.255
731.90 1.255
732.00 1.255
732.10 1.255
732.20 1.255
732.30 1.255
732.40 1.255
732.50 1.255
732.60 1.255
732.70 1.255
732.80 1.255
732.90 1.255
733.00 1.255
733.10 1.255
733.20 1.255
733.30 1.255
733.40 1.255
733.50 1.254
733.60 1.254
733.70 1.254
733.80 1.254
733.90 1.254
734.00 1.254
734.10 1.254
734.20 1.254
734.30 1.254
734.40 1.254
734.50 1.254
734.60 1.254
734.70 1.254
734.80 1.254
734.90 1.254
735.00 1.254
735.10 1.254
735.20 1.253
735.30 1.253
735.40 1.253
735.50 1.253
735.60 1.253
735.70 1.253
735.80 1.253
735.90 1.253
736.00 1.253
736.10 1.253
736.20 1.253
736.30 1.253
736.40 1.253
736.50 1.253
736.60 1.253
736.70 1.253
736.80 1.253
736.90 1.252
737.00 1.252
737.10 1.252
737.20 1.252
737.30 1.252
737.40 1.252
737.50 1.252
737.60 1.252
737.70 1.252
737.80 1.252
737.90 1.252
738.00 1.252
738.10 1.252
738.20 1.252
738.30 1.252
738.40 1.252
738.50 1.251
738.60 1.251
738.70 1.251
738.80 1.251
738.90 1.251
739.00 1.251
739.10 1.251
739.20 1.251
739.30 1.251
739.40 1.251
739.50 1.251
739.60 1.251
739.70 1.251
739.80 1.251
739.90 1.251
740.00 1.251
740.10 1.251
740.20 1.25
740.30 1.25
740.40 1.25
740.50 1.25
740.60 1.25
740.70 1.25
740.80 1.25
740.90 1.25
741.00 1.25
741.10 1.25
741.20 1.25
741.30 1.25
741.40 1.25
741.50 1.25
741.60 1.25
741.70 1.249
741.80 1.249
741.90 1.249
742.00 1.249
742.10 1.249
742.20 1.249
742.30 1.249
742.40 1.249
742.50 1.249
742.60 1.249
742.70 1.249
742.80 1.249
742.90 1.249
743.00 1.249
743.10 1.249
743.20 1.248
743.30 1.248
743.40 1.248
743.50 1.248
743.60 1.248
743.70 1.248
743.80 1.248
743.90 1.248
744.00 1.248
744.10 1.248
744.20 1.248
744.30 1.248
744.40 1.248
744.50 1.248
744.60 1.248
744.70 1.247
744.80 1.247
744.90 1.247
745.00 1.247
745.10 1.247
745.20 1.247
745.30 1.247
745.40 1.247
745.50 1.247
745.60 1.247
745.70 1.247
745.80 1.247
745.90 1.247
746.00 1.247
746.10 1.247
746.20 1.246
746.30 1.246
746.40 1.246
746.50 1.246
746.60 1.246
746.70 1.246
746.80 1.246
746.90 1.246
747.00 1.246
747.10 1.246
747.20 1.246
747.30 1.246
747.40 1.246
747.50 1.246
747.60 1.246
747.70 1.245
747.80 1.245
747.90 1.245
748.00 1.245
748.10 1.245
748.20 1.245
748.30 1.245
748.40 1.245
748.50 1.245
748.60 1.245
748.70 1.245
748.80 1.245
748.90 1.245
749.00 1.245
749.10 1.244
749.20 1.244
749.30 1.244
749.40 1.244
749.50 1.244
749.60 1.244
749.70 1.244
749.80 1.244
749.90 1.244
750.00 1.244
750.10 1.244
750.20 1.244
750.30 1.244
750.40 1.244
750.50 1.244
750.60 1.243
750.70 1.243
750.80 1.243
750.90 1.243
751.00 1.243
751.10 1.243
751.20 1.243
751.30 1.243
751.40 1.243
751.50 1.243
751.60 1.243
751.70 1.243
751.80 1.243
751.90 1.242
752.00 1.242
752.10 1.242
752.20 1.242
752.30 1.242
752.40 1.242
752.50 1.242
752.60 1.242
752.70 1.242
752.80 1.242
752.90 1.242
753.00 1.242
753.10 1.242
753.20 1.242
753.30 1.241
753.40 1.241
753.50 1.241
753.60 1.241
753.70 1.241
753.80 1.241
753.90 1.241
754.00 1.241
754.10 1.241
754.20 1.241
754.30 1.241
754.40 1.241
754.50 1.241
754.60 1.241
754.70 1.24
754.80 1.24
754.90 1.24
755.00 1.24
755.10 1.24
755.20 1.24
755.30 1.24
755.40 1.24
755.50 1.24
755.60 1.24
755.70 1.24
755.80 1.24
755.90 1.24
756.00 1.239
756.10 1.239
756.20 1.239
756.30 1.239
756.40 1.239
756.50 1.239
756.60 1.239
756.70 1.239
756.80 1.239
756.90 1.239
757.00 1.239
757.10 1.239
757.20 1.239
757.30 1.239
757.40 1.238
757.50 1.238
757.60 1.238
757.70 1.238
757.80 1.238
757.90 1.238
758.00 1.238
758.10 1.238
758.20 1.238
758.30 1.238
758.40 1.238
758.50 1.238
758.60 1.238
758.70 1.237
758.80 1.237
758.90 1.237
759.00 1.237
759.10 1.237
759.20 1.237
759.30 1.237
759.40 1.237
759.50 1.237
759.60 1.237
759.70 1.237
759.80 1.237
759.90 1.237
760.00 1.237
760.10 1.236
760.20 1.236
760.30 1.236
760.40 1.236
760.50 1.236
760.60 1.236
760.70 1.236
760.80 1.236
760.90 1.236
761.00 1.236
761.10 1.236
761.20 1.236
761.30 1.235
761.40 1.235
761.50 1.235
761.60 1.235
761.70 1.235
761.80 1.235
761.90 1.235
762.00 1.235
762.10 1.235
762.20 1.235
762.30 1.235
762.40 1.235
762.50 1.235
762.60 1.234
762.70 1.234
762.80 1.234
762.90 1.234
763.00 1.234
763.10 1.234
763.20 1.234
763.30 1.234
763.40 1.234
763.50 1.234
763.60 1.234
763.70 1.234
763.80 1.233
763.90 1.233
764.00 1.233
764.10 1.233
764.20 1.233
764.30 1.233
764.40 1.233
764.50 1.233
764.60 1.233
764.70 1.233
764.80 1.233
764.90 1.233
765.00 1.233
765.10 1.232
765.20 1.232
765.30 1.232
765.40 1.232
765.50 1.232
765.60 1.232
765.70 1.232
765.80 1.232
765.90 1.232
766.00 1.232
766.10 1.232
766.20 1.232
766.30 1.231
766.40 1.231
766.50 1.231
766.60 1.231
766.70 1.231
766.80 1.231
766.90 1.231
767.00 1.231
767.10 1.231
767.20 1.231
767.30 1.231
767.40 1.231
767.50 1.231
767.60 1.23
767.70 1.23
767.80 1.23
767.90 1.23
768.00 1.23
768.10 1.23
768.20 1.23
768.30 1.23
768.40 1.23
768.50 1.23
768.60 1.23
768.70 1.23
768.80 1.229
768.90 1.229
769.00 1.229
769.10 1.229
769.20 1.229
769.30 1.229
769.40 1.229
769.50 1.229
769.60 1.229
769.70 1.229
769.80 1.229
769.90 1.229
770.00 1.229
770.10 1.228
770.20 1.228
770.30 1.228
770.40 1.228
770.50 1.228
770.60 1.228
770.70 1.228
770.80 1.228
770.90 1.228
771.00 1.228
771.10 1.228
771.20 1.228
771.30 1.227
771.40 1.227
771.50 1.227
771.60 1.227
771.70 1.227
771.80 1.227
771.90 1.227
772.00 1.227
772.10 1.227
772.20 1.227
772.30 1.227
772.40 1.226
772.50 1.226
772.60 1.226
772.70 1.226
772.80 1.226
772.90 1.226
773.00 1.226
773.10 1.226
773.20 1.226
773.30 1.226
773.40 1.226
773.50 1.226
773.60 1.225
773.70 1.225
773.80 1.225
773.90 1.225
774.00 1.225
774.10 1.225
774.20 1.225
774.30 1.225
774.40 1.225
774.50 1.225
774.60 1.225
774.70 1.224
774.80 1.224
774.90 1.224
775.00 1.224
775.10 1.224
775.20 1.224
775.30 1.224
775.40 1.224
775.50 1.224
775.60 1.224
775.70 1.224
775.80 1.224
775.90 1.223
776.00 1.223
776.10 1.223
776.20 1.223
776.30 1.223
776.40 1.223
776.50 1.223
776.60 1.223
776.70 1.223
776.80 1.223
776.90 1.223
777.00 1.223
777.10 1.222
777.20 1.222
777.30 1.222
777.40 1.222
777.50 1.222
777.60 1.222
777.70 1.222
777.80 1.222
777.90 1.222
778.00 1.222
778.10 1.222
778.20 1.221
778.30 1.221
778.40 1.221
778.50 1.221
778.60 1.221
778.70 1.221
778.80 1.221
778.90 1.221
779.00 1.221
779.10 1.221
779.20 1.221
779.30 1.221
779.40 1.22
779.50 1.22
779.60 1.22
779.70 1.22
779.80 1.22
779.90 1.22
780.00 1.22
780.10 1.22
780.20 1.22
780.30 1.22
780.40 1.22
780.50 1.219
780.60 1.219
780.70 1.219
780.80 1.219
780.90 1.219
781.00 1.219
781.10 1.219
781.20 1.219
781.30 1.219
781.40 1.219
781.50 1.219
781.60 1.218
781.70 1.218
781.80 1.218
781.90 1.218
782.00 1.218
782.10 1.218
782.20 1.218
782.30 1.218
782.40 1.218
782.50 1.218
782.60 1.218
782.70 1.217
782.80 1.217
782.90 1.217
783.00 1.217
783.10 1.217
783.20 1.217
783.30 1.217
783.40 1.217
783.50 1.217
783.60 1.217
783.70 1.217
783.80 1.216
783.90 1.216
784.00 1.216
784.10 1.216
784.20 1.216
784.30 1.216
784.40 1.216
784.50 1.216
784.60 1.216
784.70 1.216
784.80 1.216
784.90 1.215
785.00 1.215
785.10 1.215
785.20 1.215
785.30 1.215
785.40 1.215
785.50 1.215
785.60 1.215
785.70 1.215
785.80 1.215
785.90 1.215
786.00 1.214
786.10 1.214
786.20 1.214
786.30 1.214
786.40 1.214
786.50 1.214
786.60 1.214
786.70 1.214
786.80 1.214
786.90 1.214
787.00 1.214
787.10 1.213
787.20 1.213
787.30 1.213
787.40 1.213
787.50 1.213
787.60 1.213
787.70 1.213
787.80 1.213
787.90 1.213
788.00 1.213
788.10 1.213
788.20 1.212
788.30 1.212
788.40 1.212
788.50 1.212
788.60 1.212
788.70 1.212
788.80 1.212
788.90 1.212
789.00 1.212
789.10 1.212
789.20 1.212
789.30 1.211
789.40 1.211
789.50 1.211
789.60 1.211
789.70 1.211
789.80 1.211
789.90 1.211
790.00 1.211
790.10 1.211
790.20 1.211
790.30 1.21
790.40 1.21
790.50 1.21
790.60 1.21
790.70 1.21
790.80 1.21
790.90 1.21
791.00 1.21
791.10 1.21
791.20 1.21
791.30 1.21
791.40 1.209
791.50 1.209
791.60 1.209
791.70 1.209
791.80 1.209
791.90 1.209
792.00 1.209
792.10 1.209
792.20 1.209
792.30 1.209
792.40 1.208
792.50 1.208
792.60 1.208
792.70 1.208
792.80 1.208
792.90 1.208
793.00 1.208
793.10 1.208
793.20 1.208
793.30 1.208
793.40 1.208
793.50 1.207
793.60 1.207
793.70 1.207
793.80 1.207
793.90 1.207
794.00 1.207
794.10 1.207
794.20 1.207
794.30 1.207
794.40 1.207
794.50 1.206
794.60 1.206
794.70 1.206
794.80 1.206
794.90 1.206
795.00 1.206
795.10 1.206
795.20 1.206
795.30 1.206
795.40 1.206
795.50 1.205
795.60 1.205
795.70 1.205
795.80 1.205
795.90 1.205
796.00 1.205
796.10 1.205
796.20 1.205
796.30 1.205
796.40 1.205
796.50 1.205
796.60 1.204
796.70 1.204
796.80 1.204
796.90 1.204
797.00 1.204
797.10 1.204
797.20 1.204
797.30 1.204
797.40 1.204
797.50 1.204
797.60 1.203
797.70 1.203
797.80 1.203
797.90 1.203
798.00 1.203
798.10 1.203
798.20 1.203
798.30 1.203
798.40 1.203
798.50 1.203
798.60 1.203
798.70 1.202
798.80 1.202
798.90 1.202
799.00 1.202
799.10 1.202
799.20 1.202
799.30 1.202
799.40 1.202
799.50 1.202
799.60 1.202
799.70 1.201
799.80 1.201
799.90 1.201
800.00 1.201
800.10 1.201
800.20 1.201
800.30 1.201
800.40 1.201
800.50 1.201
800.60 1.201
800.70 1.2
800.80 1.2
800.90 1.2
801.00 1.2
801.10 1.2
801.20 1.2
801.30 1.2
801.40 1.2
801.50 1.2
801.60 1.2
801.70 1.199
801.80 1.199
801.90 1.199
802.00 1.199
802.10 1.199
802.20 1.199
802.30 1.199
802.40 1.199
802.50 1.199
802.60 1.198
802.70 1.198
802.80 1.198
802.90 1.198
803.00 1.198
803.10 1.198
803.20 1.198
803.30 1.198
803.40 1.198
803.50 1.198
803.60 1.197
803.70 1.197
803.80 1.197
803.90 1.197
804.00 1.197
804.10 1.197
804.20 1.197
804.30 1.197
804.40 1.197
804.50 1.197
804.60 1.196
804.70 1.196
804.80 1.196
804.90 1.196
805.00 1.196
805.10 1.196
805.20 1.196
805.30 1.196
805.40 1.196
805.50 1.196
805.60 1.195
805.70 1.195
805.80 1.195
805.90 1.195
806.00 1.195
806.10 1.195
806.20 1.195
806.30 1.195
806.40 1.195
806.50 1.194
806.60 1.194
806.70 1.194
806.80 1.194
806.90 1.194
807.00 1.194
807.10 1.194
807.20 1.194
807.30 1.194
807.40 1.194
807.50 1.193
807.60 1.193
807.70 1.193
807.80 1.193
807.90 1.193
808.00 1.193
808.10 1.193
808.20 1.193
808.30 1.193
808.40 1.193
808.50 1.192
808.60 1.192
808.70 1.192
808.80 1.192
808.90 1.192
809.00 1.192
809.10 1.192
809.20 1.192
809.30 1.192
809.40 1.192
809.50 1.191
809.60 1.191
809.70 1.191
809.80 1.191
809.90 1.191
810.00 1.191
810.10 1.191
810.20 1.191
810.30 1.191
810.40 1.19
810.50 1.19
810.60 1.19
810.70 1.19
810.80 1.19
810.90 1.19
811.00 1.19
811.10 1.19
811.20 1.19
811.30 1.189
811.40 1.189
811.50 1.189
811.60 1.189
811.70 1.189
811.80 1.189
811.90 1.189
812.00 1.189
812.10 1.189
812.20 1.189
812.30 1.188
812.40 1.188
812.50 1.188
812.60 1.188
812.70 1.188
812.80 1.188
812.90 1.188
813.00 1.188
813.10 1.188
813.20 1.187
813.30 1.187
813.40 1.187
813.50 1.187
813.60 1.187
813.70 1.187
813.80 1.187
813.90 1.187
814.00 1.187
814.10 1.186
814.20 1.186
814.30 1.186
814.40 1.186
814.50 1.186
814.60 1.186
814.70 1.186
814.80 1.186
814.90 1.186
815.00 1.185
815.10 1.185
815.20 1.185
815.30 1.185
815.40 1.185
815.50 1.185
815.60 1.185
815.70 1.185
815.80 1.185
815.90 1.185
816.00 1.184
816.10 1.184
816.20 1.184
816.30 1.184
816.40 1.184
816.50 1.184
816.60 1.184
816.70 1.184
816.80 1.184
816.90 1.183
817.00 1.183
817.10 1.183
817.20 1.183
817.30 1.183
817.40 1.183
817.50 1.183
817.60 1.183
817.70 1.183
817.80 1.182
817.90 1.182
818.00 1.182
818.10 1.182
818.20 1.182
818.30 1.182
818.40 1.182
818.50 1.182
818.60 1.182
818.70 1.181
818.80 1.181
818.90 1.181
819.00 1.181
819.10 1.181
819.20 1.181
819.30 1.181
819.40 1.181
819.50 1.181
819.60 1.181
819.70 1.18
819.80 1.18
819.90 1.18
820.00 1.18
820.10 1.18
820.20 1.18
820.30 1.18
820.40 1.18
820.50 1.18
820.60 1.179
820.70 1.179
820.80 1.179
820.90 1.179
821.00 1.179
821.10 1.179
821.20 1.179
821.30 1.179
821.40 1.179
821.50 1.178
821.60 1.178
821.70 1.178
821.80 1.178
821.90 1.178
822.00 1.178
822.10 1.178
822.20 1.178
822.30 1.178
822.40 1.177
822.50 1.177
822.60 1.177
822.70 1.177
822.80 1.177
822.90 1.177
823.00 1.177
823.10 1.177
823.20 1.176
823.30 1.176
823.40 1.176
823.50 1.176
823.60 1.176
823.70 1.176
823.80 1.176
823.90 1.176
824.00 1.176
824.10 1.175
824.20 1.175
824.30 1.175
824.40 1.175
824.50 1.175
824.60 1.175
824.70 1.175
824.80 1.175
824.90 1.175
825.00 1.174
825.10 1.174
825.20 1.174
825.30 1.174
825.40 1.174
825.50 1.174
825.60 1.174
825.70 1.174
825.80 1.174
825.90 1.173
826.00 1.173
826.10 1.173
826.20 1.173
826.30 1.173
826.40 1.173
826.50 1.173
826.60 1.173
826.70 1.173
826.80 1.172
826.90 1.172
827.00 1.172
827.10 1.172
827.20 1.172
827.30 1.172
827.40 1.172
827.50 1.172
827.60 1.172
827.70 1.171
827.80 1.171
827.90 1.171
828.00 1.171
828.10 1.171
828.20 1.171
828.30 1.171
828.40 1.171
828.50 1.17
828.60 1.17
828.70 1.17
828.80 1.17
828.90 1.17
829.00 1.17
829.10 1.17
829.20 1.17
829.30 1.17
829.40 1.169
829.50 1.169
829.60 1.169
829.70 1.169
829.80 1.169
829.90 1.169
830.00 1.169
830.10 1.169
830.20 1.169
830.30 1.168
830.40 1.168
830.50 1.168
830.60 1.168
830.70 1.168
830.80 1.168
830.90 1.168
831.00 1.168
831.10 1.167
831.20 1.167
831.30 1.167
831.40 1.167
831.50 1.167
831.60 1.167
831.70 1.167
831.80 1.167
831.90 1.167
832.00 1.166
832.10 1.166
832.20 1.166
832.30 1.166
832.40 1.166
832.50 1.166
832.60 1.166
832.70 1.166
832.80 1.165
832.90 1.165
833.00 1.165
833.10 1.165
833.20 1.165
833.30 1.165
833.40 1.165
833.50 1.165
833.60 1.165
833.70 1.164
833.80 1.164
833.90 1.164
834.00 1.164
834.10 1.164
834.20 1.164
834.30 1.164
834.40 1.164
834.50 1.163
834.60 1.163
834.70 1.163
834.80 1.163
834.90 1.163
835.00 1.163
835.10 1.163
835.20 1.163
835.30 1.163
835.40 1.162
835.50 1.162
835.60 1.162
835.70 1.162
835.80 1.162
835.90 1.162
836.00 1.162
836.10 1.162
836.20 1.161
836.30 1.161
836.40 1.161
836.50 1.161
836.60 1.161
836.70 1.161
836.80 1.161
836.90 1.161
837.00 1.161
837.10 1.16
837.20 1.16
837.30 1.16
837.40 1.16
837.50 1.16
837.60 1.16
837.70 1.16
837.80 1.16
837.90 1.159
838.00 1.159
838.10 1.159
838.20 1.159
838.30 1.159
838.40 1.159
838.50 1.159
838.60 1.159
838.70 1.158
838.80 1.158
838.90 1.158
839.00 1.158
839.10 1.158
839.20 1.158
839.30 1.158
839.40 1.158
839.50 1.157
839.60 1.157
839.70 1.157
839.80 1.157
839.90 1.157
840.00 1.157
840.10 1.157
840.20 1.157
840.30 1.157
840.40 1.156
840.50 1.156
840.60 1.156
840.70 1.156
840.80 1.156
840.90 1.156
841.00 1.156
841.10 1.156
841.20 1.155
841.30 1.155
841.40 1.155
841.50 1.155
841.60 1.155
841.70 1.155
841.80 1.155
841.90 1.155
842.00 1.155
842.10 1.154
842.20 1.154
842.30 1.154
842.40 1.154
842.50 1.154
842.60 1.154
842.70 1.154
842.80 1.154
842.90 1.153
843.00 1.153
843.10 1.153
843.20 1.153
843.30 1.153
843.40 1.153
843.50 1.153
843.60 1.153
843.70 1.152
843.80 1.152
843.90 1.152
844.00 1.152
844.10 1.152
844.20 1.152
844.30 1.152
844.40 1.152
844.50 1.151
844.60 1.151
844.70 1.151
844.80 1.151
844.90 1.151
845.00 1.151
845.10 1.151
845.20 1.151
845.30 1.15
845.40 1.15
845.50 1.15
845.60 1.15
845.70 1.15
845.80 1.15
845.90 1.15
846.00 1.15
846.10 1.149
846.20 1.149
846.30 1.149
846.40 1.149
846.50 1.149
846.60 1.149
846.70 1.149
846.80 1.149
846.90 1.149
847.00 1.148
847.10 1.148
847.20 1.148
847.30 1.148
847.40 1.148
847.50 1.148
847.60 1.148
847.70 1.148
847.80 1.147
847.90 1.147
848.00 1.147
848.10 1.147
848.20 1.147
848.30 1.147
848.40 1.147
848.50 1.147
848.60 1.146
848.70 1.146
848.80 1.146
848.90 1.146
849.00 1.146
849.10 1.146
849.20 1.146
849.30 1.146
849.40 1.145
849.50 1.145
849.60 1.145
849.70 1.145
849.80 1.145
849.90 1.145
850.00 1.145
850.10 1.145
850.20 1.144
850.30 1.144
850.40 1.144
850.50 1.144
850.60 1.144
850.70 1.144
850.80 1.144
850.90 1.144
851.00 1.143
851.10 1.143
851.20 1.143
851.30 1.143
851.40 1.143
851.50 1.143
851.60 1.143
851.70 1.143
851.80 1.142
851.90 1.142
852.00 1.142
852.10 1.142
852.20 1.142
852.30 1.142
852.40 1.142
852.50 1.142
852.60 1.141
852.70 1.141
852.80 1.141
852.90 1.141
853.00 1.141
853.10 1.141
853.20 1.141
853.30 1.141
853.40 1.14
853.50 1.14
853.60 1.14
853.70 1.14
853.80 1.14
853.90 1.14
854.00 1.14
854.10 1.14
854.20 1.139
854.30 1.139
854.40 1.139
854.50 1.139
854.60 1.139
854.70 1.139
854.80 1.139
854.90 1.139
855.00 1.138
855.10 1.138
855.20 1.138
855.30 1.138
855.40 1.138
855.50 1.138
855.60 1.138
855.70 1.138
855.80 1.137
855.90 1.137
856.00 1.137
856.10 1.137
856.20 1.137
856.30 1.137
856.40 1.137
856.50 1.137
856.60 1.136
856.70 1.136
856.80 1.136
856.90 1.136
857.00 1.136
857.10 1.136
857.20 1.136
857.30 1.135
857.40 1.135
857.50 1.135
857.60 1.135
857.70 1.135
857.80 1.135
857.90 1.135
858.00 1.135
858.10 1.134
858.20 1.134
858.30 1.134
858.40 1.134
858.50 1.134
858.60 1.134
858.70 1.134
858.80 1.134
858.90 1.133
859.00 1.133
859.10 1.133
859.20 1.133
859.30 1.133
859.40 1.133
859.50 1.133
859.60 1.133
859.70 1.132
859.80 1.132
859.90 1.132
860.00 1.132
860.10 1.132
860.20 1.132
860.30 1.132
860.40 1.132
860.50 1.131
860.60 1.131
860.70 1.131
860.80 1.131
860.90 1.131
861.00 1.131
861.10 1.131
861.20 1.13
861.30 1.13
861.40 1.13
861.50 1.13
861.60 1.13
861.70 1.13
861.80 1.13
861.90 1.13
862.00 1.129
862.10 1.129
862.20 1.129
862.30 1.129
862.40 1.129
862.50 1.129
862.60 1.129
862.70 1.129
862.80 1.128
862.90 1.128
863.00 1.128
863.10 1.128
863.20 1.128
863.30 1.128
863.40 1.128
863.50 1.128
863.60 1.127
863.70 1.127
863.80 1.127
863.90 1.127
864.00 1.127
864.10 1.127
864.20 1.127
864.30 1.126
864.40 1.126
864.50 1.126
864.60 1.126
864.70 1.126
864.80 1.126
864.90 1.126
865.00 1.126
865.10 1.125
865.20 1.125
865.30 1.125
865.40 1.125
865.50 1.125
865.60 1.125
865.70 1.125
865.80 1.125
865.90 1.124
866.00 1.124
866.10 1.124
866.20 1.124
866.30 1.124
866.40 1.124
866.50 1.124
866.60 1.123
866.70 1.123
866.80 1.123
866.90 1.123
867.00 1.123
867.10 1.123
867.20 1.123
867.30 1.123
867.40 1.122
867.50 1.122
867.60 1.122
867.70 1.122
867.80 1.122
867.90 1.122
868.00 1.122
868.10 1.121
868.20 1.121
868.30 1.121
868.40 1.121
868.50 1.121
868.60 1.121
868.70 1.121
868.80 1.121
868.90 1.12
869.00 1.12
869.10 1.12
869.20 1.12
869.30 1.12
869.40 1.12
869.50 1.12
869.60 1.119
869.70 1.119
869.80 1.119
869.90 1.119
870.00 1.119
870.10 1.119
870.20 1.119
870.30 1.119
870.40 1.118
870.50 1.118
870.60 1.118
870.70 1.118
870.80 1.118
870.90 1.118
871.00 1.118
871.10 1.118
871.20 1.117
871.30 1.117
871.40 1.117
871.50 1.117
871.60 1.117
871.70 1.117
871.80 1.117
871.90 1.116
872.00 1.116
872.10 1.116
872.20 1.116
872.30 1.116
872.40 1.116
872.50 1.116
872.60 1.116
872.70 1.115
872.80 1.115
872.90 1.115
873.00 1.115
873.10 1.115
873.20 1.115
873.30 1.115
873.40 1.114
873.50 1.114
873.60 1.114
873.70 1.114
873.80 1.114
873.90 1.114
874.00 1.114
874.10 1.113
874.20 1.113
874.30 1.113
874.40 1.113
874.50 1.113
874.60 1.113
874.70 1.113
874.80 1.113
874.90 1.112
875.00 1.112
875.10 1.112
875.20 1.112
875.30 1.112
875.40 1.112
875.50 1.112
875.60 1.111
875.70 1.111
875.80 1.111
875.90 1.111
876.00 1.111
876.10 1.111
876.20 1.111
876.30 1.111
876.40 1.11
876.50 1.11
876.60 1.11
876.70 1.11
876.80 1.11
876.90 1.11
877.00 1.11
877.10 1.109
877.20 1.109
877.30 1.109
877.40 1.109
877.50 1.109
877.60 1.109
877.70 1.109
877.80 1.109
877.90 1.108
878.00 1.108
878.10 1.108
878.20 1.108
878.30 1.108
878.40 1.108
878.50 1.108
878.60 1.107
878.70 1.107
878.80 1.107
878.90 1.107
879.00 1.107
879.10 1.107
879.20 1.107
879.30 1.106
879.40 1.106
879.50 1.106
879.60 1.106
879.70 1.106
879.80 1.106
879.90 1.106
880.00 1.106
880.10 1.105
880.20 1.105
880.30 1.105
880.40 1.105
880.50 1.105
880.60 1.105
880.70 1.105
880.80 1.104
880.90 1.104
881.00 1.104
881.10 1.104
881.20 1.104
881.30 1.104
881.40 1.104
881.50 1.103
881.60 1.103
881.70 1.103
881.80 1.103
881.90 1.103
882.00 1.103
882.10 1.103
882.20 1.103
882.30 1.102
882.40 1.102
882.50 1.102
882.60 1.102
882.70 1.102
882.80 1.102
882.90 1.102
883.00 1.101
883.10 1.101
883.20 1.101
883.30 1.101
883.40 1.101
883.50 1.101
883.60 1.101
883.70 1.1
883.80 1.1
883.90 1.1
884.00 1.1
884.10 1.1
884.20 1.1
884.30 1.1
884.40 1.099
884.50 1.099
884.60 1.099
884.70 1.099
884.80 1.099
884.90 1.099
885.00 1.099
885.10 1.098
885.20 1.098
885.30 1.098
885.40 1.098
885.50 1.098
885.60 1.098
885.70 1.098
885.80 1.098
885.90 1.097
886.00 1.097
886.10 1.097
886.20 1.097
886.30 1.097
886.40 1.097
886.50 1.097
886.60 1.096
886.70 1.096
886.80 1.096
886.90 1.096
887.00 1.096
887.10 1.096
887.20 1.096
887.30 1.095
887.40 1.095
887.50 1.095
887.60 1.095
887.70 1.095
887.80 1.095
887.90 1.095
888.00 1.094
888.10 1.094
888.20 1.094
888.30 1.094
888.40 1.094
888.50 1.094
888.60 1.094
888.70 1.093
888.80 1.093
888.90 1.093
889.00 1.093
889.10 1.093
889.20 1.093
889.30 1.093
889.40 1.092
889.50 1.092
889.60 1.092
889.70 1.092
889.80 1.092
889.90 1.092
890.00 1.092
890.10 1.091
890.20 1.091
890.30 1.091
890.40 1.091
890.50 1.091
890.60 1.091
890.70 1.091
890.80 1.09
890.90 1.09
891.00 1.09
891.10 1.09
891.20 1.09
891.30 1.09
891.40 1.09
891.50 1.089
891.60 1.089
891.70 1.089
891.80 1.089
891.90 1.089
892.00 1.089
892.10 1.089
892.20 1.089
892.30 1.088
892.40 1.088
892.50 1.088
892.60 1.088
892.70 1.088
892.80 1.088
892.90 1.088
893.00 1.087
893.10 1.087
893.20 1.087
893.30 1.087
893.40 1.087
893.50 1.087
893.60 1.087
893.70 1.086
893.80 1.086
893.90 1.086
894.00 1.086
894.10 1.086
894.20 1.086
894.30 1.086
894.40 1.085
894.50 1.085
894.60 1.085
894.70 1.085
894.80 1.085
894.90 1.085
895.00 1.085
895.10 1.084
895.20 1.084
895.30 1.084
895.40 1.084
895.50 1.084
895.60 1.084
895.70 1.084
895.80 1.083
895.90 1.083
896.00 1.083
896.10 1.083
896.20 1.083
896.30 1.083
896.40 1.083
896.50 1.083
896.60 1.082
896.70 1.082
896.80 1.082
896.90 1.082
897.00 1.082
897.10 1.082
897.20 1.082
897.30 1.081
897.40 1.081
897.50 1.081
897.60 1.081
897.70 1.081
897.80 1.081
897.90 1.08
898.00 1.08
898.10 1.08
898.20 1.08
898.30 1.08
898.40 1.08
898.50 1.08
898.60 1.079
898.70 1.079
898.80 1.079
898.90 1.079
899.00 1.079
899.10 1.079
899.20 1.079
899.30 1.078
899.40 1.078
899.50 1.078
899.60 1.078
899.70 1.078
899.80 1.078
899.90 1.078
900.00 1.077
900.10 1.077
900.20 1.077
900.30 1.077
900.40 1.077
900.50 1.077
900.60 1.076
900.70 1.076
900.80 1.076
900.90 1.076
901.00 1.076
901.10 1.076
901.20 1.076
901.30 1.075
901.40 1.075
901.50 1.075
901.60 1.075
901.70 1.075
901.80 1.075
901.90 1.075
902.00 1.074
902.10 1.074
902.20 1.074
902.30 1.074
902.40 1.074
902.50 1.074
902.60 1.073
902.70 1.073
902.80 1.073
902.90 1.073
903.00 1.073
903.10 1.073
903.20 1.072
903.30 1.072
903.40 1.072
903.50 1.072
903.60 1.072
903.70 1.072
903.80 1.071
903.90 1.071
904.00 1.071
904.10 1.071
904.20 1.071
904.30 1.071
904.40 1.071
904.50 1.07
904.60 1.07
904.70 1.07
904.80 1.07
904.90 1.07
905.00 1.07
905.10 1.069
905.20 1.069
905.30 1.069
905.40 1.069
905.50 1.069
905.60 1.069
905.70 1.068
905.80 1.068
905.90 1.068
906.00 1.068
906.10 1.068
906.20 1.068
906.30 1.067
906.40 1.067
906.50 1.067
906.60 1.067
906.70 1.067
906.80 1.067
906.90 1.066
907.00 1.066
907.10 1.066
907.20 1.066
907.30 1.066
907.40 1.066
907.50 1.065
907.60 1.065
907.70 1.065
907.80 1.065
907.90 1.065
908.00 1.065
908.10 1.065
908.20 1.064
908.30 1.064
908.40 1.064
908.50 1.064
908.60 1.064
908.70 1.064
908.80 1.063
908.90 1.063
909.00 1.063
909.10 1.063
909.20 1.063
909.30 1.063
909.40 1.063
909.50 1.062
909.60 1.062
909.70 1.062
909.80 1.062
909.90 1.062
910.00 1.062
910.10 1.061
910.20 1.061
910.30 1.061
910.40 1.061
910.50 1.061
910.60 1.061
910.70 1.06
910.80 1.06
910.90 1.06
911.00 1.06
911.10 1.06
911.20 1.06
911.30 1.06
911.40 1.059
911.50 1.059
911.60 1.059
911.70 1.059
911.80 1.059
911.90 1.059
912.00 1.058
912.10 1.058
912.20 1.058
912.30 1.058
912.40 1.058
912.50 1.058
912.60 1.058
912.70 1.057
912.80 1.057
912.90 1.057
913.00 1.057
913.10 1.057
913.20 1.057
913.30 1.056
913.40 1.056
913.50 1.056
913.60 1.056
913.70 1.056
913.80 1.056
913.90 1.056
914.00 1.055
914.10 1.055
914.20 1.055
914.30 1.055
914.40 1.055
914.50 1.055
914.60 1.055
914.70 1.054
914.80 1.054
914.90 1.054
915.00 1.054
915.10 1.054
915.20 1.054
915.30 1.053
915.40 1.053
915.50 1.053
915.60 1.053
915.70 1.053
915.80 1.053
915.90 1.053
916.00 1.052
916.10 1.052
916.20 1.052
916.30 1.052
916.40 1.052
916.50 1.052
916.60 1.052
916.70 1.051
916.80 1.051
916.90 1.051
917.00 1.051
917.10 1.051
917.20 1.051
917.30 1.05
917.40 1.05
917.50 1.05
917.60 1.05
917.70 1.05
917.80 1.05
917.90 1.05
918.00 1.049
918.10 1.049
918.20 1.049
918.30 1.049
918.40 1.049
918.50 1.049
918.60 1.048
918.70 1.048
918.80 1.048
918.90 1.048
919.00 1.048
919.10 1.048
919.20 1.047
919.30 1.047
919.40 1.047
919.50 1.047
919.60 1.047
919.70 1.047
919.80 1.047
919.90 1.046
920.00 1.046
920.10 1.046
920.20 1.046
920.30 1.046
920.40 1.046
920.50 1.045
920.60 1.045
920.70 1.045
920.80 1.045
920.90 1.045
921.00 1.045
921.10 1.045
921.20 1.044
921.30 1.044
921.40 1.044
921.50 1.044
921.60 1.044
921.70 1.044
921.80 1.043
921.90 1.043
922.00 1.043
922.10 1.043
922.20 1.043
922.30 1.043
922.40 1.042
922.50 1.042
922.60 1.042
922.70 1.042
922.80 1.042
922.90 1.042
923.00 1.042
923.10 1.041
923.20 1.041
923.30 1.041
923.40 1.041
923.50 1.041
923.60 1.041
923.70 1.04
923.80 1.04
923.90 1.04
924.00 1.04
924.10 1.04
924.20 1.04
924.30 1.039
924.40 1.039
924.50 1.039
924.60 1.039
924.70 1.039
924.80 1.039
924.90 1.038
925.00 1.038
925.10 1.038
925.20 1.038
925.30 1.038
925.40 1.038
925.50 1.038
925.60 1.037
925.70 1.037
925.80 1.037
925.90 1.037
926.00 1.037
926.10 1.037
926.20 1.036
926.30 1.036
926.40 1.036
926.50 1.036
926.60 1.036
926.70 1.036
926.80 1.035
926.90 1.035
927.00 1.035
927.10 1.035
927.20 1.035
927.30 1.035
927.40 1.034
927.50 1.034
927.60 1.034
927.70 1.034
927.80 1.034
927.90 1.034
928.00 1.034
928.10 1.033
928.20 1.033
928.30 1.033
928.40 1.033
928.50 1.033
928.60 1.033
928.70 1.032
928.80 1.032
928.90 1.032
929.00 1.032
929.10 1.032
929.20 1.032
929.30 1.031
929.40 1.031
929.50 1.031
929.60 1.031
929.70 1.031
929.80 1.031
929.90 1.03
930.00 1.03
930.10 1.03
930.20 1.03
930.30 1.03
930.40 1.03
930.50 1.029
930.60 1.029
930.70 1.029
930.80 1.029
930.90 1.029
931.00 1.029
931.10 1.029
931.20 1.028
931.30 1.028
931.40 1.028
931.50 1.028
931.60 1.028
931.70 1.028
931.80 1.027
931.90 1.027
932.00 1.027
932.10 1.027
932.20 1.027
932.30 1.027
932.40 1.026
932.50 1.026
932.60 1.026
932.70 1.026
932.80 1.026
932.90 1.026
933.00 1.025
933.10 1.025
933.20 1.025
933.30 1.025
933.40 1.025
933.50 1.025
933.60 1.024
933.70 1.024
933.80 1.024
933.90 1.024
934.00 1.024
934.10 1.024
934.20 1.023
934.30 1.023
934.40 1.023
934.50 1.023
934.60 1.023
934.70 1.023
934.80 1.023
934.90 1.022
935.00 1.022
935.10 1.022
935.20 1.022
935.30 1.022
935.40 1.022
935.50 1.021
935.60 1.021
935.70 1.021
935.80 1.021
935.90 1.021
936.00 1.021
936.10 1.02
936.20 1.02
936.30 1.02
936.40 1.02
936.50 1.02
936.60 1.02
936.70 1.019
936.80 1.019
936.90 1.019
937.00 1.019
937.10 1.019
937.20 1.019
937.30 1.018
937.40 1.018
937.50 1.018
937.60 1.018
937.70 1.018
937.80 1.018
937.90 1.017
938.00 1.017
938.10 1.017
938.20 1.017
938.30 1.017
938.40 1.017
938.50 1.016
938.60 1.016
938.70 1.016
938.80 1.016
938.90 1.016
939.00 1.016
939.10 1.015
939.20 1.015
939.30 1.015
939.40 1.015
939.50 1.015
939.60 1.015
939.70 1.014
939.80 1.014
939.90 1.014
940.00 1.014
940.10 1.014
940.20 1.014
940.30 1.013
940.40 1.013
940.50 1.013
940.60 1.013
940.70 1.013
940.80 1.013
940.90 1.012
941.00 1.012
941.10 1.012
941.20 1.012
941.30 1.012
941.40 1.012
941.50 1.011
941.60 1.011
941.70 1.011
941.80 1.011
941.90 1.011
942.00 1.011
942.10 1.01
942.20 1.01
942.30 1.01
942.40 1.01
942.50 1.01
942.60 1.01
942.70 1.009
942.80 1.009
942.90 1.009
943.00 1.009
943.10 1.009
943.20 1.009
943.30 1.008
943.40 1.008
943.50 1.008
943.60 1.008
943.70 1.008
943.80 1.007
943.90 1.007
944.00 1.007
944.10 1.007
944.20 1.007
944.30 1.007
944.40 1.006
944.50 1.006
944.60 1.006
944.70 1.006
944.80 1.006
944.90 1.006
945.00 1.005
945.10 1.005
945.20 1.005
945.30 1.005
945.40 1.005
945.50 1.005
945.60 1.004
945.70 1.004
945.80 1.004
945.90 1.004
946.00 1.004
946.10 1.004
946.20 1.003
946.30 1.003
946.40 1.003
946.50 1.003
946.60 1.003
946.70 1.003
946.80 1.002
946.90 1.002
947.00 1.002
947.10 1.002
947.20 1.002
947.30 1.002
947.40 1.001
947.50 1.001
947.60 1.001
947.70 1.001
947.80 1.001
947.90 1.001
948.00 1
948.10 1
948.20 1
948.30 0.9998
948.40 0.9997
948.50 0.9995
948.60 0.9993
948.70 0.9992
948.80 0.999
948.90 0.9988
949.00 0.9986
949.10 0.9985
949.20 0.9983
949.30 0.9981
949.40 0.998
949.50 0.9978
949.60 0.9976
949.70 0.9974
949.80 0.9973
949.90 0.9971
950.00 0.9969
950.10 0.9968
950.20 0.9966
950.30 0.9964
950.40 0.9962
950.50 0.9961
950.60 0.9959
950.70 0.9957
950.80 0.9955
950.90 0.9954
951.00 0.9952
951.10 0.995
951.20 0.9949
951.30 0.9947
951.40 0.9945
951.50 0.9944
951.60 0.9942
951.70 0.994
951.80 0.9938
951.90 0.9937
952.00 0.9935
952.10 0.9933
952.20 0.9932
952.30 0.993
952.40 0.9928
952.50 0.9926
952.60 0.9925
952.70 0.9923
952.80 0.9921
952.90 0.9919
953.00 0.9918
953.10 0.9916
953.20 0.9914
953.30 0.9912
953.40 0.9911
953.50 0.9909
953.60 0.9907
953.70 0.9905
953.80 0.9904
953.90 0.9902
954.00 0.99
954.10 0.9899
954.20 0.9897
954.30 0.9895
954.40 0.9893
954.50 0.9892
954.60 0.989
954.70 0.9888
954.80 0.9886
954.90 0.9885
955.00 0.9883
955.10 0.9881
955.20 0.9879
955.30 0.9878
955.40 0.9876
955.50 0.9874
955.60 0.9873
955.70 0.9871
955.80 0.9869
955.90 0.9867
956.00 0.9866
956.10 0.9864
956.20 0.9862
956.30 0.986
956.40 0.9859
956.50 0.9857
956.60 0.9855
956.70 0.9853
956.80 0.9852
956.90 0.985
957.00 0.9848
957.10 0.9846
957.20 0.9845
957.30 0.9843
957.40 0.9841
957.50 0.9839
957.60 0.9838
957.70 0.9836
957.80 0.9834
957.90 0.9832
958.00 0.9831
958.10 0.9829
958.20 0.9827
958.30 0.9825
958.40 0.9824
958.50 0.9822
958.60 0.982
958.70 0.9818
958.80 0.9816
958.90 0.9815
959.00 0.9813
959.10 0.9811
959.20 0.9809
959.30 0.9808
959.40 0.9806
959.50 0.9804
959.60 0.9802
959.70 0.9801
959.80 0.9799
959.90 0.9797
960.00 0.9795
960.10 0.9794
960.20 0.9792
960.30 0.979
960.40 0.9788
960.50 0.9787
960.60 0.9785
960.70 0.9783
960.80 0.9781
960.90 0.978
961.00 0.9778
961.10 0.9776
961.20 0.9774
961.30 0.9773
961.40 0.9771
961.50 0.9769
961.60 0.9767
961.70 0.9766
961.80 0.9764
961.90 0.9762
962.00 0.976
962.10 0.9759
962.20 0.9757
962.30 0.9755
962.40 0.9753
962.50 0.9752
962.60 0.975
962.70 0.9748
962.80 0.9746
962.90 0.9744
963.00 0.9743
963.10 0.9741
963.20 0.9739
963.30 0.9737
963.40 0.9736
963.50 0.9734
963.60 0.9732
963.70 0.973
963.80 0.9729
963.90 0.9727
964.00 0.9725
964.10 0.9723
964.20 0.9722
964.30 0.972
964.40 0.9718
964.50 0.9716
964.60 0.9715
964.70 0.9713
964.80 0.9711
964.90 0.9709
965.00 0.9707
965.10 0.9706
965.20 0.9704
965.30 0.9702
965.40 0.97
965.50 0.9699
965.60 0.9697
965.70 0.9695
965.80 0.9693
965.90 0.9691
966.00 0.969
966.10 0.9688
966.20 0.9686
966.30 0.9684
966.40 0.9683
966.50 0.9681
966.60 0.9679
966.70 0.9677
966.80 0.9675
966.90 0.9674
967.00 0.9672
967.10 0.967
967.20 0.9668
967.30 0.9666
967.40 0.9665
967.50 0.9663
967.60 0.9661
967.70 0.9659
967.80 0.9658
967.90 0.9656
968.00 0.9654
968.10 0.9652
968.20 0.965
968.30 0.9649
968.40 0.9647
968.50 0.9645
968.60 0.9643
968.70 0.9642
968.80 0.964
968.90 0.9638
969.00 0.9636
969.10 0.9635
969.20 0.9633
969.30 0.9631
969.40 0.9629
969.50 0.9627
969.60 0.9626
969.70 0.9624
969.80 0.9622
969.90 0.962
970.00 0.9619
970.10 0.9617
970.20 0.9615
970.30 0.9613
970.40 0.9611
970.50 0.961
970.60 0.9608
970.70 0.9606
970.80 0.9604
970.90 0.9603
971.00 0.9601
971.10 0.9599
971.20 0.9597
971.30 0.9595
971.40 0.9594
971.50 0.9592
971.60 0.959
971.70 0.9588
971.80 0.9587
971.90 0.9585
972.00 0.9583
972.10 0.9581
972.20 0.9579
972.30 0.9578
972.40 0.9576
972.50 0.9574
972.60 0.9572
972.70 0.957
972.80 0.9569
972.90 0.9567
973.00 0.9565
973.10 0.9563
973.20 0.9561
973.30 0.956
973.40 0.9558
973.50 0.9556
973.60 0.9554
973.70 0.9552
973.80 0.9551
973.90 0.9549
974.00 0.9547
974.10 0.9545
974.20 0.9543
974.30 0.9542
974.40 0.954
974.50 0.9538
974.60 0.9536
974.70 0.9534
974.80 0.9533
974.90 0.9531
975.00 0.9529
975.10 0.9527
975.20 0.9526
975.30 0.9524
975.40 0.9522
975.50 0.952
975.60 0.9518
975.70 0.9517
975.80 0.9515
975.90 0.9513
976.00 0.9511
976.10 0.9509
976.20 0.9508
976.30 0.9506
976.40 0.9504
976.50 0.9502
976.60 0.95
976.70 0.9499
976.80 0.9497
976.90 0.9495
977.00 0.9493
977.10 0.9491
977.20 0.949
977.30 0.9488
977.40 0.9486
977.50 0.9484
977.60 0.9482
977.70 0.9481
977.80 0.9479
977.90 0.9477
978.00 0.9475
978.10 0.9473
978.20 0.9472
978.30 0.947
978.40 0.9468
978.50 0.9466
978.60 0.9465
978.70 0.9463
978.80 0.9461
978.90 0.9459
979.00 0.9457
979.10 0.9456
979.20 0.9454
979.30 0.9452
979.40 0.945
979.50 0.9448
979.60 0.9447
979.70 0.9445
979.80 0.9443
979.90 0.9441
980.00 0.9439
980.10 0.9438
980.20 0.9436
980.30 0.9434
980.40 0.9432
980.50 0.9431
980.60 0.9429
980.70 0.9427
980.80 0.9425
980.90 0.9423
981.00 0.9422
981.10 0.942
981.20 0.9418
981.30 0.9416
981.40 0.9415
981.50 0.9413
981.60 0.9411
981.70 0.9409
981.80 0.9407
981.90 0.9406
982.00 0.9404
982.10 0.9402
982.20 0.94
982.30 0.9398
982.40 0.9397
982.50 0.9395
982.60 0.9393
982.70 0.9391
982.80 0.9389
982.90 0.9388
983.00 0.9386
983.10 0.9384
983.20 0.9382
983.30 0.938
983.40 0.9379
983.50 0.9377
983.60 0.9375
983.70 0.9373
983.80 0.9372
983.90 0.937
984.00 0.9368
984.10 0.9366
984.20 0.9364
984.30 0.9363
984.40 0.9361
984.50 0.9359
984.60 0.9357
984.70 0.9355
984.80 0.9354
984.90 0.9352
985.00 0.935
985.10 0.9348
985.20 0.9346
985.30 0.9345
985.40 0.9343
985.50 0.9341
985.60 0.9339
985.70 0.9337
985.80 0.9336
985.90 0.9334
986.00 0.9332
986.10 0.933
986.20 0.9329
986.30 0.9327
986.40 0.9325
986.50 0.9323
986.60 0.9321
986.70 0.932
986.80 0.9318
986.90 0.9316
987.00 0.9314
987.10 0.9312
987.20 0.9311
987.30 0.9309
987.40 0.9307
987.50 0.9305
987.60 0.9304
987.70 0.9302
987.80 0.93
987.90 0.9298
988.00 0.9296
988.10 0.9295
988.20 0.9293
988.30 0.9291
988.40 0.9289
988.50 0.9288
988.60 0.9286
988.70 0.9284
988.80 0.9282
988.90 0.928
989.00 0.9279
989.10 0.9277
989.20 0.9275
989.30 0.9273
989.40 0.9271
989.50 0.927
989.60 0.9268
989.70 0.9266
989.80 0.9264
989.90 0.9262
990.00 0.9261
990.10 0.9259
990.20 0.9257
990.30 0.9255
990.40 0.9253
990.50 0.9252
990.60 0.925
990.70 0.9248
990.80 0.9246
990.90 0.9244
991.00 0.9243
991.10 0.9241
991.20 0.9239
991.30 0.9237
991.40 0.9235
991.50 0.9234
991.60 0.9232
991.70 0.923
991.80 0.9228
991.90 0.9227
992.00 0.9225
992.10 0.9223
992.20 0.9221
992.30 0.9219
992.40 0.9218
992.50 0.9216
992.60 0.9214
992.70 0.9212
992.80 0.9211
992.90 0.9209
993.00 0.9207
993.10 0.9205
993.20 0.9203
993.30 0.9202
993.40 0.92
993.50 0.9198
993.60 0.9196
993.70 0.9194
993.80 0.9193
993.90 0.9191
994.00 0.9189
994.10 0.9187
994.20 0.9186
994.30 0.9184
994.40 0.9182
994.50 0.918
994.60 0.9178
994.70 0.9177
994.80 0.9175
994.90 0.9173
995.00 0.9171
995.10 0.9169
995.20 0.9168
995.30 0.9166
995.40 0.9164
995.50 0.9162
995.60 0.916
995.70 0.9159
995.80 0.9157
995.90 0.9155
996.00 0.9153
996.10 0.9151
996.20 0.915
996.30 0.9148
996.40 0.9146
996.50 0.9144
996.60 0.9142
996.70 0.9141
996.80 0.9139
996.90 0.9137
997.00 0.9135
997.10 0.9133
997.20 0.9132
997.30 0.913
997.40 0.9128
997.50 0.9126
997.60 0.9125
997.70 0.9123
997.80 0.9121
997.90 0.9119
998.00 0.9117
998.10 0.9116
998.20 0.9114
998.30 0.9112
998.40 0.911
998.50 0.9109
998.60 0.9107
998.70 0.9105
998.80 0.9103
998.90 0.9101
999.00 0.91
999.10 0.9098
999.20 0.9096
999.30 0.9094
999.40 0.9093
999.50 0.9091
999.60 0.9089
999.70 0.9087
999.80 0.9085
999.90 0.9084
1000.00 0.9082
1000.10 0.908
1000.20 0.9078
1000.30 0.9077
1000.40 0.9075
1000.50 0.9073
1000.60 0.9071
1000.70 0.907
1000.80 0.9068
1000.90 0.9066
1001.00 0.9064
1001.10 0.9062
1001.20 0.9061
1001.30 0.9059
1001.40 0.9057
1001.50 0.9055
1001.60 0.9054
1001.70 0.9052
1001.80 0.905
1001.90 0.9049
1002.00 0.9047
1002.10 0.9045
1002.20 0.9043
1002.30 0.9041
1002.40 0.904
1002.50 0.9038
1002.60 0.9036
1002.70 0.9034
1002.80 0.9033
1002.90 0.9031
1003.00 0.9029
1003.10 0.9027
1003.20 0.9025
1003.30 0.9024
1003.40 0.9022
1003.50 0.902
1003.60 0.9018
1003.70 0.9017
1003.80 0.9015
1003.90 0.9013
1004.00 0.9012
1004.10 0.901
1004.20 0.9008
1004.30 0.9006
1004.40 0.9005
1004.50 0.9003
1004.60 0.9001
1004.70 0.8999
1004.80 0.8998
1004.90 0.8996
1005.00 0.8994
1005.10 0.8992
1005.20 0.8991
1005.30 0.8989
1005.40 0.8987
1005.50 0.8985
1005.60 0.8984
1005.70 0.8982
1005.80 0.898
1005.90 0.8979
1006.00 0.8977
1006.10 0.8975
1006.20 0.8973
1006.30 0.8972
1006.40 0.897
1006.50 0.8968
1006.60 0.8966
1006.70 0.8965
1006.80 0.8963
1006.90 0.8961
1007.00 0.8959
1007.10 0.8958
1007.20 0.8956
1007.30 0.8954
1007.40 0.8952
1007.50 0.8951
1007.60 0.8949
1007.70 0.8947
1007.80 0.8945
1007.90 0.8944
1008.00 0.8942
1008.10 0.894
1008.20 0.8938
1008.30 0.8937
1008.40 0.8935
1008.50 0.8933
1008.60 0.8932
1008.70 0.893
1008.80 0.8928
1008.90 0.8926
1009.00 0.8925
1009.10 0.8923
1009.20 0.8921
1009.30 0.8919
1009.40 0.8918
1009.50 0.8916
1009.60 0.8914
1009.70 0.8912
1009.80 0.8911
1009.90 0.8909
1010.00 0.8907
1010.10 0.8905
1010.20 0.8904
1010.30 0.8902
1010.40 0.89
1010.50 0.8899
1010.60 0.8897
1010.70 0.8895
1010.80 0.8893
1010.90 0.8892
1011.00 0.889
1011.10 0.8888
1011.20 0.8886
1011.30 0.8885
1011.40 0.8883
1011.50 0.8881
1011.60 0.888
1011.70 0.8878
1011.80 0.8876
1011.90 0.8874
1012.00 0.8873
1012.10 0.8871
1012.20 0.8869
1012.30 0.8868
1012.40 0.8866
1012.50 0.8864
1012.60 0.8862
1012.70 0.8861
1012.80 0.8859
1012.90 0.8857
1013.00 0.8855
1013.10 0.8854
1013.20 0.8852
1013.30 0.885
1013.40 0.8849
1013.50 0.8847
1013.60 0.8845
1013.70 0.8843
1013.80 0.8842
1013.90 0.884
1014.00 0.8838
1014.10 0.8837
1014.20 0.8835
1014.30 0.8833
1014.40 0.8831
1014.50 0.883
1014.60 0.8828
1014.70 0.8826
1014.80 0.8825
1014.90 0.8823
1015.00 0.8821
1015.10 0.882
1015.20 0.8818
1015.30 0.8816
1015.40 0.8814
1015.50 0.8813
1015.60 0.8811
1015.70 0.8809
1015.80 0.8808
1015.90 0.8806
1016.00 0.8804
1016.10 0.8803
1016.20 0.8801
1016.30 0.8799
1016.40 0.8798
1016.50 0.8796
1016.60 0.8794
1016.70 0.8792
1016.80 0.8791
1016.90 0.8789
1017.00 0.8787
1017.10 0.8786
1017.20 0.8784
1017.30 0.8782
1017.40 0.8781
1017.50 0.8779
1017.60 0.8777
1017.70 0.8775
1017.80 0.8774
1017.90 0.8772
1018.00 0.877
1018.10 0.8769
1018.20 0.8767
1018.30 0.8765
1018.40 0.8764
1018.50 0.8762
1018.60 0.876
1018.70 0.8759
1018.80 0.8757
1018.90 0.8755
1019.00 0.8754
1019.10 0.8752
1019.20 0.875
1019.30 0.8748
1019.40 0.8747
1019.50 0.8745
1019.60 0.8743
1019.70 0.8742
1019.80 0.874
1019.90 0.8738
1020.00 0.8737
1020.10 0.8735
1020.20 0.8733
1020.30 0.8732
1020.40 0.873
1020.50 0.8728
1020.60 0.8727
1020.70 0.8725
1020.80 0.8723
1020.90 0.8722
1021.00 0.872
1021.10 0.8718
1021.20 0.8716
1021.30 0.8715
1021.40 0.8713
1021.50 0.8711
1021.60 0.871
1021.70 0.8708
1021.80 0.8706
1021.90 0.8705
1022.00 0.8703
1022.10 0.8701
1022.20 0.87
1022.30 0.8698
1022.40 0.8696
1022.50 0.8695
1022.60 0.8693
1022.70 0.8691
1022.80 0.869
1022.90 0.8688
1023.00 0.8686
1023.10 0.8685
1023.20 0.8683
1023.30 0.8681
1023.40 0.868
1023.50 0.8678
1023.60 0.8676
1023.70 0.8675
1023.80 0.8673
1023.90 0.8671
1024.00 0.867
1024.10 0.8668
1024.20 0.8666
1024.30 0.8665
1024.40 0.8663
1024.50 0.8661
1024.60 0.866
1024.70 0.8658
1024.80 0.8656
1024.90 0.8655
1025.00 0.8653
1025.10 0.8651
1025.20 0.865
1025.30 0.8648
1025.40 0.8646
1025.50 0.8645
1025.60 0.8643
1025.70 0.8641
1025.80 0.864
1025.90 0.8638
1026.00 0.8636
1026.10 0.8635
1026.20 0.8633
1026.30 0.8631
1026.40 0.863
1026.50 0.8628
1026.60 0.8626
1026.70 0.8625
1026.80 0.8623
1026.90 0.8621
1027.00 0.862
1027.10 0.8618
1027.20 0.8616
1027.30 0.8615
1027.40 0.8613
1027.50 0.8611
1027.60 0.861
1027.70 0.8608
1027.80 0.8607
1027.90 0.8605
1028.00 0.8603
1028.10 0.8602
1028.20 0.86
1028.30 0.8598
1028.40 0.8597
1028.50 0.8595
1028.60 0.8593
1028.70 0.8592
1028.80 0.859
1028.90 0.8589
1029.00 0.8587
1029.10 0.8585
1029.20 0.8584
1029.30 0.8582
1029.40 0.858
1029.50 0.8579
1029.60 0.8577
1029.70 0.8575
1029.80 0.8574
1029.90 0.8572
1030.00 0.8571
1030.10 0.8569
1030.20 0.8567
1030.30 0.8566
1030.40 0.8564
1030.50 0.8562
1030.60 0.8561
1030.70 0.8559
1030.80 0.8558
1030.90 0.8556
1031.00 0.8554
1031.10 0.8553
1031.20 0.8551
1031.30 0.8549
1031.40 0.8548
1031.50 0.8546
1031.60 0.8545
1031.70 0.8543
1031.80 0.8541
1031.90 0.854
1032.00 0.8538
1032.10 0.8536
1032.20 0.8535
1032.30 0.8533
1032.40 0.8532
1032.50 0.853
1032.60 0.8528
1032.70 0.8527
1032.80 0.8525
1032.90 0.8524
1033.00 0.8522
1033.10 0.852
1033.20 0.8519
1033.30 0.8517
1033.40 0.8516
1033.50 0.8514
1033.60 0.8512
1033.70 0.8511
1033.80 0.8509
1033.90 0.8507
1034.00 0.8506
1034.10 0.8504
1034.20 0.8503
1034.30 0.8501
1034.40 0.8499
1034.50 0.8498
1034.60 0.8496
1034.70 0.8495
1034.80 0.8493
1034.90 0.8491
1035.00 0.849
1035.10 0.8488
1035.20 0.8487
1035.30 0.8485
1035.40 0.8483
1035.50 0.8482
1035.60 0.848
1035.70 0.8479
1035.80 0.8477
1035.90 0.8475
1036.00 0.8474
1036.10 0.8472
1036.20 0.8471
1036.30 0.8469
1036.40 0.8468
1036.50 0.8466
1036.60 0.8464
1036.70 0.8463
1036.80 0.8461
1036.90 0.846
1037.00 0.8458
1037.10 0.8456
1037.20 0.8455
1037.30 0.8453
1037.40 0.8452
1037.50 0.845
1037.60 0.8448
1037.70 0.8447
1037.80 0.8445
1037.90 0.8444
1038.00 0.8442
1038.10 0.8441
1038.20 0.8439
1038.30 0.8437
1038.40 0.8436
1038.50 0.8434
1038.60 0.8433
1038.70 0.8431
1038.80 0.8429
1038.90 0.8428
1039.00 0.8426
1039.10 0.8425
1039.20 0.8423
1039.30 0.8422
1039.40 0.842
1039.50 0.8418
1039.60 0.8417
1039.70 0.8415
1039.80 0.8414
1039.90 0.8412
1040.00 0.8411
1040.10 0.8409
1040.20 0.8407
1040.30 0.8406
1040.40 0.8404
1040.50 0.8403
1040.60 0.8401
1040.70 0.84
1040.80 0.8398
1040.90 0.8396
1041.00 0.8395
1041.10 0.8393
1041.20 0.8392
1041.30 0.839
1041.40 0.8389
1041.50 0.8387
1041.60 0.8386
1041.70 0.8384
1041.80 0.8382
1041.90 0.8381
1042.00 0.8379
1042.10 0.8378
1042.20 0.8376
1042.30 0.8375
1042.40 0.8373
1042.50 0.8372
1042.60 0.837
1042.70 0.8368
1042.80 0.8367
1042.90 0.8365
1043.00 0.8364
1043.10 0.8362
1043.20 0.8361
1043.30 0.8359
1043.40 0.8358
1043.50 0.8356
1043.60 0.8355
1043.70 0.8353
1043.80 0.8352
1043.90 0.835
1044.00 0.8348
1044.10 0.8347
1044.20 0.8345
1044.30 0.8344
1044.40 0.8342
1044.50 0.8341
1044.60 0.8339
1044.70 0.8338
1044.80 0.8336
1044.90 0.8335
1045.00 0.8333
1045.10 0.8332
1045.20 0.833
1045.30 0.8329
1045.40 0.8327
1045.50 0.8325
1045.60 0.8324
1045.70 0.8322
1045.80 0.8321
1045.90 0.8319
1046.00 0.8318
1046.10 0.8316
1046.20 0.8315
1046.30 0.8313
1046.40 0.8312
1046.50 0.831
1046.60 0.8309
1046.70 0.8307
1046.80 0.8306
1046.90 0.8304
1047.00 0.8303
1047.10 0.8301
1047.20 0.83
1047.30 0.8298
1047.40 0.8296
1047.50 0.8295
1047.60 0.8293
1047.70 0.8292
1047.80 0.829
1047.90 0.8289
1048.00 0.8287
1048.10 0.8286
1048.20 0.8284
1048.30 0.8283
1048.40 0.8281
1048.50 0.828
1048.60 0.8278
1048.70 0.8277
1048.80 0.8275
1048.90 0.8274
1049.00 0.8272
1049.10 0.8271
1049.20 0.8269
1049.30 0.8268
1049.40 0.8266
1049.50 0.8265
1049.60 0.8263
1049.70 0.8262
1049.80 0.826
1049.90 0.8259
1050.00 0.8257
1050.10 0.8256
1050.20 0.8254
1050.30 0.8253
1050.40 0.8251
1050.50 0.825
1050.60 0.8248
1050.70 0.8247
1050.80 0.8245
1050.90 0.8244
1051.00 0.8242
1051.10 0.8241
1051.20 0.8239
1051.30 0.8238
1051.40 0.8236
1051.50 0.8235
1051.60 0.8233
1051.70 0.8232
1051.80 0.823
1051.90 0.8229
1052.00 0.8227
1052.10 0.8226
1052.20 0.8224
1052.30 0.8223
1052.40 0.8221
1052.50 0.822
1052.60 0.8218
1052.70 0.8217
1052.80 0.8215
1052.90 0.8214
1053.00 0.8212
1053.10 0.8211
1053.20 0.821
1053.30 0.8208
1053.40 0.8207
1053.50 0.8205
1053.60 0.8204
1053.70 0.8202
1053.80 0.8201
1053.90 0.8199
1054.00 0.8198
1054.10 0.8196
1054.20 0.8195
1054.30 0.8193
1054.40 0.8192
1054.50 0.819
1054.60 0.8189
1054.70 0.8188
1054.80 0.8186
1054.90 0.8185
1055.00 0.8183
1055.10 0.8182
1055.20 0.818
1055.30 0.8179
1055.40 0.8177
1055.50 0.8176
1055.60 0.8174
1055.70 0.8173
1055.80 0.8171
1055.90 0.817
1056.00 0.8169
1056.10 0.8167
1056.20 0.8166
1056.30 0.8164
1056.40 0.8163
1056.50 0.8161
1056.60 0.816
1056.70 0.8158
1056.80 0.8157
1056.90 0.8155
1057.00 0.8154
1057.10 0.8153
1057.20 0.8151
1057.30 0.815
1057.40 0.8148
1057.50 0.8147
1057.60 0.8145
1057.70 0.8144
1057.80 0.8142
1057.90 0.8141
1058.00 0.814
1058.10 0.8138
1058.20 0.8137
1058.30 0.8135
1058.40 0.8134
1058.50 0.8132
1058.60 0.8131
1058.70 0.8129
1058.80 0.8128
1058.90 0.8127
1059.00 0.8125
1059.10 0.8124
1059.20 0.8122
1059.30 0.8121
1059.40 0.8119
1059.50 0.8118
1059.60 0.8117
1059.70 0.8115
1059.80 0.8114
1059.90 0.8112
1060.00 0.8111
1060.10 0.8109
1060.20 0.8108
1060.30 0.8107
1060.40 0.8105
1060.50 0.8104
1060.60 0.8102
1060.70 0.8101
1060.80 0.8099
1060.90 0.8098
1061.00 0.8097
1061.10 0.8095
1061.20 0.8094
1061.30 0.8092
1061.40 0.8091
1061.50 0.8089
1061.60 0.8088
1061.70 0.8087
1061.80 0.8085
1061.90 0.8084
1062.00 0.8082
1062.10 0.8081
1062.20 0.808
1062.30 0.8078
1062.40 0.8077
1062.50 0.8075
1062.60 0.8074
1062.70 0.8072
1062.80 0.8071
1062.90 0.807
1063.00 0.8068
1063.10 0.8067
1063.20 0.8065
1063.30 0.8064
1063.40 0.8063
1063.50 0.8061
1063.60 0.806
1063.70 0.8058
1063.80 0.8057
1063.90 0.8056
1064.00 0.8054
1064.10 0.8053
1064.20 0.8051
1064.30 0.805
1064.40 0.8049
1064.50 0.8047
1064.60 0.8046
1064.70 0.8044
1064.80 0.8043
1064.90 0.8042
1065.00 0.804
1065.10 0.8039
1065.20 0.8038
1065.30 0.8036
1065.40 0.8035
1065.50 0.8033
1065.60 0.8032
1065.70 0.8031
1065.80 0.8029
1065.90 0.8028
1066.00 0.8026
1066.10 0.8025
1066.20 0.8024
1066.30 0.8022
1066.40 0.8021
1066.50 0.8019
1066.60 0.8018
1066.70 0.8017
1066.80 0.8015
1066.90 0.8014
1067.00 0.8012
1067.10 0.8011
1067.20 0.801
1067.30 0.8008
1067.40 0.8007
1067.50 0.8006
1067.60 0.8004
1067.70 0.8003
1067.80 0.8002
1067.90 0.8
1068.00 0.7999
1068.10 0.7997
1068.20 0.7996
1068.30 0.7995
1068.40 0.7993
1068.50 0.7992
1068.60 0.7991
1068.70 0.7989
1068.80 0.7988
1068.90 0.7987
1069.00 0.7985
1069.10 0.7984
1069.20 0.7983
1069.30 0.7981
1069.40 0.798
1069.50 0.7978
1069.60 0.7977
1069.70 0.7976
1069.80 0.7974
1069.90 0.7973
1070.00 0.7972
1070.10 0.797
1070.20 0.7969
1070.30 0.7968
1070.40 0.7966
1070.50 0.7965
1070.60 0.7964
1070.70 0.7962
1070.80 0.7961
1070.90 0.7959
1071.00 0.7958
1071.10 0.7957
1071.20 0.7955
1071.30 0.7954
1071.40 0.7953
1071.50 0.7951
1071.60 0.795
1071.70 0.7949
1071.80 0.7947
1071.90 0.7946
1072.00 0.7945
1072.10 0.7943
1072.20 0.7942
1072.30 0.7941
1072.40 0.7939
1072.50 0.7938
1072.60 0.7937
1072.70 0.7935
1072.80 0.7934
1072.90 0.7932
1073.00 0.7931
1073.10 0.793
1073.20 0.7928
1073.30 0.7927
1073.40 0.7926
1073.50 0.7924
1073.60 0.7923
1073.70 0.7922
1073.80 0.792
1073.90 0.7919
1074.00 0.7918
1074.10 0.7916
1074.20 0.7915
1074.30 0.7914
1074.40 0.7912
1074.50 0.7911
1074.60 0.791
1074.70 0.7908
1074.80 0.7907
1074.90 0.7906
1075.00 0.7904
1075.10 0.7903
1075.20 0.7902
1075.30 0.79
1075.40 0.7899
1075.50 0.7898
1075.60 0.7896
1075.70 0.7895
1075.80 0.7894
1075.90 0.7892
1076.00 0.7891
1076.10 0.789
1076.20 0.7888
1076.30 0.7887
1076.40 0.7886
1076.50 0.7884
1076.60 0.7883
1076.70 0.7882
1076.80 0.788
1076.90 0.7879
1077.00 0.7878
1077.10 0.7876
1077.20 0.7875
1077.30 0.7874
1077.40 0.7873
1077.50 0.7871
1077.60 0.787
1077.70 0.7869
1077.80 0.7867
1077.90 0.7866
1078.00 0.7865
1078.10 0.7863
1078.20 0.7862
1078.30 0.7861
1078.40 0.7859
1078.50 0.7858
1078.60 0.7857
1078.70 0.7855
1078.80 0.7854
1078.90 0.7853
1079.00 0.7851
1079.10 0.785
1079.20 0.7849
1079.30 0.7847
1079.40 0.7846
1079.50 0.7845
1079.60 0.7844
1079.70 0.7842
1079.80 0.7841
1079.90 0.784
1080.00 0.7838
1080.10 0.7837
1080.20 0.7836
1080.30 0.7834
1080.40 0.7833
1080.50 0.7832
1080.60 0.783
1080.70 0.7829
1080.80 0.7828
1080.90 0.7827
1081.00 0.7825
1081.10 0.7824
1081.20 0.7823
1081.30 0.7821
1081.40 0.782
1081.50 0.7819
1081.60 0.7817
1081.70 0.7816
1081.80 0.7815
1081.90 0.7814
1082.00 0.7812
1082.10 0.7811
1082.20 0.781
1082.30 0.7808
1082.40 0.7807
1082.50 0.7806
1082.60 0.7804
1082.70 0.7803
1082.80 0.7802
1082.90 0.7801
1083.00 0.7799
1083.10 0.7798
1083.20 0.7797
1083.30 0.7795
1083.40 0.7794
1083.50 0.7793
1083.60 0.7792
1083.70 0.779
1083.80 0.7789
1083.90 0.7788
1084.00 0.7786
1084.10 0.7785
1084.20 0.7784
1084.30 0.7782
1084.40 0.7781
1084.50 0.778
1084.60 0.7778
1084.70 0.7777
1084.80 0.7776
1084.90 0.7775
1085.00 0.7773
1085.10 0.7772
1085.20 0.7771
1085.30 0.7769
1085.40 0.7768
1085.50 0.7767
1085.60 0.7766
1085.70 0.7764
1085.80 0.7763
1085.90 0.7762
1086.00 0.776
1086.10 0.7759
1086.20 0.7758
1086.30 0.7757
1086.40 0.7755
1086.50 0.7754
1086.60 0.7753
1086.70 0.7751
1086.80 0.775
1086.90 0.7749
1087.00 0.7748
1087.10 0.7746
1087.20 0.7745
1087.30 0.7744
1087.40 0.7743
1087.50 0.7741
1087.60 0.774
1087.70 0.7739
1087.80 0.7737
1087.90 0.7736
1088.00 0.7735
1088.10 0.7734
1088.20 0.7732
1088.30 0.7731
1088.40 0.773
1088.50 0.7728
1088.60 0.7727
1088.70 0.7726
1088.80 0.7725
1088.90 0.7723
1089.00 0.7722
1089.10 0.7721
1089.20 0.772
1089.30 0.7718
1089.40 0.7717
1089.50 0.7716
1089.60 0.7715
1089.70 0.7713
1089.80 0.7712
1089.90 0.7711
1090.00 0.771
1090.10 0.7708
1090.20 0.7707
1090.30 0.7706
1090.40 0.7705
1090.50 0.7703
1090.60 0.7702
1090.70 0.7701
1090.80 0.7699
1090.90 0.7698
1091.00 0.7697
1091.10 0.7696
1091.20 0.7694
1091.30 0.7693
1091.40 0.7692
1091.50 0.7691
1091.60 0.7689
1091.70 0.7688
1091.80 0.7687
1091.90 0.7685
1092.00 0.7684
1092.10 0.7683
1092.20 0.7682
1092.30 0.768
1092.40 0.7679
1092.50 0.7678
1092.60 0.7677
1092.70 0.7675
1092.80 0.7674
1092.90 0.7673
1093.00 0.7672
1093.10 0.7671
1093.20 0.7669
1093.30 0.7668
1093.40 0.7667
1093.50 0.7666
1093.60 0.7664
1093.70 0.7663
1093.80 0.7662
1093.90 0.7661
1094.00 0.7659
1094.10 0.7658
1094.20 0.7657
1094.30 0.7656
1094.40 0.7654
1094.50 0.7653
1094.60 0.7652
1094.70 0.7651
1094.80 0.7649
1094.90 0.7648
1095.00 0.7647
1095.10 0.7646
1095.20 0.7644
1095.30 0.7643
1095.40 0.7642
1095.50 0.7641
1095.60 0.7639
1095.70 0.7638
1095.80 0.7637
1095.90 0.7636
1096.00 0.7634
1096.10 0.7633
1096.20 0.7632
1096.30 0.763
1096.40 0.7629
1096.50 0.7628
1096.60 0.7627
1096.70 0.7625
1096.80 0.7624
1096.90 0.7623
1097.00 0.7622
1097.10 0.7621
1097.20 0.7619
1097.30 0.7618
1097.40 0.7617
1097.50 0.7616
1097.60 0.7614
1097.70 0.7613
1097.80 0.7612
1097.90 0.7611
1098.00 0.7609
1098.10 0.7608
1098.20 0.7607
1098.30 0.7606
1098.40 0.7604
1098.50 0.7603
1098.60 0.7602
1098.70 0.7601
1098.80 0.7599
1098.90 0.7598
1099.00 0.7597
1099.10 0.7596
1099.20 0.7594
1099.30 0.7593
1099.40 0.7592
1099.50 0.7591
1099.60 0.7589
1099.70 0.7588
1099.80 0.7587
1099.90 0.7586
1100.00 0.7584
1100.10 0.7583
1100.20 0.7582
1100.30 0.7581
1100.40 0.7579
1100.50 0.7578
1100.60 0.7577
1100.70 0.7576
1100.80 0.7575
1100.90 0.7573
1101.00 0.7572
1101.10 0.7571
1101.20 0.757
1101.30 0.7568
1101.40 0.7567
1101.50 0.7566
1101.60 0.7565
1101.70 0.7564
1101.80 0.7562
1101.90 0.7561
1102.00 0.756
1102.10 0.7559
1102.20 0.7557
1102.30 0.7556
1102.40 0.7555
1102.50 0.7554
1102.60 0.7552
1102.70 0.7551
1102.80 0.755
1102.90 0.7549
1103.00 0.7547
1103.10 0.7546
1103.20 0.7545
1103.30 0.7544
1103.40 0.7542
1103.50 0.7541
1103.60 0.754
1103.70 0.7539
1103.80 0.7538
1103.90 0.7536
1104.00 0.7535
1104.10 0.7534
1104.20 0.7533
1104.30 0.7531
1104.40 0.753
1104.50 0.7529
1104.60 0.7528
1104.70 0.7526
1104.80 0.7525
1104.90 0.7524
1105.00 0.7523
1105.10 0.7522
1105.20 0.752
1105.30 0.7519
1105.40 0.7518
1105.50 0.7517
1105.60 0.7515
1105.70 0.7514
1105.80 0.7513
1105.90 0.7512
1106.00 0.7511
1106.10 0.7509
1106.20 0.7508
1106.30 0.7507
1106.40 0.7506
1106.50 0.7504
1106.60 0.7503
1106.70 0.7502
1106.80 0.7501
1106.90 0.75
1107.00 0.7498
1107.10 0.7497
1107.20 0.7496
1107.30 0.7495
1107.40 0.7493
1107.50 0.7492
1107.60 0.7491
1107.70 0.749
1107.80 0.7488
1107.90 0.7487
1108.00 0.7486
1108.10 0.7485
1108.20 0.7484
1108.30 0.7482
1108.40 0.7481
1108.50 0.748
1108.60 0.7479
1108.70 0.7478
1108.80 0.7476
1108.90 0.7475
1109.00 0.7474
1109.10 0.7473
1109.20 0.7472
1109.30 0.747
1109.40 0.7469
1109.50 0.7468
1109.60 0.7467
1109.70 0.7465
1109.80 0.7464
1109.90 0.7463
1110.00 0.7462
1110.10 0.7461
1110.20 0.7459
1110.30 0.7458
1110.40 0.7457
1110.50 0.7456
1110.60 0.7454
1110.70 0.7453
1110.80 0.7452
1110.90 0.7451
1111.00 0.745
1111.10 0.7448
1111.20 0.7447
1111.30 0.7446
1111.40 0.7445
1111.50 0.7443
1111.60 0.7442
1111.70 0.7441
1111.80 0.744
1111.90 0.7439
1112.00 0.7437
1112.10 0.7436
1112.20 0.7435
1112.30 0.7434
1112.40 0.7433
1112.50 0.7431
1112.60 0.743
1112.70 0.7429
1112.80 0.7428
1112.90 0.7427
1113.00 0.7425
1113.10 0.7424
1113.20 0.7423
1113.30 0.7422
1113.40 0.7421
1113.50 0.7419
1113.60 0.7418
1113.70 0.7417
1113.80 0.7416
1113.90 0.7414
1114.00 0.7413
1114.10 0.7412
1114.20 0.7411
1114.30 0.741
1114.40 0.7408
1114.50 0.7407
1114.60 0.7406
1114.70 0.7405
1114.80 0.7404
1114.90 0.7402
1115.00 0.7401
1115.10 0.74
1115.20 0.7399
1115.30 0.7398
1115.40 0.7396
1115.50 0.7395
1115.60 0.7394
1115.70 0.7393
1115.80 0.7392
1115.90 0.739
1116.00 0.7389
1116.10 0.7388
1116.20 0.7387
1116.30 0.7386
1116.40 0.7384
1116.50 0.7383
1116.60 0.7382
1116.70 0.7381
1116.80 0.738
1116.90 0.7378
1117.00 0.7377
1117.10 0.7376
1117.20 0.7375
1117.30 0.7374
1117.40 0.7372
1117.50 0.7371
1117.60 0.737
1117.70 0.7369
1117.80 0.7368
1117.90 0.7366
1118.00 0.7365
1118.10 0.7364
1118.20 0.7363
1118.30 0.7362
1118.40 0.736
1118.50 0.7359
1118.60 0.7358
1118.70 0.7357
1118.80 0.7356
1118.90 0.7354
1119.00 0.7353
1119.10 0.7352
1119.20 0.7351
1119.30 0.735
1119.40 0.7348
1119.50 0.7347
1119.60 0.7346
1119.70 0.7345
1119.80 0.7344
1119.90 0.7342
1120.00 0.7341
1120.10 0.734
1120.20 0.7339
1120.30 0.7338
1120.40 0.7336
1120.50 0.7335
1120.60 0.7334
1120.70 0.7333
1120.80 0.7332
1120.90 0.733
1121.00 0.7329
1121.10 0.7328
1121.20 0.7327
1121.30 0.7326
1121.40 0.7325
1121.50 0.7323
1121.60 0.7322
1121.70 0.7321
1121.80 0.732
1121.90 0.7319
1122.00 0.7317
1122.10 0.7316
1122.20 0.7315
1122.30 0.7314
1122.40 0.7313
1122.50 0.7311
1122.60 0.731
1122.70 0.7309
1122.80 0.7308
1122.90 0.7307
1123.00 0.7305
1123.10 0.7304
1123.20 0.7303
1123.30 0.7302
1123.40 0.7301
1123.50 0.73
1123.60 0.7298
1123.70 0.7297
1123.80 0.7296
1123.90 0.7295
1124.00 0.7294
1124.10 0.7292
1124.20 0.7291
1124.30 0.729
1124.40 0.7289
1124.50 0.7288
1124.60 0.7286
1124.70 0.7285
1124.80 0.7284
1124.90 0.7283
1125.00 0.7282
1125.10 0.728
1125.20 0.7279
1125.30 0.7278
1125.40 0.7277
1125.50 0.7276
1125.60 0.7275
1125.70 0.7273
1125.80 0.7272
1125.90 0.7271
1126.00 0.727
1126.10 0.7269
1126.20 0.7267
1126.30 0.7266
1126.40 0.7265
1126.50 0.7264
1126.60 0.7263
1126.70 0.7262
1126.80 0.726
1126.90 0.7259
1127.00 0.7258
1127.10 0.7257
1127.20 0.7256
1127.30 0.7254
1127.40 0.7253
1127.50 0.7252
1127.60 0.7251
1127.70 0.725
1127.80 0.7248
1127.90 0.7247
1128.00 0.7246
1128.10 0.7245
1128.20 0.7244
1128.30 0.7243
1128.40 0.7241
1128.50 0.724
1128.60 0.7239
1128.70 0.7238
1128.80 0.7237
1128.90 0.7235
1129.00 0.7234
1129.10 0.7233
1129.20 0.7232
1129.30 0.7231
1129.40 0.723
1129.50 0.7228
1129.60 0.7227
1129.70 0.7226
1129.80 0.7225
1129.90 0.7224
1130.00 0.7222
1130.10 0.7221
1130.20 0.722
1130.30 0.7219
1130.40 0.7218
1130.50 0.7217
1130.60 0.7215
1130.70 0.7214
1130.80 0.7213
1130.90 0.7212
1131.00 0.7211
1131.10 0.7209
1131.20 0.7208
1131.30 0.7207
1131.40 0.7206
1131.50 0.7205
1131.60 0.7204
1131.70 0.7202
1131.80 0.7201
1131.90 0.72
1132.00 0.7199
1132.10 0.7198
1132.20 0.7197
1132.30 0.7195
1132.40 0.7194
1132.50 0.7193
1132.60 0.7192
1132.70 0.7191
1132.80 0.7189
1132.90 0.7188
1133.00 0.7187
1133.10 0.7186
1133.20 0.7185
1133.30 0.7183
1133.40 0.7182
1133.50 0.7181
1133.60 0.718
1133.70 0.7179
1133.80 0.7178
1133.90 0.7176
1134.00 0.7175
1134.10 0.7174
1134.20 0.7173
1134.30 0.7172
1134.40 0.717
1134.50 0.7169
1134.60 0.7168
1134.70 0.7167
1134.80 0.7166
1134.90 0.7165
1135.00 0.7163
1135.10 0.7162
1135.20 0.7161
1135.30 0.716
1135.40 0.7159
1135.50 0.7157
1135.60 0.7156
1135.70 0.7155
1135.80 0.7154
1135.90 0.7153
1136.00 0.7152
1136.10 0.715
1136.20 0.7149
1136.30 0.7148
1136.40 0.7147
1136.50 0.7146
1136.60 0.7144
1136.70 0.7143
1136.80 0.7142
1136.90 0.7141
1137.00 0.714
1137.10 0.7139
1137.20 0.7137
1137.30 0.7136
1137.40 0.7135
1137.50 0.7134
1137.60 0.7133
1137.70 0.7131
1137.80 0.713
1137.90 0.7129
1138.00 0.7128
1138.10 0.7127
1138.20 0.7126
1138.30 0.7124
1138.40 0.7123
1138.50 0.7122
1138.60 0.7121
1138.70 0.712
1138.80 0.7118
1138.90 0.7117
1139.00 0.7116
1139.10 0.7115
1139.20 0.7114
1139.30 0.7113
1139.40 0.7111
1139.50 0.711
1139.60 0.7109
1139.70 0.7108
1139.80 0.7107
1139.90 0.7105
1140.00 0.7104
1140.10 0.7103
1140.20 0.7102
1140.30 0.7101
1140.40 0.71
1140.50 0.7098
1140.60 0.7097
1140.70 0.7096
1140.80 0.7095
1140.90 0.7094
1141.00 0.7092
1141.10 0.7091
1141.20 0.709
1141.30 0.7089
1141.40 0.7088
1141.50 0.7087
1141.60 0.7085
1141.70 0.7084
1141.80 0.7083
1141.90 0.7082
1142.00 0.7081
1142.10 0.708
1142.20 0.7078
1142.30 0.7077
1142.40 0.7076
1142.50 0.7075
1142.60 0.7074
1142.70 0.7072
1142.80 0.7071
1142.90 0.707
1143.00 0.7069
1143.10 0.7068
1143.20 0.7067
1143.30 0.7065
1143.40 0.7064
1143.50 0.7063
1143.60 0.7062
1143.70 0.7061
1143.80 0.7059
1143.90 0.7058
1144.00 0.7057
1144.10 0.7056
1144.20 0.7055
1144.30 0.7054
1144.40 0.7052
1144.50 0.7051
1144.60 0.705
1144.70 0.7049
1144.80 0.7048
1144.90 0.7046
1145.00 0.7045
1145.10 0.7044
1145.20 0.7043
1145.30 0.7042
1145.40 0.7041
1145.50 0.7039
1145.60 0.7038
1145.70 0.7037
1145.80 0.7036
1145.90 0.7035
1146.00 0.7033
1146.10 0.7032
1146.20 0.7031
1146.30 0.703
1146.40 0.7029
1146.50 0.7028
1146.60 0.7026
1146.70 0.7025
1146.80 0.7024
1146.90 0.7023
1147.00 0.7022
1147.10 0.7021
1147.20 0.7019
1147.30 0.7018
1147.40 0.7017
1147.50 0.7016
1147.60 0.7015
1147.70 0.7013
1147.80 0.7012
1147.90 0.7011
1148.00 0.701
1148.10 0.7009
1148.20 0.7007
1148.30 0.7006
1148.40 0.7005
1148.50 0.7004
1148.60 0.7003
1148.70 0.7002
1148.80 0.7
1148.90 0.6999
1149.00 0.6998
1149.10 0.6997
1149.20 0.6996
1149.30 0.6994
1149.40 0.6993
1149.50 0.6992
1149.60 0.6991
1149.70 0.699
1149.80 0.6988
1149.90 0.6987
1150.00 0.6986
1150.10 0.6985
1150.20 0.6984
1150.30 0.6983
1150.40 0.6981
1150.50 0.698
1150.60 0.6979
1150.70 0.6978
1150.80 0.6977
1150.90 0.6976
1151.00 0.6974
1151.10 0.6973
1151.20 0.6972
1151.30 0.6971
1151.40 0.697
1151.50 0.6968
1151.60 0.6967
1151.70 0.6966
1151.80 0.6965
1151.90 0.6964
1152.00 0.6963
1152.10 0.6961
1152.20 0.696
1152.30 0.6959
1152.40 0.6958
1152.50 0.6957
1152.60 0.6955
1152.70 0.6954
1152.80 0.6953
1152.90 0.6952
1153.00 0.6951
1153.10 0.6949
1153.20 0.6948
1153.30 0.6947
1153.40 0.6946
1153.50 0.6945
1153.60 0.6943
1153.70 0.6942
1153.80 0.6941
1153.90 0.694
1154.00 0.6939
1154.10 0.6938
1154.20 0.6936
1154.30 0.6935
1154.40 0.6934
1154.50 0.6933
1154.60 0.6932
1154.70 0.693
1154.80 0.6929
1154.90 0.6928
1155.00 0.6927
1155.10 0.6926
1155.20 0.6924
1155.30 0.6923
1155.40 0.6922
1155.50 0.6921
1155.60 0.692
1155.70 0.6919
1155.80 0.6917
1155.90 0.6916
1156.00 0.6915
1156.10 0.6914
1156.20 0.6913
1156.30 0.6911
1156.40 0.691
1156.50 0.6909
1156.60 0.6908
1156.70 0.6907
1156.80 0.6906
1156.90 0.6904
1157.00 0.6903
1157.10 0.6902
1157.20 0.6901
1157.30 0.69
1157.40 0.6898
1157.50 0.6897
1157.60 0.6896
1157.70 0.6895
1157.80 0.6894
1157.90 0.6892
1158.00 0.6891
1158.10 0.689
1158.20 0.6889
1158.30 0.6888
1158.40 0.6886
1158.50 0.6885
1158.60 0.6884
1158.70 0.6883
1158.80 0.6882
1158.90 0.688
1159.00 0.6879
1159.10 0.6878
1159.20 0.6877
1159.30 0.6876
1159.40 0.6875
1159.50 0.6873
1159.60 0.6872
1159.70 0.6871
1159.80 0.687
1159.90 0.6869
1160.00 0.6867
1160.10 0.6866
1160.20 0.6865
1160.30 0.6864
1160.40 0.6863
1160.50 0.6861
1160.60 0.686
1160.70 0.6859
1160.80 0.6858
1160.90 0.6857
1161.00 0.6856
1161.10 0.6854
1161.20 0.6853
1161.30 0.6852
1161.40 0.6851
1161.50 0.685
1161.60 0.6848
1161.70 0.6847
1161.80 0.6846
1161.90 0.6845
1162.00 0.6844
1162.10 0.6842
1162.20 0.6841
1162.30 0.684
1162.40 0.6839
1162.50 0.6838
1162.60 0.6836
1162.70 0.6835
1162.80 0.6834
1162.90 0.6833
1163.00 0.6832
1163.10 0.683
1163.20 0.6829
1163.30 0.6828
1163.40 0.6827
1163.50 0.6826
1163.60 0.6824
1163.70 0.6823
1163.80 0.6822
1163.90 0.6821
1164.00 0.682
1164.10 0.6818
1164.20 0.6817
1164.30 0.6816
1164.40 0.6815
1164.50 0.6814
1164.60 0.6812
1164.70 0.6811
1164.80 0.681
1164.90 0.6809
1165.00 0.6808
1165.10 0.6806
1165.20 0.6805
1165.30 0.6804
1165.40 0.6803
1165.50 0.6802
1165.60 0.68
1165.70 0.6799
1165.80 0.6798
1165.90 0.6797
1166.00 0.6796
1166.10 0.6795
1166.20 0.6793
1166.30 0.6792
1166.40 0.6791
1166.50 0.679
1166.60 0.6789
1166.70 0.6787
1166.80 0.6786
1166.90 0.6785
1167.00 0.6784
1167.10 0.6783
1167.20 0.6781
1167.30 0.678
1167.40 0.6779
1167.50 0.6778
1167.60 0.6777
1167.70 0.6775
1167.80 0.6774
1167.90 0.6773
1168.00 0.6772
1168.10 0.6771
1168.20 0.6769
1168.30 0.6768
1168.40 0.6767
1168.50 0.6766
1168.60 0.6765
1168.70 0.6763
1168.80 0.6762
1168.90 0.6761
1169.00 0.676
1169.10 0.6759
1169.20 0.6757
1169.30 0.6756
1169.40 0.6755
1169.50 0.6754
1169.60 0.6753
1169.70 0.6751
1169.80 0.675
1169.90 0.6749
1170.00 0.6748
1170.10 0.6747
1170.20 0.6745
1170.30 0.6744
1170.40 0.6743
1170.50 0.6742
1170.60 0.6741
1170.70 0.6739
1170.80 0.6738
1170.90 0.6737
1171.00 0.6736
1171.10 0.6735
1171.20 0.6734
1171.30 0.6732
1171.40 0.6731
1171.50 0.673
1171.60 0.6729
1171.70 0.6728
1171.80 0.6726
1171.90 0.6725
1172.00 0.6724
1172.10 0.6723
1172.20 0.6722
1172.30 0.672
1172.40 0.6719
1172.50 0.6718
1172.60 0.6717
1172.70 0.6716
1172.80 0.6714
1172.90 0.6713
1173.00 0.6712
1173.10 0.6711
1173.20 0.6709
1173.30 0.6708
1173.40 0.6707
1173.50 0.6706
1173.60 0.6705
1173.70 0.6703
1173.80 0.6702
1173.90 0.6701
1174.00 0.67
1174.10 0.6699
1174.20 0.6697
1174.30 0.6696
1174.40 0.6695
1174.50 0.6694
1174.60 0.6693
1174.70 0.6691
1174.80 0.669
1174.90 0.6689
1175.00 0.6688
1175.10 0.6686
1175.20 0.6685
1175.30 0.6684
1175.40 0.6683
1175.50 0.6682
1175.60 0.668
1175.70 0.6679
1175.80 0.6678
1175.90 0.6677
1176.00 0.6676
1176.10 0.6674
1176.20 0.6673
1176.30 0.6672
1176.40 0.6671
1176.50 0.667
1176.60 0.6668
1176.70 0.6667
1176.80 0.6666
1176.90 0.6665
1177.00 0.6664
1177.10 0.6662
1177.20 0.6661
1177.30 0.666
1177.40 0.6659
1177.50 0.6658
1177.60 0.6656
1177.70 0.6655
1177.80 0.6654
1177.90 0.6653
1178.00 0.6651
1178.10 0.665
1178.20 0.6649
1178.30 0.6648
1178.40 0.6647
1178.50 0.6645
1178.60 0.6644
1178.70 0.6643
1178.80 0.6642
1178.90 0.6641
1179.00 0.6639
1179.10 0.6638
1179.20 0.6637
1179.30 0.6636
1179.40 0.6635
1179.50 0.6633
1179.60 0.6632
1179.70 0.6631
1179.80 0.663
1179.90 0.6628
1180.00 0.6627
1180.10 0.6626
1180.20 0.6625
1180.30 0.6624
1180.40 0.6622
1180.50 0.6621
1180.60 0.662
1180.70 0.6619
1180.80 0.6618
1180.90 0.6616
1181.00 0.6615
1181.10 0.6614
1181.20 0.6613
1181.30 0.6612
1181.40 0.661
1181.50 0.6609
1181.60 0.6608
1181.70 0.6607
1181.80 0.6606
1181.90 0.6604
1182.00 0.6603
1182.10 0.6602
1182.20 0.6601
1182.30 0.66
1182.40 0.6598
1182.50 0.6597
1182.60 0.6596
1182.70 0.6595
1182.80 0.6593
1182.90 0.6592
1183.00 0.6591
1183.10 0.659
1183.20 0.6589
1183.30 0.6587
1183.40 0.6586
1183.50 0.6585
1183.60 0.6584
1183.70 0.6582
1183.80 0.6581
1183.90 0.658
1184.00 0.6579
1184.10 0.6578
1184.20 0.6576
1184.30 0.6575
1184.40 0.6574
1184.50 0.6573
1184.60 0.6572
1184.70 0.657
1184.80 0.6569
1184.90 0.6568
1185.00 0.6567
1185.10 0.6566
1185.20 0.6564
1185.30 0.6563
1185.40 0.6562
1185.50 0.6561
1185.60 0.6559
1185.70 0.6558
1185.80 0.6557
1185.90 0.6556
1186.00 0.6555
1186.10 0.6553
1186.20 0.6552
1186.30 0.6551
1186.40 0.655
1186.50 0.6549
1186.60 0.6547
1186.70 0.6546
1186.80 0.6545
1186.90 0.6544
1187.00 0.6543
1187.10 0.6541
1187.20 0.654
1187.30 0.6539
1187.40 0.6538
1187.50 0.6536
1187.60 0.6535
1187.70 0.6534
1187.80 0.6533
1187.90 0.6532
1188.00 0.653
1188.10 0.6529
1188.20 0.6528
1188.30 0.6527
1188.40 0.6526
1188.50 0.6524
1188.60 0.6523
1188.70 0.6522
1188.80 0.6521
1188.90 0.6519
1189.00 0.6518
1189.10 0.6517
1189.20 0.6516
1189.30 0.6515
1189.40 0.6513
1189.50 0.6512
1189.60 0.6511
1189.70 0.651
1189.80 0.6509
1189.90 0.6507
1190.00 0.6506
1190.10 0.6505
1190.20 0.6504
1190.30 0.6502
1190.40 0.6501
1190.50 0.65
1190.60 0.6499
1190.70 0.6498
1190.80 0.6496
1190.90 0.6495
1191.00 0.6494
1191.10 0.6493
1191.20 0.6492
1191.30 0.649
1191.40 0.6489
1191.50 0.6488
1191.60 0.6487
1191.70 0.6486
1191.80 0.6484
1191.90 0.6483
1192.00 0.6482
1192.10 0.6481
1192.20 0.6479
1192.30 0.6478
1192.40 0.6477
1192.50 0.6476
1192.60 0.6475
1192.70 0.6473
1192.80 0.6472
1192.90 0.6471
1193.00 0.647
1193.10 0.6468
1193.20 0.6467
1193.30 0.6466
1193.40 0.6465
1193.50 0.6464
1193.60 0.6462
1193.70 0.6461
1193.80 0.646
1193.90 0.6459
1194.00 0.6458
1194.10 0.6456
1194.20 0.6455
1194.30 0.6454
1194.40 0.6453
1194.50 0.6451
1194.60 0.645
1194.70 0.6449
1194.80 0.6448
1194.90 0.6447
1195.00 0.6445
1195.10 0.6444
1195.20 0.6443
1195.30 0.6442
1195.40 0.6441
1195.50 0.6439
1195.60 0.6438
1195.70 0.6437
1195.80 0.6436
1195.90 0.6434
1196.00 0.6433
1196.10 0.6432
1196.20 0.6431
1196.30 0.643
1196.40 0.6428
1196.50 0.6427
1196.60 0.6426
1196.70 0.6425
1196.80 0.6424
1196.90 0.6422
1197.00 0.6421
1197.10 0.642
1197.20 0.6419
1197.30 0.6418
1197.40 0.6416
1197.50 0.6415
1197.60 0.6414
1197.70 0.6413
1197.80 0.6411
1197.90 0.641
1198.00 0.6409
1198.10 0.6408
1198.20 0.6407
1198.30 0.6405
1198.40 0.6404
1198.50 0.6403
1198.60 0.6402
1198.70 0.64
1198.80 0.6399
1198.90 0.6398
1199.00 0.6397
1199.10 0.6396
1199.20 0.6394
1199.30 0.6393
1199.40 0.6392
1199.50 0.6391
1199.60 0.639
1199.70 0.6388
1199.80 0.6387
1199.90 0.6386
1200.00 0
