# Version 2.1 - nm, norm@500 to 1, cut digits, bergeron_70000_85.dat_70000
# Wavelength(nm)  Flambda(ergs/cm^s/s/nm)
300.00 6.564
300.10 6.556
300.20 6.547
300.30 6.539
300.40 6.531
300.50 6.523
300.60 6.515
300.70 6.507
300.80 6.499
300.90 6.491
301.00 6.483
301.10 6.475
301.20 6.467
301.30 6.459
301.40 6.451
301.50 6.443
301.60 6.436
301.70 6.428
301.80 6.42
301.90 6.412
302.00 6.404
302.10 6.396
302.20 6.388
302.30 6.38
302.40 6.373
302.50 6.365
302.60 6.357
302.70 6.349
302.80 6.342
302.90 6.334
303.00 6.326
303.10 6.318
303.20 6.311
303.30 6.303
303.40 6.295
303.50 6.287
303.60 6.28
303.70 6.272
303.80 6.265
303.90 6.257
304.00 6.249
304.10 6.242
304.20 6.234
304.30 6.226
304.40 6.219
304.50 6.211
304.60 6.204
304.70 6.196
304.80 6.189
304.90 6.181
305.00 6.174
305.10 6.166
305.20 6.159
305.30 6.151
305.40 6.144
305.50 6.136
305.60 6.129
305.70 6.121
305.80 6.114
305.90 6.107
306.00 6.099
306.10 6.092
306.20 6.084
306.30 6.077
306.40 6.07
306.50 6.062
306.60 6.055
306.70 6.048
306.80 6.04
306.90 6.033
307.00 6.026
307.10 6.019
307.20 6.011
307.30 6.004
307.40 5.997
307.50 5.99
307.60 5.982
307.70 5.975
307.80 5.968
307.90 5.961
308.00 5.954
308.10 5.946
308.20 5.939
308.30 5.932
308.40 5.925
308.50 5.918
308.60 5.911
308.70 5.904
308.80 5.897
308.90 5.889
309.00 5.882
309.10 5.875
309.20 5.868
309.30 5.861
309.40 5.854
309.50 5.847
309.60 5.84
309.70 5.833
309.80 5.826
309.90 5.819
310.00 5.812
310.10 5.805
310.20 5.798
310.30 5.791
310.40 5.785
310.50 5.778
310.60 5.771
310.70 5.764
310.80 5.757
310.90 5.75
311.00 5.743
311.10 5.736
311.20 5.73
311.30 5.723
311.40 5.716
311.50 5.709
311.60 5.702
311.70 5.695
311.80 5.689
311.90 5.682
312.00 5.675
312.10 5.668
312.20 5.662
312.30 5.655
312.40 5.648
312.50 5.642
312.60 5.635
312.70 5.628
312.80 5.621
312.90 5.615
313.00 5.608
313.10 5.601
313.20 5.595
313.30 5.588
313.40 5.582
313.50 5.575
313.60 5.568
313.70 5.562
313.80 5.555
313.90 5.549
314.00 5.542
314.10 5.536
314.20 5.529
314.30 5.522
314.40 5.516
314.50 5.509
314.60 5.503
314.70 5.496
314.80 5.49
314.90 5.483
315.00 5.477
315.10 5.471
315.20 5.464
315.30 5.458
315.40 5.451
315.50 5.445
315.60 5.438
315.70 5.432
315.80 5.426
315.90 5.419
316.00 5.413
316.10 5.407
316.20 5.4
316.30 5.394
316.40 5.387
316.50 5.381
316.60 5.375
316.70 5.369
316.80 5.362
316.90 5.356
317.00 5.35
317.10 5.343
317.20 5.337
317.30 5.331
317.40 5.325
317.50 5.319
317.60 5.312
317.70 5.306
317.80 5.3
317.90 5.294
318.00 5.287
318.10 5.281
318.20 5.275
318.30 5.269
318.40 5.263
318.50 5.257
318.60 5.251
318.70 5.244
318.80 5.238
318.90 5.232
319.00 5.226
319.10 5.22
319.20 5.214
319.30 5.208
319.40 5.202
319.50 5.196
319.60 5.19
319.70 5.184
319.80 5.178
319.90 5.172
320.00 5.166
320.10 5.16
320.20 5.154
320.30 5.148
320.40 5.142
320.50 5.136
320.60 5.13
320.70 5.124
320.80 5.118
320.90 5.112
321.00 5.106
321.10 5.1
321.20 5.094
321.30 5.088
321.40 5.083
321.50 5.077
321.60 5.071
321.70 5.065
321.80 5.059
321.90 5.053
322.00 5.047
322.10 5.042
322.20 5.036
322.30 5.03
322.40 5.024
322.50 5.018
322.60 5.013
322.70 5.007
322.80 5.001
322.90 4.995
323.00 4.99
323.10 4.984
323.20 4.978
323.30 4.972
323.40 4.967
323.50 4.961
323.60 4.955
323.70 4.949
323.80 4.944
323.90 4.938
324.00 4.932
324.10 4.927
324.20 4.921
324.30 4.916
324.40 4.91
324.50 4.904
324.60 4.899
324.70 4.893
324.80 4.887
324.90 4.882
325.00 4.876
325.10 4.871
325.20 4.865
325.30 4.86
325.40 4.854
325.50 4.848
325.60 4.843
325.70 4.837
325.80 4.832
325.90 4.826
326.00 4.821
326.10 4.815
326.20 4.81
326.30 4.804
326.40 4.799
326.50 4.793
326.60 4.788
326.70 4.782
326.80 4.777
326.90 4.772
327.00 4.766
327.10 4.761
327.20 4.755
327.30 4.75
327.40 4.745
327.50 4.739
327.60 4.734
327.70 4.728
327.80 4.723
327.90 4.718
328.00 4.712
328.10 4.707
328.20 4.702
328.30 4.696
328.40 4.691
328.50 4.686
328.60 4.68
328.70 4.675
328.80 4.67
328.90 4.664
329.00 4.659
329.10 4.654
329.20 4.649
329.30 4.643
329.40 4.638
329.50 4.633
329.60 4.628
329.70 4.622
329.80 4.617
329.90 4.612
330.00 4.607
330.10 4.602
330.20 4.596
330.30 4.591
330.40 4.586
330.50 4.581
330.60 4.576
330.70 4.571
330.80 4.566
330.90 4.56
331.00 4.555
331.10 4.55
331.20 4.545
331.30 4.54
331.40 4.535
331.50 4.53
331.60 4.525
331.70 4.52
331.80 4.514
331.90 4.509
332.00 4.504
332.10 4.499
332.20 4.494
332.30 4.489
332.40 4.484
332.50 4.479
332.60 4.474
332.70 4.469
332.80 4.464
332.90 4.459
333.00 4.454
333.10 4.449
333.20 4.444
333.30 4.439
333.40 4.434
333.50 4.429
333.60 4.424
333.70 4.419
333.80 4.414
333.90 4.41
334.00 4.405
334.10 4.4
334.20 4.395
334.30 4.39
334.40 4.385
334.50 4.38
334.60 4.375
334.70 4.37
334.80 4.366
334.90 4.361
335.00 4.356
335.10 4.351
335.20 4.346
335.30 4.341
335.40 4.337
335.50 4.332
335.60 4.327
335.70 4.322
335.80 4.317
335.90 4.312
336.00 4.308
336.10 4.303
336.20 4.298
336.30 4.293
336.40 4.289
336.50 4.284
336.60 4.279
336.70 4.274
336.80 4.27
336.90 4.265
337.00 4.26
337.10 4.256
337.20 4.251
337.30 4.246
337.40 4.242
337.50 4.237
337.60 4.232
337.70 4.227
337.80 4.223
337.90 4.218
338.00 4.213
338.10 4.209
338.20 4.204
338.30 4.2
338.40 4.195
338.50 4.19
338.60 4.186
338.70 4.181
338.80 4.177
338.90 4.172
339.00 4.167
339.10 4.163
339.20 4.158
339.30 4.154
339.40 4.149
339.50 4.144
339.60 4.14
339.70 4.135
339.80 4.131
339.90 4.126
340.00 4.122
340.10 4.117
340.20 4.113
340.30 4.108
340.40 4.104
340.50 4.099
340.60 4.095
340.70 4.09
340.80 4.086
340.90 4.081
341.00 4.077
341.10 4.072
341.20 4.068
341.30 4.064
341.40 4.059
341.50 4.055
341.60 4.05
341.70 4.046
341.80 4.041
341.90 4.037
342.00 4.033
342.10 4.028
342.20 4.024
342.30 4.019
342.40 4.015
342.50 4.011
342.60 4.006
342.70 4.002
342.80 3.998
342.90 3.993
343.00 3.989
343.10 3.985
343.20 3.98
343.30 3.976
343.40 3.972
343.50 3.967
343.60 3.963
343.70 3.959
343.80 3.954
343.90 3.95
344.00 3.946
344.10 3.941
344.20 3.937
344.30 3.933
344.40 3.929
344.50 3.924
344.60 3.92
344.70 3.916
344.80 3.912
344.90 3.908
345.00 3.903
345.10 3.899
345.20 3.895
345.30 3.891
345.40 3.886
345.50 3.882
345.60 3.878
345.70 3.874
345.80 3.87
345.90 3.865
346.00 3.861
346.10 3.857
346.20 3.853
346.30 3.849
346.40 3.845
346.50 3.841
346.60 3.836
346.70 3.832
346.80 3.828
346.90 3.824
347.00 3.82
347.10 3.816
347.20 3.812
347.30 3.808
347.40 3.804
347.50 3.799
347.60 3.795
347.70 3.791
347.80 3.787
347.90 3.783
348.00 3.779
348.10 3.775
348.20 3.771
348.30 3.767
348.40 3.763
348.50 3.759
348.60 3.755
348.70 3.751
348.80 3.747
348.90 3.743
349.00 3.739
349.10 3.735
349.20 3.731
349.30 3.727
349.40 3.723
349.50 3.719
349.60 3.715
349.70 3.711
349.80 3.707
349.90 3.703
350.00 3.699
350.10 3.695
350.20 3.691
350.30 3.687
350.40 3.683
350.50 3.679
350.60 3.676
350.70 3.672
350.80 3.668
350.90 3.664
351.00 3.66
351.10 3.656
351.20 3.652
351.30 3.648
351.40 3.644
351.50 3.64
351.60 3.637
351.70 3.633
351.80 3.629
351.90 3.625
352.00 3.621
352.10 3.617
352.20 3.613
352.30 3.61
352.40 3.606
352.50 3.602
352.60 3.598
352.70 3.594
352.80 3.591
352.90 3.587
353.00 3.583
353.10 3.579
353.20 3.575
353.30 3.572
353.40 3.568
353.50 3.564
353.60 3.56
353.70 3.557
353.80 3.553
353.90 3.549
354.00 3.545
354.10 3.542
354.20 3.538
354.30 3.534
354.40 3.53
354.50 3.527
354.60 3.523
354.70 3.519
354.80 3.516
354.90 3.512
355.00 3.508
355.10 3.504
355.20 3.501
355.30 3.497
355.40 3.493
355.50 3.49
355.60 3.486
355.70 3.482
355.80 3.479
355.90 3.475
356.00 3.471
356.10 3.468
356.20 3.464
356.30 3.46
356.40 3.457
356.50 3.453
356.60 3.45
356.70 3.446
356.80 3.442
356.90 3.439
357.00 3.435
357.10 3.432
357.20 3.428
357.30 3.424
357.40 3.421
357.50 3.417
357.60 3.414
357.70 3.41
357.80 3.407
357.90 3.403
358.00 3.399
358.10 3.396
358.20 3.392
358.30 3.389
358.40 3.385
358.50 3.382
358.60 3.378
358.70 3.375
358.80 3.371
358.90 3.368
359.00 3.364
359.10 3.361
359.20 3.357
359.30 3.354
359.40 3.35
359.50 3.347
359.60 3.343
359.70 3.34
359.80 3.336
359.90 3.333
360.00 3.329
360.10 3.326
360.20 3.322
360.30 3.319
360.40 3.316
360.50 3.312
360.60 3.309
360.70 3.305
360.80 3.302
360.90 3.298
361.00 3.295
361.10 3.292
361.20 3.288
361.30 3.285
361.40 3.281
361.50 3.278
361.60 3.275
361.70 3.271
361.80 3.268
361.90 3.264
362.00 3.261
362.10 3.258
362.20 3.254
362.30 3.251
362.40 3.248
362.50 3.244
362.60 3.241
362.70 3.238
362.80 3.234
362.90 3.231
363.00 3.228
363.10 3.224
363.20 3.221
363.30 3.218
363.40 3.214
363.50 3.211
363.60 3.208
363.70 3.204
363.80 3.201
363.90 3.198
364.00 3.194
364.10 3.191
364.20 3.188
364.30 3.185
364.40 3.181
364.50 3.178
364.60 3.175
364.70 3.172
364.80 3.168
364.90 3.165
365.00 3.162
365.10 3.159
365.20 3.155
365.30 3.152
365.40 3.149
365.50 3.146
365.60 3.142
365.70 3.139
365.80 3.136
365.90 3.133
366.00 3.13
366.10 3.126
366.20 3.123
366.30 3.12
366.40 3.117
366.50 3.113
366.60 3.11
366.70 3.107
366.80 3.104
366.90 3.101
367.00 3.097
367.10 3.094
367.20 3.091
367.30 3.088
367.40 3.085
367.50 3.081
367.60 3.078
367.70 3.075
367.80 3.072
367.90 3.069
368.00 3.065
368.10 3.062
368.20 3.059
368.30 3.056
368.40 3.053
368.50 3.049
368.60 3.046
368.70 3.043
368.80 3.04
368.90 3.037
369.00 3.034
369.10 3.03
369.20 3.027
369.30 3.024
369.40 3.021
369.50 3.018
369.60 3.015
369.70 3.011
369.80 3.008
369.90 3.005
370.00 3.002
370.10 2.999
370.20 2.996
370.30 2.993
370.40 2.99
370.50 2.986
370.60 2.983
370.70 2.98
370.80 2.977
370.90 2.974
371.00 2.971
371.10 2.968
371.20 2.965
371.30 2.962
371.40 2.959
371.50 2.956
371.60 2.953
371.70 2.95
371.80 2.946
371.90 2.943
372.00 2.94
372.10 2.937
372.20 2.934
372.30 2.931
372.40 2.929
372.50 2.926
372.60 2.923
372.70 2.92
372.80 2.917
372.90 2.914
373.00 2.911
373.10 2.908
373.20 2.905
373.30 2.902
373.40 2.899
373.50 2.896
373.60 2.893
373.70 2.89
373.80 2.887
373.90 2.884
374.00 2.882
374.10 2.879
374.20 2.876
374.30 2.873
374.40 2.87
374.50 2.867
374.60 2.864
374.70 2.861
374.80 2.858
374.90 2.855
375.00 2.852
375.10 2.849
375.20 2.846
375.30 2.843
375.40 2.841
375.50 2.838
375.60 2.835
375.70 2.832
375.80 2.829
375.90 2.826
376.00 2.823
376.10 2.82
376.20 2.817
376.30 2.815
376.40 2.812
376.50 2.809
376.60 2.806
376.70 2.803
376.80 2.8
376.90 2.797
377.00 2.795
377.10 2.792
377.20 2.789
377.30 2.786
377.40 2.783
377.50 2.781
377.60 2.778
377.70 2.775
377.80 2.772
377.90 2.77
378.00 2.767
378.10 2.764
378.20 2.761
378.30 2.759
378.40 2.756
378.50 2.753
378.60 2.75
378.70 2.748
378.80 2.745
378.90 2.742
379.00 2.74
379.10 2.737
379.20 2.734
379.30 2.732
379.40 2.729
379.50 2.726
379.60 2.723
379.70 2.721
379.80 2.718
379.90 2.715
380.00 2.713
380.10 2.71
380.20 2.708
380.30 2.705
380.40 2.702
380.50 2.7
380.60 2.697
380.70 2.695
380.80 2.692
380.90 2.689
381.00 2.687
381.10 2.684
381.20 2.682
381.30 2.679
381.40 2.676
381.50 2.674
381.60 2.671
381.70 2.669
381.80 2.666
381.90 2.664
382.00 2.661
382.10 2.658
382.20 2.656
382.30 2.653
382.40 2.651
382.50 2.648
382.60 2.646
382.70 2.643
382.80 2.641
382.90 2.638
383.00 2.636
383.10 2.633
383.20 2.631
383.30 2.628
383.40 2.626
383.50 2.623
383.60 2.621
383.70 2.618
383.80 2.616
383.90 2.614
384.00 2.611
384.10 2.609
384.20 2.606
384.30 2.604
384.40 2.602
384.50 2.599
384.60 2.597
384.70 2.595
384.80 2.592
384.90 2.59
385.00 2.588
385.10 2.585
385.20 2.583
385.30 2.581
385.40 2.578
385.50 2.576
385.60 2.573
385.70 2.571
385.80 2.569
385.90 2.566
386.00 2.564
386.10 2.561
386.20 2.559
386.30 2.556
386.40 2.554
386.50 2.552
386.60 2.549
386.70 2.547
386.80 2.544
386.90 2.542
387.00 2.539
387.10 2.536
387.20 2.534
387.30 2.531
387.40 2.529
387.50 2.526
387.60 2.524
387.70 2.521
387.80 2.519
387.90 2.516
388.00 2.514
388.10 2.511
388.20 2.509
388.30 2.506
388.40 2.504
388.50 2.501
388.60 2.499
388.70 2.497
388.80 2.495
388.90 2.492
389.00 2.49
389.10 2.488
389.20 2.486
389.30 2.484
389.40 2.482
389.50 2.48
389.60 2.478
389.70 2.476
389.80 2.475
389.90 2.473
390.00 2.471
390.10 2.469
390.20 2.467
390.30 2.465
390.40 2.463
390.50 2.462
390.60 2.46
390.70 2.458
390.80 2.456
390.90 2.454
391.00 2.452
391.10 2.45
391.20 2.448
391.30 2.446
391.40 2.444
391.50 2.442
391.60 2.44
391.70 2.438
391.80 2.435
391.90 2.433
392.00 2.431
392.10 2.429
392.20 2.427
392.30 2.424
392.40 2.422
392.50 2.42
392.60 2.417
392.70 2.415
392.80 2.412
392.90 2.41
393.00 2.407
393.10 2.405
393.20 2.402
393.30 2.4
393.40 2.397
393.50 2.394
393.60 2.391
393.70 2.389
393.80 2.386
393.90 2.383
394.00 2.38
394.10 2.377
394.20 2.374
394.30 2.371
394.40 2.369
394.50 2.365
394.60 2.362
394.70 2.359
394.80 2.356
394.90 2.353
395.00 2.35
395.10 2.347
395.20 2.344
395.30 2.34
395.40 2.337
395.50 2.334
395.60 2.33
395.70 2.327
395.80 2.324
395.90 2.32
396.00 2.317
396.10 2.314
396.20 2.31
396.30 2.307
396.40 2.304
396.50 2.301
396.60 2.298
396.70 2.294
396.80 2.292
396.90 2.289
397.00 2.286
397.10 2.285
397.20 2.284
397.30 2.283
397.40 2.282
397.50 2.281
397.60 2.281
397.70 2.28
397.80 2.279
397.90 2.279
398.00 2.278
398.10 2.278
398.20 2.277
398.30 2.277
398.40 2.276
398.50 2.276
398.60 2.275
398.70 2.274
398.80 2.274
398.90 2.273
399.00 2.272
399.10 2.272
399.20 2.271
399.30 2.27
399.40 2.269
399.50 2.268
399.60 2.268
399.70 2.267
399.80 2.266
399.90 2.265
400.00 2.264
400.10 2.263
400.20 2.262
400.30 2.261
400.40 2.259
400.50 2.258
400.60 2.257
400.70 2.256
400.80 2.254
400.90 2.253
401.00 2.252
401.10 2.25
401.20 2.249
401.30 2.247
401.40 2.246
401.50 2.244
401.60 2.243
401.70 2.241
401.80 2.24
401.90 2.238
402.00 2.236
402.10 2.234
402.20 2.233
402.30 2.231
402.40 2.229
402.50 2.227
402.60 2.225
402.70 2.223
402.80 2.221
402.90 2.219
403.00 2.217
403.10 2.215
403.20 2.213
403.30 2.211
403.40 2.208
403.50 2.206
403.60 2.204
403.70 2.201
403.80 2.199
403.90 2.197
404.00 2.194
404.10 2.192
404.20 2.189
404.30 2.187
404.40 2.184
404.50 2.181
404.60 2.179
404.70 2.176
404.80 2.173
404.90 2.17
405.00 2.167
405.10 2.164
405.20 2.161
405.30 2.158
405.40 2.155
405.50 2.152
405.60 2.149
405.70 2.146
405.80 2.143
405.90 2.139
406.00 2.136
406.10 2.132
406.20 2.129
406.30 2.125
406.40 2.122
406.50 2.118
406.60 2.114
406.70 2.111
406.80 2.107
406.90 2.103
407.00 2.099
407.10 2.095
407.20 2.091
407.30 2.086
407.40 2.082
407.50 2.078
407.60 2.074
407.70 2.069
407.80 2.065
407.90 2.06
408.00 2.055
408.10 2.051
408.20 2.046
408.30 2.041
408.40 2.036
408.50 2.031
408.60 2.026
408.70 2.021
408.80 2.016
408.90 2.011
409.00 2.006
409.10 2.001
409.20 1.996
409.30 1.992
409.40 1.987
409.50 1.982
409.60 1.978
409.70 1.974
409.80 1.971
409.90 1.969
410.00 1.968
410.10 1.967
410.20 1.967
410.30 1.963
410.40 1.961
410.50 1.959
410.60 1.958
410.70 1.959
410.80 1.959
410.90 1.96
411.00 1.961
411.10 1.963
411.20 1.964
411.30 1.966
411.40 1.967
411.50 1.969
411.60 1.97
411.70 1.972
411.80 1.973
411.90 1.974
412.00 1.976
412.10 1.977
412.20 1.978
412.30 1.98
412.40 1.981
412.50 1.982
412.60 1.983
412.70 1.984
412.80 1.984
412.90 1.985
413.00 1.986
413.10 1.986
413.20 1.987
413.30 1.987
413.40 1.988
413.50 1.988
413.60 1.989
413.70 1.989
413.80 1.989
413.90 1.989
414.00 1.989
414.10 1.989
414.20 1.989
414.30 1.989
414.40 1.989
414.50 1.989
414.60 1.989
414.70 1.988
414.80 1.988
414.90 1.987
415.00 1.987
415.10 1.987
415.20 1.986
415.30 1.986
415.40 1.985
415.50 1.984
415.60 1.984
415.70 1.983
415.80 1.982
415.90 1.981
416.00 1.981
416.10 1.98
416.20 1.979
416.30 1.978
416.40 1.977
416.50 1.976
416.60 1.975
416.70 1.974
416.80 1.973
416.90 1.972
417.00 1.971
417.10 1.97
417.20 1.969
417.30 1.968
417.40 1.966
417.50 1.965
417.60 1.964
417.70 1.963
417.80 1.962
417.90 1.96
418.00 1.959
418.10 1.958
418.20 1.956
418.30 1.955
418.40 1.954
418.50 1.952
418.60 1.951
418.70 1.95
418.80 1.948
418.90 1.947
419.00 1.945
419.10 1.944
419.20 1.942
419.30 1.941
419.40 1.94
419.50 1.938
419.60 1.937
419.70 1.935
419.80 1.934
419.90 1.932
420.00 1.93
420.10 1.929
420.20 1.927
420.30 1.926
420.40 1.924
420.50 1.923
420.60 1.921
420.70 1.919
420.80 1.918
420.90 1.916
421.00 1.915
421.10 1.913
421.20 1.911
421.30 1.91
421.40 1.908
421.50 1.906
421.60 1.905
421.70 1.903
421.80 1.901
421.90 1.9
422.00 1.898
422.10 1.896
422.20 1.894
422.30 1.893
422.40 1.891
422.50 1.889
422.60 1.887
422.70 1.886
422.80 1.884
422.90 1.882
423.00 1.88
423.10 1.879
423.20 1.877
423.30 1.875
423.40 1.873
423.50 1.871
423.60 1.869
423.70 1.868
423.80 1.866
423.90 1.864
424.00 1.862
424.10 1.86
424.20 1.858
424.30 1.856
424.40 1.854
424.50 1.852
424.60 1.85
424.70 1.848
424.80 1.846
424.90 1.845
425.00 1.843
425.10 1.84
425.20 1.838
425.30 1.836
425.40 1.834
425.50 1.832
425.60 1.83
425.70 1.828
425.80 1.826
425.90 1.824
426.00 1.822
426.10 1.82
426.20 1.817
426.30 1.815
426.40 1.813
426.50 1.811
426.60 1.809
426.70 1.806
426.80 1.804
426.90 1.802
427.00 1.799
427.10 1.797
427.20 1.794
427.30 1.792
427.40 1.79
427.50 1.787
427.60 1.785
427.70 1.782
427.80 1.779
427.90 1.777
428.00 1.774
428.10 1.771
428.20 1.769
428.30 1.766
428.40 1.763
428.50 1.76
428.60 1.757
428.70 1.754
428.80 1.751
428.90 1.748
429.00 1.745
429.10 1.742
429.20 1.739
429.30 1.736
429.40 1.733
429.50 1.729
429.60 1.726
429.70 1.722
429.80 1.719
429.90 1.715
430.00 1.712
430.10 1.708
430.20 1.704
430.30 1.7
430.40 1.696
430.50 1.692
430.60 1.688
430.70 1.684
430.80 1.679
430.90 1.675
431.00 1.671
431.10 1.666
431.20 1.662
431.30 1.657
431.40 1.652
431.50 1.647
431.60 1.642
431.70 1.637
431.80 1.632
431.90 1.627
432.00 1.621
432.10 1.616
432.20 1.61
432.30 1.605
432.40 1.599
432.50 1.593
432.60 1.587
432.70 1.582
432.80 1.576
432.90 1.57
433.00 1.564
433.10 1.558
433.20 1.552
433.30 1.547
433.40 1.541
433.50 1.535
433.60 1.53
433.70 1.524
433.80 1.517
433.90 1.511
434.00 1.505
434.10 1.504
434.20 1.507
434.30 1.512
434.40 1.515
434.50 1.519
434.60 1.522
434.70 1.525
434.80 1.528
434.90 1.531
435.00 1.534
435.10 1.538
435.20 1.541
435.30 1.544
435.40 1.547
435.50 1.55
435.60 1.553
435.70 1.556
435.80 1.559
435.90 1.562
436.00 1.565
436.10 1.567
436.20 1.57
436.30 1.572
436.40 1.575
436.50 1.577
436.60 1.579
436.70 1.581
436.80 1.583
436.90 1.585
437.00 1.586
437.10 1.588
437.20 1.59
437.30 1.591
437.40 1.592
437.50 1.594
437.60 1.595
437.70 1.596
437.80 1.597
437.90 1.598
438.00 1.599
438.10 1.599
438.20 1.6
438.30 1.601
438.40 1.601
438.50 1.602
438.60 1.602
438.70 1.602
438.80 1.603
438.90 1.603
439.00 1.603
439.10 1.603
439.20 1.603
439.30 1.603
439.40 1.603
439.50 1.603
439.60 1.603
439.70 1.603
439.80 1.602
439.90 1.602
440.00 1.602
440.10 1.602
440.20 1.601
440.30 1.601
440.40 1.6
440.50 1.6
440.60 1.599
440.70 1.599
440.80 1.598
440.90 1.598
441.00 1.597
441.10 1.596
441.20 1.596
441.30 1.595
441.40 1.594
441.50 1.594
441.60 1.593
441.70 1.592
441.80 1.591
441.90 1.59
442.00 1.59
442.10 1.589
442.20 1.588
442.30 1.587
442.40 1.586
442.50 1.585
442.60 1.584
442.70 1.583
442.80 1.582
442.90 1.581
443.00 1.58
443.10 1.579
443.20 1.578
443.30 1.577
443.40 1.576
443.50 1.575
443.60 1.574
443.70 1.573
443.80 1.572
443.90 1.571
444.00 1.57
444.10 1.569
444.20 1.568
444.30 1.567
444.40 1.566
444.50 1.565
444.60 1.564
444.70 1.562
444.80 1.561
444.90 1.56
445.00 1.559
445.10 1.558
445.20 1.557
445.30 1.556
445.40 1.554
445.50 1.553
445.60 1.552
445.70 1.551
445.80 1.55
445.90 1.549
446.00 1.548
446.10 1.546
446.20 1.545
446.30 1.544
446.40 1.543
446.50 1.542
446.60 1.54
446.70 1.539
446.80 1.538
446.90 1.537
447.00 1.536
447.10 1.534
447.20 1.533
447.30 1.532
447.40 1.531
447.50 1.53
447.60 1.528
447.70 1.527
447.80 1.526
447.90 1.525
448.00 1.524
448.10 1.522
448.20 1.521
448.30 1.52
448.40 1.519
448.50 1.518
448.60 1.516
448.70 1.515
448.80 1.514
448.90 1.513
449.00 1.511
449.10 1.51
449.20 1.509
449.30 1.508
449.40 1.507
449.50 1.505
449.60 1.504
449.70 1.503
449.80 1.502
449.90 1.5
450.00 1.499
450.10 1.498
450.20 1.497
450.30 1.496
450.40 1.494
450.50 1.493
450.60 1.492
450.70 1.491
450.80 1.489
450.90 1.488
451.00 1.487
451.10 1.486
451.20 1.485
451.30 1.483
451.40 1.482
451.50 1.481
451.60 1.48
451.70 1.478
451.80 1.477
451.90 1.476
452.00 1.475
452.10 1.474
452.20 1.472
452.30 1.471
452.40 1.47
452.50 1.469
452.60 1.468
452.70 1.466
452.80 1.465
452.90 1.464
453.00 1.463
453.10 1.461
453.20 1.46
453.30 1.459
453.40 1.458
453.50 1.457
453.60 1.455
453.70 1.454
453.80 1.453
453.90 1.452
454.00 1.451
454.10 1.449
454.20 1.448
454.30 1.447
454.40 1.446
454.50 1.445
454.60 1.443
454.70 1.442
454.80 1.441
454.90 1.44
455.00 1.439
455.10 1.437
455.20 1.436
455.30 1.435
455.40 1.434
455.50 1.433
455.60 1.431
455.70 1.43
455.80 1.429
455.90 1.428
456.00 1.427
456.10 1.425
456.20 1.424
456.30 1.423
456.40 1.422
456.50 1.421
456.60 1.419
456.70 1.418
456.80 1.417
456.90 1.416
457.00 1.415
457.10 1.414
457.20 1.412
457.30 1.411
457.40 1.41
457.50 1.409
457.60 1.408
457.70 1.407
457.80 1.405
457.90 1.404
458.00 1.403
458.10 1.402
458.20 1.401
458.30 1.4
458.40 1.398
458.50 1.397
458.60 1.396
458.70 1.395
458.80 1.394
458.90 1.393
459.00 1.391
459.10 1.39
459.20 1.389
459.30 1.388
459.40 1.387
459.50 1.386
459.60 1.384
459.70 1.383
459.80 1.382
459.90 1.381
460.00 1.38
460.10 1.379
460.20 1.377
460.30 1.376
460.40 1.375
460.50 1.374
460.60 1.373
460.70 1.372
460.80 1.371
460.90 1.369
461.00 1.368
461.10 1.367
461.20 1.366
461.30 1.365
461.40 1.364
461.50 1.363
461.60 1.361
461.70 1.36
461.80 1.359
461.90 1.358
462.00 1.357
462.10 1.356
462.20 1.355
462.30 1.353
462.40 1.352
462.50 1.351
462.60 1.35
462.70 1.349
462.80 1.348
462.90 1.347
463.00 1.346
463.10 1.344
463.20 1.343
463.30 1.342
463.40 1.341
463.50 1.34
463.60 1.339
463.70 1.338
463.80 1.337
463.90 1.335
464.00 1.334
464.10 1.333
464.20 1.332
464.30 1.331
464.40 1.33
464.50 1.329
464.60 1.328
464.70 1.326
464.80 1.325
464.90 1.324
465.00 1.323
465.10 1.322
465.20 1.321
465.30 1.32
465.40 1.319
465.50 1.318
465.60 1.316
465.70 1.315
465.80 1.314
465.90 1.313
466.00 1.312
466.10 1.311
466.20 1.31
466.30 1.309
466.40 1.308
466.50 1.307
466.60 1.305
466.70 1.304
466.80 1.303
466.90 1.302
467.00 1.301
467.10 1.3
467.20 1.299
467.30 1.298
467.40 1.297
467.50 1.296
467.60 1.294
467.70 1.293
467.80 1.292
467.90 1.291
468.00 1.29
468.10 1.289
468.20 1.288
468.30 1.287
468.40 1.286
468.50 1.285
468.60 1.284
468.70 1.282
468.80 1.281
468.90 1.28
469.00 1.279
469.10 1.278
469.20 1.277
469.30 1.276
469.40 1.275
469.50 1.274
469.60 1.273
469.70 1.271
469.80 1.27
469.90 1.269
470.00 1.268
470.10 1.267
470.20 1.266
470.30 1.265
470.40 1.264
470.50 1.263
470.60 1.262
470.70 1.261
470.80 1.259
470.90 1.258
471.00 1.257
471.10 1.256
471.20 1.255
471.30 1.254
471.40 1.253
471.50 1.252
471.60 1.251
471.70 1.25
471.80 1.249
471.90 1.247
472.00 1.246
472.10 1.245
472.20 1.244
472.30 1.243
472.40 1.242
472.50 1.241
472.60 1.24
472.70 1.239
472.80 1.238
472.90 1.236
473.00 1.235
473.10 1.234
473.20 1.233
473.30 1.232
473.40 1.231
473.50 1.23
473.60 1.229
473.70 1.227
473.80 1.226
473.90 1.225
474.00 1.224
474.10 1.223
474.20 1.222
474.30 1.221
474.40 1.22
474.50 1.218
474.60 1.217
474.70 1.216
474.80 1.215
474.90 1.214
475.00 1.213
475.10 1.212
475.20 1.21
475.30 1.209
475.40 1.208
475.50 1.207
475.60 1.206
475.70 1.205
475.80 1.203
475.90 1.202
476.00 1.201
476.10 1.2
476.20 1.199
476.30 1.197
476.40 1.196
476.50 1.195
476.60 1.194
476.70 1.192
476.80 1.191
476.90 1.19
477.00 1.189
477.10 1.188
477.20 1.186
477.30 1.185
477.40 1.184
477.50 1.182
477.60 1.181
477.70 1.18
477.80 1.178
477.90 1.177
478.00 1.176
478.10 1.175
478.20 1.173
478.30 1.172
478.40 1.17
478.50 1.169
478.60 1.167
478.70 1.166
478.80 1.165
478.90 1.163
479.00 1.162
479.10 1.16
479.20 1.159
479.30 1.157
479.40 1.156
479.50 1.154
479.60 1.152
479.70 1.151
479.80 1.149
479.90 1.148
480.00 1.146
480.10 1.144
480.20 1.143
480.30 1.141
480.40 1.139
480.50 1.137
480.60 1.135
480.70 1.133
480.80 1.132
480.90 1.13
481.00 1.128
481.10 1.126
481.20 1.124
481.30 1.122
481.40 1.12
481.50 1.117
481.60 1.115
481.70 1.113
481.80 1.111
481.90 1.109
482.00 1.106
482.10 1.104
482.20 1.102
482.30 1.099
482.40 1.096
482.50 1.093
482.60 1.091
482.70 1.088
482.80 1.085
482.90 1.082
483.00 1.08
483.10 1.077
483.20 1.074
483.30 1.07
483.40 1.067
483.50 1.064
483.60 1.06
483.70 1.057
483.80 1.054
483.90 1.05
484.00 1.047
484.10 1.043
484.20 1.04
484.30 1.036
484.40 1.032
484.50 1.028
484.60 1.024
484.70 1.02
484.80 1.016
484.90 1.011
485.00 1.007
485.10 1.003
485.20 0.9989
485.30 0.9947
485.40 0.9906
485.50 0.9865
485.60 0.9829
485.70 0.9793
485.80 0.9773
485.90 0.9759
486.00 0.9785
486.10 0.9898
486.20 0.9847
486.30 0.974
486.40 0.9726
486.50 0.9724
486.60 0.9737
486.70 0.9758
486.80 0.9781
486.90 0.9807
487.00 0.9833
487.10 0.986
487.20 0.9887
487.30 0.9913
487.40 0.9939
487.50 0.9965
487.60 0.9992
487.70 1.002
487.80 1.004
487.90 1.006
488.00 1.008
488.10 1.011
488.20 1.013
488.30 1.014
488.40 1.016
488.50 1.018
488.60 1.019
488.70 1.021
488.80 1.023
488.90 1.025
489.00 1.026
489.10 1.028
489.20 1.029
489.30 1.03
489.40 1.031
489.50 1.032
489.60 1.033
489.70 1.034
489.80 1.035
489.90 1.036
490.00 1.037
490.10 1.038
490.20 1.038
490.30 1.039
490.40 1.039
490.50 1.04
490.60 1.04
490.70 1.041
490.80 1.041
490.90 1.041
491.00 1.042
491.10 1.042
491.20 1.042
491.30 1.042
491.40 1.043
491.50 1.043
491.60 1.043
491.70 1.043
491.80 1.043
491.90 1.043
492.00 1.043
492.10 1.043
492.20 1.043
492.30 1.042
492.40 1.042
492.50 1.042
492.60 1.042
492.70 1.042
492.80 1.041
492.90 1.041
493.00 1.041
493.10 1.041
493.20 1.04
493.30 1.04
493.40 1.04
493.50 1.039
493.60 1.039
493.70 1.038
493.80 1.038
493.90 1.038
494.00 1.037
494.10 1.037
494.20 1.036
494.30 1.036
494.40 1.035
494.50 1.035
494.60 1.034
494.70 1.034
494.80 1.033
494.90 1.033
495.00 1.032
495.10 1.032
495.20 1.031
495.30 1.031
495.40 1.03
495.50 1.03
495.60 1.029
495.70 1.028
495.80 1.028
495.90 1.027
496.00 1.027
496.10 1.026
496.20 1.025
496.30 1.025
496.40 1.024
496.50 1.024
496.60 1.023
496.70 1.022
496.80 1.022
496.90 1.021
497.00 1.02
497.10 1.02
497.20 1.019
497.30 1.018
497.40 1.018
497.50 1.017
497.60 1.016
497.70 1.016
497.80 1.015
497.90 1.014
498.00 1.014
498.10 1.013
498.20 1.012
498.30 1.012
498.40 1.011
498.50 1.01
498.60 1.01
498.70 1.009
498.80 1.008
498.90 1.008
499.00 1.007
499.10 1.006
499.20 1.006
499.30 1.005
499.40 1.004
499.50 1.003
499.60 1.003
499.70 1.002
499.80 1.001
499.90 1.001
500.00 1
500.10 0.9993
500.20 0.9986
500.30 0.9979
500.40 0.9972
500.50 0.9965
500.60 0.9958
500.70 0.9951
500.80 0.9943
500.90 0.9936
501.00 0.9929
501.10 0.9922
501.20 0.9915
501.30 0.9908
501.40 0.9901
501.50 0.9894
501.60 0.9887
501.70 0.9879
501.80 0.9872
501.90 0.9865
502.00 0.9858
502.10 0.9851
502.20 0.9844
502.30 0.9837
502.40 0.983
502.50 0.9822
502.60 0.9815
502.70 0.9808
502.80 0.9801
502.90 0.9794
503.00 0.9787
503.10 0.978
503.20 0.9772
503.30 0.9765
503.40 0.9758
503.50 0.9751
503.60 0.9744
503.70 0.9737
503.80 0.973
503.90 0.9722
504.00 0.9715
504.10 0.9708
504.20 0.9701
504.30 0.9694
504.40 0.9687
504.50 0.968
504.60 0.9672
504.70 0.9665
504.80 0.9658
504.90 0.9651
505.00 0.9644
505.10 0.9637
505.20 0.963
505.30 0.9623
505.40 0.9615
505.50 0.9608
505.60 0.9601
505.70 0.9594
505.80 0.9587
505.90 0.958
506.00 0.9573
506.10 0.9566
506.20 0.9559
506.30 0.9552
506.40 0.9545
506.50 0.9537
506.60 0.953
506.70 0.9523
506.80 0.9516
506.90 0.9509
507.00 0.9502
507.10 0.9495
507.20 0.9488
507.30 0.9481
507.40 0.9474
507.50 0.9467
507.60 0.946
507.70 0.9453
507.80 0.9446
507.90 0.9439
508.00 0.9432
508.10 0.9425
508.20 0.9418
508.30 0.9411
508.40 0.9404
508.50 0.9397
508.60 0.939
508.70 0.9383
508.80 0.9376
508.90 0.9369
509.00 0.9362
509.10 0.9355
509.20 0.9348
509.30 0.9341
509.40 0.9334
509.50 0.9327
509.60 0.932
509.70 0.9313
509.80 0.9306
509.90 0.93
510.00 0.9293
510.10 0.9286
510.20 0.9279
510.30 0.9272
510.40 0.9265
510.50 0.9258
510.60 0.9251
510.70 0.9244
510.80 0.9238
510.90 0.9231
511.00 0.9224
511.10 0.9217
511.20 0.921
511.30 0.9203
511.40 0.9196
511.50 0.919
511.60 0.9183
511.70 0.9176
511.80 0.9169
511.90 0.9162
512.00 0.9155
512.10 0.9149
512.20 0.9142
512.30 0.9135
512.40 0.9128
512.50 0.9121
512.60 0.9115
512.70 0.9108
512.80 0.9101
512.90 0.9094
513.00 0.9088
513.10 0.9081
513.20 0.9074
513.30 0.9067
513.40 0.9061
513.50 0.9054
513.60 0.9047
513.70 0.904
513.80 0.9034
513.90 0.9027
514.00 0.902
514.10 0.9014
514.20 0.9007
514.30 0.9
514.40 0.8994
514.50 0.8987
514.60 0.898
514.70 0.8974
514.80 0.8967
514.90 0.896
515.00 0.8954
515.10 0.8947
515.20 0.894
515.30 0.8934
515.40 0.8927
515.50 0.892
515.60 0.8914
515.70 0.8907
515.80 0.8901
515.90 0.8894
516.00 0.8887
516.10 0.8881
516.20 0.8874
516.30 0.8868
516.40 0.8861
516.50 0.8855
516.60 0.8848
516.70 0.8842
516.80 0.8835
516.90 0.8828
517.00 0.8822
517.10 0.8815
517.20 0.8809
517.30 0.8802
517.40 0.8796
517.50 0.8789
517.60 0.8783
517.70 0.8776
517.80 0.877
517.90 0.8763
518.00 0.8757
518.10 0.875
518.20 0.8744
518.30 0.8738
518.40 0.8731
518.50 0.8725
518.60 0.8718
518.70 0.8712
518.80 0.8705
518.90 0.8699
519.00 0.8692
519.10 0.8686
519.20 0.868
519.30 0.8673
519.40 0.8667
519.50 0.866
519.60 0.8654
519.70 0.8648
519.80 0.8641
519.90 0.8635
520.00 0.8629
520.10 0.8622
520.20 0.8616
520.30 0.861
520.40 0.8603
520.50 0.8597
520.60 0.8591
520.70 0.8584
520.80 0.8578
520.90 0.8572
521.00 0.8565
521.10 0.8559
521.20 0.8553
521.30 0.8546
521.40 0.854
521.50 0.8534
521.60 0.8528
521.70 0.8521
521.80 0.8515
521.90 0.8509
522.00 0.8503
522.10 0.8496
522.20 0.849
522.30 0.8484
522.40 0.8478
522.50 0.8471
522.60 0.8465
522.70 0.8459
522.80 0.8453
522.90 0.8447
523.00 0.844
523.10 0.8434
523.20 0.8428
523.30 0.8422
523.40 0.8416
523.50 0.8409
523.60 0.8403
523.70 0.8397
523.80 0.8391
523.90 0.8385
524.00 0.8379
524.10 0.8373
524.20 0.8366
524.30 0.836
524.40 0.8354
524.50 0.8348
524.60 0.8342
524.70 0.8336
524.80 0.833
524.90 0.8324
525.00 0.8318
525.10 0.8311
525.20 0.8305
525.30 0.8299
525.40 0.8293
525.50 0.8287
525.60 0.8281
525.70 0.8275
525.80 0.8269
525.90 0.8263
526.00 0.8257
526.10 0.8251
526.20 0.8245
526.30 0.8239
526.40 0.8233
526.50 0.8227
526.60 0.8221
526.70 0.8215
526.80 0.8209
526.90 0.8203
527.00 0.8197
527.10 0.8191
527.20 0.8185
527.30 0.8179
527.40 0.8173
527.50 0.8167
527.60 0.8161
527.70 0.8155
527.80 0.8149
527.90 0.8143
528.00 0.8137
528.10 0.8132
528.20 0.8126
528.30 0.812
528.40 0.8114
528.50 0.8108
528.60 0.8102
528.70 0.8096
528.80 0.809
528.90 0.8084
529.00 0.8079
529.10 0.8073
529.20 0.8067
529.30 0.8061
529.40 0.8055
529.50 0.8049
529.60 0.8043
529.70 0.8038
529.80 0.8032
529.90 0.8026
530.00 0.802
530.10 0.8014
530.20 0.8008
530.30 0.8003
530.40 0.7997
530.50 0.7991
530.60 0.7985
530.70 0.7979
530.80 0.7974
530.90 0.7968
531.00 0.7962
531.10 0.7956
531.20 0.7951
531.30 0.7945
531.40 0.7939
531.50 0.7933
531.60 0.7928
531.70 0.7922
531.80 0.7916
531.90 0.791
532.00 0.7905
532.10 0.7899
532.20 0.7893
532.30 0.7888
532.40 0.7882
532.50 0.7876
532.60 0.7871
532.70 0.7865
532.80 0.7859
532.90 0.7854
533.00 0.7848
533.10 0.7842
533.20 0.7837
533.30 0.7831
533.40 0.7825
533.50 0.782
533.60 0.7814
533.70 0.7808
533.80 0.7803
533.90 0.7797
534.00 0.7792
534.10 0.7786
534.20 0.778
534.30 0.7775
534.40 0.7769
534.50 0.7764
534.60 0.7758
534.70 0.7752
534.80 0.7747
534.90 0.7741
535.00 0.7736
535.10 0.773
535.20 0.7725
535.30 0.7719
535.40 0.7713
535.50 0.7708
535.60 0.7702
535.70 0.7697
535.80 0.7691
535.90 0.7686
536.00 0.768
536.10 0.7675
536.20 0.7669
536.30 0.7664
536.40 0.7658
536.50 0.7653
536.60 0.7647
536.70 0.7642
536.80 0.7636
536.90 0.7631
537.00 0.7625
537.10 0.762
537.20 0.7614
537.30 0.7609
537.40 0.7604
537.50 0.7598
537.60 0.7593
537.70 0.7587
537.80 0.7582
537.90 0.7576
538.00 0.7571
538.10 0.7566
538.20 0.756
538.30 0.7555
538.40 0.7549
538.50 0.7544
538.60 0.7539
538.70 0.7533
538.80 0.7528
538.90 0.7522
539.00 0.7517
539.10 0.7512
539.20 0.7506
539.30 0.7501
539.40 0.7496
539.50 0.749
539.60 0.7485
539.70 0.748
539.80 0.7474
539.90 0.7469
540.00 0.7464
540.10 0.7458
540.20 0.7453
540.30 0.7448
540.40 0.7442
540.50 0.7437
540.60 0.7432
540.70 0.7426
540.80 0.7421
540.90 0.7416
541.00 0.7411
541.10 0.7405
541.20 0.74
541.30 0.7395
541.40 0.739
541.50 0.7384
541.60 0.7379
541.70 0.7374
541.80 0.7369
541.90 0.7363
542.00 0.7358
542.10 0.7353
542.20 0.7348
542.30 0.7342
542.40 0.7337
542.50 0.7332
542.60 0.7327
542.70 0.7322
542.80 0.7316
542.90 0.7311
543.00 0.7306
543.10 0.7301
543.20 0.7296
543.30 0.7291
543.40 0.7285
543.50 0.728
543.60 0.7275
543.70 0.727
543.80 0.7265
543.90 0.726
544.00 0.7255
544.10 0.7249
544.20 0.7244
544.30 0.7239
544.40 0.7234
544.50 0.7229
544.60 0.7224
544.70 0.7219
544.80 0.7214
544.90 0.7208
545.00 0.7203
545.10 0.7198
545.20 0.7193
545.30 0.7188
545.40 0.7183
545.50 0.7178
545.60 0.7173
545.70 0.7168
545.80 0.7163
545.90 0.7158
546.00 0.7153
546.10 0.7148
546.20 0.7143
546.30 0.7138
546.40 0.7133
546.50 0.7128
546.60 0.7123
546.70 0.7118
546.80 0.7113
546.90 0.7107
547.00 0.7102
547.10 0.7097
547.20 0.7092
547.30 0.7088
547.40 0.7083
547.50 0.7078
547.60 0.7073
547.70 0.7068
547.80 0.7063
547.90 0.7058
548.00 0.7053
548.10 0.7048
548.20 0.7043
548.30 0.7038
548.40 0.7033
548.50 0.7028
548.60 0.7023
548.70 0.7018
548.80 0.7013
548.90 0.7008
549.00 0.7003
549.10 0.6998
549.20 0.6994
549.30 0.6989
549.40 0.6984
549.50 0.6979
549.60 0.6974
549.70 0.6969
549.80 0.6964
549.90 0.6959
550.00 0.6954
550.10 0.695
550.20 0.6945
550.30 0.694
550.40 0.6935
550.50 0.693
550.60 0.6925
550.70 0.692
550.80 0.6916
550.90 0.6911
551.00 0.6906
551.10 0.6901
551.20 0.6896
551.30 0.6891
551.40 0.6887
551.50 0.6882
551.60 0.6877
551.70 0.6872
551.80 0.6867
551.90 0.6863
552.00 0.6858
552.10 0.6853
552.20 0.6848
552.30 0.6843
552.40 0.6839
552.50 0.6834
552.60 0.6829
552.70 0.6824
552.80 0.682
552.90 0.6815
553.00 0.681
553.10 0.6805
553.20 0.6801
553.30 0.6796
553.40 0.6791
553.50 0.6786
553.60 0.6782
553.70 0.6777
553.80 0.6772
553.90 0.6768
554.00 0.6763
554.10 0.6758
554.20 0.6753
554.30 0.6749
554.40 0.6744
554.50 0.6739
554.60 0.6735
554.70 0.673
554.80 0.6725
554.90 0.6721
555.00 0.6716
555.10 0.6711
555.20 0.6707
555.30 0.6702
555.40 0.6697
555.50 0.6693
555.60 0.6688
555.70 0.6684
555.80 0.6679
555.90 0.6674
556.00 0.667
556.10 0.6665
556.20 0.666
556.30 0.6656
556.40 0.6651
556.50 0.6647
556.60 0.6642
556.70 0.6637
556.80 0.6633
556.90 0.6628
557.00 0.6624
557.10 0.6619
557.20 0.6614
557.30 0.661
557.40 0.6605
557.50 0.6601
557.60 0.6596
557.70 0.6592
557.80 0.6587
557.90 0.6583
558.00 0.6578
558.10 0.6573
558.20 0.6569
558.30 0.6564
558.40 0.656
558.50 0.6555
558.60 0.6551
558.70 0.6546
558.80 0.6542
558.90 0.6537
559.00 0.6533
559.10 0.6528
559.20 0.6524
559.30 0.6519
559.40 0.6515
559.50 0.651
559.60 0.6506
559.70 0.6501
559.80 0.6497
559.90 0.6492
560.00 0.6488
560.10 0.6483
560.20 0.6479
560.30 0.6474
560.40 0.647
560.50 0.6466
560.60 0.6461
560.70 0.6457
560.80 0.6452
560.90 0.6448
561.00 0.6443
561.10 0.6439
561.20 0.6435
561.30 0.643
561.40 0.6426
561.50 0.6421
561.60 0.6417
561.70 0.6412
561.80 0.6408
561.90 0.6404
562.00 0.6399
562.10 0.6395
562.20 0.639
562.30 0.6386
562.40 0.6382
562.50 0.6377
562.60 0.6373
562.70 0.6369
562.80 0.6364
562.90 0.636
563.00 0.6356
563.10 0.6351
563.20 0.6347
563.30 0.6343
563.40 0.6338
563.50 0.6334
563.60 0.633
563.70 0.6325
563.80 0.6321
563.90 0.6317
564.00 0.6312
564.10 0.6308
564.20 0.6304
564.30 0.6299
564.40 0.6295
564.50 0.6291
564.60 0.6286
564.70 0.6282
564.80 0.6278
564.90 0.6274
565.00 0.6269
565.10 0.6265
565.20 0.6261
565.30 0.6256
565.40 0.6252
565.50 0.6248
565.60 0.6244
565.70 0.6239
565.80 0.6235
565.90 0.6231
566.00 0.6227
566.10 0.6222
566.20 0.6218
566.30 0.6214
566.40 0.621
566.50 0.6205
566.60 0.6201
566.70 0.6197
566.80 0.6193
566.90 0.6189
567.00 0.6184
567.10 0.618
567.20 0.6176
567.30 0.6172
567.40 0.6168
567.50 0.6163
567.60 0.6159
567.70 0.6155
567.80 0.6151
567.90 0.6147
568.00 0.6142
568.10 0.6138
568.20 0.6134
568.30 0.613
568.40 0.6126
568.50 0.6122
568.60 0.6118
568.70 0.6113
568.80 0.6109
568.90 0.6105
569.00 0.6101
569.10 0.6097
569.20 0.6093
569.30 0.6089
569.40 0.6084
569.50 0.608
569.60 0.6076
569.70 0.6072
569.80 0.6068
569.90 0.6064
570.00 0.606
570.10 0.6056
570.20 0.6052
570.30 0.6047
570.40 0.6043
570.50 0.6039
570.60 0.6035
570.70 0.6031
570.80 0.6027
570.90 0.6023
571.00 0.6019
571.10 0.6015
571.20 0.6011
571.30 0.6007
571.40 0.6003
571.50 0.5999
571.60 0.5995
571.70 0.5991
571.80 0.5987
571.90 0.5982
572.00 0.5978
572.10 0.5974
572.20 0.597
572.30 0.5966
572.40 0.5962
572.50 0.5958
572.60 0.5954
572.70 0.595
572.80 0.5946
572.90 0.5942
573.00 0.5938
573.10 0.5934
573.20 0.593
573.30 0.5926
573.40 0.5922
573.50 0.5918
573.60 0.5914
573.70 0.591
573.80 0.5906
573.90 0.5902
574.00 0.5898
574.10 0.5894
574.20 0.5891
574.30 0.5887
574.40 0.5883
574.50 0.5879
574.60 0.5875
574.70 0.5871
574.80 0.5867
574.90 0.5863
575.00 0.5859
575.10 0.5855
575.20 0.5851
575.30 0.5847
575.40 0.5843
575.50 0.5839
575.60 0.5835
575.70 0.5832
575.80 0.5828
575.90 0.5824
576.00 0.582
576.10 0.5816
576.20 0.5812
576.30 0.5808
576.40 0.5804
576.50 0.58
576.60 0.5796
576.70 0.5793
576.80 0.5789
576.90 0.5785
577.00 0.5781
577.10 0.5777
577.20 0.5773
577.30 0.5769
577.40 0.5766
577.50 0.5762
577.60 0.5758
577.70 0.5754
577.80 0.575
577.90 0.5746
578.00 0.5742
578.10 0.5739
578.20 0.5735
578.30 0.5731
578.40 0.5727
578.50 0.5723
578.60 0.572
578.70 0.5716
578.80 0.5712
578.90 0.5708
579.00 0.5704
579.10 0.57
579.20 0.5697
579.30 0.5693
579.40 0.5689
579.50 0.5685
579.60 0.5682
579.70 0.5678
579.80 0.5674
579.90 0.567
580.00 0.5666
580.10 0.5663
580.20 0.5659
580.30 0.5655
580.40 0.5651
580.50 0.5648
580.60 0.5644
580.70 0.564
580.80 0.5636
580.90 0.5633
581.00 0.5629
581.10 0.5625
581.20 0.5621
581.30 0.5618
581.40 0.5614
581.50 0.561
581.60 0.5606
581.70 0.5603
581.80 0.5599
581.90 0.5595
582.00 0.5592
582.10 0.5588
582.20 0.5584
582.30 0.558
582.40 0.5577
582.50 0.5573
582.60 0.5569
582.70 0.5566
582.80 0.5562
582.90 0.5558
583.00 0.5555
583.10 0.5551
583.20 0.5547
583.30 0.5544
583.40 0.554
583.50 0.5536
583.60 0.5533
583.70 0.5529
583.80 0.5525
583.90 0.5522
584.00 0.5518
584.10 0.5514
584.20 0.5511
584.30 0.5507
584.40 0.5503
584.50 0.55
584.60 0.5496
584.70 0.5493
584.80 0.5489
584.90 0.5485
585.00 0.5482
585.10 0.5478
585.20 0.5474
585.30 0.5471
585.40 0.5467
585.50 0.5464
585.60 0.546
585.70 0.5456
585.80 0.5453
585.90 0.5449
586.00 0.5446
586.10 0.5442
586.20 0.5439
586.30 0.5435
586.40 0.5431
586.50 0.5428
586.60 0.5424
586.70 0.5421
586.80 0.5417
586.90 0.5414
587.00 0.541
587.10 0.5406
587.20 0.5403
587.30 0.5399
587.40 0.5396
587.50 0.5392
587.60 0.5389
587.70 0.5385
587.80 0.5382
587.90 0.5378
588.00 0.5374
588.10 0.5371
588.20 0.5367
588.30 0.5364
588.40 0.536
588.50 0.5357
588.60 0.5353
588.70 0.535
588.80 0.5346
588.90 0.5343
589.00 0.5339
589.10 0.5336
589.20 0.5332
589.30 0.5329
589.40 0.5325
589.50 0.5322
589.60 0.5318
589.70 0.5315
589.80 0.5311
589.90 0.5308
590.00 0.5304
590.10 0.5301
590.20 0.5298
590.30 0.5294
590.40 0.5291
590.50 0.5287
590.60 0.5284
590.70 0.528
590.80 0.5277
590.90 0.5273
591.00 0.527
591.10 0.5266
591.20 0.5263
591.30 0.526
591.40 0.5256
591.50 0.5253
591.60 0.5249
591.70 0.5246
591.80 0.5242
591.90 0.5239
592.00 0.5236
592.10 0.5232
592.20 0.5229
592.30 0.5225
592.40 0.5222
592.50 0.5219
592.60 0.5215
592.70 0.5212
592.80 0.5208
592.90 0.5205
593.00 0.5202
593.10 0.5198
593.20 0.5195
593.30 0.5191
593.40 0.5188
593.50 0.5185
593.60 0.5181
593.70 0.5178
593.80 0.5175
593.90 0.5171
594.00 0.5168
594.10 0.5164
594.20 0.5161
594.30 0.5158
594.40 0.5154
594.50 0.5151
594.60 0.5148
594.70 0.5144
594.80 0.5141
594.90 0.5138
595.00 0.5134
595.10 0.5131
595.20 0.5128
595.30 0.5124
595.40 0.5121
595.50 0.5118
595.60 0.5114
595.70 0.5111
595.80 0.5108
595.90 0.5104
596.00 0.5101
596.10 0.5098
596.20 0.5094
596.30 0.5091
596.40 0.5088
596.50 0.5085
596.60 0.5081
596.70 0.5078
596.80 0.5075
596.90 0.5071
597.00 0.5068
597.10 0.5065
597.20 0.5062
597.30 0.5058
597.40 0.5055
597.50 0.5052
597.60 0.5049
597.70 0.5045
597.80 0.5042
597.90 0.5039
598.00 0.5035
598.10 0.5032
598.20 0.5029
598.30 0.5026
598.40 0.5022
598.50 0.5019
598.60 0.5016
598.70 0.5013
598.80 0.501
598.90 0.5006
599.00 0.5003
599.10 0.5
599.20 0.4997
599.30 0.4993
599.40 0.499
599.50 0.4987
599.60 0.4984
599.70 0.4981
599.80 0.4977
599.90 0.4974
600.00 0.4971
600.10 0.4968
600.20 0.4964
600.30 0.4961
600.40 0.4958
600.50 0.4955
600.60 0.4952
600.70 0.4949
600.80 0.4945
600.90 0.4942
601.00 0.4939
601.10 0.4936
601.20 0.4933
601.30 0.4929
601.40 0.4926
601.50 0.4923
601.60 0.492
601.70 0.4917
601.80 0.4914
601.90 0.4911
602.00 0.4907
602.10 0.4904
602.20 0.4901
602.30 0.4898
602.40 0.4895
602.50 0.4892
602.60 0.4889
602.70 0.4885
602.80 0.4882
602.90 0.4879
603.00 0.4876
603.10 0.4873
603.20 0.487
603.30 0.4867
603.40 0.4863
603.50 0.486
603.60 0.4857
603.70 0.4854
603.80 0.4851
603.90 0.4848
604.00 0.4845
604.10 0.4842
604.20 0.4839
604.30 0.4836
604.40 0.4832
604.50 0.4829
604.60 0.4826
604.70 0.4823
604.80 0.482
604.90 0.4817
605.00 0.4814
605.10 0.4811
605.20 0.4808
605.30 0.4805
605.40 0.4802
605.50 0.4799
605.60 0.4796
605.70 0.4792
605.80 0.4789
605.90 0.4786
606.00 0.4783
606.10 0.478
606.20 0.4777
606.30 0.4774
606.40 0.4771
606.50 0.4768
606.60 0.4765
606.70 0.4762
606.80 0.4759
606.90 0.4756
607.00 0.4753
607.10 0.475
607.20 0.4747
607.30 0.4744
607.40 0.4741
607.50 0.4738
607.60 0.4735
607.70 0.4732
607.80 0.4729
607.90 0.4726
608.00 0.4723
608.10 0.472
608.20 0.4717
608.30 0.4714
608.40 0.4711
608.50 0.4708
608.60 0.4705
608.70 0.4702
608.80 0.4699
608.90 0.4696
609.00 0.4693
609.10 0.469
609.20 0.4687
609.30 0.4684
609.40 0.4681
609.50 0.4678
609.60 0.4675
609.70 0.4672
609.80 0.4669
609.90 0.4666
610.00 0.4663
610.10 0.466
610.20 0.4657
610.30 0.4654
610.40 0.4651
610.50 0.4648
610.60 0.4645
610.70 0.4642
610.80 0.4639
610.90 0.4636
611.00 0.4634
611.10 0.4631
611.20 0.4628
611.30 0.4625
611.40 0.4622
611.50 0.4619
611.60 0.4616
611.70 0.4613
611.80 0.461
611.90 0.4607
612.00 0.4604
612.10 0.4601
612.20 0.4598
612.30 0.4596
612.40 0.4593
612.50 0.459
612.60 0.4587
612.70 0.4584
612.80 0.4581
612.90 0.4578
613.00 0.4575
613.10 0.4572
613.20 0.457
613.30 0.4567
613.40 0.4564
613.50 0.4561
613.60 0.4558
613.70 0.4555
613.80 0.4552
613.90 0.4549
614.00 0.4547
614.10 0.4544
614.20 0.4541
614.30 0.4538
614.40 0.4535
614.50 0.4532
614.60 0.4529
614.70 0.4526
614.80 0.4524
614.90 0.4521
615.00 0.4518
615.10 0.4515
615.20 0.4512
615.30 0.4509
615.40 0.4507
615.50 0.4504
615.60 0.4501
615.70 0.4498
615.80 0.4495
615.90 0.4492
616.00 0.449
616.10 0.4487
616.20 0.4484
616.30 0.4481
616.40 0.4478
616.50 0.4475
616.60 0.4473
616.70 0.447
616.80 0.4467
616.90 0.4464
617.00 0.4461
617.10 0.4459
617.20 0.4456
617.30 0.4453
617.40 0.445
617.50 0.4447
617.60 0.4445
617.70 0.4442
617.80 0.4439
617.90 0.4436
618.00 0.4434
618.10 0.4431
618.20 0.4428
618.30 0.4425
618.40 0.4422
618.50 0.442
618.60 0.4417
618.70 0.4414
618.80 0.4411
618.90 0.4409
619.00 0.4406
619.10 0.4403
619.20 0.44
619.30 0.4398
619.40 0.4395
619.50 0.4392
619.60 0.4389
619.70 0.4387
619.80 0.4384
619.90 0.4381
620.00 0.4378
620.10 0.4376
620.20 0.4373
620.30 0.437
620.40 0.4367
620.50 0.4365
620.60 0.4362
620.70 0.4359
620.80 0.4356
620.90 0.4354
621.00 0.4351
621.10 0.4348
621.20 0.4346
621.30 0.4343
621.40 0.434
621.50 0.4337
621.60 0.4335
621.70 0.4332
621.80 0.4329
621.90 0.4327
622.00 0.4324
622.10 0.4321
622.20 0.4318
622.30 0.4316
622.40 0.4313
622.50 0.431
622.60 0.4308
622.70 0.4305
622.80 0.4302
622.90 0.43
623.00 0.4297
623.10 0.4294
623.20 0.4292
623.30 0.4289
623.40 0.4286
623.50 0.4284
623.60 0.4281
623.70 0.4278
623.80 0.4276
623.90 0.4273
624.00 0.427
624.10 0.4268
624.20 0.4265
624.30 0.4262
624.40 0.426
624.50 0.4257
624.60 0.4254
624.70 0.4252
624.80 0.4249
624.90 0.4246
625.00 0.4244
625.10 0.4241
625.20 0.4239
625.30 0.4236
625.40 0.4233
625.50 0.4231
625.60 0.4228
625.70 0.4225
625.80 0.4223
625.90 0.422
626.00 0.4217
626.10 0.4215
626.20 0.4212
626.30 0.421
626.40 0.4207
626.50 0.4204
626.60 0.4202
626.70 0.4199
626.80 0.4197
626.90 0.4194
627.00 0.4191
627.10 0.4189
627.20 0.4186
627.30 0.4184
627.40 0.4181
627.50 0.4178
627.60 0.4176
627.70 0.4173
627.80 0.4171
627.90 0.4168
628.00 0.4165
628.10 0.4163
628.20 0.416
628.30 0.4158
628.40 0.4155
628.50 0.4152
628.60 0.415
628.70 0.4147
628.80 0.4145
628.90 0.4142
629.00 0.414
629.10 0.4137
629.20 0.4134
629.30 0.4132
629.40 0.4129
629.50 0.4127
629.60 0.4124
629.70 0.4122
629.80 0.4119
629.90 0.4117
630.00 0.4114
630.10 0.4111
630.20 0.4109
630.30 0.4106
630.40 0.4104
630.50 0.4101
630.60 0.4099
630.70 0.4096
630.80 0.4094
630.90 0.4091
631.00 0.4089
631.10 0.4086
631.20 0.4083
631.30 0.4081
631.40 0.4078
631.50 0.4076
631.60 0.4073
631.70 0.4071
631.80 0.4068
631.90 0.4066
632.00 0.4063
632.10 0.4061
632.20 0.4058
632.30 0.4056
632.40 0.4053
632.50 0.4051
632.60 0.4048
632.70 0.4046
632.80 0.4043
632.90 0.4041
633.00 0.4038
633.10 0.4036
633.20 0.4033
633.30 0.4031
633.40 0.4028
633.50 0.4026
633.60 0.4023
633.70 0.4021
633.80 0.4018
633.90 0.4016
634.00 0.4013
634.10 0.4011
634.20 0.4008
634.30 0.4006
634.40 0.4003
634.50 0.4001
634.60 0.3998
634.70 0.3996
634.80 0.3993
634.90 0.3991
635.00 0.3988
635.10 0.3986
635.20 0.3983
635.30 0.3981
635.40 0.3978
635.50 0.3976
635.60 0.3973
635.70 0.3971
635.80 0.3968
635.90 0.3966
636.00 0.3963
636.10 0.3961
636.20 0.3958
636.30 0.3956
636.40 0.3954
636.50 0.3951
636.60 0.3949
636.70 0.3946
636.80 0.3944
636.90 0.3941
637.00 0.3939
637.10 0.3936
637.20 0.3934
637.30 0.3931
637.40 0.3929
637.50 0.3926
637.60 0.3924
637.70 0.3921
637.80 0.3919
637.90 0.3917
638.00 0.3914
638.10 0.3912
638.20 0.3909
638.30 0.3907
638.40 0.3904
638.50 0.3902
638.60 0.3899
638.70 0.3897
638.80 0.3894
638.90 0.3892
639.00 0.389
639.10 0.3887
639.20 0.3885
639.30 0.3882
639.40 0.388
639.50 0.3877
639.60 0.3875
639.70 0.3872
639.80 0.387
639.90 0.3867
640.00 0.3865
640.10 0.3863
640.20 0.386
640.30 0.3858
640.40 0.3855
640.50 0.3853
640.60 0.385
640.70 0.3848
640.80 0.3845
640.90 0.3843
641.00 0.384
641.10 0.3838
641.20 0.3835
641.30 0.3833
641.40 0.3831
641.50 0.3828
641.60 0.3826
641.70 0.3823
641.80 0.3821
641.90 0.3818
642.00 0.3816
642.10 0.3813
642.20 0.3811
642.30 0.3808
642.40 0.3806
642.50 0.3803
642.60 0.3801
642.70 0.3798
642.80 0.3796
642.90 0.3793
643.00 0.3791
643.10 0.3788
643.20 0.3786
643.30 0.3783
643.40 0.3781
643.50 0.3778
643.60 0.3776
643.70 0.3773
643.80 0.3771
643.90 0.3768
644.00 0.3766
644.10 0.3763
644.20 0.3761
644.30 0.3758
644.40 0.3755
644.50 0.3753
644.60 0.375
644.70 0.3748
644.80 0.3745
644.90 0.3743
645.00 0.374
645.10 0.3737
645.20 0.3735
645.30 0.3732
645.40 0.373
645.50 0.3727
645.60 0.3724
645.70 0.3722
645.80 0.3719
645.90 0.3716
646.00 0.3714
646.10 0.3711
646.20 0.3708
646.30 0.3706
646.40 0.3703
646.50 0.37
646.60 0.3697
646.70 0.3694
646.80 0.3692
646.90 0.3689
647.00 0.3686
647.10 0.3683
647.20 0.3681
647.30 0.3678
647.40 0.3675
647.50 0.3672
647.60 0.3669
647.70 0.3666
647.80 0.3663
647.90 0.366
648.00 0.3657
648.10 0.3654
648.20 0.3651
648.30 0.3648
648.40 0.3645
648.50 0.3642
648.60 0.3639
648.70 0.3636
648.80 0.3632
648.90 0.3629
649.00 0.3626
649.10 0.3623
649.20 0.362
649.30 0.3616
649.40 0.3613
649.50 0.3609
649.60 0.3606
649.70 0.3602
649.80 0.3598
649.90 0.3595
650.00 0.3591
650.10 0.3588
650.20 0.3584
650.30 0.358
650.40 0.3576
650.50 0.3572
650.60 0.3568
650.70 0.3564
650.80 0.356
650.90 0.3555
651.00 0.3551
651.10 0.3547
651.20 0.3543
651.30 0.3539
651.40 0.3534
651.50 0.3529
651.60 0.3524
651.70 0.3519
651.80 0.3514
651.90 0.3509
652.00 0.3504
652.10 0.3499
652.20 0.3494
652.30 0.3488
652.40 0.3482
652.50 0.3476
652.60 0.347
652.70 0.3464
652.80 0.3457
652.90 0.3451
653.00 0.3445
653.10 0.3439
653.20 0.3432
653.30 0.3426
653.40 0.3418
653.50 0.341
653.60 0.3402
653.70 0.3394
653.80 0.3387
653.90 0.3379
654.00 0.3371
654.10 0.3363
654.20 0.3355
654.30 0.3347
654.40 0.3338
654.50 0.3329
654.60 0.332
654.70 0.3311
654.80 0.3301
654.90 0.3292
655.00 0.3282
655.10 0.3272
655.20 0.3262
655.30 0.3253
655.40 0.3243
655.50 0.3233
655.60 0.3224
655.70 0.3215
655.80 0.3208
655.90 0.3202
656.00 0.3204
656.10 0.321
656.20 0.3307
656.30 0.3445
656.40 0.3246
656.50 0.3198
656.60 0.3192
656.70 0.3188
656.80 0.3192
656.90 0.3196
657.00 0.3201
657.10 0.3207
657.20 0.3213
657.30 0.3219
657.40 0.3225
657.50 0.3231
657.60 0.3237
657.70 0.3242
657.80 0.3248
657.90 0.3253
658.00 0.3259
658.10 0.3264
658.20 0.3269
658.30 0.3274
658.40 0.3278
658.50 0.3282
658.60 0.3286
658.70 0.3289
658.80 0.3293
658.90 0.3297
659.00 0.3301
659.10 0.3305
659.20 0.3309
659.30 0.3312
659.40 0.3314
659.50 0.3316
659.60 0.3318
659.70 0.332
659.80 0.3323
659.90 0.3325
660.00 0.3327
660.10 0.3329
660.20 0.3331
660.30 0.3333
660.40 0.3334
660.50 0.3334
660.60 0.3335
660.70 0.3336
660.80 0.3337
660.90 0.3338
661.00 0.3339
661.10 0.3339
661.20 0.334
661.30 0.3341
661.40 0.3341
661.50 0.3341
661.60 0.3341
661.70 0.3341
661.80 0.3341
661.90 0.334
662.00 0.334
662.10 0.334
662.20 0.334
662.30 0.334
662.40 0.3339
662.50 0.3339
662.60 0.3338
662.70 0.3338
662.80 0.3337
662.90 0.3336
663.00 0.3336
663.10 0.3335
663.20 0.3334
663.30 0.3334
663.40 0.3333
663.50 0.3332
663.60 0.3331
663.70 0.333
663.80 0.3329
663.90 0.3327
664.00 0.3326
664.10 0.3325
664.20 0.3324
664.30 0.3323
664.40 0.3322
664.50 0.3321
664.60 0.332
664.70 0.3318
664.80 0.3317
664.90 0.3316
665.00 0.3314
665.10 0.3313
665.20 0.3312
665.30 0.3311
665.40 0.3309
665.50 0.3308
665.60 0.3306
665.70 0.3305
665.80 0.3303
665.90 0.3302
666.00 0.33
666.10 0.3299
666.20 0.3298
666.30 0.3296
666.40 0.3295
666.50 0.3293
666.60 0.3291
666.70 0.329
666.80 0.3288
666.90 0.3287
667.00 0.3285
667.10 0.3284
667.20 0.3282
667.30 0.3281
667.40 0.3279
667.50 0.3277
667.60 0.3276
667.70 0.3274
667.80 0.3272
667.90 0.3271
668.00 0.3269
668.10 0.3268
668.20 0.3266
668.30 0.3264
668.40 0.3263
668.50 0.3261
668.60 0.3259
668.70 0.3258
668.80 0.3256
668.90 0.3254
669.00 0.3253
669.10 0.3251
669.20 0.3249
669.30 0.3247
669.40 0.3246
669.50 0.3244
669.60 0.3242
669.70 0.3241
669.80 0.3239
669.90 0.3237
670.00 0.3236
670.10 0.3234
670.20 0.3232
670.30 0.323
670.40 0.3229
670.50 0.3227
670.60 0.3225
670.70 0.3223
670.80 0.3222
670.90 0.322
671.00 0.3218
671.10 0.3217
671.20 0.3215
671.30 0.3213
671.40 0.3211
671.50 0.321
671.60 0.3208
671.70 0.3206
671.80 0.3204
671.90 0.3203
672.00 0.3201
672.10 0.3199
672.20 0.3197
672.30 0.3196
672.40 0.3194
672.50 0.3192
672.60 0.319
672.70 0.3189
672.80 0.3187
672.90 0.3185
673.00 0.3183
673.10 0.3182
673.20 0.318
673.30 0.3178
673.40 0.3176
673.50 0.3175
673.60 0.3173
673.70 0.3171
673.80 0.3169
673.90 0.3168
674.00 0.3166
674.10 0.3164
674.20 0.3162
674.30 0.3161
674.40 0.3159
674.50 0.3157
674.60 0.3155
674.70 0.3154
674.80 0.3152
674.90 0.315
675.00 0.3148
675.10 0.3147
675.20 0.3145
675.30 0.3143
675.40 0.3141
675.50 0.314
675.60 0.3138
675.70 0.3136
675.80 0.3134
675.90 0.3133
676.00 0.3131
676.10 0.3129
676.20 0.3127
676.30 0.3126
676.40 0.3124
676.50 0.3122
676.60 0.312
676.70 0.3119
676.80 0.3117
676.90 0.3115
677.00 0.3113
677.10 0.3112
677.20 0.311
677.30 0.3108
677.40 0.3106
677.50 0.3105
677.60 0.3103
677.70 0.3101
677.80 0.3099
677.90 0.3098
678.00 0.3096
678.10 0.3094
678.20 0.3092
678.30 0.3091
678.40 0.3089
678.50 0.3087
678.60 0.3086
678.70 0.3084
678.80 0.3082
678.90 0.308
679.00 0.3079
679.10 0.3077
679.20 0.3075
679.30 0.3073
679.40 0.3072
679.50 0.307
679.60 0.3068
679.70 0.3067
679.80 0.3065
679.90 0.3063
680.00 0.3061
680.10 0.306
680.20 0.3058
680.30 0.3056
680.40 0.3054
680.50 0.3053
680.60 0.3051
680.70 0.3049
680.80 0.3048
680.90 0.3046
681.00 0.3044
681.10 0.3043
681.20 0.3041
681.30 0.3039
681.40 0.3037
681.50 0.3036
681.60 0.3034
681.70 0.3032
681.80 0.3031
681.90 0.3029
682.00 0.3027
682.10 0.3025
682.20 0.3024
682.30 0.3022
682.40 0.302
682.50 0.3019
682.60 0.3017
682.70 0.3015
682.80 0.3014
682.90 0.3012
683.00 0.301
683.10 0.3008
683.20 0.3007
683.30 0.3005
683.40 0.3003
683.50 0.3002
683.60 0.3
683.70 0.2998
683.80 0.2997
683.90 0.2995
684.00 0.2993
684.10 0.2992
684.20 0.299
684.30 0.2988
684.40 0.2987
684.50 0.2985
684.60 0.2983
684.70 0.2982
684.80 0.298
684.90 0.2978
685.00 0.2977
685.10 0.2975
685.20 0.2973
685.30 0.2972
685.40 0.297
685.50 0.2968
685.60 0.2967
685.70 0.2965
685.80 0.2963
685.90 0.2962
686.00 0.296
686.10 0.2958
686.20 0.2957
686.30 0.2955
686.40 0.2953
686.50 0.2952
686.60 0.295
686.70 0.2948
686.80 0.2947
686.90 0.2945
687.00 0.2943
687.10 0.2942
687.20 0.294
687.30 0.2938
687.40 0.2937
687.50 0.2935
687.60 0.2933
687.70 0.2932
687.80 0.293
687.90 0.2928
688.00 0.2927
688.10 0.2925
688.20 0.2924
688.30 0.2922
688.40 0.292
688.50 0.2919
688.60 0.2917
688.70 0.2915
688.80 0.2914
688.90 0.2912
689.00 0.291
689.10 0.2909
689.20 0.2907
689.30 0.2906
689.40 0.2904
689.50 0.2902
689.60 0.2901
689.70 0.2899
689.80 0.2898
689.90 0.2896
690.00 0.2894
690.10 0.2893
690.20 0.2891
690.30 0.2889
690.40 0.2888
690.50 0.2886
690.60 0.2885
690.70 0.2883
690.80 0.2881
690.90 0.288
691.00 0.2878
691.10 0.2877
691.20 0.2875
691.30 0.2873
691.40 0.2872
691.50 0.287
691.60 0.2869
691.70 0.2867
691.80 0.2865
691.90 0.2864
692.00 0.2862
692.10 0.2861
692.20 0.2859
692.30 0.2857
692.40 0.2856
692.50 0.2854
692.60 0.2853
692.70 0.2851
692.80 0.2849
692.90 0.2848
693.00 0.2846
693.10 0.2845
693.20 0.2843
693.30 0.2841
693.40 0.284
693.50 0.2838
693.60 0.2837
693.70 0.2835
693.80 0.2834
693.90 0.2832
694.00 0.283
694.10 0.2829
694.20 0.2827
694.30 0.2826
694.40 0.2824
694.50 0.2823
694.60 0.2821
694.70 0.2819
694.80 0.2818
694.90 0.2816
695.00 0.2815
695.10 0.2813
695.20 0.2812
695.30 0.281
695.40 0.2808
695.50 0.2807
695.60 0.2805
695.70 0.2804
695.80 0.2802
695.90 0.2801
696.00 0.2799
696.10 0.2798
696.20 0.2796
696.30 0.2794
696.40 0.2793
696.50 0.2791
696.60 0.279
696.70 0.2788
696.80 0.2787
696.90 0.2785
697.00 0.2784
697.10 0.2782
697.20 0.2781
697.30 0.2779
697.40 0.2777
697.50 0.2776
697.60 0.2774
697.70 0.2773
697.80 0.2771
697.90 0.277
698.00 0.2768
698.10 0.2767
698.20 0.2765
698.30 0.2764
698.40 0.2762
698.50 0.2761
698.60 0.2759
698.70 0.2757
698.80 0.2756
698.90 0.2754
699.00 0.2753
699.10 0.2751
699.20 0.275
699.30 0.2748
699.40 0.2747
699.50 0.2745
699.60 0.2744
699.70 0.2742
699.80 0.2741
699.90 0.2739
700.00 0.2738
700.10 0.2736
700.20 0.2735
700.30 0.2733
700.40 0.2732
700.50 0.273
700.60 0.2729
700.70 0.2727
700.80 0.2726
700.90 0.2724
701.00 0.2723
701.10 0.2721
701.20 0.272
701.30 0.2718
701.40 0.2717
701.50 0.2715
701.60 0.2714
701.70 0.2712
701.80 0.2711
701.90 0.2709
702.00 0.2708
702.10 0.2706
702.20 0.2705
702.30 0.2703
702.40 0.2702
702.50 0.27
702.60 0.2699
702.70 0.2697
702.80 0.2696
702.90 0.2694
703.00 0.2693
703.10 0.2691
703.20 0.269
703.30 0.2688
703.40 0.2687
703.50 0.2685
703.60 0.2684
703.70 0.2682
703.80 0.2681
703.90 0.2679
704.00 0.2678
704.10 0.2676
704.20 0.2675
704.30 0.2674
704.40 0.2672
704.50 0.2671
704.60 0.2669
704.70 0.2668
704.80 0.2666
704.90 0.2665
705.00 0.2663
705.10 0.2662
705.20 0.266
705.30 0.2659
705.40 0.2657
705.50 0.2656
705.60 0.2655
705.70 0.2653
705.80 0.2652
705.90 0.265
706.00 0.2649
706.10 0.2647
706.20 0.2646
706.30 0.2644
706.40 0.2643
706.50 0.2641
706.60 0.264
706.70 0.2639
706.80 0.2637
706.90 0.2636
707.00 0.2634
707.10 0.2633
707.20 0.2631
707.30 0.263
707.40 0.2628
707.50 0.2627
707.60 0.2626
707.70 0.2624
707.80 0.2623
707.90 0.2621
708.00 0.262
708.10 0.2618
708.20 0.2617
708.30 0.2616
708.40 0.2614
708.50 0.2613
708.60 0.2611
708.70 0.261
708.80 0.2608
708.90 0.2607
709.00 0.2606
709.10 0.2604
709.20 0.2603
709.30 0.2601
709.40 0.26
709.50 0.2598
709.60 0.2597
709.70 0.2596
709.80 0.2594
709.90 0.2593
710.00 0.2591
710.10 0.259
710.20 0.2588
710.30 0.2587
710.40 0.2586
710.50 0.2584
710.60 0.2583
710.70 0.2581
710.80 0.258
710.90 0.2579
711.00 0.2577
711.10 0.2576
711.20 0.2574
711.30 0.2573
711.40 0.2572
711.50 0.257
711.60 0.2569
711.70 0.2567
711.80 0.2566
711.90 0.2565
712.00 0.2563
712.10 0.2562
712.20 0.2561
712.30 0.2559
712.40 0.2558
712.50 0.2556
712.60 0.2555
712.70 0.2554
712.80 0.2552
712.90 0.2551
713.00 0.2549
713.10 0.2548
713.20 0.2547
713.30 0.2545
713.40 0.2544
713.50 0.2542
713.60 0.2541
713.70 0.254
713.80 0.2538
713.90 0.2537
714.00 0.2536
714.10 0.2534
714.20 0.2533
714.30 0.2531
714.40 0.253
714.50 0.2529
714.60 0.2527
714.70 0.2526
714.80 0.2525
714.90 0.2523
715.00 0.2522
715.10 0.252
715.20 0.2519
715.30 0.2518
715.40 0.2516
715.50 0.2515
715.60 0.2514
715.70 0.2512
715.80 0.2511
715.90 0.251
716.00 0.2508
716.10 0.2507
716.20 0.2505
716.30 0.2504
716.40 0.2503
716.50 0.2501
716.60 0.25
716.70 0.2499
716.80 0.2497
716.90 0.2496
717.00 0.2495
717.10 0.2493
717.20 0.2492
717.30 0.2491
717.40 0.2489
717.50 0.2488
717.60 0.2487
717.70 0.2485
717.80 0.2484
717.90 0.2483
718.00 0.2481
718.10 0.248
718.20 0.2479
718.30 0.2477
718.40 0.2476
718.50 0.2475
718.60 0.2473
718.70 0.2472
718.80 0.2471
718.90 0.2469
719.00 0.2468
719.10 0.2467
719.20 0.2465
719.30 0.2464
719.40 0.2463
719.50 0.2461
719.60 0.246
719.70 0.2459
719.80 0.2457
719.90 0.2456
720.00 0.2455
720.10 0.2453
720.20 0.2452
720.30 0.2451
720.40 0.2449
720.50 0.2448
720.60 0.2447
720.70 0.2445
720.80 0.2444
720.90 0.2443
721.00 0.2441
721.10 0.244
721.20 0.2439
721.30 0.2438
721.40 0.2436
721.50 0.2435
721.60 0.2434
721.70 0.2432
721.80 0.2431
721.90 0.243
722.00 0.2428
722.10 0.2427
722.20 0.2426
722.30 0.2424
722.40 0.2423
722.50 0.2422
722.60 0.2421
722.70 0.2419
722.80 0.2418
722.90 0.2417
723.00 0.2415
723.10 0.2414
723.20 0.2413
723.30 0.2411
723.40 0.241
723.50 0.2409
723.60 0.2408
723.70 0.2406
723.80 0.2405
723.90 0.2404
724.00 0.2402
724.10 0.2401
724.20 0.24
724.30 0.2399
724.40 0.2397
724.50 0.2396
724.60 0.2395
724.70 0.2393
724.80 0.2392
724.90 0.2391
725.00 0.239
725.10 0.2388
725.20 0.2387
725.30 0.2386
725.40 0.2384
725.50 0.2383
725.60 0.2382
725.70 0.2381
725.80 0.2379
725.90 0.2378
726.00 0.2377
726.10 0.2376
726.20 0.2374
726.30 0.2373
726.40 0.2372
726.50 0.2371
726.60 0.2369
726.70 0.2368
726.80 0.2367
726.90 0.2365
727.00 0.2364
727.10 0.2363
727.20 0.2362
727.30 0.236
727.40 0.2359
727.50 0.2358
727.60 0.2357
727.70 0.2355
727.80 0.2354
727.90 0.2353
728.00 0.2352
728.10 0.235
728.20 0.2349
728.30 0.2348
728.40 0.2347
728.50 0.2345
728.60 0.2344
728.70 0.2343
728.80 0.2342
728.90 0.234
729.00 0.2339
729.10 0.2338
729.20 0.2337
729.30 0.2335
729.40 0.2334
729.50 0.2333
729.60 0.2332
729.70 0.233
729.80 0.2329
729.90 0.2328
730.00 0.2327
730.10 0.2325
730.20 0.2324
730.30 0.2323
730.40 0.2322
730.50 0.2321
730.60 0.2319
730.70 0.2318
730.80 0.2317
730.90 0.2316
731.00 0.2314
731.10 0.2313
731.20 0.2312
731.30 0.2311
731.40 0.231
731.50 0.2308
731.60 0.2307
731.70 0.2306
731.80 0.2305
731.90 0.2304
732.00 0.2302
732.10 0.2301
732.20 0.23
732.30 0.2299
732.40 0.2297
732.50 0.2296
732.60 0.2295
732.70 0.2294
732.80 0.2293
732.90 0.2291
733.00 0.229
733.10 0.2289
733.20 0.2288
733.30 0.2287
733.40 0.2285
733.50 0.2284
733.60 0.2283
733.70 0.2282
733.80 0.2281
733.90 0.2279
734.00 0.2278
734.10 0.2277
734.20 0.2276
734.30 0.2275
734.40 0.2273
734.50 0.2272
734.60 0.2271
734.70 0.227
734.80 0.2269
734.90 0.2267
735.00 0.2266
735.10 0.2265
735.20 0.2264
735.30 0.2263
735.40 0.2261
735.50 0.226
735.60 0.2259
735.70 0.2258
735.80 0.2257
735.90 0.2255
736.00 0.2254
736.10 0.2253
736.20 0.2252
736.30 0.2251
736.40 0.2249
736.50 0.2248
736.60 0.2247
736.70 0.2246
736.80 0.2245
736.90 0.2244
737.00 0.2242
737.10 0.2241
737.20 0.224
737.30 0.2239
737.40 0.2238
737.50 0.2236
737.60 0.2235
737.70 0.2234
737.80 0.2233
737.90 0.2232
738.00 0.2231
738.10 0.2229
738.20 0.2228
738.30 0.2227
738.40 0.2226
738.50 0.2225
738.60 0.2223
738.70 0.2222
738.80 0.2221
738.90 0.222
739.00 0.2219
739.10 0.2218
739.20 0.2216
739.30 0.2215
739.40 0.2214
739.50 0.2213
739.60 0.2212
739.70 0.2211
739.80 0.2209
739.90 0.2208
740.00 0.2207
740.10 0.2206
740.20 0.2205
740.30 0.2204
740.40 0.2202
740.50 0.2201
740.60 0.22
740.70 0.2199
740.80 0.2198
740.90 0.2197
741.00 0.2196
741.10 0.2194
741.20 0.2193
741.30 0.2192
741.40 0.2191
741.50 0.219
741.60 0.2189
741.70 0.2188
741.80 0.2186
741.90 0.2185
742.00 0.2184
742.10 0.2183
742.20 0.2182
742.30 0.2181
742.40 0.218
742.50 0.2179
742.60 0.2177
742.70 0.2176
742.80 0.2175
742.90 0.2174
743.00 0.2173
743.10 0.2172
743.20 0.2171
743.30 0.2169
743.40 0.2168
743.50 0.2167
743.60 0.2166
743.70 0.2165
743.80 0.2164
743.90 0.2163
744.00 0.2162
744.10 0.216
744.20 0.2159
744.30 0.2158
744.40 0.2157
744.50 0.2156
744.60 0.2155
744.70 0.2154
744.80 0.2153
744.90 0.2151
745.00 0.215
745.10 0.2149
745.20 0.2148
745.30 0.2147
745.40 0.2146
745.50 0.2145
745.60 0.2144
745.70 0.2143
745.80 0.2141
745.90 0.214
746.00 0.2139
746.10 0.2138
746.20 0.2137
746.30 0.2136
746.40 0.2135
746.50 0.2134
746.60 0.2133
746.70 0.2131
746.80 0.213
746.90 0.2129
747.00 0.2128
747.10 0.2127
747.20 0.2126
747.30 0.2125
747.40 0.2124
747.50 0.2123
747.60 0.2121
747.70 0.212
747.80 0.2119
747.90 0.2118
748.00 0.2117
748.10 0.2116
748.20 0.2115
748.30 0.2114
748.40 0.2113
748.50 0.2111
748.60 0.211
748.70 0.2109
748.80 0.2108
748.90 0.2107
749.00 0.2106
749.10 0.2105
749.20 0.2104
749.30 0.2103
749.40 0.2102
749.50 0.21
749.60 0.2099
749.70 0.2098
749.80 0.2097
749.90 0.2096
750.00 0.2095
750.10 0.2094
750.20 0.2093
750.30 0.2092
750.40 0.2091
750.50 0.209
750.60 0.2089
750.70 0.2087
750.80 0.2086
750.90 0.2085
751.00 0.2084
751.10 0.2083
751.20 0.2082
751.30 0.2081
751.40 0.208
751.50 0.2079
751.60 0.2078
751.70 0.2077
751.80 0.2076
751.90 0.2075
752.00 0.2074
752.10 0.2073
752.20 0.2071
752.30 0.207
752.40 0.2069
752.50 0.2068
752.60 0.2067
752.70 0.2066
752.80 0.2065
752.90 0.2064
753.00 0.2063
753.10 0.2062
753.20 0.2061
753.30 0.206
753.40 0.2059
753.50 0.2058
753.60 0.2057
753.70 0.2056
753.80 0.2055
753.90 0.2053
754.00 0.2052
754.10 0.2051
754.20 0.205
754.30 0.2049
754.40 0.2048
754.50 0.2047
754.60 0.2046
754.70 0.2045
754.80 0.2044
754.90 0.2043
755.00 0.2042
755.10 0.2041
755.20 0.204
755.30 0.2039
755.40 0.2038
755.50 0.2037
755.60 0.2036
755.70 0.2035
755.80 0.2033
755.90 0.2032
756.00 0.2031
756.10 0.203
756.20 0.2029
756.30 0.2028
756.40 0.2027
756.50 0.2026
756.60 0.2025
756.70 0.2024
756.80 0.2023
756.90 0.2022
757.00 0.2021
757.10 0.202
757.20 0.2019
757.30 0.2018
757.40 0.2017
757.50 0.2016
757.60 0.2015
757.70 0.2014
757.80 0.2013
757.90 0.2012
758.00 0.2011
758.10 0.201
758.20 0.2009
758.30 0.2007
758.40 0.2006
758.50 0.2005
758.60 0.2004
758.70 0.2003
758.80 0.2002
758.90 0.2001
759.00 0.2
759.10 0.1999
759.20 0.1998
759.30 0.1997
759.40 0.1996
759.50 0.1995
759.60 0.1994
759.70 0.1993
759.80 0.1992
759.90 0.1991
760.00 0.199
760.10 0.1989
760.20 0.1988
760.30 0.1987
760.40 0.1986
760.50 0.1985
760.60 0.1984
760.70 0.1983
760.80 0.1982
760.90 0.1981
761.00 0.198
761.10 0.1979
761.20 0.1978
761.30 0.1977
761.40 0.1976
761.50 0.1975
761.60 0.1974
761.70 0.1973
761.80 0.1972
761.90 0.1971
762.00 0.197
762.10 0.1969
762.20 0.1968
762.30 0.1967
762.40 0.1966
762.50 0.1965
762.60 0.1964
762.70 0.1963
762.80 0.1962
762.90 0.1961
763.00 0.196
763.10 0.1959
763.20 0.1958
763.30 0.1957
763.40 0.1956
763.50 0.1955
763.60 0.1954
763.70 0.1953
763.80 0.1952
763.90 0.1951
764.00 0.195
764.10 0.1949
764.20 0.1948
764.30 0.1947
764.40 0.1946
764.50 0.1945
764.60 0.1944
764.70 0.1943
764.80 0.1942
764.90 0.1941
765.00 0.194
765.10 0.1939
765.20 0.1938
765.30 0.1937
765.40 0.1936
765.50 0.1935
765.60 0.1934
765.70 0.1933
765.80 0.1932
765.90 0.1931
766.00 0.193
766.10 0.1929
766.20 0.1928
766.30 0.1927
766.40 0.1926
766.50 0.1925
766.60 0.1924
766.70 0.1923
766.80 0.1923
766.90 0.1922
767.00 0.1921
767.10 0.192
767.20 0.1919
767.30 0.1918
767.40 0.1917
767.50 0.1916
767.60 0.1915
767.70 0.1914
767.80 0.1913
767.90 0.1912
768.00 0.1911
768.10 0.191
768.20 0.1909
768.30 0.1908
768.40 0.1907
768.50 0.1906
768.60 0.1905
768.70 0.1904
768.80 0.1903
768.90 0.1902
769.00 0.1901
769.10 0.19
769.20 0.1899
769.30 0.1898
769.40 0.1897
769.50 0.1896
769.60 0.1895
769.70 0.1894
769.80 0.1893
769.90 0.1892
770.00 0.1891
770.10 0.1891
770.20 0.189
770.30 0.1889
770.40 0.1888
770.50 0.1887
770.60 0.1886
770.70 0.1885
770.80 0.1884
770.90 0.1883
771.00 0.1882
771.10 0.1881
771.20 0.188
771.30 0.1879
771.40 0.1878
771.50 0.1877
771.60 0.1876
771.70 0.1875
771.80 0.1875
771.90 0.1874
772.00 0.1873
772.10 0.1872
772.20 0.1871
772.30 0.187
772.40 0.1869
772.50 0.1868
772.60 0.1867
772.70 0.1866
772.80 0.1865
772.90 0.1864
773.00 0.1863
773.10 0.1862
773.20 0.1861
773.30 0.186
773.40 0.186
773.50 0.1859
773.60 0.1858
773.70 0.1857
773.80 0.1856
773.90 0.1855
774.00 0.1854
774.10 0.1853
774.20 0.1852
774.30 0.1851
774.40 0.185
774.50 0.1849
774.60 0.1848
774.70 0.1847
774.80 0.1847
774.90 0.1846
775.00 0.1845
775.10 0.1844
775.20 0.1843
775.30 0.1842
775.40 0.1841
775.50 0.184
775.60 0.1839
775.70 0.1838
775.80 0.1837
775.90 0.1836
776.00 0.1835
776.10 0.1835
776.20 0.1834
776.30 0.1833
776.40 0.1832
776.50 0.1831
776.60 0.183
776.70 0.1829
776.80 0.1828
776.90 0.1827
777.00 0.1826
777.10 0.1825
777.20 0.1824
777.30 0.1824
777.40 0.1823
777.50 0.1822
777.60 0.1821
777.70 0.182
777.80 0.1819
777.90 0.1818
778.00 0.1817
778.10 0.1816
778.20 0.1815
778.30 0.1814
778.40 0.1814
778.50 0.1813
778.60 0.1812
778.70 0.1811
778.80 0.181
778.90 0.1809
779.00 0.1808
779.10 0.1807
779.20 0.1806
779.30 0.1805
779.40 0.1804
779.50 0.1804
779.60 0.1803
779.70 0.1802
779.80 0.1801
779.90 0.18
780.00 0.1799
780.10 0.1798
780.20 0.1797
780.30 0.1796
780.40 0.1795
780.50 0.1795
780.60 0.1794
780.70 0.1793
780.80 0.1792
780.90 0.1791
781.00 0.179
781.10 0.1789
781.20 0.1788
781.30 0.1787
781.40 0.1787
781.50 0.1786
781.60 0.1785
781.70 0.1784
781.80 0.1783
781.90 0.1782
782.00 0.1781
782.10 0.178
782.20 0.178
782.30 0.1779
782.40 0.1778
782.50 0.1777
782.60 0.1776
782.70 0.1775
782.80 0.1774
782.90 0.1773
783.00 0.1773
783.10 0.1772
783.20 0.1771
783.30 0.177
783.40 0.1769
783.50 0.1768
783.60 0.1767
783.70 0.1766
783.80 0.1766
783.90 0.1765
784.00 0.1764
784.10 0.1763
784.20 0.1762
784.30 0.1761
784.40 0.176
784.50 0.1759
784.60 0.1759
784.70 0.1758
784.80 0.1757
784.90 0.1756
785.00 0.1755
785.10 0.1754
785.20 0.1753
785.30 0.1752
785.40 0.1752
785.50 0.1751
785.60 0.175
785.70 0.1749
785.80 0.1748
785.90 0.1747
786.00 0.1746
786.10 0.1746
786.20 0.1745
786.30 0.1744
786.40 0.1743
786.50 0.1742
786.60 0.1741
786.70 0.174
786.80 0.1739
786.90 0.1739
787.00 0.1738
787.10 0.1737
787.20 0.1736
787.30 0.1735
787.40 0.1734
787.50 0.1733
787.60 0.1733
787.70 0.1732
787.80 0.1731
787.90 0.173
788.00 0.1729
788.10 0.1728
788.20 0.1727
788.30 0.1727
788.40 0.1726
788.50 0.1725
788.60 0.1724
788.70 0.1723
788.80 0.1722
788.90 0.1721
789.00 0.1721
789.10 0.172
789.20 0.1719
789.30 0.1718
789.40 0.1717
789.50 0.1716
789.60 0.1715
789.70 0.1715
789.80 0.1714
789.90 0.1713
790.00 0.1712
790.10 0.1711
790.20 0.171
790.30 0.171
790.40 0.1709
790.50 0.1708
790.60 0.1707
790.70 0.1706
790.80 0.1705
790.90 0.1705
791.00 0.1704
791.10 0.1703
791.20 0.1702
791.30 0.1701
791.40 0.17
791.50 0.17
791.60 0.1699
791.70 0.1698
791.80 0.1697
791.90 0.1696
792.00 0.1695
792.10 0.1695
792.20 0.1694
792.30 0.1693
792.40 0.1692
792.50 0.1691
792.60 0.169
792.70 0.169
792.80 0.1689
792.90 0.1688
793.00 0.1687
793.10 0.1686
793.20 0.1686
793.30 0.1685
793.40 0.1684
793.50 0.1683
793.60 0.1682
793.70 0.1681
793.80 0.1681
793.90 0.168
794.00 0.1679
794.10 0.1678
794.20 0.1677
794.30 0.1677
794.40 0.1676
794.50 0.1675
794.60 0.1674
794.70 0.1673
794.80 0.1672
794.90 0.1672
795.00 0.1671
795.10 0.167
795.20 0.1669
795.30 0.1668
795.40 0.1668
795.50 0.1667
795.60 0.1666
795.70 0.1665
795.80 0.1664
795.90 0.1663
796.00 0.1663
796.10 0.1662
796.20 0.1661
796.30 0.166
796.40 0.1659
796.50 0.1659
796.60 0.1658
796.70 0.1657
796.80 0.1656
796.90 0.1655
797.00 0.1655
797.10 0.1654
797.20 0.1653
797.30 0.1652
797.40 0.1651
797.50 0.165
797.60 0.165
797.70 0.1649
797.80 0.1648
797.90 0.1647
798.00 0.1646
798.10 0.1646
798.20 0.1645
798.30 0.1644
798.40 0.1643
798.50 0.1642
798.60 0.1642
798.70 0.1641
798.80 0.164
798.90 0.1639
799.00 0.1638
799.10 0.1638
799.20 0.1637
799.30 0.1636
799.40 0.1635
799.50 0.1634
799.60 0.1634
799.70 0.1633
799.80 0.1632
799.90 0.1631
800.00 0.163
800.10 0.163
800.20 0.1629
800.30 0.1628
800.40 0.1627
800.50 0.1626
800.60 0.1626
800.70 0.1625
800.80 0.1624
800.90 0.1623
801.00 0.1623
801.10 0.1622
801.20 0.1621
801.30 0.162
801.40 0.1619
801.50 0.1619
801.60 0.1618
801.70 0.1617
801.80 0.1616
801.90 0.1616
802.00 0.1615
802.10 0.1614
802.20 0.1613
802.30 0.1612
802.40 0.1612
802.50 0.1611
802.60 0.161
802.70 0.1609
802.80 0.1609
802.90 0.1608
803.00 0.1607
803.10 0.1606
803.20 0.1605
803.30 0.1605
803.40 0.1604
803.50 0.1603
803.60 0.1602
803.70 0.1602
803.80 0.1601
803.90 0.16
804.00 0.1599
804.10 0.1598
804.20 0.1598
804.30 0.1597
804.40 0.1596
804.50 0.1595
804.60 0.1595
804.70 0.1594
804.80 0.1593
804.90 0.1592
805.00 0.1592
805.10 0.1591
805.20 0.159
805.30 0.1589
805.40 0.1588
805.50 0.1588
805.60 0.1587
805.70 0.1586
805.80 0.1585
805.90 0.1585
806.00 0.1584
806.10 0.1583
806.20 0.1582
806.30 0.1582
806.40 0.1581
806.50 0.158
806.60 0.1579
806.70 0.1579
806.80 0.1578
806.90 0.1577
807.00 0.1576
807.10 0.1575
807.20 0.1575
807.30 0.1574
807.40 0.1573
807.50 0.1572
807.60 0.1572
807.70 0.1571
807.80 0.157
807.90 0.1569
808.00 0.1569
808.10 0.1568
808.20 0.1567
808.30 0.1566
808.40 0.1566
808.50 0.1565
808.60 0.1564
808.70 0.1563
808.80 0.1563
808.90 0.1562
809.00 0.1561
809.10 0.156
809.20 0.156
809.30 0.1559
809.40 0.1558
809.50 0.1557
809.60 0.1557
809.70 0.1556
809.80 0.1555
809.90 0.1554
810.00 0.1554
810.10 0.1553
810.20 0.1552
810.30 0.1551
810.40 0.1551
810.50 0.155
810.60 0.1549
810.70 0.1548
810.80 0.1548
810.90 0.1547
811.00 0.1546
811.10 0.1545
811.20 0.1545
811.30 0.1544
811.40 0.1543
811.50 0.1542
811.60 0.1542
811.70 0.1541
811.80 0.154
811.90 0.154
812.00 0.1539
812.10 0.1538
812.20 0.1537
812.30 0.1537
812.40 0.1536
812.50 0.1535
812.60 0.1534
812.70 0.1534
812.80 0.1533
812.90 0.1532
813.00 0.1531
813.10 0.1531
813.20 0.153
813.30 0.1529
813.40 0.1529
813.50 0.1528
813.60 0.1527
813.70 0.1526
813.80 0.1526
813.90 0.1525
814.00 0.1524
814.10 0.1523
814.20 0.1523
814.30 0.1522
814.40 0.1521
814.50 0.1521
814.60 0.152
814.70 0.1519
814.80 0.1518
814.90 0.1518
815.00 0.1517
815.10 0.1516
815.20 0.1515
815.30 0.1515
815.40 0.1514
815.50 0.1513
815.60 0.1513
815.70 0.1512
815.80 0.1511
815.90 0.151
816.00 0.151
816.10 0.1509
816.20 0.1508
816.30 0.1508
816.40 0.1507
816.50 0.1506
816.60 0.1505
816.70 0.1505
816.80 0.1504
816.90 0.1503
817.00 0.1503
817.10 0.1502
817.20 0.1501
817.30 0.15
817.40 0.15
817.50 0.1499
817.60 0.1498
817.70 0.1498
817.80 0.1497
817.90 0.1496
818.00 0.1495
818.10 0.1495
818.20 0.1494
818.30 0.1493
818.40 0.1493
818.50 0.1492
818.60 0.1491
818.70 0.149
818.80 0.149
818.90 0.1489
819.00 0.1488
819.10 0.1488
819.20 0.1487
819.30 0.1486
819.40 0.1485
819.50 0.1485
819.60 0.1484
819.70 0.1483
819.80 0.1483
819.90 0.1482
820.00 0.1481
820.10 0.148
820.20 0.148
820.30 0.1479
820.40 0.1478
820.50 0.1478
820.60 0.1477
820.70 0.1476
820.80 0.1476
820.90 0.1475
821.00 0.1474
821.10 0.1473
821.20 0.1473
821.30 0.1472
821.40 0.1471
821.50 0.1471
821.60 0.147
821.70 0.1469
821.80 0.1469
821.90 0.1468
822.00 0.1467
822.10 0.1466
822.20 0.1466
822.30 0.1465
822.40 0.1464
822.50 0.1464
822.60 0.1463
822.70 0.1462
822.80 0.1462
822.90 0.1461
823.00 0.146
823.10 0.146
823.20 0.1459
823.30 0.1458
823.40 0.1458
823.50 0.1457
823.60 0.1456
823.70 0.1455
823.80 0.1455
823.90 0.1454
824.00 0.1453
824.10 0.1453
824.20 0.1452
824.30 0.1451
824.40 0.1451
824.50 0.145
824.60 0.1449
824.70 0.1449
824.80 0.1448
824.90 0.1447
825.00 0.1447
825.10 0.1446
825.20 0.1445
825.30 0.1444
825.40 0.1444
825.50 0.1443
825.60 0.1442
825.70 0.1442
825.80 0.1441
825.90 0.144
826.00 0.144
826.10 0.1439
826.20 0.1438
826.30 0.1438
826.40 0.1437
826.50 0.1436
826.60 0.1436
826.70 0.1435
826.80 0.1434
826.90 0.1434
827.00 0.1433
827.10 0.1432
827.20 0.1432
827.30 0.1431
827.40 0.143
827.50 0.143
827.60 0.1429
827.70 0.1428
827.80 0.1428
827.90 0.1427
828.00 0.1426
828.10 0.1426
828.20 0.1425
828.30 0.1424
828.40 0.1424
828.50 0.1423
828.60 0.1422
828.70 0.1422
828.80 0.1421
828.90 0.142
829.00 0.142
829.10 0.1419
829.20 0.1418
829.30 0.1418
829.40 0.1417
829.50 0.1416
829.60 0.1416
829.70 0.1415
829.80 0.1414
829.90 0.1414
830.00 0.1413
830.10 0.1412
830.20 0.1412
830.30 0.1411
830.40 0.141
830.50 0.141
830.60 0.1409
830.70 0.1408
830.80 0.1408
830.90 0.1407
831.00 0.1406
831.10 0.1406
831.20 0.1405
831.30 0.1404
831.40 0.1404
831.50 0.1403
831.60 0.1402
831.70 0.1402
831.80 0.1401
831.90 0.14
832.00 0.14
832.10 0.1399
832.20 0.1398
832.30 0.1398
832.40 0.1397
832.50 0.1396
832.60 0.1396
832.70 0.1395
832.80 0.1395
832.90 0.1394
833.00 0.1393
833.10 0.1393
833.20 0.1392
833.30 0.1391
833.40 0.1391
833.50 0.139
833.60 0.1389
833.70 0.1389
833.80 0.1388
833.90 0.1387
834.00 0.1387
834.10 0.1386
834.20 0.1385
834.30 0.1385
834.40 0.1384
834.50 0.1383
834.60 0.1383
834.70 0.1382
834.80 0.1382
834.90 0.1381
835.00 0.138
835.10 0.138
835.20 0.1379
835.30 0.1378
835.40 0.1378
835.50 0.1377
835.60 0.1376
835.70 0.1376
835.80 0.1375
835.90 0.1374
836.00 0.1374
836.10 0.1373
836.20 0.1373
836.30 0.1372
836.40 0.1371
836.50 0.1371
836.60 0.137
836.70 0.1369
836.80 0.1369
836.90 0.1368
837.00 0.1367
837.10 0.1367
837.20 0.1366
837.30 0.1366
837.40 0.1365
837.50 0.1364
837.60 0.1364
837.70 0.1363
837.80 0.1362
837.90 0.1362
838.00 0.1361
838.10 0.136
838.20 0.136
838.30 0.1359
838.40 0.1359
838.50 0.1358
838.60 0.1357
838.70 0.1357
838.80 0.1356
838.90 0.1355
839.00 0.1355
839.10 0.1354
839.20 0.1354
839.30 0.1353
839.40 0.1352
839.50 0.1352
839.60 0.1351
839.70 0.135
839.80 0.135
839.90 0.1349
840.00 0.1348
840.10 0.1348
840.20 0.1347
840.30 0.1347
840.40 0.1346
840.50 0.1345
840.60 0.1345
840.70 0.1344
840.80 0.1343
840.90 0.1343
841.00 0.1342
841.10 0.1342
841.20 0.1341
841.30 0.134
841.40 0.134
841.50 0.1339
841.60 0.1339
841.70 0.1338
841.80 0.1337
841.90 0.1337
842.00 0.1336
842.10 0.1335
842.20 0.1335
842.30 0.1334
842.40 0.1334
842.50 0.1333
842.60 0.1332
842.70 0.1332
842.80 0.1331
842.90 0.133
843.00 0.133
843.10 0.1329
843.20 0.1329
843.30 0.1328
843.40 0.1327
843.50 0.1327
843.60 0.1326
843.70 0.1326
843.80 0.1325
843.90 0.1324
844.00 0.1324
844.10 0.1323
844.20 0.1323
844.30 0.1322
844.40 0.1321
844.50 0.1321
844.60 0.132
844.70 0.1319
844.80 0.1319
844.90 0.1318
845.00 0.1318
845.10 0.1317
845.20 0.1316
845.30 0.1316
845.40 0.1315
845.50 0.1315
845.60 0.1314
845.70 0.1313
845.80 0.1313
845.90 0.1312
846.00 0.1312
846.10 0.1311
846.20 0.131
846.30 0.131
846.40 0.1309
846.50 0.1309
846.60 0.1308
846.70 0.1307
846.80 0.1307
846.90 0.1306
847.00 0.1305
847.10 0.1305
847.20 0.1304
847.30 0.1304
847.40 0.1303
847.50 0.1302
847.60 0.1302
847.70 0.1301
847.80 0.1301
847.90 0.13
848.00 0.13
848.10 0.1299
848.20 0.1298
848.30 0.1298
848.40 0.1297
848.50 0.1297
848.60 0.1296
848.70 0.1295
848.80 0.1295
848.90 0.1294
849.00 0.1294
849.10 0.1293
849.20 0.1292
849.30 0.1292
849.40 0.1291
849.50 0.1291
849.60 0.129
849.70 0.1289
849.80 0.1289
849.90 0.1288
850.00 0.1288
850.10 0.1287
850.20 0.1286
850.30 0.1286
850.40 0.1285
850.50 0.1285
850.60 0.1284
850.70 0.1283
850.80 0.1283
850.90 0.1282
851.00 0.1282
851.10 0.1281
851.20 0.1281
851.30 0.128
851.40 0.1279
851.50 0.1279
851.60 0.1278
851.70 0.1278
851.80 0.1277
851.90 0.1276
852.00 0.1276
852.10 0.1275
852.20 0.1275
852.30 0.1274
852.40 0.1274
852.50 0.1273
852.60 0.1272
852.70 0.1272
852.80 0.1271
852.90 0.1271
853.00 0.127
853.10 0.1269
853.20 0.1269
853.30 0.1268
853.40 0.1268
853.50 0.1267
853.60 0.1267
853.70 0.1266
853.80 0.1265
853.90 0.1265
854.00 0.1264
854.10 0.1264
854.20 0.1263
854.30 0.1263
854.40 0.1262
854.50 0.1261
854.60 0.1261
854.70 0.126
854.80 0.126
854.90 0.1259
855.00 0.1258
855.10 0.1258
855.20 0.1257
855.30 0.1257
855.40 0.1256
855.50 0.1256
855.60 0.1255
855.70 0.1254
855.80 0.1254
855.90 0.1253
856.00 0.1253
856.10 0.1252
856.20 0.1252
856.30 0.1251
856.40 0.125
856.50 0.125
856.60 0.1249
856.70 0.1249
856.80 0.1248
856.90 0.1248
857.00 0.1247
857.10 0.1246
857.20 0.1246
857.30 0.1245
857.40 0.1245
857.50 0.1244
857.60 0.1244
857.70 0.1243
857.80 0.1243
857.90 0.1242
858.00 0.1241
858.10 0.1241
858.20 0.124
858.30 0.124
858.40 0.1239
858.50 0.1239
858.60 0.1238
858.70 0.1237
858.80 0.1237
858.90 0.1236
859.00 0.1236
859.10 0.1235
859.20 0.1235
859.30 0.1234
859.40 0.1234
859.50 0.1233
859.60 0.1232
859.70 0.1232
859.80 0.1231
859.90 0.1231
860.00 0.123
860.10 0.123
860.20 0.1229
860.30 0.1229
860.40 0.1228
860.50 0.1227
860.60 0.1227
860.70 0.1226
860.80 0.1226
860.90 0.1225
861.00 0.1225
861.10 0.1224
861.20 0.1224
861.30 0.1223
861.40 0.1222
861.50 0.1222
861.60 0.1221
861.70 0.1221
861.80 0.122
861.90 0.122
862.00 0.1219
862.10 0.1219
862.20 0.1218
862.30 0.1217
862.40 0.1217
862.50 0.1216
862.60 0.1216
862.70 0.1215
862.80 0.1215
862.90 0.1214
863.00 0.1214
863.10 0.1213
863.20 0.1213
863.30 0.1212
863.40 0.1211
863.50 0.1211
863.60 0.121
863.70 0.121
863.80 0.1209
863.90 0.1209
864.00 0.1208
864.10 0.1208
864.20 0.1207
864.30 0.1207
864.40 0.1206
864.50 0.1205
864.60 0.1205
864.70 0.1204
864.80 0.1204
864.90 0.1203
865.00 0.1203
865.10 0.1202
865.20 0.1202
865.30 0.1201
865.40 0.1201
865.50 0.12
865.60 0.1199
865.70 0.1199
865.80 0.1198
865.90 0.1198
866.00 0.1197
866.10 0.1197
866.20 0.1196
866.30 0.1196
866.40 0.1195
866.50 0.1195
866.60 0.1194
866.70 0.1194
866.80 0.1193
866.90 0.1192
867.00 0.1192
867.10 0.1191
867.20 0.1191
867.30 0.119
867.40 0.119
867.50 0.1189
867.60 0.1189
867.70 0.1188
867.80 0.1188
867.90 0.1187
868.00 0.1187
868.10 0.1186
868.20 0.1186
868.30 0.1185
868.40 0.1184
868.50 0.1184
868.60 0.1183
868.70 0.1183
868.80 0.1182
868.90 0.1182
869.00 0.1181
869.10 0.1181
869.20 0.118
869.30 0.118
869.40 0.1179
869.50 0.1179
869.60 0.1178
869.70 0.1178
869.80 0.1177
869.90 0.1177
870.00 0.1176
870.10 0.1175
870.20 0.1175
870.30 0.1174
870.40 0.1174
870.50 0.1173
870.60 0.1173
870.70 0.1172
870.80 0.1172
870.90 0.1171
871.00 0.1171
871.10 0.117
871.20 0.117
871.30 0.1169
871.40 0.1169
871.50 0.1168
871.60 0.1168
871.70 0.1167
871.80 0.1167
871.90 0.1166
872.00 0.1165
872.10 0.1165
872.20 0.1164
872.30 0.1164
872.40 0.1163
872.50 0.1163
872.60 0.1162
872.70 0.1162
872.80 0.1161
872.90 0.1161
873.00 0.116
873.10 0.116
873.20 0.1159
873.30 0.1159
873.40 0.1158
873.50 0.1158
873.60 0.1157
873.70 0.1157
873.80 0.1156
873.90 0.1156
874.00 0.1155
874.10 0.1155
874.20 0.1154
874.30 0.1154
874.40 0.1153
874.50 0.1153
874.60 0.1152
874.70 0.1152
874.80 0.1151
874.90 0.115
875.00 0.115
875.10 0.1149
875.20 0.1149
875.30 0.1148
875.40 0.1148
875.50 0.1147
875.60 0.1147
875.70 0.1146
875.80 0.1146
875.90 0.1145
876.00 0.1145
876.10 0.1144
876.20 0.1144
876.30 0.1143
876.40 0.1143
876.50 0.1142
876.60 0.1142
876.70 0.1141
876.80 0.1141
876.90 0.114
877.00 0.114
877.10 0.1139
877.20 0.1139
877.30 0.1138
877.40 0.1138
877.50 0.1137
877.60 0.1137
877.70 0.1136
877.80 0.1136
877.90 0.1135
878.00 0.1135
878.10 0.1134
878.20 0.1134
878.30 0.1133
878.40 0.1133
878.50 0.1132
878.60 0.1132
878.70 0.1131
878.80 0.1131
878.90 0.113
879.00 0.113
879.10 0.1129
879.20 0.1129
879.30 0.1128
879.40 0.1128
879.50 0.1127
879.60 0.1127
879.70 0.1126
879.80 0.1126
879.90 0.1125
880.00 0.1125
880.10 0.1124
880.20 0.1124
880.30 0.1123
880.40 0.1123
880.50 0.1122
880.60 0.1122
880.70 0.1121
880.80 0.1121
880.90 0.112
881.00 0.112
881.10 0.1119
881.20 0.1119
881.30 0.1118
881.40 0.1118
881.50 0.1117
881.60 0.1117
881.70 0.1116
881.80 0.1116
881.90 0.1115
882.00 0.1115
882.10 0.1114
882.20 0.1114
882.30 0.1113
882.40 0.1113
882.50 0.1112
882.60 0.1112
882.70 0.1111
882.80 0.1111
882.90 0.111
883.00 0.111
883.10 0.1109
883.20 0.1109
883.30 0.1108
883.40 0.1108
883.50 0.1107
883.60 0.1107
883.70 0.1106
883.80 0.1106
883.90 0.1105
884.00 0.1105
884.10 0.1105
884.20 0.1104
884.30 0.1104
884.40 0.1103
884.50 0.1103
884.60 0.1102
884.70 0.1102
884.80 0.1101
884.90 0.1101
885.00 0.11
885.10 0.11
885.20 0.1099
885.30 0.1099
885.40 0.1098
885.50 0.1098
885.60 0.1097
885.70 0.1097
885.80 0.1096
885.90 0.1096
886.00 0.1095
886.10 0.1095
886.20 0.1094
886.30 0.1094
886.40 0.1093
886.50 0.1093
886.60 0.1092
886.70 0.1092
886.80 0.1091
886.90 0.1091
887.00 0.1091
887.10 0.109
887.20 0.109
887.30 0.1089
887.40 0.1089
887.50 0.1088
887.60 0.1088
887.70 0.1087
887.80 0.1087
887.90 0.1086
888.00 0.1086
888.10 0.1085
888.20 0.1085
888.30 0.1084
888.40 0.1084
888.50 0.1083
888.60 0.1083
888.70 0.1082
888.80 0.1082
888.90 0.1081
889.00 0.1081
889.10 0.1081
889.20 0.108
889.30 0.108
889.40 0.1079
889.50 0.1079
889.60 0.1078
889.70 0.1078
889.80 0.1077
889.90 0.1077
890.00 0.1076
890.10 0.1076
890.20 0.1075
890.30 0.1075
890.40 0.1074
890.50 0.1074
890.60 0.1073
890.70 0.1073
890.80 0.1072
890.90 0.1072
891.00 0.1072
891.10 0.1071
891.20 0.1071
891.30 0.107
891.40 0.107
891.50 0.1069
891.60 0.1069
891.70 0.1068
891.80 0.1068
891.90 0.1067
892.00 0.1067
892.10 0.1066
892.20 0.1066
892.30 0.1065
892.40 0.1065
892.50 0.1065
892.60 0.1064
892.70 0.1064
892.80 0.1063
892.90 0.1063
893.00 0.1062
893.10 0.1062
893.20 0.1061
893.30 0.1061
893.40 0.106
893.50 0.106
893.60 0.1059
893.70 0.1059
893.80 0.1059
893.90 0.1058
894.00 0.1058
894.10 0.1057
894.20 0.1057
894.30 0.1056
894.40 0.1056
894.50 0.1055
894.60 0.1055
894.70 0.1054
894.80 0.1054
894.90 0.1054
895.00 0.1053
895.10 0.1053
895.20 0.1052
895.30 0.1052
895.40 0.1051
895.50 0.1051
895.60 0.105
895.70 0.105
895.80 0.1049
895.90 0.1049
896.00 0.1048
896.10 0.1048
896.20 0.1048
896.30 0.1047
896.40 0.1047
896.50 0.1046
896.60 0.1046
896.70 0.1045
896.80 0.1045
896.90 0.1044
897.00 0.1044
897.10 0.1043
897.20 0.1043
897.30 0.1043
897.40 0.1042
897.50 0.1042
897.60 0.1041
897.70 0.1041
897.80 0.104
897.90 0.104
898.00 0.1039
898.10 0.1039
898.20 0.1039
898.30 0.1038
898.40 0.1038
898.50 0.1037
898.60 0.1037
898.70 0.1036
898.80 0.1036
898.90 0.1035
899.00 0.1035
899.10 0.1035
899.20 0.1034
899.30 0.1034
899.40 0.1033
899.50 0.1033
899.60 0.1032
899.70 0.1032
899.80 0.1031
899.90 0.1031
900.00 0.1031
900.10 0.103
900.20 0.103
900.30 0.1029
900.40 0.1029
900.50 0.1028
900.60 0.1028
900.70 0.1027
900.80 0.1027
900.90 0.1027
901.00 0.1026
901.10 0.1026
901.20 0.1025
901.30 0.1025
901.40 0.1024
901.50 0.1024
901.60 0.1023
901.70 0.1023
901.80 0.1023
901.90 0.1022
902.00 0.1022
902.10 0.1021
902.20 0.1021
902.30 0.102
902.40 0.102
902.50 0.1019
902.60 0.1019
902.70 0.1019
902.80 0.1018
902.90 0.1018
903.00 0.1017
903.10 0.1017
903.20 0.1016
903.30 0.1016
903.40 0.1016
903.50 0.1015
903.60 0.1015
903.70 0.1014
903.80 0.1014
903.90 0.1013
904.00 0.1013
904.10 0.1012
904.20 0.1012
904.30 0.1012
904.40 0.1011
904.50 0.1011
904.60 0.101
904.70 0.101
904.80 0.1009
904.90 0.1009
905.00 0.1009
905.10 0.1008
905.20 0.1008
905.30 0.1007
905.40 0.1007
905.50 0.1006
905.60 0.1006
905.70 0.1006
905.80 0.1005
905.90 0.1005
906.00 0.1004
906.10 0.1004
906.20 0.1003
906.30 0.1003
906.40 0.1002
906.50 0.1002
906.60 0.1002
906.70 0.1001
906.80 0.1001
906.90 0.1
907.00 0.09999
907.10 0.09995
907.20 0.0999
907.30 0.09986
907.40 0.09982
907.50 0.09978
907.60 0.09973
907.70 0.09969
907.80 0.09965
907.90 0.0996
908.00 0.09956
908.10 0.09952
908.20 0.09948
908.30 0.09943
908.40 0.09939
908.50 0.09935
908.60 0.09931
908.70 0.09927
908.80 0.09922
908.90 0.09918
909.00 0.09914
909.10 0.0991
909.20 0.09905
909.30 0.09901
909.40 0.09897
909.50 0.09893
909.60 0.09888
909.70 0.09884
909.80 0.0988
909.90 0.09876
910.00 0.09871
910.10 0.09867
910.20 0.09863
910.30 0.09859
910.40 0.09855
910.50 0.0985
910.60 0.09846
910.70 0.09842
910.80 0.09838
910.90 0.09834
911.00 0.09829
911.10 0.09825
911.20 0.09821
911.30 0.09817
911.40 0.09813
911.50 0.09808
911.60 0.09804
911.70 0.098
911.80 0.09796
911.90 0.09792
912.00 0.09787
912.10 0.09783
912.20 0.09779
912.30 0.09775
912.40 0.09771
912.50 0.09767
912.60 0.09762
912.70 0.09758
912.80 0.09754
912.90 0.0975
913.00 0.09746
913.10 0.09742
913.20 0.09738
913.30 0.09734
913.40 0.09729
913.50 0.09725
913.60 0.09721
913.70 0.09717
913.80 0.09713
913.90 0.09709
914.00 0.09705
914.10 0.097
914.20 0.09696
914.30 0.09692
914.40 0.09688
914.50 0.09684
914.60 0.0968
914.70 0.09676
914.80 0.09672
914.90 0.09668
915.00 0.09663
915.10 0.09659
915.20 0.09655
915.30 0.09651
915.40 0.09647
915.50 0.09643
915.60 0.09639
915.70 0.09635
915.80 0.09631
915.90 0.09627
916.00 0.09622
916.10 0.09618
916.20 0.09614
916.30 0.0961
916.40 0.09606
916.50 0.09602
916.60 0.09598
916.70 0.09594
916.80 0.0959
916.90 0.09586
917.00 0.09582
917.10 0.09578
917.20 0.09574
917.30 0.0957
917.40 0.09566
917.50 0.09562
917.60 0.09557
917.70 0.09553
917.80 0.09549
917.90 0.09545
918.00 0.09541
918.10 0.09537
918.20 0.09533
918.30 0.09529
918.40 0.09525
918.50 0.09521
918.60 0.09517
918.70 0.09513
918.80 0.09509
918.90 0.09505
919.00 0.09501
919.10 0.09497
919.20 0.09494
919.30 0.0949
919.40 0.09486
919.50 0.09482
919.60 0.09478
919.70 0.09474
919.80 0.0947
919.90 0.09466
920.00 0.09462
920.10 0.09458
920.20 0.09454
920.30 0.0945
920.40 0.09446
920.50 0.09442
920.60 0.09438
920.70 0.09434
920.80 0.0943
920.90 0.09426
921.00 0.09422
921.10 0.09418
921.20 0.09414
921.30 0.0941
921.40 0.09406
921.50 0.09402
921.60 0.09398
921.70 0.09394
921.80 0.0939
921.90 0.09386
922.00 0.09382
922.10 0.09379
922.20 0.09375
922.30 0.09371
922.40 0.09367
922.50 0.09363
922.60 0.09359
922.70 0.09355
922.80 0.09351
922.90 0.09347
923.00 0.09343
923.10 0.09339
923.20 0.09335
923.30 0.09331
923.40 0.09327
923.50 0.09323
923.60 0.0932
923.70 0.09316
923.80 0.09312
923.90 0.09308
924.00 0.09304
924.10 0.093
924.20 0.09296
924.30 0.09292
924.40 0.09288
924.50 0.09284
924.60 0.0928
924.70 0.09277
924.80 0.09273
924.90 0.09269
925.00 0.09265
925.10 0.09261
925.20 0.09257
925.30 0.09253
925.40 0.09249
925.50 0.09245
925.60 0.09241
925.70 0.09238
925.80 0.09234
925.90 0.0923
926.00 0.09226
926.10 0.09222
926.20 0.09218
926.30 0.09214
926.40 0.0921
926.50 0.09207
926.60 0.09203
926.70 0.09199
926.80 0.09195
926.90 0.09191
927.00 0.09187
927.10 0.09183
927.20 0.09179
927.30 0.09176
927.40 0.09172
927.50 0.09168
927.60 0.09164
927.70 0.0916
927.80 0.09157
927.90 0.09153
928.00 0.09149
928.10 0.09145
928.20 0.09141
928.30 0.09138
928.40 0.09134
928.50 0.0913
928.60 0.09126
928.70 0.09122
928.80 0.09119
928.90 0.09115
929.00 0.09111
929.10 0.09107
929.20 0.09103
929.30 0.091
929.40 0.09096
929.50 0.09092
929.60 0.09088
929.70 0.09084
929.80 0.09081
929.90 0.09077
930.00 0.09073
930.10 0.09069
930.20 0.09065
930.30 0.09062
930.40 0.09058
930.50 0.09054
930.60 0.0905
930.70 0.09047
930.80 0.09043
930.90 0.09039
931.00 0.09035
931.10 0.09031
931.20 0.09028
931.30 0.09024
931.40 0.0902
931.50 0.09016
931.60 0.09013
931.70 0.09009
931.80 0.09005
931.90 0.09001
932.00 0.08998
932.10 0.08994
932.20 0.0899
932.30 0.08986
932.40 0.08983
932.50 0.08979
932.60 0.08975
932.70 0.08971
932.80 0.08968
932.90 0.08964
933.00 0.0896
933.10 0.08957
933.20 0.08953
933.30 0.08949
933.40 0.08945
933.50 0.08942
933.60 0.08938
933.70 0.08934
933.80 0.0893
933.90 0.08927
934.00 0.08923
934.10 0.08919
934.20 0.08916
934.30 0.08912
934.40 0.08908
934.50 0.08905
934.60 0.08901
934.70 0.08897
934.80 0.08893
934.90 0.0889
935.00 0.08886
935.10 0.08882
935.20 0.08879
935.30 0.08875
935.40 0.08871
935.50 0.08868
935.60 0.08864
935.70 0.0886
935.80 0.08856
935.90 0.08853
936.00 0.08849
936.10 0.08845
936.20 0.08842
936.30 0.08838
936.40 0.08834
936.50 0.08831
936.60 0.08827
936.70 0.08823
936.80 0.0882
936.90 0.08816
937.00 0.08812
937.10 0.08809
937.20 0.08805
937.30 0.08801
937.40 0.08798
937.50 0.08794
937.60 0.0879
937.70 0.08787
937.80 0.08783
937.90 0.08779
938.00 0.08776
938.10 0.08772
938.20 0.08768
938.30 0.08765
938.40 0.08761
938.50 0.08757
938.60 0.08754
938.70 0.0875
938.80 0.08746
938.90 0.08743
939.00 0.08739
939.10 0.08735
939.20 0.08732
939.30 0.08728
939.40 0.08725
939.50 0.08721
939.60 0.08717
939.70 0.08714
939.80 0.0871
939.90 0.08706
940.00 0.08703
940.10 0.08699
940.20 0.08695
940.30 0.08692
940.40 0.08688
940.50 0.08685
940.60 0.08681
940.70 0.08677
940.80 0.08674
940.90 0.0867
941.00 0.08667
941.10 0.08663
941.20 0.08659
941.30 0.08656
941.40 0.08652
941.50 0.08648
941.60 0.08645
941.70 0.08641
941.80 0.08638
941.90 0.08634
942.00 0.0863
942.10 0.08627
942.20 0.08623
942.30 0.0862
942.40 0.08616
942.50 0.08612
942.60 0.08609
942.70 0.08605
942.80 0.08602
942.90 0.08598
943.00 0.08594
943.10 0.08591
943.20 0.08587
943.30 0.08584
943.40 0.0858
943.50 0.08577
943.60 0.08573
943.70 0.08569
943.80 0.08566
943.90 0.08562
944.00 0.08559
944.10 0.08555
944.20 0.08551
944.30 0.08548
944.40 0.08544
944.50 0.08541
944.60 0.08537
944.70 0.08534
944.80 0.0853
944.90 0.08526
945.00 0.08523
945.10 0.08519
945.20 0.08516
945.30 0.08512
945.40 0.08509
945.50 0.08505
945.60 0.08502
945.70 0.08498
945.80 0.08494
945.90 0.08491
946.00 0.08487
946.10 0.08484
946.20 0.0848
946.30 0.08477
946.40 0.08473
946.50 0.0847
946.60 0.08466
946.70 0.08463
946.80 0.08459
946.90 0.08456
947.00 0.08452
947.10 0.08449
947.20 0.08445
947.30 0.08441
947.40 0.08438
947.50 0.08434
947.60 0.08431
947.70 0.08427
947.80 0.08424
947.90 0.0842
948.00 0.08417
948.10 0.08413
948.20 0.0841
948.30 0.08406
948.40 0.08403
948.50 0.08399
948.60 0.08396
948.70 0.08392
948.80 0.08389
948.90 0.08385
949.00 0.08382
949.10 0.08378
949.20 0.08375
949.30 0.08372
949.40 0.08368
949.50 0.08365
949.60 0.08361
949.70 0.08358
949.80 0.08354
949.90 0.08351
950.00 0.08347
950.10 0.08344
950.20 0.0834
950.30 0.08337
950.40 0.08334
950.50 0.0833
950.60 0.08327
950.70 0.08323
950.80 0.0832
950.90 0.08316
951.00 0.08313
951.10 0.0831
951.20 0.08306
951.30 0.08303
951.40 0.08299
951.50 0.08296
951.60 0.08292
951.70 0.08289
951.80 0.08286
951.90 0.08282
952.00 0.08279
952.10 0.08276
952.20 0.08272
952.30 0.08269
952.40 0.08266
952.50 0.08262
952.60 0.08259
952.70 0.08256
952.80 0.08252
952.90 0.08249
953.00 0.08246
953.10 0.08242
953.20 0.08239
953.30 0.08236
953.40 0.08232
953.50 0.08229
953.60 0.08226
953.70 0.08223
953.80 0.08219
953.90 0.08216
954.00 0.08213
954.10 0.08209
954.20 0.08206
954.30 0.08203
954.40 0.082
954.50 0.08197
954.60 0.08193
954.70 0.0819
954.80 0.08187
954.90 0.08183
955.00 0.0818
955.10 0.08176
955.20 0.08173
955.30 0.0817
955.40 0.08166
955.50 0.08163
955.60 0.08159
955.70 0.08156
955.80 0.08153
955.90 0.08149
956.00 0.08146
956.10 0.08143
956.20 0.08139
956.30 0.08136
956.40 0.08133
956.50 0.0813
956.60 0.08126
956.70 0.08123
956.80 0.0812
956.90 0.08116
957.00 0.08113
957.10 0.0811
957.20 0.08107
957.30 0.08103
957.40 0.081
957.50 0.08097
957.60 0.08094
957.70 0.0809
957.80 0.08087
957.90 0.08084
958.00 0.08081
958.10 0.08077
958.20 0.08074
958.30 0.08071
958.40 0.08068
958.50 0.08065
958.60 0.08061
958.70 0.08058
958.80 0.08055
958.90 0.08052
959.00 0.08049
959.10 0.08045
959.20 0.08042
959.30 0.08039
959.40 0.08036
959.50 0.08033
959.60 0.08029
959.70 0.08026
959.80 0.08023
959.90 0.0802
960.00 0.08017
960.10 0.08014
960.20 0.0801
960.30 0.08007
960.40 0.08004
960.50 0.08001
960.60 0.07998
960.70 0.07995
960.80 0.07992
960.90 0.07988
961.00 0.07985
961.10 0.07982
961.20 0.07979
961.30 0.07976
961.40 0.07973
961.50 0.07969
961.60 0.07966
961.70 0.07963
961.80 0.0796
961.90 0.07957
962.00 0.07954
962.10 0.07951
962.20 0.07948
962.30 0.07944
962.40 0.07941
962.50 0.07938
962.60 0.07935
962.70 0.07932
962.80 0.07929
962.90 0.07926
963.00 0.07923
963.10 0.0792
963.20 0.07916
963.30 0.07913
963.40 0.0791
963.50 0.07907
963.60 0.07904
963.70 0.07901
963.80 0.07898
963.90 0.07895
964.00 0.07892
964.10 0.07888
964.20 0.07885
964.30 0.07882
964.40 0.07879
964.50 0.07876
964.60 0.07873
964.70 0.0787
964.80 0.07867
964.90 0.07864
965.00 0.07861
965.10 0.07857
965.20 0.07854
965.30 0.07851
965.40 0.07848
965.50 0.07845
965.60 0.07842
965.70 0.07839
965.80 0.07836
965.90 0.07833
966.00 0.0783
966.10 0.07827
966.20 0.07824
966.30 0.0782
966.40 0.07817
966.50 0.07814
966.60 0.07811
966.70 0.07808
966.80 0.07805
966.90 0.07802
967.00 0.07799
967.10 0.07796
967.20 0.07793
967.30 0.0779
967.40 0.07787
967.50 0.07784
967.60 0.07781
967.70 0.07777
967.80 0.07774
967.90 0.07771
968.00 0.07768
968.10 0.07765
968.20 0.07762
968.30 0.07759
968.40 0.07756
968.50 0.07753
968.60 0.0775
968.70 0.07747
968.80 0.07744
968.90 0.07741
969.00 0.07738
969.10 0.07735
969.20 0.07732
969.30 0.07729
969.40 0.07725
969.50 0.07722
969.60 0.07719
969.70 0.07716
969.80 0.07713
969.90 0.0771
970.00 0.07707
970.10 0.07704
970.20 0.07701
970.30 0.07698
970.40 0.07695
970.50 0.07692
970.60 0.07689
970.70 0.07686
970.80 0.07683
970.90 0.0768
971.00 0.07677
971.10 0.07674
971.20 0.07671
971.30 0.07668
971.40 0.07665
971.50 0.07662
971.60 0.07658
971.70 0.07655
971.80 0.07652
971.90 0.07649
972.00 0.07646
972.10 0.07643
972.20 0.0764
972.30 0.07637
972.40 0.07634
972.50 0.07631
972.60 0.07628
972.70 0.07625
972.80 0.07622
972.90 0.07619
973.00 0.07616
973.10 0.07613
973.20 0.0761
973.30 0.07607
973.40 0.07604
973.50 0.07601
973.60 0.07598
973.70 0.07595
973.80 0.07592
973.90 0.07589
974.00 0.07586
974.10 0.07583
974.20 0.0758
974.30 0.07577
974.40 0.07574
974.50 0.07571
974.60 0.07568
974.70 0.07565
974.80 0.07562
974.90 0.07559
975.00 0.07556
975.10 0.07553
975.20 0.0755
975.30 0.07547
975.40 0.07544
975.50 0.07541
975.60 0.07538
975.70 0.07535
975.80 0.07532
975.90 0.07528
976.00 0.07525
976.10 0.07522
976.20 0.07519
976.30 0.07516
976.40 0.07513
976.50 0.0751
976.60 0.07507
976.70 0.07504
976.80 0.07501
976.90 0.07498
977.00 0.07495
977.10 0.07492
977.20 0.07489
977.30 0.07486
977.40 0.07483
977.50 0.0748
977.60 0.07477
977.70 0.07474
977.80 0.07471
977.90 0.07468
978.00 0.07465
978.10 0.07462
978.20 0.07459
978.30 0.07456
978.40 0.07453
978.50 0.0745
978.60 0.07447
978.70 0.07444
978.80 0.07441
978.90 0.07438
979.00 0.07435
979.10 0.07432
979.20 0.07429
979.30 0.07426
979.40 0.07423
979.50 0.0742
979.60 0.07417
979.70 0.07414
979.80 0.07411
979.90 0.07408
980.00 0.07405
980.10 0.07402
980.20 0.07399
980.30 0.07397
980.40 0.07394
980.50 0.07391
980.60 0.07388
980.70 0.07385
980.80 0.07382
980.90 0.07379
981.00 0.07376
981.10 0.07373
981.20 0.0737
981.30 0.07367
981.40 0.07364
981.50 0.07361
981.60 0.07358
981.70 0.07355
981.80 0.07352
981.90 0.07349
982.00 0.07346
982.10 0.07343
982.20 0.0734
982.30 0.07337
982.40 0.07334
982.50 0.07331
982.60 0.07328
982.70 0.07325
982.80 0.07322
982.90 0.07319
983.00 0.07316
983.10 0.07313
983.20 0.0731
983.30 0.07307
983.40 0.07304
983.50 0.07301
983.60 0.07298
983.70 0.07295
983.80 0.07292
983.90 0.07289
984.00 0.07286
984.10 0.07283
984.20 0.07281
984.30 0.07278
984.40 0.07275
984.50 0.07272
984.60 0.07269
984.70 0.07266
984.80 0.07263
984.90 0.0726
985.00 0.07257
985.10 0.07254
985.20 0.07251
985.30 0.07248
985.40 0.07245
985.50 0.07242
985.60 0.07239
985.70 0.07236
985.80 0.07233
985.90 0.0723
986.00 0.07227
986.10 0.07224
986.20 0.07221
986.30 0.07218
986.40 0.07215
986.50 0.07212
986.60 0.07209
986.70 0.07206
986.80 0.07203
986.90 0.072
987.00 0.07197
987.10 0.07194
987.20 0.07192
987.30 0.07189
987.40 0.07186
987.50 0.07183
987.60 0.0718
987.70 0.07177
987.80 0.07174
987.90 0.07171
988.00 0.07168
988.10 0.07165
988.20 0.07162
988.30 0.07159
988.40 0.07156
988.50 0.07153
988.60 0.0715
988.70 0.07147
988.80 0.07144
988.90 0.07141
989.00 0.07138
989.10 0.07135
989.20 0.07132
989.30 0.07129
989.40 0.07126
989.50 0.07123
989.60 0.0712
989.70 0.07117
989.80 0.07114
989.90 0.07112
990.00 0.07109
990.10 0.07106
990.20 0.07103
990.30 0.071
990.40 0.07097
990.50 0.07094
990.60 0.07091
990.70 0.07088
990.80 0.07085
990.90 0.07082
991.00 0.07079
991.10 0.07076
991.20 0.07073
991.30 0.0707
991.40 0.07067
991.50 0.07064
991.60 0.07061
991.70 0.07058
991.80 0.07055
991.90 0.07052
992.00 0.07049
992.10 0.07046
992.20 0.07044
992.30 0.07041
992.40 0.07038
992.50 0.07035
992.60 0.07032
992.70 0.07029
992.80 0.07026
992.90 0.07023
993.00 0.0702
993.10 0.07017
993.20 0.07014
993.30 0.07011
993.40 0.07008
993.50 0.07005
993.60 0.07002
993.70 0.06999
993.80 0.06996
993.90 0.06993
994.00 0.0699
994.10 0.06987
994.20 0.06984
994.30 0.06981
994.40 0.06978
994.50 0.06975
994.60 0.06973
994.70 0.0697
994.80 0.06967
994.90 0.06964
995.00 0.06961
995.10 0.06958
995.20 0.06955
995.30 0.06952
995.40 0.06949
995.50 0.06946
995.60 0.06943
995.70 0.0694
995.80 0.06937
995.90 0.06934
996.00 0.06931
996.10 0.06928
996.20 0.06925
996.30 0.06922
996.40 0.06919
996.50 0.06916
996.60 0.06913
996.70 0.06911
996.80 0.06908
996.90 0.06905
997.00 0.06902
997.10 0.06899
997.20 0.06896
997.30 0.06893
997.40 0.0689
997.50 0.06887
997.60 0.06884
997.70 0.06881
997.80 0.06878
997.90 0.06875
998.00 0.06872
998.10 0.06869
998.20 0.06867
998.30 0.06864
998.40 0.06861
998.50 0.06858
998.60 0.06855
998.70 0.06852
998.80 0.06849
998.90 0.06846
999.00 0.06843
999.10 0.0684
999.20 0.06837
999.30 0.06835
999.40 0.06832
999.50 0.06829
999.60 0.06826
999.70 0.06823
999.80 0.0682
999.90 0.06817
1000.00 0.06814
1000.10 0.06811
1000.20 0.06808
1000.30 0.06805
1000.40 0.06802
1000.50 0.06799
1000.60 0.06796
1000.70 0.06793
1000.80 0.0679
1000.90 0.06787
1001.00 0.06784
1001.10 0.06781
1001.20 0.06778
1001.30 0.06775
1001.40 0.06772
1001.50 0.06769
1001.60 0.06766
1001.70 0.06764
1001.80 0.06761
1001.90 0.06758
1002.00 0.06755
1002.10 0.06753
1002.20 0.0675
1002.30 0.06748
1002.40 0.06745
1002.50 0.06743
1002.60 0.0674
1002.70 0.06737
1002.80 0.06735
1002.90 0.06732
1003.00 0.0673
1003.10 0.06727
1003.20 0.06725
1003.30 0.06722
1003.40 0.0672
1003.50 0.06718
1003.60 0.06715
1003.70 0.06713
1003.80 0.06711
1003.90 0.06708
1004.00 0.06706
1004.10 0.06704
1004.20 0.06702
1004.30 0.067
1004.40 0.06697
1004.50 0.06695
1004.60 0.06693
1004.70 0.06691
1004.80 0.06688
1004.90 0.06686
1005.00 0.06683
1005.10 0.0668
1005.20 0.06677
1005.30 0.06675
1005.40 0.06672
1005.50 0.06669
1005.60 0.06666
1005.70 0.06663
1005.80 0.0666
1005.90 0.06657
1006.00 0.06654
1006.10 0.06651
1006.20 0.06649
1006.30 0.06646
1006.40 0.06643
1006.50 0.0664
1006.60 0.06638
1006.70 0.06635
1006.80 0.06632
1006.90 0.06629
1007.00 0.06627
1007.10 0.06624
1007.20 0.06622
1007.30 0.06619
1007.40 0.06616
1007.50 0.06614
1007.60 0.06611
1007.70 0.06609
1007.80 0.06607
1007.90 0.06604
1008.00 0.06602
1008.10 0.06599
1008.20 0.06597
1008.30 0.06595
1008.40 0.06592
1008.50 0.0659
1008.60 0.06587
1008.70 0.06585
1008.80 0.06583
1008.90 0.0658
1009.00 0.06578
1009.10 0.06575
1009.20 0.06573
1009.30 0.06571
1009.40 0.06568
1009.50 0.06566
1009.60 0.06564
1009.70 0.06561
1009.80 0.06559
1009.90 0.06557
1010.00 0.06554
1010.10 0.06552
1010.20 0.0655
1010.30 0.06548
1010.40 0.06545
1010.50 0.06543
1010.60 0.06541
1010.70 0.06538
1010.80 0.06536
1010.90 0.06534
1011.00 0.06532
1011.10 0.06529
1011.20 0.06527
1011.30 0.06525
1011.40 0.06522
1011.50 0.0652
1011.60 0.06518
1011.70 0.06516
1011.80 0.06513
1011.90 0.06511
1012.00 0.06509
1012.10 0.06507
1012.20 0.06504
1012.30 0.06502
1012.40 0.065
1012.50 0.06498
1012.60 0.06495
1012.70 0.06493
1012.80 0.06491
1012.90 0.06489
1013.00 0.06486
1013.10 0.06484
1013.20 0.06482
1013.30 0.0648
1013.40 0.06477
1013.50 0.06475
1013.60 0.06473
1013.70 0.06471
1013.80 0.06469
1013.90 0.06466
1014.00 0.06464
1014.10 0.06462
1014.20 0.0646
1014.30 0.06457
1014.40 0.06455
1014.50 0.06453
1014.60 0.06451
1014.70 0.06448
1014.80 0.06446
1014.90 0.06444
1015.00 0.06442
1015.10 0.06439
1015.20 0.06437
1015.30 0.06435
1015.40 0.06433
1015.50 0.0643
1015.60 0.06428
1015.70 0.06426
1015.80 0.06424
1015.90 0.06421
1016.00 0.06419
1016.10 0.06417
1016.20 0.06415
1016.30 0.06412
1016.40 0.0641
1016.50 0.06408
1016.60 0.06406
1016.70 0.06403
1016.80 0.06401
1016.90 0.06399
1017.00 0.06397
1017.10 0.06394
1017.20 0.06392
1017.30 0.0639
1017.40 0.06388
1017.50 0.06385
1017.60 0.06383
1017.70 0.06381
1017.80 0.06379
1017.90 0.06376
1018.00 0.06374
1018.10 0.06372
1018.20 0.0637
1018.30 0.06367
1018.40 0.06365
1018.50 0.06363
1018.60 0.06361
1018.70 0.06358
1018.80 0.06356
1018.90 0.06354
1019.00 0.06352
1019.10 0.06349
1019.20 0.06347
1019.30 0.06345
1019.40 0.06343
1019.50 0.0634
1019.60 0.06338
1019.70 0.06336
1019.80 0.06333
1019.90 0.06331
1020.00 0.06329
1020.10 0.06327
1020.20 0.06324
1020.30 0.06322
1020.40 0.0632
1020.50 0.06318
1020.60 0.06315
1020.70 0.06313
1020.80 0.06311
1020.90 0.06309
1021.00 0.06306
1021.10 0.06304
1021.20 0.06302
1021.30 0.063
1021.40 0.06297
1021.50 0.06295
1021.60 0.06293
1021.70 0.06291
1021.80 0.06288
1021.90 0.06286
1022.00 0.06284
1022.10 0.06282
1022.20 0.06279
1022.30 0.06277
1022.40 0.06275
1022.50 0.06272
1022.60 0.0627
1022.70 0.06268
1022.80 0.06266
1022.90 0.06263
1023.00 0.06261
1023.10 0.06259
1023.20 0.06257
1023.30 0.06254
1023.40 0.06252
1023.50 0.0625
1023.60 0.06248
1023.70 0.06245
1023.80 0.06243
1023.90 0.06241
1024.00 0.06239
1024.10 0.06236
1024.20 0.06234
1024.30 0.06232
1024.40 0.0623
1024.50 0.06227
1024.60 0.06225
1024.70 0.06223
1024.80 0.0622
1024.90 0.06218
1025.00 0.06216
1025.10 0.06214
1025.20 0.06211
1025.30 0.06209
1025.40 0.06207
1025.50 0.06205
1025.60 0.06202
1025.70 0.062
1025.80 0.06198
1025.90 0.06196
1026.00 0.06193
1026.10 0.06191
1026.20 0.06189
1026.30 0.06187
1026.40 0.06184
1026.50 0.06182
1026.60 0.0618
1026.70 0.06178
1026.80 0.06175
1026.90 0.06173
1027.00 0.06171
1027.10 0.06169
1027.20 0.06166
1027.30 0.06164
1027.40 0.06162
1027.50 0.06159
1027.60 0.06157
1027.70 0.06155
1027.80 0.06153
1027.90 0.0615
1028.00 0.06148
1028.10 0.06146
1028.20 0.06144
1028.30 0.06141
1028.40 0.06139
1028.50 0.06137
1028.60 0.06135
1028.70 0.06132
1028.80 0.0613
1028.90 0.06128
1029.00 0.06126
1029.10 0.06123
1029.20 0.06121
1029.30 0.06119
1029.40 0.06117
1029.50 0.06114
1029.60 0.06112
1029.70 0.0611
1029.80 0.06108
1029.90 0.06105
1030.00 0.06103
1030.10 0.06101
1030.20 0.06099
1030.30 0.06096
1030.40 0.06094
1030.50 0.06092
1030.60 0.0609
1030.70 0.06087
1030.80 0.06085
1030.90 0.06083
1031.00 0.06081
1031.10 0.06078
1031.20 0.06076
1031.30 0.06074
1031.40 0.06072
1031.50 0.0607
1031.60 0.06067
1031.70 0.06065
1031.80 0.06063
1031.90 0.06061
1032.00 0.06058
1032.10 0.06056
1032.20 0.06054
1032.30 0.06052
1032.40 0.06049
1032.50 0.06047
1032.60 0.06045
1032.70 0.06043
1032.80 0.0604
1032.90 0.06038
1033.00 0.06036
1033.10 0.06034
1033.20 0.06032
1033.30 0.06029
1033.40 0.06027
1033.50 0.06025
1033.60 0.06023
1033.70 0.0602
1033.80 0.06018
1033.90 0.06016
1034.00 0.06014
1034.10 0.06011
1034.20 0.06009
1034.30 0.06007
1034.40 0.06005
1034.50 0.06003
1034.60 0.06
1034.70 0.05998
1034.80 0.05996
1034.90 0.05994
1035.00 0.05991
1035.10 0.05989
1035.20 0.05987
1035.30 0.05985
1035.40 0.05983
1035.50 0.0598
1035.60 0.05978
1035.70 0.05976
1035.80 0.05974
1035.90 0.05971
1036.00 0.05969
1036.10 0.05967
1036.20 0.05965
1036.30 0.05963
1036.40 0.0596
1036.50 0.05958
1036.60 0.05956
1036.70 0.05954
1036.80 0.05952
1036.90 0.05949
1037.00 0.05947
1037.10 0.05945
1037.20 0.05943
1037.30 0.05941
1037.40 0.05938
1037.50 0.05936
1037.60 0.05934
1037.70 0.05932
1037.80 0.0593
1037.90 0.05927
1038.00 0.05925
1038.10 0.05923
1038.20 0.05921
1038.30 0.05918
1038.40 0.05916
1038.50 0.05914
1038.60 0.05912
1038.70 0.0591
1038.80 0.05908
1038.90 0.05905
1039.00 0.05903
1039.10 0.05901
1039.20 0.05899
1039.30 0.05897
1039.40 0.05894
1039.50 0.05892
1039.60 0.0589
1039.70 0.05888
1039.80 0.05886
1039.90 0.05883
1040.00 0.05881
1040.10 0.05879
1040.20 0.05877
1040.30 0.05875
1040.40 0.05872
1040.50 0.0587
1040.60 0.05868
1040.70 0.05866
1040.80 0.05864
1040.90 0.05862
1041.00 0.05859
1041.10 0.05857
1041.20 0.05855
1041.30 0.05853
1041.40 0.05851
1041.50 0.05848
1041.60 0.05846
1041.70 0.05844
1041.80 0.05842
1041.90 0.0584
1042.00 0.05838
1042.10 0.05835
1042.20 0.05833
1042.30 0.05831
1042.40 0.05829
1042.50 0.05827
1042.60 0.05825
1042.70 0.05822
1042.80 0.0582
1042.90 0.05818
1043.00 0.05816
1043.10 0.05814
1043.20 0.05812
1043.30 0.05809
1043.40 0.05807
1043.50 0.05805
1043.60 0.05803
1043.70 0.05801
1043.80 0.05799
1043.90 0.05796
1044.00 0.05794
1044.10 0.05792
1044.20 0.0579
1044.30 0.05788
1044.40 0.05786
1044.50 0.05783
1044.60 0.05781
1044.70 0.05779
1044.80 0.05777
1044.90 0.05775
1045.00 0.05773
1045.10 0.05771
1045.20 0.05768
1045.30 0.05766
1045.40 0.05764
1045.50 0.05762
1045.60 0.0576
1045.70 0.05758
1045.80 0.05755
1045.90 0.05753
1046.00 0.05751
1046.10 0.05749
1046.20 0.05747
1046.30 0.05745
1046.40 0.05743
1046.50 0.0574
1046.60 0.05738
1046.70 0.05736
1046.80 0.05734
1046.90 0.05732
1047.00 0.0573
1047.10 0.05728
1047.20 0.05725
1047.30 0.05723
1047.40 0.05721
1047.50 0.05719
1047.60 0.05717
1047.70 0.05715
1047.80 0.05713
1047.90 0.05711
1048.00 0.05708
1048.10 0.05706
1048.20 0.05704
1048.30 0.05702
1048.40 0.057
1048.50 0.05698
1048.60 0.05696
1048.70 0.05693
1048.80 0.05691
1048.90 0.05689
1049.00 0.05687
1049.10 0.05685
1049.20 0.05683
1049.30 0.05681
1049.40 0.05679
1049.50 0.05676
1049.60 0.05674
1049.70 0.05672
1049.80 0.0567
1049.90 0.05668
1050.00 0.05666
1050.10 0.05664
1050.20 0.05662
1050.30 0.0566
1050.40 0.05657
1050.50 0.05655
1050.60 0.05653
1050.70 0.05651
1050.80 0.05649
1050.90 0.05647
1051.00 0.05645
1051.10 0.05643
1051.20 0.05641
1051.30 0.05638
1051.40 0.05636
1051.50 0.05634
1051.60 0.05632
1051.70 0.0563
1051.80 0.05628
1051.90 0.05626
1052.00 0.05624
1052.10 0.05622
1052.20 0.05619
1052.30 0.05617
1052.40 0.05615
1052.50 0.05613
1052.60 0.05611
1052.70 0.05609
1052.80 0.05607
1052.90 0.05605
1053.00 0.05603
1053.10 0.05601
1053.20 0.05598
1053.30 0.05596
1053.40 0.05594
1053.50 0.05592
1053.60 0.0559
1053.70 0.05588
1053.80 0.05586
1053.90 0.05584
1054.00 0.05582
1054.10 0.0558
1054.20 0.05578
1054.30 0.05575
1054.40 0.05573
1054.50 0.05571
1054.60 0.05569
1054.70 0.05567
1054.80 0.05565
1054.90 0.05563
1055.00 0.05561
1055.10 0.05559
1055.20 0.05557
1055.30 0.05555
1055.40 0.05553
1055.50 0.0555
1055.60 0.05548
1055.70 0.05546
1055.80 0.05544
1055.90 0.05542
1056.00 0.0554
1056.10 0.05538
1056.20 0.05536
1056.30 0.05534
1056.40 0.05532
1056.50 0.0553
1056.60 0.05528
1056.70 0.05526
1056.80 0.05524
1056.90 0.05521
1057.00 0.05519
1057.10 0.05517
1057.20 0.05515
1057.30 0.05513
1057.40 0.05511
1057.50 0.05509
1057.60 0.05507
1057.70 0.05505
1057.80 0.05503
1057.90 0.05501
1058.00 0.05499
1058.10 0.05497
1058.20 0.05495
1058.30 0.05492
1058.40 0.0549
1058.50 0.05488
1058.60 0.05486
1058.70 0.05484
1058.80 0.05482
1058.90 0.0548
1059.00 0.05478
1059.10 0.05476
1059.20 0.05474
1059.30 0.05472
1059.40 0.0547
1059.50 0.05468
1059.60 0.05466
1059.70 0.05464
1059.80 0.05462
1059.90 0.0546
1060.00 0.05457
1060.10 0.05455
1060.20 0.05453
1060.30 0.05451
1060.40 0.05449
1060.50 0.05447
1060.60 0.05445
1060.70 0.05443
1060.80 0.05441
1060.90 0.05439
1061.00 0.05437
1061.10 0.05435
1061.20 0.05433
1061.30 0.05431
1061.40 0.05429
1061.50 0.05427
1061.60 0.05425
1061.70 0.05423
1061.80 0.05421
1061.90 0.05419
1062.00 0.05417
1062.10 0.05414
1062.20 0.05412
1062.30 0.0541
1062.40 0.05408
1062.50 0.05406
1062.60 0.05404
1062.70 0.05402
1062.80 0.054
1062.90 0.05398
1063.00 0.05396
1063.10 0.05394
1063.20 0.05392
1063.30 0.0539
1063.40 0.05388
1063.50 0.05386
1063.60 0.05384
1063.70 0.05382
1063.80 0.0538
1063.90 0.05378
1064.00 0.05376
1064.10 0.05374
1064.20 0.05372
1064.30 0.0537
1064.40 0.05367
1064.50 0.05365
1064.60 0.05363
1064.70 0.05361
1064.80 0.05359
1064.90 0.05357
1065.00 0.05355
1065.10 0.05353
1065.20 0.05351
1065.30 0.05349
1065.40 0.05347
1065.50 0.05345
1065.60 0.05343
1065.70 0.05341
1065.80 0.05339
1065.90 0.05337
1066.00 0.05335
1066.10 0.05333
1066.20 0.05331
1066.30 0.05329
1066.40 0.05327
1066.50 0.05325
1066.60 0.05323
1066.70 0.05321
1066.80 0.05319
1066.90 0.05317
1067.00 0.05315
1067.10 0.05313
1067.20 0.05311
1067.30 0.05309
1067.40 0.05307
1067.50 0.05305
1067.60 0.05302
1067.70 0.053
1067.80 0.05298
1067.90 0.05296
1068.00 0.05294
1068.10 0.05292
1068.20 0.0529
1068.30 0.05288
1068.40 0.05286
1068.50 0.05284
1068.60 0.05282
1068.70 0.0528
1068.80 0.05278
1068.90 0.05276
1069.00 0.05274
1069.10 0.05272
1069.20 0.0527
1069.30 0.05268
1069.40 0.05266
1069.50 0.05264
1069.60 0.05262
1069.70 0.0526
1069.80 0.05258
1069.90 0.05256
1070.00 0.05254
1070.10 0.05252
1070.20 0.0525
1070.30 0.05248
1070.40 0.05246
1070.50 0.05244
1070.60 0.05241
1070.70 0.05239
1070.80 0.05237
1070.90 0.05235
1071.00 0.05233
1071.10 0.05231
1071.20 0.05229
1071.30 0.05227
1071.40 0.05225
1071.50 0.05223
1071.60 0.05221
1071.70 0.05219
1071.80 0.05217
1071.90 0.05215
1072.00 0.05213
1072.10 0.05211
1072.20 0.05209
1072.30 0.05207
1072.40 0.05205
1072.50 0.05203
1072.60 0.05201
1072.70 0.05199
1072.80 0.05197
1072.90 0.05195
1073.00 0.05193
1073.10 0.05191
1073.20 0.05189
1073.30 0.05187
1073.40 0.05185
1073.50 0.05183
1073.60 0.05181
1073.70 0.05179
1073.80 0.05177
1073.90 0.05174
1074.00 0.05172
1074.10 0.0517
1074.20 0.05168
1074.30 0.05166
1074.40 0.05164
1074.50 0.05162
1074.60 0.0516
1074.70 0.05158
1074.80 0.05156
1074.90 0.05154
1075.00 0.05152
1075.10 0.0515
1075.20 0.05148
1075.30 0.05146
1075.40 0.05144
1075.50 0.05142
1075.60 0.0514
1075.70 0.05137
1075.80 0.05135
1075.90 0.05133
1076.00 0.05131
1076.10 0.05129
1076.20 0.05127
1076.30 0.05125
1076.40 0.05123
1076.50 0.05121
1076.60 0.05119
1076.70 0.05117
1076.80 0.05115
1076.90 0.05113
1077.00 0.05111
1077.10 0.05109
1077.20 0.05107
1077.30 0.05105
1077.40 0.05103
1077.50 0.05101
1077.60 0.05098
1077.70 0.05096
1077.80 0.05094
1077.90 0.05092
1078.00 0.0509
1078.10 0.05088
1078.20 0.05086
1078.30 0.05084
1078.40 0.05082
1078.50 0.0508
1078.60 0.05078
1078.70 0.05076
1078.80 0.05073
1078.90 0.05071
1079.00 0.05069
1079.10 0.05067
1079.20 0.05065
1079.30 0.05063
1079.40 0.05061
1079.50 0.05059
1079.60 0.05057
1079.70 0.05055
1079.80 0.05053
1079.90 0.0505
1080.00 0.05048
1080.10 0.05046
1080.20 0.05044
1080.30 0.05042
1080.40 0.0504
1080.50 0.05038
1080.60 0.05036
1080.70 0.05034
1080.80 0.05031
1080.90 0.05029
1081.00 0.05027
1081.10 0.05025
1081.20 0.05023
1081.30 0.05021
1081.40 0.05019
1081.50 0.05017
1081.60 0.05015
1081.70 0.05012
1081.80 0.0501
1081.90 0.05008
1082.00 0.05006
1082.10 0.05004
1082.20 0.05002
1082.30 0.05
1082.40 0.04998
1082.50 0.04995
1082.60 0.04993
1082.70 0.04991
1082.80 0.04989
1082.90 0.04987
1083.00 0.04985
1083.10 0.04983
1083.20 0.0498
1083.30 0.04978
1083.40 0.04976
1083.50 0.04974
1083.60 0.04972
1083.70 0.0497
1083.80 0.04968
1083.90 0.04965
1084.00 0.04963
1084.10 0.04961
1084.20 0.04959
1084.30 0.04957
1084.40 0.04955
1084.50 0.04952
1084.60 0.0495
1084.70 0.04948
1084.80 0.04946
1084.90 0.04944
1085.00 0.04942
1085.10 0.04939
1085.20 0.04937
1085.30 0.04935
1085.40 0.04933
1085.50 0.04931
1085.60 0.04929
1085.70 0.04926
1085.80 0.04924
1085.90 0.04922
1086.00 0.0492
1086.10 0.04918
1086.20 0.04916
1086.30 0.04913
1086.40 0.04911
1086.50 0.04909
1086.60 0.04907
1086.70 0.04905
1086.80 0.04903
1086.90 0.049
1087.00 0.04898
1087.10 0.04896
1087.20 0.04894
1087.30 0.04892
1087.40 0.0489
1087.50 0.04887
1087.60 0.04885
1087.70 0.04883
1087.80 0.04881
1087.90 0.04879
1088.00 0.04877
1088.10 0.04875
1088.20 0.04872
1088.30 0.0487
1088.40 0.04868
1088.50 0.04866
1088.60 0.04864
1088.70 0.04862
1088.80 0.0486
1088.90 0.04858
1089.00 0.04855
1089.10 0.04853
1089.20 0.04851
1089.30 0.04849
1089.40 0.04847
1089.50 0.04845
1089.60 0.04843
1089.70 0.04841
1089.80 0.04839
1089.90 0.04836
1090.00 0.04834
1090.10 0.04832
1090.20 0.0483
1090.30 0.04828
1090.40 0.04826
1090.50 0.04824
1090.60 0.04822
1090.70 0.0482
1090.80 0.04818
1090.90 0.04816
1091.00 0.04814
1091.10 0.04812
1091.20 0.0481
1091.30 0.04808
1091.40 0.04806
1091.50 0.04804
1091.60 0.04802
1091.70 0.048
1091.80 0.04798
1091.90 0.04796
1092.00 0.04794
1092.10 0.04792
1092.20 0.0479
1092.30 0.04788
1092.40 0.04786
1092.50 0.04784
1092.60 0.04782
1092.70 0.0478
1092.80 0.04778
1092.90 0.04776
1093.00 0.04775
1093.10 0.04773
1093.20 0.04771
1093.30 0.04769
1093.40 0.04768
1093.50 0.04767
1093.60 0.04767
1093.70 0.04767
1093.80 0.04766
1093.90 0.04764
1094.00 0.04761
1094.10 0.04758
1094.20 0.04755
1094.30 0.04753
1094.40 0.04751
1094.50 0.0475
1094.60 0.04748
1094.70 0.04747
1094.80 0.04745
1094.90 0.04744
1095.00 0.04742
1095.10 0.04741
1095.20 0.04739
1095.30 0.04738
1095.40 0.04736
1095.50 0.04735
1095.60 0.04734
1095.70 0.04732
1095.80 0.04731
1095.90 0.04729
1096.00 0.04728
1096.10 0.04727
1096.20 0.04725
1096.30 0.04724
1096.40 0.04723
1096.50 0.04721
1096.60 0.0472
1096.70 0.04718
1096.80 0.04717
1096.90 0.04716
1097.00 0.04714
1097.10 0.04713
1097.20 0.04712
1097.30 0.0471
1097.40 0.04709
1097.50 0.04708
1097.60 0.04707
1097.70 0.04705
1097.80 0.04704
1097.90 0.04703
1098.00 0.04701
1098.10 0.047
1098.20 0.04699
1098.30 0.04697
1098.40 0.04696
1098.50 0.04695
1098.60 0.04694
1098.70 0.04692
1098.80 0.04691
1098.90 0.0469
1099.00 0.04689
1099.10 0.04687
1099.20 0.04686
1099.30 0.04685
1099.40 0.04684
1099.50 0.04682
1099.60 0.04681
1099.70 0.0468
1099.80 0.04678
1099.90 0.04677
1100.00 0.04676
1100.10 0.04675
1100.20 0.04673
1100.30 0.04672
1100.40 0.04671
1100.50 0.0467
1100.60 0.04668
1100.70 0.04667
1100.80 0.04666
1100.90 0.04665
1101.00 0.04663
1101.10 0.04662
1101.20 0.04661
1101.30 0.0466
1101.40 0.04658
1101.50 0.04657
1101.60 0.04656
1101.70 0.04655
1101.80 0.04653
1101.90 0.04652
1102.00 0.04651
1102.10 0.0465
1102.20 0.04648
1102.30 0.04647
1102.40 0.04646
1102.50 0.04645
1102.60 0.04643
1102.70 0.04642
1102.80 0.04641
1102.90 0.04639
1103.00 0.04638
1103.10 0.04637
1103.20 0.04636
1103.30 0.04634
1103.40 0.04633
1103.50 0.04632
1103.60 0.0463
1103.70 0.04629
1103.80 0.04628
1103.90 0.04627
1104.00 0.04625
1104.10 0.04624
1104.20 0.04623
1104.30 0.04621
1104.40 0.0462
1104.50 0.04619
1104.60 0.04617
1104.70 0.04616
1104.80 0.04615
1104.90 0.04614
1105.00 0.04612
1105.10 0.04611
1105.20 0.0461
1105.30 0.04608
1105.40 0.04607
1105.50 0.04606
1105.60 0.04604
1105.70 0.04603
1105.80 0.04602
1105.90 0.046
1106.00 0.04599
1106.10 0.04598
1106.20 0.04596
1106.30 0.04595
1106.40 0.04594
1106.50 0.04592
1106.60 0.04591
1106.70 0.0459
1106.80 0.04588
1106.90 0.04587
1107.00 0.04586
1107.10 0.04584
1107.20 0.04583
1107.30 0.04582
1107.40 0.0458
1107.50 0.04579
1107.60 0.04577
1107.70 0.04576
1107.80 0.04575
1107.90 0.04573
1108.00 0.04572
1108.10 0.04571
1108.20 0.04569
1108.30 0.04568
1108.40 0.04566
1108.50 0.04565
1108.60 0.04564
1108.70 0.04562
1108.80 0.04561
1108.90 0.0456
1109.00 0.04558
1109.10 0.04557
1109.20 0.04555
1109.30 0.04554
1109.40 0.04553
1109.50 0.04551
1109.60 0.0455
1109.70 0.04548
1109.80 0.04547
1109.90 0.04546
1110.00 0.04544
1110.10 0.04543
1110.20 0.04541
1110.30 0.0454
1110.40 0.04538
1110.50 0.04537
1110.60 0.04536
1110.70 0.04534
1110.80 0.04533
1110.90 0.04531
1111.00 0.0453
1111.10 0.04529
1111.20 0.04527
1111.30 0.04526
1111.40 0.04524
1111.50 0.04523
1111.60 0.04522
1111.70 0.0452
1111.80 0.04519
1111.90 0.04517
1112.00 0.04516
1112.10 0.04515
1112.20 0.04513
1112.30 0.04512
1112.40 0.0451
1112.50 0.04509
1112.60 0.04507
1112.70 0.04506
1112.80 0.04504
1112.90 0.04503
1113.00 0.04502
1113.10 0.045
1113.20 0.04499
1113.30 0.04497
1113.40 0.04496
1113.50 0.04494
1113.60 0.04493
1113.70 0.04492
1113.80 0.0449
1113.90 0.04489
1114.00 0.04487
1114.10 0.04486
1114.20 0.04484
1114.30 0.04483
1114.40 0.04481
1114.50 0.0448
1114.60 0.04478
1114.70 0.04477
1114.80 0.04476
1114.90 0.04474
1115.00 0.04473
1115.10 0.04471
1115.20 0.0447
1115.30 0.04468
1115.40 0.04467
1115.50 0.04465
1115.60 0.04464
1115.70 0.04462
1115.80 0.04461
1115.90 0.0446
1116.00 0.04458
1116.10 0.04457
1116.20 0.04455
1116.30 0.04454
1116.40 0.04452
1116.50 0.04451
1116.60 0.04449
1116.70 0.04448
1116.80 0.04447
1116.90 0.04445
1117.00 0.04444
1117.10 0.04442
1117.20 0.04441
1117.30 0.04439
1117.40 0.04438
1117.50 0.04436
1117.60 0.04435
1117.70 0.04433
1117.80 0.04432
1117.90 0.0443
1118.00 0.04429
1118.10 0.04427
1118.20 0.04426
1118.30 0.04424
1118.40 0.04423
1118.50 0.04422
1118.60 0.0442
1118.70 0.04419
1118.80 0.04417
1118.90 0.04416
1119.00 0.04414
1119.10 0.04413
1119.20 0.04411
1119.30 0.0441
1119.40 0.04408
1119.50 0.04407
1119.60 0.04405
1119.70 0.04404
1119.80 0.04402
1119.90 0.04401
1120.00 0.044
1120.10 0.04398
1120.20 0.04397
1120.30 0.04395
1120.40 0.04394
1120.50 0.04392
1120.60 0.04391
1120.70 0.04389
1120.80 0.04388
1120.90 0.04386
1121.00 0.04385
1121.10 0.04383
1121.20 0.04382
1121.30 0.04381
1121.40 0.04379
1121.50 0.04378
1121.60 0.04376
1121.70 0.04375
1121.80 0.04373
1121.90 0.04372
1122.00 0.0437
1122.10 0.04369
1122.20 0.04367
1122.30 0.04366
1122.40 0.04365
1122.50 0.04363
1122.60 0.04362
1122.70 0.0436
1122.80 0.04359
1122.90 0.04357
1123.00 0.04356
1123.10 0.04354
1123.20 0.04353
1123.30 0.04351
1123.40 0.0435
1123.50 0.04348
1123.60 0.04347
1123.70 0.04345
1123.80 0.04344
1123.90 0.04342
1124.00 0.04341
1124.10 0.0434
1124.20 0.04338
1124.30 0.04337
1124.40 0.04335
1124.50 0.04334
1124.60 0.04332
1124.70 0.04331
1124.80 0.04329
1124.90 0.04328
1125.00 0.04326
1125.10 0.04325
1125.20 0.04323
1125.30 0.04322
1125.40 0.04321
1125.50 0.04319
1125.60 0.04318
1125.70 0.04316
1125.80 0.04315
1125.90 0.04313
1126.00 0.04312
1126.10 0.0431
1126.20 0.04309
1126.30 0.04307
1126.40 0.04306
1126.50 0.04305
1126.60 0.04303
1126.70 0.04302
1126.80 0.043
1126.90 0.04299
1127.00 0.04297
1127.10 0.04296
1127.20 0.04294
1127.30 0.04293
1127.40 0.04291
1127.50 0.0429
1127.60 0.04289
1127.70 0.04287
1127.80 0.04286
1127.90 0.04284
1128.00 0.04283
1128.10 0.04281
1128.20 0.0428
1128.30 0.04278
1128.40 0.04277
1128.50 0.04275
1128.60 0.04274
1128.70 0.04273
1128.80 0.04271
1128.90 0.0427
1129.00 0.04268
1129.10 0.04267
1129.20 0.04265
1129.30 0.04264
1129.40 0.04262
1129.50 0.04261
1129.60 0.0426
1129.70 0.04258
1129.80 0.04257
1129.90 0.04255
1130.00 0.04254
1130.10 0.04252
1130.20 0.04251
1130.30 0.04249
1130.40 0.04248
1130.50 0.04246
1130.60 0.04245
1130.70 0.04244
1130.80 0.04242
1130.90 0.04241
1131.00 0.04239
1131.10 0.04238
1131.20 0.04236
1131.30 0.04235
1131.40 0.04234
1131.50 0.04232
1131.60 0.04231
1131.70 0.04229
1131.80 0.04228
1131.90 0.04226
1132.00 0.04225
1132.10 0.04223
1132.20 0.04222
1132.30 0.04221
1132.40 0.04219
1132.50 0.04218
1132.60 0.04216
1132.70 0.04215
1132.80 0.04213
1132.90 0.04212
1133.00 0.04211
1133.10 0.04209
1133.20 0.04208
1133.30 0.04206
1133.40 0.04205
1133.50 0.04203
1133.60 0.04202
1133.70 0.04201
1133.80 0.04199
1133.90 0.04198
1134.00 0.04196
1134.10 0.04195
1134.20 0.04193
1134.30 0.04192
1134.40 0.04191
1134.50 0.04189
1134.60 0.04188
1134.70 0.04186
1134.80 0.04185
1134.90 0.04183
1135.00 0.04182
1135.10 0.04181
1135.20 0.04179
1135.30 0.04178
1135.40 0.04176
1135.50 0.04175
1135.60 0.04173
1135.70 0.04172
1135.80 0.04171
1135.90 0.04169
1136.00 0.04168
1136.10 0.04166
1136.20 0.04165
1136.30 0.04163
1136.40 0.04162
1136.50 0.04161
1136.60 0.04159
1136.70 0.04158
1136.80 0.04156
1136.90 0.04155
1137.00 0.04154
1137.10 0.04152
1137.20 0.04151
1137.30 0.04149
1137.40 0.04148
1137.50 0.04146
1137.60 0.04145
1137.70 0.04144
1137.80 0.04142
1137.90 0.04141
1138.00 0.04139
1138.10 0.04138
1138.20 0.04137
1138.30 0.04135
1138.40 0.04134
1138.50 0.04132
1138.60 0.04131
1138.70 0.0413
1138.80 0.04128
1138.90 0.04127
1139.00 0.04125
1139.10 0.04124
1139.20 0.04123
1139.30 0.04121
1139.40 0.0412
1139.50 0.04118
1139.60 0.04117
1139.70 0.04116
1139.80 0.04114
1139.90 0.04113
1140.00 0.04111
1140.10 0.0411
1140.20 0.04109
1140.30 0.04107
1140.40 0.04106
1140.50 0.04104
1140.60 0.04103
1140.70 0.04102
1140.80 0.041
1140.90 0.04099
1141.00 0.04097
1141.10 0.04096
1141.20 0.04095
1141.30 0.04093
1141.40 0.04092
1141.50 0.0409
1141.60 0.04089
1141.70 0.04088
1141.80 0.04086
1141.90 0.04085
1142.00 0.04083
1142.10 0.04082
1142.20 0.04081
1142.30 0.04079
1142.40 0.04078
1142.50 0.04076
1142.60 0.04075
1142.70 0.04074
1142.80 0.04072
1142.90 0.04071
1143.00 0.0407
1143.10 0.04068
1143.20 0.04067
1143.30 0.04065
1143.40 0.04064
1143.50 0.04063
1143.60 0.04061
1143.70 0.0406
1143.80 0.04059
1143.90 0.04057
1144.00 0.04056
1144.10 0.04054
1144.20 0.04053
1144.30 0.04052
1144.40 0.0405
1144.50 0.04049
1144.60 0.04047
1144.70 0.04046
1144.80 0.04045
1144.90 0.04043
1145.00 0.04042
1145.10 0.04041
1145.20 0.04039
1145.30 0.04038
1145.40 0.04036
1145.50 0.04035
1145.60 0.04034
1145.70 0.04032
1145.80 0.04031
1145.90 0.0403
1146.00 0.04028
1146.10 0.04027
1146.20 0.04026
1146.30 0.04024
1146.40 0.04023
1146.50 0.04021
1146.60 0.0402
1146.70 0.04019
1146.80 0.04017
1146.90 0.04016
1147.00 0.04015
1147.10 0.04013
1147.20 0.04012
1147.30 0.0401
1147.40 0.04009
1147.50 0.04008
1147.60 0.04006
1147.70 0.04005
1147.80 0.04004
1147.90 0.04002
1148.00 0.04001
1148.10 0.04
1148.20 0.03998
1148.30 0.03997
1148.40 0.03996
1148.50 0.03994
1148.60 0.03993
1148.70 0.03991
1148.80 0.0399
1148.90 0.03989
1149.00 0.03987
1149.10 0.03986
1149.20 0.03985
1149.30 0.03983
1149.40 0.03982
1149.50 0.03981
1149.60 0.03979
1149.70 0.03978
1149.80 0.03977
1149.90 0.03975
1150.00 0.03974
1150.10 0.03973
1150.20 0.03971
1150.30 0.0397
1150.40 0.03969
1150.50 0.03967
1150.60 0.03966
1150.70 0.03965
1150.80 0.03963
1150.90 0.03962
1151.00 0.0396
1151.10 0.03959
1151.20 0.03958
1151.30 0.03956
1151.40 0.03955
1151.50 0.03954
1151.60 0.03952
1151.70 0.03951
1151.80 0.0395
1151.90 0.03948
1152.00 0.03947
1152.10 0.03946
1152.20 0.03944
1152.30 0.03943
1152.40 0.03942
1152.50 0.0394
1152.60 0.03939
1152.70 0.03938
1152.80 0.03936
1152.90 0.03935
1153.00 0.03934
1153.10 0.03932
1153.20 0.03931
1153.30 0.0393
1153.40 0.03928
1153.50 0.03927
1153.60 0.03926
1153.70 0.03924
1153.80 0.03923
1153.90 0.03922
1154.00 0.0392
1154.10 0.03919
1154.20 0.03918
1154.30 0.03916
1154.40 0.03915
1154.50 0.03914
1154.60 0.03913
1154.70 0.03911
1154.80 0.0391
1154.90 0.03909
1155.00 0.03907
1155.10 0.03906
1155.20 0.03905
1155.30 0.03903
1155.40 0.03902
1155.50 0.03901
1155.60 0.03899
1155.70 0.03898
1155.80 0.03897
1155.90 0.03895
1156.00 0.03894
1156.10 0.03893
1156.20 0.03891
1156.30 0.0389
1156.40 0.03889
1156.50 0.03887
1156.60 0.03886
1156.70 0.03885
1156.80 0.03883
1156.90 0.03882
1157.00 0.03881
1157.10 0.0388
1157.20 0.03878
1157.30 0.03877
1157.40 0.03876
1157.50 0.03874
1157.60 0.03873
1157.70 0.03872
1157.80 0.0387
1157.90 0.03869
1158.00 0.03868
1158.10 0.03867
1158.20 0.03865
1158.30 0.03864
1158.40 0.03863
1158.50 0.03861
1158.60 0.0386
1158.70 0.03859
1158.80 0.03857
1158.90 0.03856
1159.00 0.03855
1159.10 0.03854
1159.20 0.03852
1159.30 0.03851
1159.40 0.0385
1159.50 0.03848
1159.60 0.03847
1159.70 0.03846
1159.80 0.03844
1159.90 0.03843
1160.00 0.03842
1160.10 0.03841
1160.20 0.03839
1160.30 0.03838
1160.40 0.03837
1160.50 0.03835
1160.60 0.03834
1160.70 0.03833
1160.80 0.03831
1160.90 0.0383
1161.00 0.03829
1161.10 0.03828
1161.20 0.03826
1161.30 0.03825
1161.40 0.03824
1161.50 0.03822
1161.60 0.03821
1161.70 0.0382
1161.80 0.03819
1161.90 0.03817
1162.00 0.03816
1162.10 0.03815
1162.20 0.03813
1162.30 0.03812
1162.40 0.03811
1162.50 0.0381
1162.60 0.03808
1162.70 0.03807
1162.80 0.03806
1162.90 0.03804
1163.00 0.03803
1163.10 0.03802
1163.20 0.03801
1163.30 0.03799
1163.40 0.03798
1163.50 0.03797
1163.60 0.03796
1163.70 0.03794
1163.80 0.03793
1163.90 0.03792
1164.00 0.0379
1164.10 0.03789
1164.20 0.03788
1164.30 0.03787
1164.40 0.03785
1164.50 0.03784
1164.60 0.03783
1164.70 0.03782
1164.80 0.0378
1164.90 0.03779
1165.00 0.03778
1165.10 0.03776
1165.20 0.03775
1165.30 0.03774
1165.40 0.03773
1165.50 0.03771
1165.60 0.0377
1165.70 0.03769
1165.80 0.03768
1165.90 0.03766
1166.00 0.03765
1166.10 0.03764
1166.20 0.03763
1166.30 0.03761
1166.40 0.0376
1166.50 0.03759
1166.60 0.03757
1166.70 0.03756
1166.80 0.03755
1166.90 0.03754
1167.00 0.03752
1167.10 0.03751
1167.20 0.0375
1167.30 0.03749
1167.40 0.03747
1167.50 0.03746
1167.60 0.03745
1167.70 0.03744
1167.80 0.03742
1167.90 0.03741
1168.00 0.0374
1168.10 0.03739
1168.20 0.03737
1168.30 0.03736
1168.40 0.03735
1168.50 0.03734
1168.60 0.03732
1168.70 0.03731
1168.80 0.0373
1168.90 0.03729
1169.00 0.03727
1169.10 0.03726
1169.20 0.03725
1169.30 0.03724
1169.40 0.03722
1169.50 0.03721
1169.60 0.0372
1169.70 0.03719
1169.80 0.03717
1169.90 0.03716
1170.00 0.03715
1170.10 0.03714
1170.20 0.03712
1170.30 0.03711
1170.40 0.0371
1170.50 0.03709
1170.60 0.03708
1170.70 0.03706
1170.80 0.03705
1170.90 0.03704
1171.00 0.03703
1171.10 0.03701
1171.20 0.037
1171.30 0.03699
1171.40 0.03698
1171.50 0.03696
1171.60 0.03695
1171.70 0.03694
1171.80 0.03693
1171.90 0.03691
1172.00 0.0369
1172.10 0.03689
1172.20 0.03688
1172.30 0.03686
1172.40 0.03685
1172.50 0.03684
1172.60 0.03683
1172.70 0.03682
1172.80 0.0368
1172.90 0.03679
1173.00 0.03678
1173.10 0.03677
1173.20 0.03675
1173.30 0.03674
1173.40 0.03673
1173.50 0.03672
1173.60 0.03671
1173.70 0.03669
1173.80 0.03668
1173.90 0.03667
1174.00 0.03666
1174.10 0.03664
1174.20 0.03663
1174.30 0.03662
1174.40 0.03661
1174.50 0.0366
1174.60 0.03658
1174.70 0.03657
1174.80 0.03656
1174.90 0.03655
1175.00 0.03653
1175.10 0.03652
1175.20 0.03651
1175.30 0.0365
1175.40 0.03649
1175.50 0.03647
1175.60 0.03646
1175.70 0.03645
1175.80 0.03644
1175.90 0.03643
1176.00 0.03641
1176.10 0.0364
1176.20 0.03639
1176.30 0.03638
1176.40 0.03636
1176.50 0.03635
1176.60 0.03634
1176.70 0.03633
1176.80 0.03632
1176.90 0.0363
1177.00 0.03629
1177.10 0.03628
1177.20 0.03627
1177.30 0.03626
1177.40 0.03624
1177.50 0.03623
1177.60 0.03622
1177.70 0.03621
1177.80 0.0362
1177.90 0.03618
1178.00 0.03617
1178.10 0.03616
1178.20 0.03615
1178.30 0.03614
1178.40 0.03612
1178.50 0.03611
1178.60 0.0361
1178.70 0.03609
1178.80 0.03608
1178.90 0.03606
1179.00 0.03605
1179.10 0.03604
1179.20 0.03603
1179.30 0.03602
1179.40 0.036
1179.50 0.03599
1179.60 0.03598
1179.70 0.03597
1179.80 0.03596
1179.90 0.03594
1180.00 0.03593
1180.10 0.03592
1180.20 0.03591
1180.30 0.0359
1180.40 0.03588
1180.50 0.03587
1180.60 0.03586
1180.70 0.03585
1180.80 0.03584
1180.90 0.03582
1181.00 0.03581
1181.10 0.0358
1181.20 0.03579
1181.30 0.03578
1181.40 0.03577
1181.50 0.03575
1181.60 0.03574
1181.70 0.03573
1181.80 0.03572
1181.90 0.03571
1182.00 0.03569
1182.10 0.03568
1182.20 0.03567
1182.30 0.03566
1182.40 0.03565
1182.50 0.03564
1182.60 0.03562
1182.70 0.03561
1182.80 0.0356
1182.90 0.03559
1183.00 0.03558
1183.10 0.03556
1183.20 0.03555
1183.30 0.03554
1183.40 0.03553
1183.50 0.03552
1183.60 0.03551
1183.70 0.03549
1183.80 0.03548
1183.90 0.03547
1184.00 0.03546
1184.10 0.03545
1184.20 0.03544
1184.30 0.03542
1184.40 0.03541
1184.50 0.0354
1184.60 0.03539
1184.70 0.03538
1184.80 0.03537
1184.90 0.03535
1185.00 0.03534
1185.10 0.03533
1185.20 0.03532
1185.30 0.03531
1185.40 0.0353
1185.50 0.03528
1185.60 0.03527
1185.70 0.03526
1185.80 0.03525
1185.90 0.03524
1186.00 0.03523
1186.10 0.03521
1186.20 0.0352
1186.30 0.03519
1186.40 0.03518
1186.50 0.03517
1186.60 0.03516
1186.70 0.03514
1186.80 0.03513
1186.90 0.03512
1187.00 0.03511
1187.10 0.0351
1187.20 0.03509
1187.30 0.03507
1187.40 0.03506
1187.50 0.03505
1187.60 0.03504
1187.70 0.03503
1187.80 0.03502
1187.90 0.035
1188.00 0.03499
1188.10 0.03498
1188.20 0.03497
1188.30 0.03496
1188.40 0.03495
1188.50 0.03494
1188.60 0.03492
1188.70 0.03491
1188.80 0.0349
1188.90 0.03489
1189.00 0.03488
1189.10 0.03487
1189.20 0.03486
1189.30 0.03484
1189.40 0.03483
1189.50 0.03482
1189.60 0.03481
1189.70 0.0348
1189.80 0.03479
1189.90 0.03477
1190.00 0.03476
1190.10 0.03475
1190.20 0.03474
1190.30 0.03473
1190.40 0.03472
1190.50 0.03471
1190.60 0.03469
1190.70 0.03468
1190.80 0.03467
1190.90 0.03466
1191.00 0.03465
1191.10 0.03464
1191.20 0.03463
1191.30 0.03461
1191.40 0.0346
1191.50 0.03459
1191.60 0.03458
1191.70 0.03457
1191.80 0.03456
1191.90 0.03455
1192.00 0.03453
1192.10 0.03452
1192.20 0.03451
1192.30 0.0345
1192.40 0.03449
1192.50 0.03448
1192.60 0.03447
1192.70 0.03446
1192.80 0.03444
1192.90 0.03443
1193.00 0.03442
1193.10 0.03441
1193.20 0.0344
1193.30 0.03439
1193.40 0.03438
1193.50 0.03437
1193.60 0.03435
1193.70 0.03434
1193.80 0.03433
1193.90 0.03432
1194.00 0.03431
1194.10 0.0343
1194.20 0.03429
1194.30 0.03428
1194.40 0.03426
1194.50 0.03425
1194.60 0.03424
1194.70 0.03423
1194.80 0.03422
1194.90 0.03421
1195.00 0.0342
1195.10 0.03419
1195.20 0.03417
1195.30 0.03416
1195.40 0.03415
1195.50 0.03414
1195.60 0.03413
1195.70 0.03412
1195.80 0.03411
1195.90 0.0341
1196.00 0.03408
1196.10 0.03407
1196.20 0.03406
1196.30 0.03405
1196.40 0.03404
1196.50 0.03403
1196.60 0.03402
1196.70 0.03401
1196.80 0.03399
1196.90 0.03398
1197.00 0.03397
1197.10 0.03396
1197.20 0.03395
1197.30 0.03394
1197.40 0.03393
1197.50 0.03392
1197.60 0.03391
1197.70 0.03389
1197.80 0.03388
1197.90 0.03387
1198.00 0.03386
1198.10 0.03385
1198.20 0.03384
1198.30 0.03383
1198.40 0.03382
1198.50 0.03381
1198.60 0.0338
1198.70 0.03378
1198.80 0.03377
1198.90 0.03376
1199.00 0.03375
1199.10 0.03374
1199.20 0.03373
1199.30 0.03372
1199.40 0.03371
1199.50 0.0337
1199.60 0.03368
1199.70 0.03367
1199.80 0.03366
1199.90 0.03365
1200.00 0
