# Version 2.1 - nm, norm@500 to 1, cut digits, bergeron_15500_95.dat_15500
# Wavelength(nm)  Flambda(ergs/cm^s/s/nm)
300.00 2.908
300.10 2.906
300.20 2.904
300.30 2.901
300.40 2.899
300.50 2.897
300.60 2.895
300.70 2.892
300.80 2.89
300.90 2.888
301.00 2.885
301.10 2.883
301.20 2.881
301.30 2.878
301.40 2.876
301.50 2.874
301.60 2.872
301.70 2.869
301.80 2.867
301.90 2.865
302.00 2.862
302.10 2.86
302.20 2.858
302.30 2.856
302.40 2.853
302.50 2.851
302.60 2.849
302.70 2.847
302.80 2.844
302.90 2.842
303.00 2.84
303.10 2.837
303.20 2.835
303.30 2.833
303.40 2.831
303.50 2.828
303.60 2.826
303.70 2.824
303.80 2.822
303.90 2.819
304.00 2.817
304.10 2.815
304.20 2.813
304.30 2.811
304.40 2.808
304.50 2.806
304.60 2.804
304.70 2.802
304.80 2.799
304.90 2.797
305.00 2.795
305.10 2.793
305.20 2.791
305.30 2.788
305.40 2.786
305.50 2.784
305.60 2.782
305.70 2.78
305.80 2.778
305.90 2.775
306.00 2.773
306.10 2.771
306.20 2.769
306.30 2.767
306.40 2.764
306.50 2.762
306.60 2.76
306.70 2.758
306.80 2.756
306.90 2.754
307.00 2.751
307.10 2.749
307.20 2.747
307.30 2.745
307.40 2.743
307.50 2.741
307.60 2.738
307.70 2.736
307.80 2.734
307.90 2.732
308.00 2.73
308.10 2.728
308.20 2.725
308.30 2.723
308.40 2.721
308.50 2.719
308.60 2.717
308.70 2.715
308.80 2.713
308.90 2.711
309.00 2.708
309.10 2.706
309.20 2.704
309.30 2.702
309.40 2.7
309.50 2.698
309.60 2.696
309.70 2.694
309.80 2.692
309.90 2.689
310.00 2.687
310.10 2.685
310.20 2.683
310.30 2.681
310.40 2.679
310.50 2.677
310.60 2.675
310.70 2.673
310.80 2.67
310.90 2.668
311.00 2.666
311.10 2.664
311.20 2.662
311.30 2.66
311.40 2.658
311.50 2.656
311.60 2.654
311.70 2.652
311.80 2.65
311.90 2.648
312.00 2.646
312.10 2.643
312.20 2.641
312.30 2.639
312.40 2.637
312.50 2.635
312.60 2.633
312.70 2.631
312.80 2.629
312.90 2.627
313.00 2.625
313.10 2.623
313.20 2.621
313.30 2.619
313.40 2.617
313.50 2.615
313.60 2.613
313.70 2.611
313.80 2.609
313.90 2.607
314.00 2.605
314.10 2.603
314.20 2.601
314.30 2.599
314.40 2.597
314.50 2.595
314.60 2.593
314.70 2.591
314.80 2.588
314.90 2.586
315.00 2.584
315.10 2.582
315.20 2.58
315.30 2.578
315.40 2.576
315.50 2.574
315.60 2.572
315.70 2.57
315.80 2.568
315.90 2.566
316.00 2.564
316.10 2.562
316.20 2.561
316.30 2.559
316.40 2.557
316.50 2.555
316.60 2.553
316.70 2.551
316.80 2.549
316.90 2.547
317.00 2.545
317.10 2.543
317.20 2.541
317.30 2.539
317.40 2.537
317.50 2.535
317.60 2.533
317.70 2.531
317.80 2.529
317.90 2.527
318.00 2.525
318.10 2.523
318.20 2.521
318.30 2.519
318.40 2.517
318.50 2.515
318.60 2.513
318.70 2.512
318.80 2.51
318.90 2.508
319.00 2.506
319.10 2.504
319.20 2.502
319.30 2.5
319.40 2.498
319.50 2.496
319.60 2.494
319.70 2.492
319.80 2.49
319.90 2.488
320.00 2.487
320.10 2.485
320.20 2.483
320.30 2.481
320.40 2.479
320.50 2.477
320.60 2.475
320.70 2.473
320.80 2.471
320.90 2.469
321.00 2.467
321.10 2.466
321.20 2.464
321.30 2.462
321.40 2.46
321.50 2.458
321.60 2.456
321.70 2.454
321.80 2.452
321.90 2.451
322.00 2.449
322.10 2.447
322.20 2.445
322.30 2.443
322.40 2.441
322.50 2.439
322.60 2.437
322.70 2.436
322.80 2.434
322.90 2.432
323.00 2.43
323.10 2.428
323.20 2.426
323.30 2.424
323.40 2.423
323.50 2.421
323.60 2.419
323.70 2.417
323.80 2.415
323.90 2.413
324.00 2.412
324.10 2.41
324.20 2.408
324.30 2.406
324.40 2.404
324.50 2.402
324.60 2.401
324.70 2.399
324.80 2.397
324.90 2.395
325.00 2.393
325.10 2.391
325.20 2.39
325.30 2.388
325.40 2.386
325.50 2.384
325.60 2.382
325.70 2.381
325.80 2.379
325.90 2.377
326.00 2.375
326.10 2.373
326.20 2.372
326.30 2.37
326.40 2.368
326.50 2.366
326.60 2.364
326.70 2.363
326.80 2.361
326.90 2.359
327.00 2.357
327.10 2.355
327.20 2.354
327.30 2.352
327.40 2.35
327.50 2.348
327.60 2.346
327.70 2.345
327.80 2.343
327.90 2.341
328.00 2.339
328.10 2.338
328.20 2.336
328.30 2.334
328.40 2.332
328.50 2.331
328.60 2.329
328.70 2.327
328.80 2.325
328.90 2.324
329.00 2.322
329.10 2.32
329.20 2.318
329.30 2.317
329.40 2.315
329.50 2.313
329.60 2.311
329.70 2.31
329.80 2.308
329.90 2.306
330.00 2.304
330.10 2.303
330.20 2.301
330.30 2.299
330.40 2.297
330.50 2.296
330.60 2.294
330.70 2.292
330.80 2.291
330.90 2.289
331.00 2.287
331.10 2.285
331.20 2.284
331.30 2.282
331.40 2.28
331.50 2.278
331.60 2.277
331.70 2.275
331.80 2.273
331.90 2.272
332.00 2.27
332.10 2.268
332.20 2.266
332.30 2.265
332.40 2.263
332.50 2.261
332.60 2.26
332.70 2.258
332.80 2.256
332.90 2.255
333.00 2.253
333.10 2.251
333.20 2.25
333.30 2.248
333.40 2.246
333.50 2.244
333.60 2.243
333.70 2.241
333.80 2.239
333.90 2.238
334.00 2.236
334.10 2.234
334.20 2.233
334.30 2.231
334.40 2.229
334.50 2.228
334.60 2.226
334.70 2.224
334.80 2.223
334.90 2.221
335.00 2.219
335.10 2.218
335.20 2.216
335.30 2.214
335.40 2.213
335.50 2.211
335.60 2.209
335.70 2.208
335.80 2.206
335.90 2.205
336.00 2.203
336.10 2.201
336.20 2.2
336.30 2.198
336.40 2.196
336.50 2.195
336.60 2.193
336.70 2.191
336.80 2.19
336.90 2.188
337.00 2.187
337.10 2.185
337.20 2.183
337.30 2.182
337.40 2.18
337.50 2.178
337.60 2.177
337.70 2.175
337.80 2.174
337.90 2.172
338.00 2.17
338.10 2.169
338.20 2.167
338.30 2.165
338.40 2.164
338.50 2.162
338.60 2.161
338.70 2.159
338.80 2.157
338.90 2.156
339.00 2.154
339.10 2.153
339.20 2.151
339.30 2.149
339.40 2.148
339.50 2.146
339.60 2.145
339.70 2.143
339.80 2.142
339.90 2.14
340.00 2.138
340.10 2.137
340.20 2.135
340.30 2.134
340.40 2.132
340.50 2.13
340.60 2.129
340.70 2.127
340.80 2.126
340.90 2.124
341.00 2.123
341.10 2.121
341.20 2.119
341.30 2.118
341.40 2.116
341.50 2.115
341.60 2.113
341.70 2.112
341.80 2.11
341.90 2.108
342.00 2.107
342.10 2.105
342.20 2.104
342.30 2.102
342.40 2.101
342.50 2.099
342.60 2.098
342.70 2.096
342.80 2.094
342.90 2.093
343.00 2.091
343.10 2.09
343.20 2.088
343.30 2.087
343.40 2.085
343.50 2.084
343.60 2.082
343.70 2.081
343.80 2.079
343.90 2.078
344.00 2.076
344.10 2.075
344.20 2.073
344.30 2.071
344.40 2.07
344.50 2.068
344.60 2.067
344.70 2.065
344.80 2.064
344.90 2.062
345.00 2.061
345.10 2.059
345.20 2.058
345.30 2.056
345.40 2.055
345.50 2.053
345.60 2.052
345.70 2.05
345.80 2.049
345.90 2.047
346.00 2.046
346.10 2.044
346.20 2.043
346.30 2.041
346.40 2.04
346.50 2.038
346.60 2.037
346.70 2.035
346.80 2.034
346.90 2.032
347.00 2.031
347.10 2.029
347.20 2.028
347.30 2.026
347.40 2.025
347.50 2.023
347.60 2.022
347.70 2.02
347.80 2.019
347.90 2.018
348.00 2.016
348.10 2.015
348.20 2.013
348.30 2.012
348.40 2.01
348.50 2.009
348.60 2.007
348.70 2.006
348.80 2.004
348.90 2.003
349.00 2.001
349.10 2
349.20 1.998
349.30 1.997
349.40 1.996
349.50 1.994
349.60 1.993
349.70 1.991
349.80 1.99
349.90 1.988
350.00 1.987
350.10 1.985
350.20 1.984
350.30 1.982
350.40 1.981
350.50 1.98
350.60 1.978
350.70 1.977
350.80 1.975
350.90 1.974
351.00 1.972
351.10 1.971
351.20 1.97
351.30 1.968
351.40 1.967
351.50 1.965
351.60 1.964
351.70 1.962
351.80 1.961
351.90 1.96
352.00 1.958
352.10 1.957
352.20 1.955
352.30 1.954
352.40 1.953
352.50 1.951
352.60 1.95
352.70 1.948
352.80 1.947
352.90 1.945
353.00 1.944
353.10 1.943
353.20 1.941
353.30 1.94
353.40 1.938
353.50 1.937
353.60 1.936
353.70 1.934
353.80 1.933
353.90 1.931
354.00 1.93
354.10 1.929
354.20 1.927
354.30 1.926
354.40 1.924
354.50 1.923
354.60 1.922
354.70 1.92
354.80 1.919
354.90 1.917
355.00 1.916
355.10 1.915
355.20 1.913
355.30 1.912
355.40 1.911
355.50 1.909
355.60 1.908
355.70 1.906
355.80 1.905
355.90 1.904
356.00 1.902
356.10 1.901
356.20 1.9
356.30 1.898
356.40 1.897
356.50 1.895
356.60 1.894
356.70 1.893
356.80 1.891
356.90 1.89
357.00 1.889
357.10 1.887
357.20 1.886
357.30 1.885
357.40 1.883
357.50 1.882
357.60 1.881
357.70 1.879
357.80 1.878
357.90 1.876
358.00 1.875
358.10 1.874
358.20 1.872
358.30 1.871
358.40 1.87
358.50 1.868
358.60 1.867
358.70 1.866
358.80 1.864
358.90 1.863
359.00 1.862
359.10 1.86
359.20 1.859
359.30 1.858
359.40 1.856
359.50 1.855
359.60 1.854
359.70 1.852
359.80 1.851
359.90 1.85
360.00 1.849
360.10 1.847
360.20 1.846
360.30 1.845
360.40 1.843
360.50 1.842
360.60 1.841
360.70 1.839
360.80 1.838
360.90 1.837
361.00 1.835
361.10 1.834
361.20 1.833
361.30 1.831
361.40 1.83
361.50 1.829
361.60 1.827
361.70 1.826
361.80 1.825
361.90 1.824
362.00 1.822
362.10 1.821
362.20 1.82
362.30 1.818
362.40 1.817
362.50 1.816
362.60 1.814
362.70 1.813
362.80 1.812
362.90 1.811
363.00 1.809
363.10 1.808
363.20 1.806
363.30 1.805
363.40 1.803
363.50 1.802
363.60 1.8
363.70 1.799
363.80 1.797
363.90 1.796
364.00 1.794
364.10 1.793
364.20 1.791
364.30 1.79
364.40 1.788
364.50 1.787
364.60 1.785
364.70 1.784
364.80 1.782
364.90 1.78
365.00 1.779
365.10 1.777
365.20 1.776
365.30 1.774
365.40 1.773
365.50 1.771
365.60 1.77
365.70 1.768
365.80 1.767
365.90 1.765
366.00 1.763
366.10 1.762
366.20 1.761
366.30 1.759
366.40 1.758
366.50 1.757
366.60 1.755
366.70 1.754
366.80 1.753
366.90 1.752
367.00 1.75
367.10 1.749
367.20 1.748
367.30 1.746
367.40 1.745
367.50 1.744
367.60 1.742
367.70 1.741
367.80 1.74
367.90 1.738
368.00 1.737
368.10 1.736
368.20 1.735
368.30 1.733
368.40 1.732
368.50 1.731
368.60 1.729
368.70 1.728
368.80 1.727
368.90 1.725
369.00 1.724
369.10 1.723
369.20 1.721
369.30 1.72
369.40 1.719
369.50 1.717
369.60 1.716
369.70 1.715
369.80 1.714
369.90 1.712
370.00 1.711
370.10 1.71
370.20 1.708
370.30 1.707
370.40 1.706
370.50 1.705
370.60 1.703
370.70 1.702
370.80 1.701
370.90 1.699
371.00 1.698
371.10 1.697
371.20 1.696
371.30 1.694
371.40 1.693
371.50 1.692
371.60 1.69
371.70 1.689
371.80 1.688
371.90 1.687
372.00 1.685
372.10 1.684
372.20 1.683
372.30 1.682
372.40 1.681
372.50 1.679
372.60 1.678
372.70 1.677
372.80 1.676
372.90 1.675
373.00 1.673
373.10 1.672
373.20 1.671
373.30 1.67
373.40 1.669
373.50 1.667
373.60 1.666
373.70 1.665
373.80 1.664
373.90 1.663
374.00 1.661
374.10 1.66
374.20 1.659
374.30 1.658
374.40 1.657
374.50 1.656
374.60 1.655
374.70 1.654
374.80 1.652
374.90 1.651
375.00 1.65
375.10 1.649
375.20 1.648
375.30 1.647
375.40 1.646
375.50 1.645
375.60 1.644
375.70 1.642
375.80 1.641
375.90 1.64
376.00 1.639
376.10 1.638
376.20 1.637
376.30 1.636
376.40 1.635
376.50 1.634
376.60 1.633
376.70 1.632
376.80 1.631
376.90 1.63
377.00 1.629
377.10 1.628
377.20 1.627
377.30 1.626
377.40 1.624
377.50 1.623
377.60 1.622
377.70 1.621
377.80 1.62
377.90 1.619
378.00 1.618
378.10 1.617
378.20 1.615
378.30 1.614
378.40 1.613
378.50 1.611
378.60 1.61
378.70 1.609
378.80 1.607
378.90 1.606
379.00 1.605
379.10 1.603
379.20 1.602
379.30 1.601
379.40 1.6
379.50 1.599
379.60 1.598
379.70 1.597
379.80 1.596
379.90 1.595
380.00 1.594
380.10 1.593
380.20 1.593
380.30 1.592
380.40 1.592
380.50 1.591
380.60 1.591
380.70 1.591
380.80 1.59
380.90 1.59
381.00 1.589
381.10 1.589
381.20 1.588
381.30 1.587
381.40 1.587
381.50 1.586
381.60 1.585
381.70 1.584
381.80 1.583
381.90 1.582
382.00 1.581
382.10 1.579
382.20 1.578
382.30 1.576
382.40 1.575
382.50 1.573
382.60 1.571
382.70 1.569
382.80 1.567
382.90 1.566
383.00 1.564
383.10 1.562
383.20 1.56
383.30 1.559
383.40 1.558
383.50 1.556
383.60 1.556
383.70 1.556
383.80 1.557
383.90 1.557
384.00 1.558
384.10 1.559
384.20 1.56
384.30 1.561
384.40 1.562
384.50 1.562
384.60 1.563
384.70 1.564
384.80 1.564
384.90 1.564
385.00 1.565
385.10 1.564
385.20 1.564
385.30 1.564
385.40 1.564
385.50 1.563
385.60 1.563
385.70 1.562
385.80 1.561
385.90 1.56
386.00 1.559
386.10 1.558
386.20 1.557
386.30 1.556
386.40 1.555
386.50 1.553
386.60 1.551
386.70 1.55
386.80 1.548
386.90 1.546
387.00 1.544
387.10 1.542
387.20 1.54
387.30 1.537
387.40 1.535
387.50 1.532
387.60 1.53
387.70 1.527
387.80 1.524
387.90 1.521
388.00 1.517
388.10 1.514
388.20 1.51
388.30 1.506
388.40 1.501
388.50 1.497
388.60 1.494
388.70 1.492
388.80 1.49
388.90 1.489
389.00 1.489
389.10 1.49
389.20 1.492
389.30 1.495
389.40 1.498
389.50 1.502
389.60 1.506
389.70 1.509
389.80 1.512
389.90 1.515
390.00 1.518
390.10 1.52
390.20 1.522
390.30 1.525
390.40 1.527
390.50 1.528
390.60 1.53
390.70 1.532
390.80 1.533
390.90 1.534
391.00 1.535
391.10 1.537
391.20 1.537
391.30 1.538
391.40 1.539
391.50 1.54
391.60 1.54
391.70 1.54
391.80 1.54
391.90 1.54
392.00 1.54
392.10 1.54
392.20 1.539
392.30 1.538
392.40 1.538
392.50 1.537
392.60 1.535
392.70 1.534
392.80 1.533
392.90 1.531
393.00 1.529
393.10 1.527
393.20 1.525
393.30 1.522
393.40 1.52
393.50 1.517
393.60 1.514
393.70 1.511
393.80 1.508
393.90 1.504
394.00 1.501
394.10 1.497
394.20 1.493
394.30 1.489
394.40 1.484
394.50 1.479
394.60 1.475
394.70 1.47
394.80 1.464
394.90 1.459
395.00 1.453
395.10 1.448
395.20 1.442
395.30 1.435
395.40 1.429
395.50 1.423
395.60 1.416
395.70 1.409
395.80 1.401
395.90 1.394
396.00 1.386
396.10 1.379
396.20 1.371
396.30 1.362
396.40 1.352
396.50 1.342
396.60 1.33
396.70 1.319
396.80 1.31
396.90 1.303
397.00 1.296
397.10 1.302
397.20 1.308
397.30 1.316
397.40 1.327
397.50 1.338
397.60 1.348
397.70 1.357
397.80 1.366
397.90 1.373
398.00 1.381
398.10 1.388
398.20 1.395
398.30 1.402
398.40 1.408
398.50 1.415
398.60 1.421
398.70 1.427
398.80 1.433
398.90 1.439
399.00 1.445
399.10 1.45
399.20 1.455
399.30 1.46
399.40 1.465
399.50 1.47
399.60 1.474
399.70 1.479
399.80 1.483
399.90 1.487
400.00 1.491
400.10 1.494
400.20 1.498
400.30 1.501
400.40 1.504
400.50 1.507
400.60 1.51
400.70 1.512
400.80 1.515
400.90 1.517
401.00 1.519
401.10 1.521
401.20 1.523
401.30 1.525
401.40 1.526
401.50 1.527
401.60 1.528
401.70 1.529
401.80 1.53
401.90 1.531
402.00 1.531
402.10 1.532
402.20 1.532
402.30 1.532
402.40 1.532
402.50 1.532
402.60 1.531
402.70 1.531
402.80 1.53
402.90 1.529
403.00 1.528
403.10 1.527
403.20 1.526
403.30 1.525
403.40 1.523
403.50 1.521
403.60 1.519
403.70 1.517
403.80 1.515
403.90 1.512
404.00 1.51
404.10 1.507
404.20 1.504
404.30 1.501
404.40 1.498
404.50 1.495
404.60 1.491
404.70 1.488
404.80 1.484
404.90 1.48
405.00 1.476
405.10 1.472
405.20 1.467
405.30 1.463
405.40 1.458
405.50 1.453
405.60 1.447
405.70 1.442
405.80 1.436
405.90 1.43
406.00 1.424
406.10 1.418
406.20 1.412
406.30 1.405
406.40 1.398
406.50 1.391
406.60 1.384
406.70 1.377
406.80 1.369
406.90 1.361
407.00 1.353
407.10 1.345
407.20 1.337
407.30 1.328
407.40 1.319
407.50 1.309
407.60 1.3
407.70 1.29
407.80 1.28
407.90 1.27
408.00 1.259
408.10 1.248
408.20 1.237
408.30 1.226
408.40 1.215
408.50 1.203
408.60 1.191
408.70 1.179
408.80 1.166
408.90 1.153
409.00 1.14
409.10 1.127
409.20 1.114
409.30 1.102
409.40 1.089
409.50 1.075
409.60 1.061
409.70 1.046
409.80 1.031
409.90 1.016
410.00 1.005
410.10 0.9983
410.20 0.996
410.30 1
410.40 1.009
410.50 1.021
410.60 1.036
410.70 1.05
410.80 1.063
410.90 1.076
411.00 1.088
411.10 1.1
411.20 1.112
411.30 1.124
411.40 1.136
411.50 1.148
411.60 1.159
411.70 1.171
411.80 1.182
411.90 1.193
412.00 1.204
412.10 1.214
412.20 1.224
412.30 1.234
412.40 1.243
412.50 1.252
412.60 1.262
412.70 1.271
412.80 1.279
412.90 1.288
413.00 1.296
413.10 1.304
413.20 1.312
413.30 1.32
413.40 1.327
413.50 1.335
413.60 1.342
413.70 1.349
413.80 1.355
413.90 1.362
414.00 1.368
414.10 1.374
414.20 1.381
414.30 1.386
414.40 1.392
414.50 1.398
414.60 1.403
414.70 1.409
414.80 1.414
414.90 1.419
415.00 1.424
415.10 1.428
415.20 1.433
415.30 1.437
415.40 1.442
415.50 1.446
415.60 1.45
415.70 1.454
415.80 1.458
415.90 1.461
416.00 1.465
416.10 1.468
416.20 1.472
416.30 1.475
416.40 1.479
416.50 1.482
416.60 1.485
416.70 1.488
416.80 1.491
416.90 1.494
417.00 1.497
417.10 1.5
417.20 1.502
417.30 1.504
417.40 1.507
417.50 1.509
417.60 1.511
417.70 1.513
417.80 1.515
417.90 1.517
418.00 1.519
418.10 1.52
418.20 1.522
418.30 1.524
418.40 1.525
418.50 1.526
418.60 1.528
418.70 1.529
418.80 1.53
418.90 1.531
419.00 1.532
419.10 1.533
419.20 1.534
419.30 1.535
419.40 1.536
419.50 1.536
419.60 1.537
419.70 1.537
419.80 1.538
419.90 1.538
420.00 1.538
420.10 1.538
420.20 1.538
420.30 1.539
420.40 1.539
420.50 1.538
420.60 1.538
420.70 1.538
420.80 1.538
420.90 1.537
421.00 1.537
421.10 1.536
421.20 1.536
421.30 1.535
421.40 1.534
421.50 1.534
421.60 1.533
421.70 1.532
421.80 1.531
421.90 1.53
422.00 1.529
422.10 1.527
422.20 1.526
422.30 1.525
422.40 1.523
422.50 1.522
422.60 1.52
422.70 1.519
422.80 1.517
422.90 1.515
423.00 1.513
423.10 1.511
423.20 1.509
423.30 1.507
423.40 1.505
423.50 1.503
423.60 1.501
423.70 1.499
423.80 1.496
423.90 1.494
424.00 1.491
424.10 1.489
424.20 1.486
424.30 1.483
424.40 1.48
424.50 1.477
424.60 1.475
424.70 1.471
424.80 1.468
424.90 1.465
425.00 1.462
425.10 1.459
425.20 1.455
425.30 1.452
425.40 1.448
425.50 1.444
425.60 1.441
425.70 1.437
425.80 1.433
425.90 1.429
426.00 1.425
426.10 1.421
426.20 1.416
426.30 1.411
426.40 1.407
426.50 1.402
426.60 1.398
426.70 1.393
426.80 1.389
426.90 1.384
427.00 1.379
427.10 1.374
427.20 1.369
427.30 1.364
427.40 1.359
427.50 1.353
427.60 1.348
427.70 1.342
427.80 1.337
427.90 1.331
428.00 1.325
428.10 1.32
428.20 1.314
428.30 1.308
428.40 1.301
428.50 1.295
428.60 1.289
428.70 1.283
428.80 1.276
428.90 1.269
429.00 1.263
429.10 1.256
429.20 1.249
429.30 1.242
429.40 1.235
429.50 1.227
429.60 1.22
429.70 1.212
429.80 1.205
429.90 1.197
430.00 1.189
430.10 1.181
430.20 1.173
430.30 1.164
430.40 1.156
430.50 1.147
430.60 1.139
430.70 1.13
430.80 1.12
430.90 1.111
431.00 1.102
431.10 1.092
431.20 1.082
431.30 1.072
431.40 1.062
431.50 1.051
431.60 1.041
431.70 1.03
431.80 1.019
431.90 1.008
432.00 0.9962
432.10 0.9846
432.20 0.9727
432.30 0.9605
432.40 0.948
432.50 0.9348
432.60 0.9213
432.70 0.9075
432.80 0.8933
432.90 0.8791
433.00 0.8648
433.10 0.8508
433.20 0.8367
433.30 0.8225
433.40 0.8081
433.50 0.7932
433.60 0.7781
433.70 0.7587
433.80 0.7342
433.90 0.7048
434.00 0.6748
434.10 0.6753
434.20 0.7064
434.30 0.7347
434.40 0.758
434.50 0.7762
434.60 0.7905
434.70 0.8044
434.80 0.818
434.90 0.8313
435.00 0.8445
435.10 0.8575
435.20 0.8708
435.30 0.8839
435.40 0.8971
435.50 0.9098
435.60 0.9221
435.70 0.9341
435.80 0.9453
435.90 0.9563
436.00 0.967
436.10 0.9773
436.20 0.9874
436.30 0.9973
436.40 1.007
436.50 1.016
436.60 1.026
436.70 1.035
436.80 1.044
436.90 1.053
437.00 1.061
437.10 1.069
437.20 1.077
437.30 1.085
437.40 1.093
437.50 1.1
437.60 1.107
437.70 1.115
437.80 1.122
437.90 1.128
438.00 1.135
438.10 1.142
438.20 1.148
438.30 1.154
438.40 1.16
438.50 1.166
438.60 1.172
438.70 1.178
438.80 1.184
438.90 1.189
439.00 1.195
439.10 1.2
439.20 1.205
439.30 1.21
439.40 1.215
439.50 1.22
439.60 1.225
439.70 1.229
439.80 1.234
439.90 1.238
440.00 1.243
440.10 1.247
440.20 1.251
440.30 1.256
440.40 1.26
440.50 1.264
440.60 1.268
440.70 1.271
440.80 1.275
440.90 1.279
441.00 1.283
441.10 1.286
441.20 1.29
441.30 1.293
441.40 1.296
441.50 1.299
441.60 1.303
441.70 1.306
441.80 1.309
441.90 1.312
442.00 1.315
442.10 1.317
442.20 1.32
442.30 1.323
442.40 1.325
442.50 1.328
442.60 1.331
442.70 1.333
442.80 1.335
442.90 1.338
443.00 1.34
443.10 1.342
443.20 1.344
443.30 1.347
443.40 1.349
443.50 1.351
443.60 1.353
443.70 1.355
443.80 1.357
443.90 1.359
444.00 1.36
444.10 1.362
444.20 1.364
444.30 1.366
444.40 1.367
444.50 1.369
444.60 1.37
444.70 1.372
444.80 1.373
444.90 1.375
445.00 1.376
445.10 1.377
445.20 1.379
445.30 1.38
445.40 1.381
445.50 1.382
445.60 1.384
445.70 1.385
445.80 1.386
445.90 1.387
446.00 1.388
446.10 1.389
446.20 1.39
446.30 1.391
446.40 1.392
446.50 1.393
446.60 1.393
446.70 1.394
446.80 1.395
446.90 1.396
447.00 1.397
447.10 1.397
447.20 1.398
447.30 1.399
447.40 1.399
447.50 1.4
447.60 1.4
447.70 1.401
447.80 1.401
447.90 1.402
448.00 1.402
448.10 1.403
448.20 1.403
448.30 1.403
448.40 1.404
448.50 1.404
448.60 1.405
448.70 1.405
448.80 1.405
448.90 1.405
449.00 1.406
449.10 1.406
449.20 1.406
449.30 1.406
449.40 1.407
449.50 1.407
449.60 1.407
449.70 1.407
449.80 1.407
449.90 1.407
450.00 1.407
450.10 1.407
450.20 1.407
450.30 1.407
450.40 1.407
450.50 1.407
450.60 1.407
450.70 1.407
450.80 1.407
450.90 1.407
451.00 1.407
451.10 1.406
451.20 1.406
451.30 1.406
451.40 1.406
451.50 1.406
451.60 1.406
451.70 1.405
451.80 1.405
451.90 1.405
452.00 1.405
452.10 1.404
452.20 1.404
452.30 1.404
452.40 1.403
452.50 1.403
452.60 1.403
452.70 1.402
452.80 1.402
452.90 1.401
453.00 1.401
453.10 1.401
453.20 1.4
453.30 1.4
453.40 1.399
453.50 1.399
453.60 1.398
453.70 1.398
453.80 1.398
453.90 1.397
454.00 1.397
454.10 1.396
454.20 1.396
454.30 1.395
454.40 1.395
454.50 1.394
454.60 1.393
454.70 1.393
454.80 1.392
454.90 1.392
455.00 1.391
455.10 1.39
455.20 1.39
455.30 1.389
455.40 1.389
455.50 1.388
455.60 1.387
455.70 1.386
455.80 1.386
455.90 1.385
456.00 1.384
456.10 1.384
456.20 1.383
456.30 1.382
456.40 1.382
456.50 1.381
456.60 1.38
456.70 1.379
456.80 1.379
456.90 1.378
457.00 1.377
457.10 1.377
457.20 1.376
457.30 1.375
457.40 1.375
457.50 1.374
457.60 1.373
457.70 1.372
457.80 1.371
457.90 1.37
458.00 1.37
458.10 1.369
458.20 1.368
458.30 1.367
458.40 1.366
458.50 1.365
458.60 1.364
458.70 1.363
458.80 1.363
458.90 1.362
459.00 1.361
459.10 1.36
459.20 1.359
459.30 1.358
459.40 1.357
459.50 1.356
459.60 1.355
459.70 1.354
459.80 1.353
459.90 1.352
460.00 1.351
460.10 1.35
460.20 1.349
460.30 1.348
460.40 1.347
460.50 1.346
460.60 1.345
460.70 1.344
460.80 1.343
460.90 1.342
461.00 1.341
461.10 1.34
461.20 1.339
461.30 1.338
461.40 1.337
461.50 1.336
461.60 1.335
461.70 1.333
461.80 1.332
461.90 1.331
462.00 1.33
462.10 1.329
462.20 1.328
462.30 1.327
462.40 1.326
462.50 1.324
462.60 1.323
462.70 1.322
462.80 1.321
462.90 1.32
463.00 1.319
463.10 1.317
463.20 1.316
463.30 1.315
463.40 1.314
463.50 1.313
463.60 1.311
463.70 1.31
463.80 1.309
463.90 1.308
464.00 1.306
464.10 1.305
464.20 1.304
464.30 1.303
464.40 1.301
464.50 1.3
464.60 1.299
464.70 1.297
464.80 1.296
464.90 1.295
465.00 1.293
465.10 1.292
465.20 1.291
465.30 1.289
465.40 1.288
465.50 1.287
465.60 1.285
465.70 1.284
465.80 1.282
465.90 1.281
466.00 1.28
466.10 1.278
466.20 1.277
466.30 1.275
466.40 1.274
466.50 1.272
466.60 1.271
466.70 1.269
466.80 1.268
466.90 1.266
467.00 1.265
467.10 1.263
467.20 1.262
467.30 1.26
467.40 1.259
467.50 1.257
467.60 1.256
467.70 1.254
467.80 1.253
467.90 1.251
468.00 1.249
468.10 1.248
468.20 1.246
468.30 1.245
468.40 1.243
468.50 1.241
468.60 1.24
468.70 1.238
468.80 1.236
468.90 1.235
469.00 1.233
469.10 1.231
469.20 1.23
469.30 1.228
469.40 1.226
469.50 1.224
469.60 1.222
469.70 1.221
469.80 1.219
469.90 1.217
470.00 1.215
470.10 1.214
470.20 1.212
470.30 1.21
470.40 1.208
470.50 1.206
470.60 1.204
470.70 1.203
470.80 1.201
470.90 1.199
471.00 1.197
471.10 1.195
471.20 1.193
471.30 1.191
471.40 1.189
471.50 1.187
471.60 1.185
471.70 1.183
471.80 1.181
471.90 1.179
472.00 1.177
472.10 1.175
472.20 1.173
472.30 1.171
472.40 1.169
472.50 1.166
472.60 1.164
472.70 1.162
472.80 1.16
472.90 1.158
473.00 1.156
473.10 1.153
473.20 1.151
473.30 1.149
473.40 1.146
473.50 1.144
473.60 1.142
473.70 1.139
473.80 1.137
473.90 1.135
474.00 1.132
474.10 1.13
474.20 1.127
474.30 1.125
474.40 1.122
474.50 1.12
474.60 1.117
474.70 1.115
474.80 1.112
474.90 1.11
475.00 1.107
475.10 1.105
475.20 1.102
475.30 1.099
475.40 1.096
475.50 1.094
475.60 1.091
475.70 1.088
475.80 1.085
475.90 1.082
476.00 1.08
476.10 1.077
476.20 1.074
476.30 1.071
476.40 1.068
476.50 1.065
476.60 1.062
476.70 1.059
476.80 1.056
476.90 1.053
477.00 1.05
477.10 1.047
477.20 1.044
477.30 1.041
477.40 1.037
477.50 1.034
477.60 1.031
477.70 1.027
477.80 1.024
477.90 1.021
478.00 1.017
478.10 1.014
478.20 1.011
478.30 1.007
478.40 1.003
478.50 0.9998
478.60 0.9962
478.70 0.9926
478.80 0.989
478.90 0.9854
479.00 0.9818
479.10 0.9782
479.20 0.9743
479.30 0.9704
479.40 0.9664
479.50 0.9624
479.60 0.9585
479.70 0.9545
479.80 0.9506
479.90 0.9466
480.00 0.9427
480.10 0.9387
480.20 0.9344
480.30 0.93
480.40 0.9255
480.50 0.9211
480.60 0.9167
480.70 0.9122
480.80 0.9078
480.90 0.9034
481.00 0.899
481.10 0.8946
481.20 0.8897
481.30 0.8848
481.40 0.8798
481.50 0.8748
481.60 0.8698
481.70 0.8648
481.80 0.8599
481.90 0.8549
482.00 0.8499
482.10 0.845
482.20 0.8394
482.30 0.8336
482.40 0.8279
482.50 0.8221
482.60 0.8163
482.70 0.8105
482.80 0.8048
482.90 0.799
483.00 0.7932
483.10 0.7875
483.20 0.7808
483.30 0.7736
483.40 0.7664
483.50 0.7593
483.60 0.7521
483.70 0.745
483.80 0.7378
483.90 0.7307
484.00 0.7236
484.10 0.7165
484.20 0.7081
484.30 0.6992
484.40 0.6904
484.50 0.6815
484.60 0.6726
484.70 0.6626
484.80 0.6521
484.90 0.6415
485.00 0.631
485.10 0.6205
485.20 0.6095
485.30 0.5982
485.40 0.5867
485.50 0.575
485.60 0.5628
485.70 0.5502
485.80 0.5344
485.90 0.5171
486.00 0.4915
486.10 0.4588
486.20 0.4656
486.30 0.5017
486.40 0.5216
486.50 0.5386
486.60 0.5522
486.70 0.5642
486.80 0.5756
486.90 0.5866
487.00 0.5973
487.10 0.6079
487.20 0.618
487.30 0.6278
487.40 0.6376
487.50 0.6474
487.60 0.6572
487.70 0.6658
487.80 0.6738
487.90 0.6819
488.00 0.6899
488.10 0.698
488.20 0.7048
488.30 0.711
488.40 0.7173
488.50 0.7235
488.60 0.7297
488.70 0.7359
488.80 0.7421
488.90 0.7483
489.00 0.7545
489.10 0.7607
489.20 0.7659
489.30 0.7706
489.40 0.7754
489.50 0.7801
489.60 0.7848
489.70 0.7896
489.80 0.7943
489.90 0.799
490.00 0.8037
490.10 0.8084
490.20 0.8126
490.30 0.8164
490.40 0.8202
490.50 0.8241
490.60 0.8279
490.70 0.8318
490.80 0.8356
490.90 0.8394
491.00 0.8433
491.10 0.8471
491.20 0.8505
491.30 0.8537
491.40 0.8569
491.50 0.8601
491.60 0.8633
491.70 0.8665
491.80 0.8696
491.90 0.8728
492.00 0.876
492.10 0.8792
492.20 0.882
492.30 0.8847
492.40 0.8873
492.50 0.89
492.60 0.8926
492.70 0.8953
492.80 0.898
492.90 0.9006
493.00 0.9033
493.10 0.9059
493.20 0.9083
493.30 0.9106
493.40 0.9128
493.50 0.9151
493.60 0.9174
493.70 0.9196
493.80 0.9219
493.90 0.9242
494.00 0.9264
494.10 0.9287
494.20 0.9307
494.30 0.9326
494.40 0.9344
494.50 0.9363
494.60 0.9382
494.70 0.94
494.80 0.9419
494.90 0.9438
495.00 0.9456
495.10 0.9475
495.20 0.9491
495.30 0.9507
495.40 0.9522
495.50 0.9538
495.60 0.9553
495.70 0.9569
495.80 0.9584
495.90 0.96
496.00 0.9615
496.10 0.9631
496.20 0.9644
496.30 0.9657
496.40 0.967
496.50 0.9682
496.60 0.9695
496.70 0.9708
496.80 0.972
496.90 0.9733
497.00 0.9746
497.10 0.9758
497.20 0.977
497.30 0.978
497.40 0.979
497.50 0.98
497.60 0.981
497.70 0.9821
497.80 0.9831
497.90 0.9841
498.00 0.9851
498.10 0.9862
498.20 0.987
498.30 0.9878
498.40 0.9887
498.50 0.9895
498.60 0.9903
498.70 0.9911
498.80 0.9919
498.90 0.9927
499.00 0.9935
499.10 0.9943
499.20 0.995
499.30 0.9956
499.40 0.9963
499.50 0.9969
499.60 0.9975
499.70 0.9981
499.80 0.9988
499.90 0.9994
500.00 1
500.10 1.001
500.20 1.001
500.30 1.002
500.40 1.002
500.50 1.003
500.60 1.003
500.70 1.003
500.80 1.004
500.90 1.004
501.00 1.005
501.10 1.005
501.20 1.006
501.30 1.006
501.40 1.006
501.50 1.007
501.60 1.007
501.70 1.007
501.80 1.008
501.90 1.008
502.00 1.008
502.10 1.009
502.20 1.009
502.30 1.009
502.40 1.009
502.50 1.01
502.60 1.01
502.70 1.01
502.80 1.01
502.90 1.01
503.00 1.011
503.10 1.011
503.20 1.011
503.30 1.011
503.40 1.011
503.50 1.011
503.60 1.012
503.70 1.012
503.80 1.012
503.90 1.012
504.00 1.012
504.10 1.012
504.20 1.012
504.30 1.012
504.40 1.012
504.50 1.012
504.60 1.012
504.70 1.012
504.80 1.012
504.90 1.012
505.00 1.012
505.10 1.012
505.20 1.012
505.30 1.012
505.40 1.012
505.50 1.012
505.60 1.012
505.70 1.012
505.80 1.012
505.90 1.012
506.00 1.012
506.10 1.012
506.20 1.012
506.30 1.012
506.40 1.011
506.50 1.011
506.60 1.011
506.70 1.011
506.80 1.011
506.90 1.011
507.00 1.011
507.10 1.011
507.20 1.01
507.30 1.01
507.40 1.01
507.50 1.01
507.60 1.01
507.70 1.009
507.80 1.009
507.90 1.009
508.00 1.009
508.10 1.009
508.20 1.009
508.30 1.008
508.40 1.008
508.50 1.008
508.60 1.008
508.70 1.007
508.80 1.007
508.90 1.007
509.00 1.007
509.10 1.006
509.20 1.006
509.30 1.006
509.40 1.006
509.50 1.005
509.60 1.005
509.70 1.005
509.80 1.004
509.90 1.004
510.00 1.004
510.10 1.004
510.20 1.003
510.30 1.003
510.40 1.003
510.50 1.002
510.60 1.002
510.70 1.002
510.80 1.001
510.90 1.001
511.00 1.001
511.10 1
511.20 1
511.30 0.9997
511.40 0.9993
511.50 0.999
511.60 0.9986
511.70 0.9983
511.80 0.9979
511.90 0.9976
512.00 0.9972
512.10 0.9969
512.20 0.9965
512.30 0.9961
512.40 0.9957
512.50 0.9954
512.60 0.995
512.70 0.9946
512.80 0.9942
512.90 0.9938
513.00 0.9935
513.10 0.9931
513.20 0.9927
513.30 0.9923
513.40 0.9919
513.50 0.9915
513.60 0.9911
513.70 0.9907
513.80 0.9903
513.90 0.9899
514.00 0.9895
514.10 0.9891
514.20 0.9887
514.30 0.9882
514.40 0.9878
514.50 0.9874
514.60 0.987
514.70 0.9866
514.80 0.9861
514.90 0.9857
515.00 0.9853
515.10 0.9849
515.20 0.9844
515.30 0.984
515.40 0.9835
515.50 0.9831
515.60 0.9827
515.70 0.9822
515.80 0.9818
515.90 0.9813
516.00 0.9809
516.10 0.9805
516.20 0.98
516.30 0.9796
516.40 0.9791
516.50 0.9787
516.60 0.9782
516.70 0.9778
516.80 0.9773
516.90 0.9769
517.00 0.9764
517.10 0.976
517.20 0.9755
517.30 0.9751
517.40 0.9746
517.50 0.9741
517.60 0.9737
517.70 0.9732
517.80 0.9727
517.90 0.9723
518.00 0.9718
518.10 0.9713
518.20 0.9709
518.30 0.9704
518.40 0.9699
518.50 0.9694
518.60 0.969
518.70 0.9685
518.80 0.968
518.90 0.9675
519.00 0.9671
519.10 0.9666
519.20 0.9661
519.30 0.9656
519.40 0.9652
519.50 0.9647
519.60 0.9642
519.70 0.9637
519.80 0.9632
519.90 0.9627
520.00 0.9623
520.10 0.9618
520.20 0.9613
520.30 0.9608
520.40 0.9603
520.50 0.9598
520.60 0.9593
520.70 0.9588
520.80 0.9584
520.90 0.9579
521.00 0.9574
521.10 0.9569
521.20 0.9564
521.30 0.9559
521.40 0.9554
521.50 0.9549
521.60 0.9544
521.70 0.9539
521.80 0.9534
521.90 0.9529
522.00 0.9525
522.10 0.952
522.20 0.9515
522.30 0.951
522.40 0.9505
522.50 0.9499
522.60 0.9494
522.70 0.9489
522.80 0.9484
522.90 0.9479
523.00 0.9474
523.10 0.9469
523.20 0.9464
523.30 0.9459
523.40 0.9454
523.50 0.9449
523.60 0.9444
523.70 0.9439
523.80 0.9434
523.90 0.9429
524.00 0.9424
524.10 0.9418
524.20 0.9413
524.30 0.9408
524.40 0.9403
524.50 0.9398
524.60 0.9393
524.70 0.9388
524.80 0.9383
524.90 0.9377
525.00 0.9372
525.10 0.9367
525.20 0.9362
525.30 0.9357
525.40 0.9352
525.50 0.9347
525.60 0.9342
525.70 0.9337
525.80 0.9331
525.90 0.9326
526.00 0.9321
526.10 0.9316
526.20 0.9311
526.30 0.9306
526.40 0.9301
526.50 0.9296
526.60 0.9291
526.70 0.9285
526.80 0.928
526.90 0.9275
527.00 0.927
527.10 0.9265
527.20 0.926
527.30 0.9254
527.40 0.9249
527.50 0.9244
527.60 0.9239
527.70 0.9234
527.80 0.9229
527.90 0.9223
528.00 0.9218
528.10 0.9213
528.20 0.9208
528.30 0.9203
528.40 0.9197
528.50 0.9192
528.60 0.9187
528.70 0.9182
528.80 0.9177
528.90 0.9171
529.00 0.9166
529.10 0.9161
529.20 0.9156
529.30 0.9151
529.40 0.9145
529.50 0.914
529.60 0.9135
529.70 0.913
529.80 0.9125
529.90 0.9119
530.00 0.9114
530.10 0.9109
530.20 0.9104
530.30 0.9099
530.40 0.9094
530.50 0.9088
530.60 0.9083
530.70 0.9078
530.80 0.9073
530.90 0.9068
531.00 0.9063
531.10 0.9058
531.20 0.9052
531.30 0.9047
531.40 0.9042
531.50 0.9037
531.60 0.9032
531.70 0.9026
531.80 0.9021
531.90 0.9016
532.00 0.9011
532.10 0.9006
532.20 0.9
532.30 0.8995
532.40 0.899
532.50 0.8985
532.60 0.898
532.70 0.8975
532.80 0.897
532.90 0.8964
533.00 0.8959
533.10 0.8954
533.20 0.8949
533.30 0.8944
533.40 0.8939
533.50 0.8934
533.60 0.8928
533.70 0.8923
533.80 0.8918
533.90 0.8913
534.00 0.8908
534.10 0.8903
534.20 0.8898
534.30 0.8892
534.40 0.8887
534.50 0.8882
534.60 0.8877
534.70 0.8872
534.80 0.8867
534.90 0.8861
535.00 0.8856
535.10 0.8851
535.20 0.8846
535.30 0.8841
535.40 0.8836
535.50 0.8831
535.60 0.8825
535.70 0.882
535.80 0.8815
535.90 0.881
536.00 0.8805
536.10 0.88
536.20 0.8795
536.30 0.879
536.40 0.8784
536.50 0.8779
536.60 0.8774
536.70 0.8769
536.80 0.8764
536.90 0.8759
537.00 0.8754
537.10 0.8749
537.20 0.8744
537.30 0.8739
537.40 0.8734
537.50 0.8728
537.60 0.8723
537.70 0.8718
537.80 0.8713
537.90 0.8708
538.00 0.8703
538.10 0.8698
538.20 0.8693
538.30 0.8688
538.40 0.8683
538.50 0.8678
538.60 0.8673
538.70 0.8667
538.80 0.8662
538.90 0.8657
539.00 0.8652
539.10 0.8647
539.20 0.8642
539.30 0.8637
539.40 0.8632
539.50 0.8627
539.60 0.8622
539.70 0.8617
539.80 0.8612
539.90 0.8607
540.00 0.8602
540.10 0.8597
540.20 0.8592
540.30 0.8587
540.40 0.8582
540.50 0.8577
540.60 0.8572
540.70 0.8567
540.80 0.8562
540.90 0.8557
541.00 0.8552
541.10 0.8547
541.20 0.8542
541.30 0.8537
541.40 0.8532
541.50 0.8527
541.60 0.8522
541.70 0.8517
541.80 0.8512
541.90 0.8507
542.00 0.8502
542.10 0.8497
542.20 0.8492
542.30 0.8487
542.40 0.8482
542.50 0.8477
542.60 0.8472
542.70 0.8467
542.80 0.8462
542.90 0.8457
543.00 0.8452
543.10 0.8447
543.20 0.8442
543.30 0.8437
543.40 0.8432
543.50 0.8427
543.60 0.8422
543.70 0.8418
543.80 0.8413
543.90 0.8408
544.00 0.8403
544.10 0.8398
544.20 0.8393
544.30 0.8388
544.40 0.8383
544.50 0.8378
544.60 0.8373
544.70 0.8368
544.80 0.8363
544.90 0.8358
545.00 0.8353
545.10 0.8349
545.20 0.8344
545.30 0.8339
545.40 0.8334
545.50 0.8329
545.60 0.8324
545.70 0.8319
545.80 0.8314
545.90 0.8309
546.00 0.8304
546.10 0.83
546.20 0.8296
546.30 0.8294
546.40 0.8292
546.50 0.8289
546.60 0.8287
546.70 0.8284
546.80 0.8282
546.90 0.8279
547.00 0.8277
547.10 0.8275
547.20 0.827
547.30 0.8265
547.40 0.826
547.50 0.8256
547.60 0.8251
547.70 0.8246
547.80 0.8241
547.90 0.8236
548.00 0.8231
548.10 0.8226
548.20 0.8221
548.30 0.8216
548.40 0.8211
548.50 0.8206
548.60 0.8201
548.70 0.8196
548.80 0.8191
548.90 0.8186
549.00 0.8181
549.10 0.8176
549.20 0.8171
549.30 0.8167
549.40 0.8162
549.50 0.8157
549.60 0.8152
549.70 0.8147
549.80 0.8142
549.90 0.8137
550.00 0.8133
550.10 0.8128
550.20 0.8123
550.30 0.8118
550.40 0.8113
550.50 0.8108
550.60 0.8103
550.70 0.8098
550.80 0.8094
550.90 0.8089
551.00 0.8084
551.10 0.8079
551.20 0.8074
551.30 0.8069
551.40 0.8065
551.50 0.806
551.60 0.8055
551.70 0.805
551.80 0.8045
551.90 0.8041
552.00 0.8036
552.10 0.8031
552.20 0.8026
552.30 0.8021
552.40 0.8017
552.50 0.8012
552.60 0.8007
552.70 0.8002
552.80 0.7997
552.90 0.7992
553.00 0.7988
553.10 0.7983
553.20 0.7978
553.30 0.7973
553.40 0.7969
553.50 0.7964
553.60 0.7959
553.70 0.7954
553.80 0.795
553.90 0.7945
554.00 0.794
554.10 0.7936
554.20 0.7931
554.30 0.7926
554.40 0.7921
554.50 0.7917
554.60 0.7912
554.70 0.7907
554.80 0.7903
554.90 0.7898
555.00 0.7893
555.10 0.7889
555.20 0.7884
555.30 0.7879
555.40 0.7874
555.50 0.787
555.60 0.7865
555.70 0.786
555.80 0.7856
555.90 0.7851
556.00 0.7846
556.10 0.7842
556.20 0.7837
556.30 0.7833
556.40 0.7828
556.50 0.7823
556.60 0.7819
556.70 0.7814
556.80 0.7809
556.90 0.7805
557.00 0.78
557.10 0.7795
557.20 0.7791
557.30 0.7786
557.40 0.7782
557.50 0.7777
557.60 0.7772
557.70 0.7768
557.80 0.7763
557.90 0.7758
558.00 0.7754
558.10 0.7749
558.20 0.7745
558.30 0.774
558.40 0.7735
558.50 0.7731
558.60 0.7726
558.70 0.7722
558.80 0.7717
558.90 0.7713
559.00 0.7708
559.10 0.7703
559.20 0.7699
559.30 0.7694
559.40 0.769
559.50 0.7685
559.60 0.7681
559.70 0.7676
559.80 0.7671
559.90 0.7667
560.00 0.7662
560.10 0.7658
560.20 0.7653
560.30 0.7649
560.40 0.7644
560.50 0.764
560.60 0.7635
560.70 0.7631
560.80 0.7627
560.90 0.7622
561.00 0.7618
561.10 0.7613
561.20 0.7609
561.30 0.7604
561.40 0.76
561.50 0.7595
561.60 0.7591
561.70 0.7586
561.80 0.7582
561.90 0.7577
562.00 0.7573
562.10 0.7568
562.20 0.7564
562.30 0.7559
562.40 0.7555
562.50 0.755
562.60 0.7546
562.70 0.7541
562.80 0.7537
562.90 0.7532
563.00 0.7528
563.10 0.7523
563.20 0.7519
563.30 0.7515
563.40 0.751
563.50 0.7506
563.60 0.7501
563.70 0.7497
563.80 0.7493
563.90 0.7488
564.00 0.7484
564.10 0.7479
564.20 0.7475
564.30 0.7471
564.40 0.7466
564.50 0.7462
564.60 0.7458
564.70 0.7453
564.80 0.7449
564.90 0.7445
565.00 0.744
565.10 0.7436
565.20 0.7431
565.30 0.7427
565.40 0.7423
565.50 0.7418
565.60 0.7414
565.70 0.7409
565.80 0.7405
565.90 0.7401
566.00 0.7396
566.10 0.7392
566.20 0.7388
566.30 0.7383
566.40 0.7379
566.50 0.7375
566.60 0.737
566.70 0.7366
566.80 0.7362
566.90 0.7357
567.00 0.7353
567.10 0.7349
567.20 0.7345
567.30 0.734
567.40 0.7336
567.50 0.7332
567.60 0.7327
567.70 0.7323
567.80 0.7319
567.90 0.7315
568.00 0.731
568.10 0.7306
568.20 0.7302
568.30 0.7297
568.40 0.7293
568.50 0.7289
568.60 0.7285
568.70 0.728
568.80 0.7276
568.90 0.7272
569.00 0.7268
569.10 0.7263
569.20 0.7259
569.30 0.7255
569.40 0.7251
569.50 0.7247
569.60 0.7242
569.70 0.7238
569.80 0.7234
569.90 0.723
570.00 0.7225
570.10 0.7221
570.20 0.7217
570.30 0.7213
570.40 0.7209
570.50 0.7204
570.60 0.72
570.70 0.7196
570.80 0.7192
570.90 0.7187
571.00 0.7183
571.10 0.7179
571.20 0.7175
571.30 0.7171
571.40 0.7167
571.50 0.7163
571.60 0.7158
571.70 0.7154
571.80 0.715
571.90 0.7146
572.00 0.7142
572.10 0.7138
572.20 0.7134
572.30 0.713
572.40 0.7125
572.50 0.7121
572.60 0.7117
572.70 0.7113
572.80 0.7109
572.90 0.7105
573.00 0.71
573.10 0.7096
573.20 0.7092
573.30 0.7088
573.40 0.7084
573.50 0.708
573.60 0.7076
573.70 0.7072
573.80 0.7067
573.90 0.7063
574.00 0.7059
574.10 0.7055
574.20 0.7051
574.30 0.7047
574.40 0.7043
574.50 0.7039
574.60 0.7035
574.70 0.7031
574.80 0.7027
574.90 0.7023
575.00 0.7019
575.10 0.7015
575.20 0.701
575.30 0.7006
575.40 0.7002
575.50 0.6998
575.60 0.6994
575.70 0.699
575.80 0.6986
575.90 0.6982
576.00 0.6978
576.10 0.6974
576.20 0.697
576.30 0.6966
576.40 0.6962
576.50 0.6958
576.60 0.6954
576.70 0.695
576.80 0.6946
576.90 0.6942
577.00 0.6938
577.10 0.6934
577.20 0.693
577.30 0.6926
577.40 0.6922
577.50 0.6918
577.60 0.6914
577.70 0.691
577.80 0.6906
577.90 0.6902
578.00 0.6898
578.10 0.6894
578.20 0.689
578.30 0.6886
578.40 0.6882
578.50 0.6878
578.60 0.6874
578.70 0.687
578.80 0.6866
578.90 0.6862
579.00 0.6858
579.10 0.6854
579.20 0.6851
579.30 0.6847
579.40 0.6843
579.50 0.6839
579.60 0.6835
579.70 0.6831
579.80 0.6827
579.90 0.6823
580.00 0.6819
580.10 0.6815
580.20 0.6811
580.30 0.6807
580.40 0.6803
580.50 0.68
580.60 0.6796
580.70 0.6792
580.80 0.6788
580.90 0.6784
581.00 0.678
581.10 0.6776
581.20 0.6772
581.30 0.6768
581.40 0.6764
581.50 0.6761
581.60 0.6757
581.70 0.6753
581.80 0.6749
581.90 0.6745
582.00 0.6741
582.10 0.6737
582.20 0.6733
582.30 0.673
582.40 0.6726
582.50 0.6722
582.60 0.6718
582.70 0.6714
582.80 0.671
582.90 0.6706
583.00 0.6703
583.10 0.6699
583.20 0.6695
583.30 0.6691
583.40 0.6687
583.50 0.6683
583.60 0.668
583.70 0.6676
583.80 0.6672
583.90 0.6668
584.00 0.6664
584.10 0.666
584.20 0.6657
584.30 0.6653
584.40 0.6649
584.50 0.6645
584.60 0.6641
584.70 0.6637
584.80 0.6634
584.90 0.663
585.00 0.6626
585.10 0.6622
585.20 0.6618
585.30 0.6615
585.40 0.6611
585.50 0.6607
585.60 0.6603
585.70 0.66
585.80 0.6596
585.90 0.6592
586.00 0.6589
586.10 0.6585
586.20 0.6581
586.30 0.6577
586.40 0.6574
586.50 0.657
586.60 0.6566
586.70 0.6562
586.80 0.6558
586.90 0.6555
587.00 0.6551
587.10 0.6547
587.20 0.6543
587.30 0.654
587.40 0.6536
587.50 0.6532
587.60 0.6529
587.70 0.6525
587.80 0.6521
587.90 0.6518
588.00 0.6514
588.10 0.651
588.20 0.6507
588.30 0.6503
588.40 0.6499
588.50 0.6495
588.60 0.6492
588.70 0.6488
588.80 0.6484
588.90 0.648
589.00 0.6477
589.10 0.6473
589.20 0.6469
589.30 0.6466
589.40 0.6462
589.50 0.6458
589.60 0.6455
589.70 0.6451
589.80 0.6447
589.90 0.6444
590.00 0.644
590.10 0.6436
590.20 0.6433
590.30 0.6429
590.40 0.6426
590.50 0.6422
590.60 0.6418
590.70 0.6415
590.80 0.6411
590.90 0.6407
591.00 0.6404
591.10 0.64
591.20 0.6397
591.30 0.6393
591.40 0.6389
591.50 0.6386
591.60 0.6382
591.70 0.6379
591.80 0.6375
591.90 0.6371
592.00 0.6368
592.10 0.6364
592.20 0.6361
592.30 0.6357
592.40 0.6353
592.50 0.635
592.60 0.6346
592.70 0.6343
592.80 0.6339
592.90 0.6335
593.00 0.6332
593.10 0.6328
593.20 0.6325
593.30 0.6321
593.40 0.6318
593.50 0.6314
593.60 0.631
593.70 0.6307
593.80 0.6303
593.90 0.63
594.00 0.6296
594.10 0.6293
594.20 0.6289
594.30 0.6286
594.40 0.6282
594.50 0.6278
594.60 0.6275
594.70 0.6271
594.80 0.6268
594.90 0.6264
595.00 0.6261
595.10 0.6257
595.20 0.6254
595.30 0.625
595.40 0.6247
595.50 0.6243
595.60 0.624
595.70 0.6236
595.80 0.6232
595.90 0.6229
596.00 0.6225
596.10 0.6222
596.20 0.6215
596.30 0.6208
596.40 0.62
596.50 0.6192
596.60 0.6184
596.70 0.6176
596.80 0.6168
596.90 0.6161
597.00 0.6153
597.10 0.6145
597.20 0.614
597.30 0.6137
597.40 0.6133
597.50 0.6129
597.60 0.6126
597.70 0.6122
597.80 0.6119
597.90 0.6115
598.00 0.6111
598.10 0.6108
598.20 0.6104
598.30 0.6101
598.40 0.6097
598.50 0.6094
598.60 0.609
598.70 0.6086
598.80 0.6083
598.90 0.6079
599.00 0.6076
599.10 0.6072
599.20 0.6069
599.30 0.6065
599.40 0.6061
599.50 0.6058
599.60 0.6054
599.70 0.6051
599.80 0.6047
599.90 0.6043
600.00 0.604
600.10 0.6036
600.20 0.6033
600.30 0.6029
600.40 0.6026
600.50 0.6022
600.60 0.6019
600.70 0.6015
600.80 0.6012
600.90 0.6008
601.00 0.6005
601.10 0.6001
601.20 0.5997
601.30 0.5994
601.40 0.599
601.50 0.5987
601.60 0.5983
601.70 0.598
601.80 0.5976
601.90 0.5973
602.00 0.5969
602.10 0.5966
602.20 0.5962
602.30 0.5959
602.40 0.5955
602.50 0.5952
602.60 0.5949
602.70 0.5945
602.80 0.5942
602.90 0.5938
603.00 0.5935
603.10 0.5931
603.20 0.5928
603.30 0.5924
603.40 0.5921
603.50 0.5917
603.60 0.5914
603.70 0.591
603.80 0.5907
603.90 0.5903
604.00 0.59
604.10 0.5896
604.20 0.5892
604.30 0.5889
604.40 0.5885
604.50 0.5882
604.60 0.5878
604.70 0.5875
604.80 0.5871
604.90 0.5868
605.00 0.5865
605.10 0.5861
605.20 0.5858
605.30 0.5854
605.40 0.5851
605.50 0.5847
605.60 0.5844
605.70 0.584
605.80 0.5837
605.90 0.5834
606.00 0.583
606.10 0.5827
606.20 0.5823
606.30 0.582
606.40 0.5816
606.50 0.5813
606.60 0.5809
606.70 0.5806
606.80 0.5803
606.90 0.5799
607.00 0.5796
607.10 0.5792
607.20 0.5789
607.30 0.5785
607.40 0.5782
607.50 0.5778
607.60 0.5775
607.70 0.5772
607.80 0.5768
607.90 0.5765
608.00 0.5761
608.10 0.5758
608.20 0.5754
608.30 0.5751
608.40 0.5747
608.50 0.5744
608.60 0.574
608.70 0.5737
608.80 0.5733
608.90 0.573
609.00 0.5727
609.10 0.5723
609.20 0.572
609.30 0.5716
609.40 0.5713
609.50 0.5709
609.60 0.5706
609.70 0.5703
609.80 0.5699
609.90 0.5696
610.00 0.5692
610.10 0.5689
610.20 0.5686
610.30 0.5682
610.40 0.5679
610.50 0.5675
610.60 0.5672
610.70 0.5668
610.80 0.5665
610.90 0.5662
611.00 0.5658
611.10 0.5655
611.20 0.5651
611.30 0.5648
611.40 0.5644
611.50 0.5641
611.60 0.5638
611.70 0.5634
611.80 0.5631
611.90 0.5627
612.00 0.5624
612.10 0.5621
612.20 0.5617
612.30 0.5614
612.40 0.561
612.50 0.5607
612.60 0.5604
612.70 0.56
612.80 0.5597
612.90 0.5593
613.00 0.559
613.10 0.5587
613.20 0.5583
613.30 0.558
613.40 0.5576
613.50 0.5573
613.60 0.5569
613.70 0.5566
613.80 0.5563
613.90 0.5559
614.00 0.5556
614.10 0.5552
614.20 0.5549
614.30 0.5545
614.40 0.5542
614.50 0.5539
614.60 0.5535
614.70 0.5532
614.80 0.5528
614.90 0.5525
615.00 0.5522
615.10 0.5518
615.20 0.5515
615.30 0.5511
615.40 0.5508
615.50 0.5505
615.60 0.5501
615.70 0.5498
615.80 0.5494
615.90 0.5491
616.00 0.5488
616.10 0.5484
616.20 0.5481
616.30 0.5477
616.40 0.5474
616.50 0.5471
616.60 0.5467
616.70 0.5464
616.80 0.546
616.90 0.5457
617.00 0.5453
617.10 0.545
617.20 0.5447
617.30 0.5443
617.40 0.544
617.50 0.5436
617.60 0.5433
617.70 0.543
617.80 0.5426
617.90 0.5423
618.00 0.5419
618.10 0.5416
618.20 0.5412
618.30 0.5409
618.40 0.5406
618.50 0.5402
618.60 0.5399
618.70 0.5395
618.80 0.5392
618.90 0.5388
619.00 0.5385
619.10 0.5382
619.20 0.5378
619.30 0.5375
619.40 0.5371
619.50 0.5368
619.60 0.5364
619.70 0.5361
619.80 0.5357
619.90 0.5354
620.00 0.535
620.10 0.5347
620.20 0.5343
620.30 0.534
620.40 0.5336
620.50 0.5333
620.60 0.5329
620.70 0.5326
620.80 0.5323
620.90 0.5319
621.00 0.5316
621.10 0.5312
621.20 0.5309
621.30 0.5305
621.40 0.5302
621.50 0.5298
621.60 0.5295
621.70 0.5291
621.80 0.5288
621.90 0.5284
622.00 0.5281
622.10 0.5277
622.20 0.5274
622.30 0.527
622.40 0.5267
622.50 0.5263
622.60 0.526
622.70 0.5256
622.80 0.5253
622.90 0.5249
623.00 0.5246
623.10 0.5242
623.20 0.5239
623.30 0.5235
623.40 0.5232
623.50 0.5228
623.60 0.5225
623.70 0.5221
623.80 0.5217
623.90 0.5214
624.00 0.521
624.10 0.5207
624.20 0.5203
624.30 0.52
624.40 0.5196
624.50 0.5193
624.60 0.5189
624.70 0.5186
624.80 0.5182
624.90 0.5178
625.00 0.5175
625.10 0.5171
625.20 0.5168
625.30 0.5164
625.40 0.516
625.50 0.5157
625.60 0.5153
625.70 0.515
625.80 0.5146
625.90 0.5142
626.00 0.5139
626.10 0.5135
626.20 0.5132
626.30 0.5128
626.40 0.5124
626.50 0.5121
626.60 0.5117
626.70 0.5113
626.80 0.511
626.90 0.5106
627.00 0.5102
627.10 0.5099
627.20 0.5095
627.30 0.5091
627.40 0.5088
627.50 0.5084
627.60 0.508
627.70 0.5077
627.80 0.5073
627.90 0.5069
628.00 0.5066
628.10 0.5062
628.20 0.5058
628.30 0.5054
628.40 0.5051
628.50 0.5047
628.60 0.5043
628.70 0.5039
628.80 0.5036
628.90 0.5032
629.00 0.5028
629.10 0.5024
629.20 0.5021
629.30 0.5017
629.40 0.5013
629.50 0.5009
629.60 0.5005
629.70 0.5002
629.80 0.4998
629.90 0.4994
630.00 0.499
630.10 0.4986
630.20 0.4982
630.30 0.4978
630.40 0.4975
630.50 0.4971
630.60 0.4967
630.70 0.4963
630.80 0.4959
630.90 0.4955
631.00 0.4951
631.10 0.4947
631.20 0.4943
631.30 0.4939
631.40 0.4935
631.50 0.4931
631.60 0.4927
631.70 0.4923
631.80 0.4919
631.90 0.4915
632.00 0.4911
632.10 0.4907
632.20 0.4903
632.30 0.4899
632.40 0.4895
632.50 0.4891
632.60 0.4887
632.70 0.4883
632.80 0.4879
632.90 0.4875
633.00 0.487
633.10 0.4866
633.20 0.4862
633.30 0.4858
633.40 0.4854
633.50 0.485
633.60 0.4845
633.70 0.4841
633.80 0.4837
633.90 0.4833
634.00 0.4828
634.10 0.4824
634.20 0.482
634.30 0.4816
634.40 0.4811
634.50 0.4807
634.60 0.4802
634.70 0.4798
634.80 0.4794
634.90 0.4789
635.00 0.4785
635.10 0.478
635.20 0.4776
635.30 0.4772
635.40 0.4767
635.50 0.4763
635.60 0.4758
635.70 0.4753
635.80 0.4749
635.90 0.4744
636.00 0.474
636.10 0.4735
636.20 0.4731
636.30 0.4726
636.40 0.4721
636.50 0.4717
636.60 0.4712
636.70 0.4707
636.80 0.4702
636.90 0.4698
637.00 0.4693
637.10 0.4688
637.20 0.4683
637.30 0.4679
637.40 0.4674
637.50 0.4669
637.60 0.4664
637.70 0.4659
637.80 0.4654
637.90 0.4649
638.00 0.4644
638.10 0.4639
638.20 0.4634
638.30 0.4629
638.40 0.4624
638.50 0.4619
638.60 0.4614
638.70 0.4608
638.80 0.4603
638.90 0.4598
639.00 0.4593
639.10 0.4588
639.20 0.4582
639.30 0.4577
639.40 0.4572
639.50 0.4566
639.60 0.4561
639.70 0.4555
639.80 0.455
639.90 0.4545
640.00 0.4539
640.10 0.4534
640.20 0.4528
640.30 0.4523
640.40 0.4517
640.50 0.4511
640.60 0.4506
640.70 0.45
640.80 0.4494
640.90 0.4488
641.00 0.4483
641.10 0.4477
641.20 0.4471
641.30 0.4465
641.40 0.4459
641.50 0.4453
641.60 0.4447
641.70 0.4441
641.80 0.4435
641.90 0.4429
642.00 0.4423
642.10 0.4417
642.20 0.4411
642.30 0.4405
642.40 0.4398
642.50 0.4392
642.60 0.4385
642.70 0.4379
642.80 0.4373
642.90 0.4366
643.00 0.436
643.10 0.4353
643.20 0.4347
643.30 0.434
643.40 0.4333
643.50 0.4327
643.60 0.432
643.70 0.4313
643.80 0.4306
643.90 0.4299
644.00 0.4292
644.10 0.4285
644.20 0.4279
644.30 0.4272
644.40 0.4264
644.50 0.4257
644.60 0.425
644.70 0.4242
644.80 0.4235
644.90 0.4228
645.00 0.422
645.10 0.4213
645.20 0.4206
645.30 0.4198
645.40 0.419
645.50 0.4182
645.60 0.4175
645.70 0.4167
645.80 0.4159
645.90 0.4151
646.00 0.4143
646.10 0.4135
646.20 0.4128
646.30 0.412
646.40 0.4111
646.50 0.4103
646.60 0.4094
646.70 0.4086
646.80 0.4077
646.90 0.4069
647.00 0.4061
647.10 0.4052
647.20 0.4044
647.30 0.4035
647.40 0.4026
647.50 0.4017
647.60 0.4007
647.70 0.3998
647.80 0.3988
647.90 0.3979
648.00 0.397
648.10 0.3961
648.20 0.3951
648.30 0.3942
648.40 0.3931
648.50 0.3921
648.60 0.391
648.70 0.3899
648.80 0.3889
648.90 0.3878
649.00 0.3868
649.10 0.3857
649.20 0.3847
649.30 0.3836
649.40 0.3824
649.50 0.3812
649.60 0.38
649.70 0.3788
649.80 0.3776
649.90 0.3764
650.00 0.3752
650.10 0.3741
650.20 0.3729
650.30 0.3716
650.40 0.3703
650.50 0.3689
650.60 0.3675
650.70 0.3661
650.80 0.3647
650.90 0.3633
651.00 0.362
651.10 0.3606
651.20 0.3592
651.30 0.3578
651.40 0.3562
651.50 0.3546
651.60 0.3531
651.70 0.3515
651.80 0.35
651.90 0.3484
652.00 0.3468
652.10 0.3453
652.20 0.3437
652.30 0.3421
652.40 0.3403
652.50 0.3385
652.60 0.3367
652.70 0.3349
652.80 0.333
652.90 0.3312
653.00 0.3294
653.10 0.3276
653.20 0.3258
653.30 0.3239
653.40 0.3217
653.50 0.3194
653.60 0.3172
653.70 0.315
653.80 0.3128
653.90 0.3105
654.00 0.3083
654.10 0.3061
654.20 0.3039
654.30 0.3016
654.40 0.299
654.50 0.2965
654.60 0.2939
654.70 0.2914
654.80 0.2888
654.90 0.2859
655.00 0.2831
655.10 0.2803
655.20 0.2774
655.30 0.2745
655.40 0.2714
655.50 0.2681
655.60 0.2645
655.70 0.2606
655.80 0.256
655.90 0.2507
656.00 0.2426
656.10 0.2333
656.20 0.212
656.30 0.1938
656.40 0.2219
656.50 0.237
656.60 0.245
656.70 0.2523
656.80 0.2567
656.90 0.2609
657.00 0.2643
657.10 0.2676
657.20 0.2705
657.30 0.2733
657.40 0.2759
657.50 0.2785
657.60 0.2811
657.70 0.2836
657.80 0.2861
657.90 0.2884
658.00 0.2907
658.10 0.2929
658.20 0.2952
658.30 0.2974
658.40 0.2993
658.50 0.3012
658.60 0.3031
658.70 0.305
658.80 0.3069
658.90 0.3088
659.00 0.3107
659.10 0.3126
659.20 0.3145
659.30 0.3164
659.40 0.3178
659.50 0.3193
659.60 0.3208
659.70 0.3222
659.80 0.3237
659.90 0.3252
660.00 0.3266
660.10 0.3281
660.20 0.3296
660.30 0.331
660.40 0.3322
660.50 0.3333
660.60 0.3345
660.70 0.3357
660.80 0.3369
660.90 0.3381
661.00 0.3393
661.10 0.3405
661.20 0.3417
661.30 0.3428
661.40 0.3438
661.50 0.3448
661.60 0.3458
661.70 0.3468
661.80 0.3478
661.90 0.3487
662.00 0.3497
662.10 0.3507
662.20 0.3517
662.30 0.3526
662.40 0.3534
662.50 0.3542
662.60 0.355
662.70 0.3558
662.80 0.3565
662.90 0.3573
663.00 0.3581
663.10 0.3589
663.20 0.3597
663.30 0.3604
663.40 0.361
663.50 0.3617
663.60 0.3623
663.70 0.3629
663.80 0.3636
663.90 0.3642
664.00 0.3648
664.10 0.3655
664.20 0.3661
664.30 0.3667
664.40 0.3672
664.50 0.3677
664.60 0.3682
664.70 0.3687
664.80 0.3692
664.90 0.3697
665.00 0.3702
665.10 0.3707
665.20 0.3712
665.30 0.3717
665.40 0.3721
665.50 0.3725
665.60 0.3729
665.70 0.3733
665.80 0.3737
665.90 0.3741
666.00 0.3745
666.10 0.3749
666.20 0.3753
666.30 0.3757
666.40 0.376
666.50 0.3763
666.60 0.3767
666.70 0.377
666.80 0.3773
666.90 0.3777
667.00 0.378
667.10 0.3783
667.20 0.3786
667.30 0.379
667.40 0.3792
667.50 0.3795
667.60 0.3798
667.70 0.38
667.80 0.3803
667.90 0.3806
668.00 0.3809
668.10 0.3811
668.20 0.3814
668.30 0.3817
668.40 0.3819
668.50 0.3821
668.60 0.3823
668.70 0.3825
668.80 0.3827
668.90 0.383
669.00 0.3832
669.10 0.3834
669.20 0.3836
669.30 0.3838
669.40 0.384
669.50 0.3842
669.60 0.3843
669.70 0.3845
669.80 0.3847
669.90 0.3848
670.00 0.385
670.10 0.3852
670.20 0.3853
670.30 0.3855
670.40 0.3856
670.50 0.3857
670.60 0.3859
670.70 0.386
670.80 0.3861
670.90 0.3862
671.00 0.3864
671.10 0.3865
671.20 0.3866
671.30 0.3867
671.40 0.3868
671.50 0.3869
671.60 0.387
671.70 0.3871
671.80 0.3872
671.90 0.3873
672.00 0.3873
672.10 0.3874
672.20 0.3875
672.30 0.3876
672.40 0.3877
672.50 0.3877
672.60 0.3878
672.70 0.3878
672.80 0.3879
672.90 0.3879
673.00 0.388
673.10 0.388
673.20 0.3881
673.30 0.3881
673.40 0.3882
673.50 0.3882
673.60 0.3882
673.70 0.3883
673.80 0.3883
673.90 0.3883
674.00 0.3883
674.10 0.3884
674.20 0.3884
674.30 0.3884
674.40 0.3884
674.50 0.3884
674.60 0.3884
674.70 0.3884
674.80 0.3884
674.90 0.3884
675.00 0.3884
675.10 0.3884
675.20 0.3884
675.30 0.3884
675.40 0.3884
675.50 0.3884
675.60 0.3884
675.70 0.3883
675.80 0.3883
675.90 0.3883
676.00 0.3883
676.10 0.3882
676.20 0.3882
676.30 0.3882
676.40 0.3882
676.50 0.3881
676.60 0.3881
676.70 0.388
676.80 0.388
676.90 0.388
677.00 0.3879
677.10 0.3879
677.20 0.3878
677.30 0.3878
677.40 0.3877
677.50 0.3877
677.60 0.3876
677.70 0.3876
677.80 0.3875
677.90 0.3874
678.00 0.3874
678.10 0.3873
678.20 0.3873
678.30 0.3872
678.40 0.3871
678.50 0.3871
678.60 0.387
678.70 0.3869
678.80 0.3868
678.90 0.3868
679.00 0.3867
679.10 0.3866
679.20 0.3866
679.30 0.3865
679.40 0.3864
679.50 0.3863
679.60 0.3862
679.70 0.3861
679.80 0.386
679.90 0.386
680.00 0.3859
680.10 0.3858
680.20 0.3857
680.30 0.3856
680.40 0.3855
680.50 0.3854
680.60 0.3853
680.70 0.3852
680.80 0.3851
680.90 0.385
681.00 0.3849
681.10 0.3848
681.20 0.3847
681.30 0.3846
681.40 0.3845
681.50 0.3844
681.60 0.3843
681.70 0.3842
681.80 0.3841
681.90 0.384
682.00 0.3839
682.10 0.3838
682.20 0.3837
682.30 0.3836
682.40 0.3835
682.50 0.3833
682.60 0.3832
682.70 0.3831
682.80 0.383
682.90 0.3829
683.00 0.3828
683.10 0.3827
683.20 0.3825
683.30 0.3824
683.40 0.3823
683.50 0.3822
683.60 0.3821
683.70 0.3819
683.80 0.3818
683.90 0.3817
684.00 0.3816
684.10 0.3814
684.20 0.3813
684.30 0.3812
684.40 0.3811
684.50 0.3809
684.60 0.3808
684.70 0.3807
684.80 0.3806
684.90 0.3804
685.00 0.3803
685.10 0.3802
685.20 0.38
685.30 0.3799
685.40 0.3798
685.50 0.3796
685.60 0.3795
685.70 0.3794
685.80 0.3792
685.90 0.3791
686.00 0.379
686.10 0.3788
686.20 0.3787
686.30 0.3786
686.40 0.3784
686.50 0.3783
686.60 0.3782
686.70 0.378
686.80 0.3779
686.90 0.3778
687.00 0.3776
687.10 0.3775
687.20 0.3773
687.30 0.3772
687.40 0.3771
687.50 0.3769
687.60 0.3768
687.70 0.3766
687.80 0.3765
687.90 0.3764
688.00 0.3762
688.10 0.3761
688.20 0.3759
688.30 0.3758
688.40 0.3756
688.50 0.3755
688.60 0.3754
688.70 0.3752
688.80 0.3751
688.90 0.3749
689.00 0.3748
689.10 0.3746
689.20 0.3745
689.30 0.3743
689.40 0.3742
689.50 0.374
689.60 0.3739
689.70 0.3737
689.80 0.3735
689.90 0.3734
690.00 0.3732
690.10 0.3731
690.20 0.3729
690.30 0.3727
690.40 0.3726
690.50 0.3724
690.60 0.3723
690.70 0.3721
690.80 0.372
690.90 0.3718
691.00 0.3716
691.10 0.3715
691.20 0.3713
691.30 0.3712
691.40 0.371
691.50 0.3708
691.60 0.3707
691.70 0.3705
691.80 0.3704
691.90 0.3702
692.00 0.3701
692.10 0.3699
692.20 0.3697
692.30 0.3696
692.40 0.3694
692.50 0.3693
692.60 0.3691
692.70 0.369
692.80 0.3688
692.90 0.3686
693.00 0.3685
693.10 0.3683
693.20 0.3682
693.30 0.368
693.40 0.3679
693.50 0.3677
693.60 0.3675
693.70 0.3674
693.80 0.3672
693.90 0.3671
694.00 0.3669
694.10 0.3668
694.20 0.3666
694.30 0.3664
694.40 0.3663
694.50 0.3661
694.60 0.366
694.70 0.3658
694.80 0.3657
694.90 0.3655
695.00 0.3654
695.10 0.3652
695.20 0.365
695.30 0.3649
695.40 0.3647
695.50 0.3646
695.60 0.3644
695.70 0.3643
695.80 0.3641
695.90 0.364
696.00 0.3638
696.10 0.3636
696.20 0.3635
696.30 0.3633
696.40 0.3632
696.50 0.363
696.60 0.3629
696.70 0.3627
696.80 0.3626
696.90 0.3624
697.00 0.3623
697.10 0.3621
697.20 0.3619
697.30 0.3618
697.40 0.3616
697.50 0.3615
697.60 0.3613
697.70 0.3612
697.80 0.361
697.90 0.3609
698.00 0.3607
698.10 0.3606
698.20 0.3604
698.30 0.3603
698.40 0.3601
698.50 0.36
698.60 0.3598
698.70 0.3596
698.80 0.3595
698.90 0.3593
699.00 0.3592
699.10 0.359
699.20 0.3589
699.30 0.3587
699.40 0.3586
699.50 0.3584
699.60 0.3583
699.70 0.3581
699.80 0.358
699.90 0.3578
700.00 0.3577
700.10 0.3575
700.20 0.3574
700.30 0.3572
700.40 0.3571
700.50 0.3569
700.60 0.3568
700.70 0.3566
700.80 0.3565
700.90 0.3563
701.00 0.3562
701.10 0.356
701.20 0.3559
701.30 0.3557
701.40 0.3556
701.50 0.3554
701.60 0.3553
701.70 0.3551
701.80 0.355
701.90 0.3548
702.00 0.3547
702.10 0.3546
702.20 0.3544
702.30 0.3543
702.40 0.3541
702.50 0.354
702.60 0.3538
702.70 0.3537
702.80 0.3535
702.90 0.3534
703.00 0.3532
703.10 0.3531
703.20 0.3529
703.30 0.3528
703.40 0.3526
703.50 0.3525
703.60 0.3523
703.70 0.3522
703.80 0.3521
703.90 0.3519
704.00 0.3518
704.10 0.3516
704.20 0.3515
704.30 0.3513
704.40 0.3512
704.50 0.351
704.60 0.3509
704.70 0.3507
704.80 0.3506
704.90 0.3504
705.00 0.3503
705.10 0.3501
705.20 0.35
705.30 0.3498
705.40 0.3496
705.50 0.3495
705.60 0.3493
705.70 0.3492
705.80 0.349
705.90 0.3488
706.00 0.3487
706.10 0.3485
706.20 0.3484
706.30 0.3482
706.40 0.348
706.50 0.3479
706.60 0.3477
706.70 0.3476
706.80 0.3474
706.90 0.3472
707.00 0.3471
707.10 0.3469
707.20 0.3467
707.30 0.3466
707.40 0.3464
707.50 0.3463
707.60 0.3461
707.70 0.3459
707.80 0.3458
707.90 0.3456
708.00 0.3455
708.10 0.3453
708.20 0.3451
708.30 0.345
708.40 0.3448
708.50 0.3447
708.60 0.3445
708.70 0.3443
708.80 0.3442
708.90 0.344
709.00 0.3439
709.10 0.3437
709.20 0.3436
709.30 0.3434
709.40 0.3432
709.50 0.3431
709.60 0.3429
709.70 0.3428
709.80 0.3426
709.90 0.3424
710.00 0.3423
710.10 0.3421
710.20 0.342
710.30 0.3418
710.40 0.3416
710.50 0.3415
710.60 0.3413
710.70 0.3412
710.80 0.341
710.90 0.3408
711.00 0.3407
711.10 0.3405
711.20 0.3404
711.30 0.3402
711.40 0.34
711.50 0.3399
711.60 0.3397
711.70 0.3396
711.80 0.3394
711.90 0.3393
712.00 0.3391
712.10 0.3389
712.20 0.3388
712.30 0.3386
712.40 0.3385
712.50 0.3383
712.60 0.3381
712.70 0.338
712.80 0.3378
712.90 0.3377
713.00 0.3375
713.10 0.3374
713.20 0.3372
713.30 0.337
713.40 0.3369
713.50 0.3367
713.60 0.3366
713.70 0.3364
713.80 0.3363
713.90 0.3361
714.00 0.3359
714.10 0.3358
714.20 0.3356
714.30 0.3355
714.40 0.3353
714.50 0.3352
714.60 0.335
714.70 0.3348
714.80 0.3347
714.90 0.3345
715.00 0.3344
715.10 0.3342
715.20 0.3341
715.30 0.334
715.40 0.3338
715.50 0.3337
715.60 0.3335
715.70 0.3334
715.80 0.3333
715.90 0.3331
716.00 0.333
716.10 0.3328
716.20 0.3327
716.30 0.3326
716.40 0.3324
716.50 0.3323
716.60 0.3321
716.70 0.332
716.80 0.3319
716.90 0.3317
717.00 0.3316
717.10 0.3315
717.20 0.3313
717.30 0.3312
717.40 0.331
717.50 0.3309
717.60 0.3308
717.70 0.3306
717.80 0.3305
717.90 0.3303
718.00 0.3302
718.10 0.3301
718.20 0.3299
718.30 0.3298
718.40 0.3297
718.50 0.3295
718.60 0.3294
718.70 0.3292
718.80 0.3291
718.90 0.329
719.00 0.3288
719.10 0.3287
719.20 0.3286
719.30 0.3284
719.40 0.3283
719.50 0.3281
719.60 0.328
719.70 0.3279
719.80 0.3277
719.90 0.3276
720.00 0.3275
720.10 0.3273
720.20 0.3271
720.30 0.327
720.40 0.3268
720.50 0.3267
720.60 0.3265
720.70 0.3264
720.80 0.3262
720.90 0.326
721.00 0.3259
721.10 0.3257
721.20 0.3256
721.30 0.3254
721.40 0.3253
721.50 0.3251
721.60 0.325
721.70 0.3248
721.80 0.3246
721.90 0.3245
722.00 0.3243
722.10 0.3242
722.20 0.324
722.30 0.3239
722.40 0.3237
722.50 0.3236
722.60 0.3234
722.70 0.3232
722.80 0.3231
722.90 0.3229
723.00 0.3228
723.10 0.3226
723.20 0.3225
723.30 0.3223
723.40 0.3222
723.50 0.322
723.60 0.3219
723.70 0.3217
723.80 0.3215
723.90 0.3214
724.00 0.3212
724.10 0.3211
724.20 0.3209
724.30 0.3208
724.40 0.3206
724.50 0.3205
724.60 0.3203
724.70 0.3202
724.80 0.32
724.90 0.3199
725.00 0.3197
725.10 0.3196
725.20 0.3194
725.30 0.3192
725.40 0.3191
725.50 0.3189
725.60 0.3188
725.70 0.3186
725.80 0.3185
725.90 0.3183
726.00 0.3182
726.10 0.318
726.20 0.3179
726.30 0.3177
726.40 0.3176
726.50 0.3174
726.60 0.3173
726.70 0.3171
726.80 0.317
726.90 0.3168
727.00 0.3167
727.10 0.3165
727.20 0.3164
727.30 0.3162
727.40 0.3161
727.50 0.3159
727.60 0.3158
727.70 0.3156
727.80 0.3155
727.90 0.3153
728.00 0.3152
728.10 0.315
728.20 0.3149
728.30 0.3147
728.40 0.3146
728.50 0.3144
728.60 0.3143
728.70 0.3141
728.80 0.314
728.90 0.3138
729.00 0.3137
729.10 0.3135
729.20 0.3134
729.30 0.3132
729.40 0.3131
729.50 0.3129
729.60 0.3128
729.70 0.3126
729.80 0.3125
729.90 0.3123
730.00 0.3122
730.10 0.312
730.20 0.3119
730.30 0.3117
730.40 0.3116
730.50 0.3114
730.60 0.3113
730.70 0.3112
730.80 0.311
730.90 0.3109
731.00 0.3107
731.10 0.3106
731.20 0.3104
731.30 0.3103
731.40 0.3101
731.50 0.31
731.60 0.3098
731.70 0.3097
731.80 0.3095
731.90 0.3094
732.00 0.3092
732.10 0.3091
732.20 0.309
732.30 0.3088
732.40 0.3087
732.50 0.3085
732.60 0.3084
732.70 0.3082
732.80 0.3081
732.90 0.3079
733.00 0.3078
733.10 0.3076
733.20 0.3075
733.30 0.3074
733.40 0.3072
733.50 0.3071
733.60 0.3069
733.70 0.3068
733.80 0.3066
733.90 0.3065
734.00 0.3063
734.10 0.3062
734.20 0.3061
734.30 0.3059
734.40 0.3058
734.50 0.3056
734.60 0.3055
734.70 0.3053
734.80 0.3052
734.90 0.305
735.00 0.3049
735.10 0.3048
735.20 0.3046
735.30 0.3045
735.40 0.3043
735.50 0.3042
735.60 0.304
735.70 0.3039
735.80 0.3038
735.90 0.3036
736.00 0.3035
736.10 0.3033
736.20 0.3032
736.30 0.303
736.40 0.3029
736.50 0.3027
736.60 0.3026
736.70 0.3025
736.80 0.3023
736.90 0.3022
737.00 0.302
737.10 0.3019
737.20 0.3017
737.30 0.3016
737.40 0.3015
737.50 0.3013
737.60 0.3012
737.70 0.301
737.80 0.3009
737.90 0.3008
738.00 0.3006
738.10 0.3005
738.20 0.3003
738.30 0.3002
738.40 0.3
738.50 0.2999
738.60 0.2998
738.70 0.2996
738.80 0.2995
738.90 0.2993
739.00 0.2992
739.10 0.2991
739.20 0.2989
739.30 0.2988
739.40 0.2986
739.50 0.2985
739.60 0.2983
739.70 0.2982
739.80 0.2981
739.90 0.2979
740.00 0.2978
740.10 0.2976
740.20 0.2975
740.30 0.2974
740.40 0.2972
740.50 0.2971
740.60 0.297
740.70 0.2968
740.80 0.2967
740.90 0.2965
741.00 0.2964
741.10 0.2963
741.20 0.2961
741.30 0.296
741.40 0.2958
741.50 0.2957
741.60 0.2956
741.70 0.2954
741.80 0.2953
741.90 0.2952
742.00 0.295
742.10 0.2949
742.20 0.2947
742.30 0.2946
742.40 0.2945
742.50 0.2943
742.60 0.2942
742.70 0.2941
742.80 0.2939
742.90 0.2938
743.00 0.2936
743.10 0.2935
743.20 0.2934
743.30 0.2932
743.40 0.2931
743.50 0.293
743.60 0.2928
743.70 0.2927
743.80 0.2926
743.90 0.2924
744.00 0.2923
744.10 0.2921
744.20 0.292
744.30 0.2919
744.40 0.2917
744.50 0.2916
744.60 0.2915
744.70 0.2913
744.80 0.2912
744.90 0.2911
745.00 0.2909
745.10 0.2908
745.20 0.2906
745.30 0.2905
745.40 0.2904
745.50 0.2902
745.60 0.2901
745.70 0.29
745.80 0.2898
745.90 0.2897
746.00 0.2896
746.10 0.2894
746.20 0.2893
746.30 0.2892
746.40 0.289
746.50 0.2889
746.60 0.2888
746.70 0.2886
746.80 0.2885
746.90 0.2884
747.00 0.2882
747.10 0.2881
747.20 0.2879
747.30 0.2878
747.40 0.2877
747.50 0.2875
747.60 0.2874
747.70 0.2873
747.80 0.2871
747.90 0.287
748.00 0.2869
748.10 0.2867
748.20 0.2866
748.30 0.2865
748.40 0.2863
748.50 0.2862
748.60 0.2861
748.70 0.2859
748.80 0.2858
748.90 0.2857
749.00 0.2855
749.10 0.2854
749.20 0.2853
749.30 0.2851
749.40 0.285
749.50 0.2849
749.60 0.2847
749.70 0.2846
749.80 0.2845
749.90 0.2843
750.00 0.2842
750.10 0.2841
750.20 0.2839
750.30 0.2838
750.40 0.2837
750.50 0.2836
750.60 0.2834
750.70 0.2833
750.80 0.2832
750.90 0.283
751.00 0.2829
751.10 0.2828
751.20 0.2826
751.30 0.2825
751.40 0.2824
751.50 0.2822
751.60 0.2821
751.70 0.282
751.80 0.2819
751.90 0.2817
752.00 0.2816
752.10 0.2815
752.20 0.2813
752.30 0.2812
752.40 0.2811
752.50 0.2809
752.60 0.2808
752.70 0.2807
752.80 0.2806
752.90 0.2804
753.00 0.2803
753.10 0.2802
753.20 0.28
753.30 0.2799
753.40 0.2798
753.50 0.2797
753.60 0.2795
753.70 0.2794
753.80 0.2793
753.90 0.2791
754.00 0.279
754.10 0.2789
754.20 0.2788
754.30 0.2786
754.40 0.2785
754.50 0.2784
754.60 0.2782
754.70 0.2781
754.80 0.278
754.90 0.2779
755.00 0.2777
755.10 0.2776
755.20 0.2775
755.30 0.2773
755.40 0.2772
755.50 0.2771
755.60 0.277
755.70 0.2768
755.80 0.2767
755.90 0.2766
756.00 0.2764
756.10 0.2763
756.20 0.2762
756.30 0.2761
756.40 0.2759
756.50 0.2758
756.60 0.2757
756.70 0.2756
756.80 0.2754
756.90 0.2753
757.00 0.2752
757.10 0.275
757.20 0.2749
757.30 0.2748
757.40 0.2747
757.50 0.2745
757.60 0.2744
757.70 0.2743
757.80 0.2742
757.90 0.274
758.00 0.2739
758.10 0.2738
758.20 0.2737
758.30 0.2735
758.40 0.2734
758.50 0.2733
758.60 0.2732
758.70 0.273
758.80 0.2729
758.90 0.2728
759.00 0.2726
759.10 0.2725
759.20 0.2724
759.30 0.2723
759.40 0.2721
759.50 0.272
759.60 0.2719
759.70 0.2718
759.80 0.2716
759.90 0.2715
760.00 0.2714
760.10 0.2713
760.20 0.2711
760.30 0.271
760.40 0.2709
760.50 0.2708
760.60 0.2707
760.70 0.2705
760.80 0.2704
760.90 0.2703
761.00 0.2702
761.10 0.27
761.20 0.2699
761.30 0.2698
761.40 0.2697
761.50 0.2695
761.60 0.2694
761.70 0.2693
761.80 0.2692
761.90 0.2691
762.00 0.2689
762.10 0.2688
762.20 0.2687
762.30 0.2686
762.40 0.2684
762.50 0.2683
762.60 0.2682
762.70 0.2681
762.80 0.2679
762.90 0.2678
763.00 0.2677
763.10 0.2676
763.20 0.2675
763.30 0.2673
763.40 0.2672
763.50 0.2671
763.60 0.267
763.70 0.2669
763.80 0.2667
763.90 0.2666
764.00 0.2665
764.10 0.2664
764.20 0.2662
764.30 0.2661
764.40 0.266
764.50 0.2659
764.60 0.2658
764.70 0.2656
764.80 0.2655
764.90 0.2654
765.00 0.2653
765.10 0.2652
765.20 0.265
765.30 0.2649
765.40 0.2648
765.50 0.2647
765.60 0.2645
765.70 0.2644
765.80 0.2643
765.90 0.2642
766.00 0.2641
766.10 0.2639
766.20 0.2638
766.30 0.2637
766.40 0.2636
766.50 0.2635
766.60 0.2633
766.70 0.2632
766.80 0.2631
766.90 0.263
767.00 0.2629
767.10 0.2627
767.20 0.2626
767.30 0.2625
767.40 0.2624
767.50 0.2623
767.60 0.2621
767.70 0.262
767.80 0.2619
767.90 0.2618
768.00 0.2617
768.10 0.2615
768.20 0.2614
768.30 0.2613
768.40 0.2612
768.50 0.2611
768.60 0.261
768.70 0.2608
768.80 0.2607
768.90 0.2606
769.00 0.2605
769.10 0.2604
769.20 0.2602
769.30 0.2601
769.40 0.26
769.50 0.2599
769.60 0.2598
769.70 0.2596
769.80 0.2595
769.90 0.2594
770.00 0.2593
770.10 0.2592
770.20 0.2591
770.30 0.2589
770.40 0.2588
770.50 0.2587
770.60 0.2586
770.70 0.2585
770.80 0.2584
770.90 0.2582
771.00 0.2581
771.10 0.258
771.20 0.2579
771.30 0.2578
771.40 0.2577
771.50 0.2575
771.60 0.2574
771.70 0.2573
771.80 0.2572
771.90 0.2571
772.00 0.257
772.10 0.2568
772.20 0.2567
772.30 0.2566
772.40 0.2565
772.50 0.2564
772.60 0.2563
772.70 0.2562
772.80 0.256
772.90 0.2559
773.00 0.2558
773.10 0.2557
773.20 0.2556
773.30 0.2555
773.40 0.2553
773.50 0.2552
773.60 0.2551
773.70 0.255
773.80 0.2549
773.90 0.2548
774.00 0.2547
774.10 0.2545
774.20 0.2544
774.30 0.2543
774.40 0.2542
774.50 0.2541
774.60 0.254
774.70 0.2539
774.80 0.2537
774.90 0.2536
775.00 0.2535
775.10 0.2534
775.20 0.2533
775.30 0.2532
775.40 0.2531
775.50 0.2529
775.60 0.2528
775.70 0.2527
775.80 0.2526
775.90 0.2525
776.00 0.2524
776.10 0.2523
776.20 0.2521
776.30 0.252
776.40 0.2519
776.50 0.2518
776.60 0.2517
776.70 0.2516
776.80 0.2515
776.90 0.2513
777.00 0.2512
777.10 0.2511
777.20 0.251
777.30 0.2509
777.40 0.2508
777.50 0.2507
777.60 0.2506
777.70 0.2504
777.80 0.2503
777.90 0.2502
778.00 0.2501
778.10 0.25
778.20 0.2499
778.30 0.2498
778.40 0.2496
778.50 0.2495
778.60 0.2494
778.70 0.2493
778.80 0.2492
778.90 0.2491
779.00 0.249
779.10 0.2489
779.20 0.2487
779.30 0.2486
779.40 0.2485
779.50 0.2484
779.60 0.2483
779.70 0.2482
779.80 0.2481
779.90 0.248
780.00 0.2479
780.10 0.2477
780.20 0.2476
780.30 0.2475
780.40 0.2474
780.50 0.2473
780.60 0.2472
780.70 0.2471
780.80 0.247
780.90 0.2469
781.00 0.2467
781.10 0.2466
781.20 0.2465
781.30 0.2464
781.40 0.2463
781.50 0.2462
781.60 0.2461
781.70 0.246
781.80 0.2459
781.90 0.2458
782.00 0.2457
782.10 0.2455
782.20 0.2454
782.30 0.2453
782.40 0.2452
782.50 0.2451
782.60 0.245
782.70 0.2449
782.80 0.2448
782.90 0.2447
783.00 0.2446
783.10 0.2444
783.20 0.2443
783.30 0.2442
783.40 0.2441
783.50 0.244
783.60 0.2439
783.70 0.2438
783.80 0.2437
783.90 0.2436
784.00 0.2435
784.10 0.2434
784.20 0.2433
784.30 0.2431
784.40 0.243
784.50 0.2429
784.60 0.2428
784.70 0.2427
784.80 0.2426
784.90 0.2425
785.00 0.2424
785.10 0.2423
785.20 0.2422
785.30 0.2421
785.40 0.242
785.50 0.2418
785.60 0.2417
785.70 0.2416
785.80 0.2415
785.90 0.2414
786.00 0.2413
786.10 0.2412
786.20 0.2411
786.30 0.241
786.40 0.2409
786.50 0.2408
786.60 0.2407
786.70 0.2406
786.80 0.2404
786.90 0.2403
787.00 0.2402
787.10 0.2401
787.20 0.24
787.30 0.2399
787.40 0.2398
787.50 0.2397
787.60 0.2396
787.70 0.2395
787.80 0.2394
787.90 0.2393
788.00 0.2392
788.10 0.2391
788.20 0.2389
788.30 0.2388
788.40 0.2387
788.50 0.2386
788.60 0.2385
788.70 0.2384
788.80 0.2383
788.90 0.2382
789.00 0.2381
789.10 0.238
789.20 0.2379
789.30 0.2378
789.40 0.2377
789.50 0.2376
789.60 0.2375
789.70 0.2374
789.80 0.2372
789.90 0.2371
790.00 0.237
790.10 0.2369
790.20 0.2368
790.30 0.2367
790.40 0.2366
790.50 0.2365
790.60 0.2364
790.70 0.2363
790.80 0.2362
790.90 0.2361
791.00 0.236
791.10 0.2359
791.20 0.2358
791.30 0.2357
791.40 0.2356
791.50 0.2355
791.60 0.2354
791.70 0.2353
791.80 0.2352
791.90 0.2351
792.00 0.235
792.10 0.2349
792.20 0.2347
792.30 0.2346
792.40 0.2345
792.50 0.2344
792.60 0.2343
792.70 0.2342
792.80 0.2341
792.90 0.234
793.00 0.2339
793.10 0.2338
793.20 0.2337
793.30 0.2336
793.40 0.2335
793.50 0.2334
793.60 0.2333
793.70 0.2332
793.80 0.2331
793.90 0.233
794.00 0.2329
794.10 0.2328
794.20 0.2327
794.30 0.2326
794.40 0.2325
794.50 0.2324
794.60 0.2323
794.70 0.2322
794.80 0.2321
794.90 0.232
795.00 0.2319
795.10 0.2318
795.20 0.2317
795.30 0.2316
795.40 0.2315
795.50 0.2314
795.60 0.2313
795.70 0.2312
795.80 0.231
795.90 0.2309
796.00 0.2308
796.10 0.2307
796.20 0.2306
796.30 0.2305
796.40 0.2304
796.50 0.2303
796.60 0.2302
796.70 0.2301
796.80 0.23
796.90 0.2299
797.00 0.2298
797.10 0.2297
797.20 0.2296
797.30 0.2295
797.40 0.2294
797.50 0.2293
797.60 0.2292
797.70 0.2291
797.80 0.229
797.90 0.2289
798.00 0.2288
798.10 0.2287
798.20 0.2286
798.30 0.2285
798.40 0.2284
798.50 0.2283
798.60 0.2282
798.70 0.2281
798.80 0.228
798.90 0.2279
799.00 0.2278
799.10 0.2277
799.20 0.2276
799.30 0.2275
799.40 0.2274
799.50 0.2273
799.60 0.2272
799.70 0.2271
799.80 0.227
799.90 0.2269
800.00 0.2268
800.10 0.2267
800.20 0.2266
800.30 0.2265
800.40 0.2264
800.50 0.2263
800.60 0.2262
800.70 0.2261
800.80 0.226
800.90 0.2259
801.00 0.2258
801.10 0.2257
801.20 0.2256
801.30 0.2255
801.40 0.2254
801.50 0.2253
801.60 0.2252
801.70 0.2251
801.80 0.225
801.90 0.2249
802.00 0.2248
802.10 0.2247
802.20 0.2246
802.30 0.2245
802.40 0.2244
802.50 0.2243
802.60 0.2242
802.70 0.2241
802.80 0.2241
802.90 0.224
803.00 0.2239
803.10 0.2238
803.20 0.2237
803.30 0.2236
803.40 0.2235
803.50 0.2234
803.60 0.2233
803.70 0.2232
803.80 0.2231
803.90 0.223
804.00 0.2229
804.10 0.2228
804.20 0.2227
804.30 0.2226
804.40 0.2225
804.50 0.2224
804.60 0.2223
804.70 0.2222
804.80 0.2221
804.90 0.222
805.00 0.2219
805.10 0.2218
805.20 0.2217
805.30 0.2216
805.40 0.2215
805.50 0.2214
805.60 0.2213
805.70 0.2212
805.80 0.2211
805.90 0.221
806.00 0.2209
806.10 0.2208
806.20 0.2208
806.30 0.2207
806.40 0.2206
806.50 0.2205
806.60 0.2204
806.70 0.2203
806.80 0.2202
806.90 0.2201
807.00 0.22
807.10 0.2199
807.20 0.2198
807.30 0.2197
807.40 0.2196
807.50 0.2195
807.60 0.2194
807.70 0.2193
807.80 0.2192
807.90 0.2191
808.00 0.219
808.10 0.2189
808.20 0.2188
808.30 0.2187
808.40 0.2186
808.50 0.2185
808.60 0.2184
808.70 0.2184
808.80 0.2183
808.90 0.2182
809.00 0.2181
809.10 0.218
809.20 0.2179
809.30 0.2178
809.40 0.2177
809.50 0.2176
809.60 0.2175
809.70 0.2174
809.80 0.2173
809.90 0.2172
810.00 0.2171
810.10 0.217
810.20 0.2169
810.30 0.2168
810.40 0.2167
810.50 0.2167
810.60 0.2166
810.70 0.2165
810.80 0.2164
810.90 0.2163
811.00 0.2162
811.10 0.2161
811.20 0.216
811.30 0.2159
811.40 0.2158
811.50 0.2157
811.60 0.2156
811.70 0.2155
811.80 0.2154
811.90 0.2153
812.00 0.2153
812.10 0.2152
812.20 0.2151
812.30 0.215
812.40 0.2149
812.50 0.2148
812.60 0.2147
812.70 0.2146
812.80 0.2145
812.90 0.2144
813.00 0.2143
813.10 0.2142
813.20 0.2141
813.30 0.214
813.40 0.214
813.50 0.2139
813.60 0.2138
813.70 0.2137
813.80 0.2136
813.90 0.2135
814.00 0.2134
814.10 0.2133
814.20 0.2132
814.30 0.2131
814.40 0.213
814.50 0.2129
814.60 0.2128
814.70 0.2128
814.80 0.2127
814.90 0.2126
815.00 0.2125
815.10 0.2124
815.20 0.2123
815.30 0.2122
815.40 0.2121
815.50 0.212
815.60 0.2119
815.70 0.2118
815.80 0.2117
815.90 0.2117
816.00 0.2116
816.10 0.2115
816.20 0.2114
816.30 0.2113
816.40 0.2112
816.50 0.2111
816.60 0.211
816.70 0.2109
816.80 0.2108
816.90 0.2107
817.00 0.2107
817.10 0.2106
817.20 0.2105
817.30 0.2104
817.40 0.2103
817.50 0.2102
817.60 0.2101
817.70 0.21
817.80 0.2099
817.90 0.2098
818.00 0.2097
818.10 0.2097
818.20 0.2096
818.30 0.2095
818.40 0.2094
818.50 0.2093
818.60 0.2092
818.70 0.2091
818.80 0.209
818.90 0.2089
819.00 0.2088
819.10 0.2087
819.20 0.2087
819.30 0.2086
819.40 0.2085
819.50 0.2084
819.60 0.2083
819.70 0.2082
819.80 0.2081
819.90 0.208
820.00 0.2079
820.10 0.2079
820.20 0.2078
820.30 0.2077
820.40 0.2076
820.50 0.2075
820.60 0.2074
820.70 0.2073
820.80 0.2073
820.90 0.2072
821.00 0.2071
821.10 0.207
821.20 0.2069
821.30 0.2068
821.40 0.2067
821.50 0.2066
821.60 0.2065
821.70 0.2065
821.80 0.2064
821.90 0.2063
822.00 0.2062
822.10 0.2061
822.20 0.206
822.30 0.2059
822.40 0.2058
822.50 0.2058
822.60 0.2057
822.70 0.2056
822.80 0.2055
822.90 0.2054
823.00 0.2053
823.10 0.2052
823.20 0.2051
823.30 0.205
823.40 0.205
823.50 0.2049
823.60 0.2048
823.70 0.2047
823.80 0.2046
823.90 0.2045
824.00 0.2044
824.10 0.2043
824.20 0.2043
824.30 0.2042
824.40 0.2041
824.50 0.204
824.60 0.2039
824.70 0.2038
824.80 0.2037
824.90 0.2036
825.00 0.2036
825.10 0.2035
825.20 0.2034
825.30 0.2033
825.40 0.2032
825.50 0.2031
825.60 0.203
825.70 0.203
825.80 0.2029
825.90 0.2028
826.00 0.2027
826.10 0.2026
826.20 0.2025
826.30 0.2024
826.40 0.2023
826.50 0.2023
826.60 0.2022
826.70 0.2021
826.80 0.202
826.90 0.2019
827.00 0.2018
827.10 0.2017
827.20 0.2017
827.30 0.2016
827.40 0.2015
827.50 0.2014
827.60 0.2013
827.70 0.2012
827.80 0.2011
827.90 0.2011
828.00 0.201
828.10 0.2009
828.20 0.2008
828.30 0.2007
828.40 0.2006
828.50 0.2005
828.60 0.2005
828.70 0.2004
828.80 0.2003
828.90 0.2002
829.00 0.2001
829.10 0.2
829.20 0.1999
829.30 0.1999
829.40 0.1998
829.50 0.1997
829.60 0.1996
829.70 0.1995
829.80 0.1994
829.90 0.1994
830.00 0.1993
830.10 0.1992
830.20 0.1991
830.30 0.199
830.40 0.1989
830.50 0.1988
830.60 0.1988
830.70 0.1987
830.80 0.1986
830.90 0.1985
831.00 0.1984
831.10 0.1983
831.20 0.1983
831.30 0.1982
831.40 0.1981
831.50 0.198
831.60 0.1979
831.70 0.1978
831.80 0.1977
831.90 0.1977
832.00 0.1976
832.10 0.1975
832.20 0.1974
832.30 0.1973
832.40 0.1972
832.50 0.1972
832.60 0.1971
832.70 0.197
832.80 0.1969
832.90 0.1968
833.00 0.1967
833.10 0.1967
833.20 0.1966
833.30 0.1965
833.40 0.1964
833.50 0.1963
833.60 0.1962
833.70 0.1962
833.80 0.1961
833.90 0.196
834.00 0.1959
834.10 0.1958
834.20 0.1958
834.30 0.1957
834.40 0.1956
834.50 0.1955
834.60 0.1954
834.70 0.1953
834.80 0.1953
834.90 0.1952
835.00 0.1951
835.10 0.195
835.20 0.1949
835.30 0.1948
835.40 0.1948
835.50 0.1947
835.60 0.1946
835.70 0.1945
835.80 0.1944
835.90 0.1943
836.00 0.1943
836.10 0.1942
836.20 0.1941
836.30 0.194
836.40 0.1939
836.50 0.1939
836.60 0.1938
836.70 0.1937
836.80 0.1936
836.90 0.1935
837.00 0.1934
837.10 0.1934
837.20 0.1933
837.30 0.1932
837.40 0.1931
837.50 0.193
837.60 0.193
837.70 0.1929
837.80 0.1928
837.90 0.1927
838.00 0.1926
838.10 0.1926
838.20 0.1925
838.30 0.1924
838.40 0.1923
838.50 0.1922
838.60 0.1921
838.70 0.1921
838.80 0.192
838.90 0.1919
839.00 0.1918
839.10 0.1917
839.20 0.1917
839.30 0.1916
839.40 0.1915
839.50 0.1914
839.60 0.1913
839.70 0.1913
839.80 0.1912
839.90 0.1911
840.00 0.191
840.10 0.1909
840.20 0.1909
840.30 0.1908
840.40 0.1907
840.50 0.1906
840.60 0.1905
840.70 0.1905
840.80 0.1904
840.90 0.1903
841.00 0.1902
841.10 0.1901
841.20 0.1901
841.30 0.19
841.40 0.1899
841.50 0.1898
841.60 0.1897
841.70 0.1897
841.80 0.1896
841.90 0.1895
842.00 0.1894
842.10 0.1893
842.20 0.1893
842.30 0.1892
842.40 0.1891
842.50 0.189
842.60 0.1889
842.70 0.1889
842.80 0.1888
842.90 0.1887
843.00 0.1886
843.10 0.1885
843.20 0.1885
843.30 0.1884
843.40 0.1883
843.50 0.1882
843.60 0.1881
843.70 0.1881
843.80 0.188
843.90 0.1879
844.00 0.1878
844.10 0.1878
844.20 0.1877
844.30 0.1876
844.40 0.1875
844.50 0.1874
844.60 0.1874
844.70 0.1873
844.80 0.1872
844.90 0.1871
845.00 0.187
845.10 0.187
845.20 0.1869
845.30 0.1868
845.40 0.1867
845.50 0.1867
845.60 0.1866
845.70 0.1865
845.80 0.1864
845.90 0.1863
846.00 0.1863
846.10 0.1862
846.20 0.1861
846.30 0.186
846.40 0.186
846.50 0.1859
846.60 0.1858
846.70 0.1857
846.80 0.1856
846.90 0.1856
847.00 0.1855
847.10 0.1854
847.20 0.1853
847.30 0.1853
847.40 0.1852
847.50 0.1851
847.60 0.185
847.70 0.185
847.80 0.1849
847.90 0.1848
848.00 0.1847
848.10 0.1846
848.20 0.1846
848.30 0.1845
848.40 0.1844
848.50 0.1843
848.60 0.1843
848.70 0.1842
848.80 0.1841
848.90 0.184
849.00 0.184
849.10 0.1839
849.20 0.1838
849.30 0.1837
849.40 0.1837
849.50 0.1836
849.60 0.1835
849.70 0.1834
849.80 0.1833
849.90 0.1833
850.00 0.1832
850.10 0.1831
850.20 0.183
850.30 0.183
850.40 0.1829
850.50 0.1828
850.60 0.1827
850.70 0.1827
850.80 0.1826
850.90 0.1825
851.00 0.1824
851.10 0.1824
851.20 0.1823
851.30 0.1822
851.40 0.1821
851.50 0.1821
851.60 0.182
851.70 0.1819
851.80 0.1818
851.90 0.1818
852.00 0.1817
852.10 0.1816
852.20 0.1815
852.30 0.1815
852.40 0.1814
852.50 0.1813
852.60 0.1812
852.70 0.1812
852.80 0.1811
852.90 0.181
853.00 0.1809
853.10 0.1809
853.20 0.1808
853.30 0.1807
853.40 0.1806
853.50 0.1806
853.60 0.1805
853.70 0.1804
853.80 0.1803
853.90 0.1803
854.00 0.1802
854.10 0.1801
854.20 0.18
854.30 0.18
854.40 0.1799
854.50 0.1798
854.60 0.1797
854.70 0.1797
854.80 0.1796
854.90 0.1795
855.00 0.1794
855.10 0.1794
855.20 0.1793
855.30 0.1792
855.40 0.1792
855.50 0.1791
855.60 0.179
855.70 0.1789
855.80 0.1789
855.90 0.1788
856.00 0.1787
856.10 0.1786
856.20 0.1786
856.30 0.1785
856.40 0.1784
856.50 0.1783
856.60 0.1783
856.70 0.1782
856.80 0.1781
856.90 0.178
857.00 0.178
857.10 0.1779
857.20 0.1778
857.30 0.1778
857.40 0.1777
857.50 0.1776
857.60 0.1775
857.70 0.1775
857.80 0.1774
857.90 0.1773
858.00 0.1772
858.10 0.1772
858.20 0.1771
858.30 0.177
858.40 0.177
858.50 0.1769
858.60 0.1768
858.70 0.1767
858.80 0.1767
858.90 0.1766
859.00 0.1765
859.10 0.1765
859.20 0.1764
859.30 0.1763
859.40 0.1762
859.50 0.1762
859.60 0.1761
859.70 0.176
859.80 0.176
859.90 0.1759
860.00 0.1758
860.10 0.1757
860.20 0.1757
860.30 0.1756
860.40 0.1755
860.50 0.1754
860.60 0.1754
860.70 0.1753
860.80 0.1752
860.90 0.1752
861.00 0.1751
861.10 0.175
861.20 0.1749
861.30 0.1749
861.40 0.1748
861.50 0.1747
861.60 0.1747
861.70 0.1746
861.80 0.1745
861.90 0.1744
862.00 0.1744
862.10 0.1743
862.20 0.1742
862.30 0.1742
862.40 0.1741
862.50 0.174
862.60 0.174
862.70 0.1739
862.80 0.1738
862.90 0.1737
863.00 0.1737
863.10 0.1736
863.20 0.1735
863.30 0.1735
863.40 0.1734
863.50 0.1733
863.60 0.1733
863.70 0.1732
863.80 0.1731
863.90 0.173
864.00 0.173
864.10 0.1729
864.20 0.1728
864.30 0.1728
864.40 0.1727
864.50 0.1726
864.60 0.1726
864.70 0.1725
864.80 0.1724
864.90 0.1723
865.00 0.1723
865.10 0.1722
865.20 0.1721
865.30 0.1721
865.40 0.172
865.50 0.1719
865.60 0.1719
865.70 0.1718
865.80 0.1717
865.90 0.1717
866.00 0.1716
866.10 0.1715
866.20 0.1714
866.30 0.1714
866.40 0.1713
866.50 0.1712
866.60 0.1712
866.70 0.1711
866.80 0.171
866.90 0.171
867.00 0.1709
867.10 0.1708
867.20 0.1708
867.30 0.1707
867.40 0.1706
867.50 0.1706
867.60 0.1705
867.70 0.1704
867.80 0.1704
867.90 0.1703
868.00 0.1702
868.10 0.1701
868.20 0.1701
868.30 0.17
868.40 0.1699
868.50 0.1699
868.60 0.1698
868.70 0.1697
868.80 0.1697
868.90 0.1696
869.00 0.1695
869.10 0.1695
869.20 0.1694
869.30 0.1693
869.40 0.1693
869.50 0.1692
869.60 0.1691
869.70 0.1691
869.80 0.169
869.90 0.1689
870.00 0.1689
870.10 0.1688
870.20 0.1687
870.30 0.1687
870.40 0.1686
870.50 0.1685
870.60 0.1685
870.70 0.1684
870.80 0.1683
870.90 0.1683
871.00 0.1682
871.10 0.1681
871.20 0.1681
871.30 0.168
871.40 0.1679
871.50 0.1679
871.60 0.1678
871.70 0.1677
871.80 0.1677
871.90 0.1676
872.00 0.1675
872.10 0.1675
872.20 0.1674
872.30 0.1673
872.40 0.1673
872.50 0.1672
872.60 0.1671
872.70 0.1671
872.80 0.167
872.90 0.1669
873.00 0.1669
873.10 0.1668
873.20 0.1667
873.30 0.1667
873.40 0.1666
873.50 0.1665
873.60 0.1665
873.70 0.1664
873.80 0.1663
873.90 0.1663
874.00 0.1662
874.10 0.1662
874.20 0.1661
874.30 0.166
874.40 0.166
874.50 0.1659
874.60 0.1658
874.70 0.1658
874.80 0.1657
874.90 0.1656
875.00 0.1656
875.10 0.1655
875.20 0.1654
875.30 0.1654
875.40 0.1653
875.50 0.1652
875.60 0.1652
875.70 0.1651
875.80 0.165
875.90 0.165
876.00 0.1649
876.10 0.1649
876.20 0.1648
876.30 0.1647
876.40 0.1647
876.50 0.1646
876.60 0.1645
876.70 0.1645
876.80 0.1644
876.90 0.1643
877.00 0.1643
877.10 0.1642
877.20 0.1641
877.30 0.1641
877.40 0.164
877.50 0.164
877.60 0.1639
877.70 0.1638
877.80 0.1638
877.90 0.1637
878.00 0.1636
878.10 0.1636
878.20 0.1635
878.30 0.1635
878.40 0.1634
878.50 0.1633
878.60 0.1633
878.70 0.1632
878.80 0.1631
878.90 0.1631
879.00 0.163
879.10 0.163
879.20 0.1629
879.30 0.1628
879.40 0.1628
879.50 0.1627
879.60 0.1626
879.70 0.1626
879.80 0.1625
879.90 0.1625
880.00 0.1624
880.10 0.1623
880.20 0.1623
880.30 0.1622
880.40 0.1621
880.50 0.1621
880.60 0.162
880.70 0.162
880.80 0.1619
880.90 0.1618
881.00 0.1618
881.10 0.1617
881.20 0.1616
881.30 0.1616
881.40 0.1615
881.50 0.1615
881.60 0.1614
881.70 0.1613
881.80 0.1613
881.90 0.1612
882.00 0.1611
882.10 0.1611
882.20 0.161
882.30 0.161
882.40 0.1609
882.50 0.1608
882.60 0.1608
882.70 0.1607
882.80 0.1606
882.90 0.1606
883.00 0.1605
883.10 0.1605
883.20 0.1604
883.30 0.1603
883.40 0.1603
883.50 0.1602
883.60 0.1601
883.70 0.1601
883.80 0.16
883.90 0.16
884.00 0.1599
884.10 0.1598
884.20 0.1598
884.30 0.1597
884.40 0.1596
884.50 0.1596
884.60 0.1595
884.70 0.1595
884.80 0.1594
884.90 0.1593
885.00 0.1593
885.10 0.1592
885.20 0.1591
885.30 0.1591
885.40 0.159
885.50 0.159
885.60 0.1589
885.70 0.1588
885.80 0.1588
885.90 0.1587
886.00 0.1587
886.10 0.1586
886.20 0.1585
886.30 0.1585
886.40 0.1584
886.50 0.1583
886.60 0.1583
886.70 0.1582
886.80 0.1582
886.90 0.1581
887.00 0.158
887.10 0.158
887.20 0.1579
887.30 0.1579
887.40 0.1578
887.50 0.1577
887.60 0.1577
887.70 0.1576
887.80 0.1576
887.90 0.1575
888.00 0.1575
888.10 0.1574
888.20 0.1574
888.30 0.1573
888.40 0.1572
888.50 0.1572
888.60 0.1571
888.70 0.1571
888.80 0.157
888.90 0.157
889.00 0.1569
889.10 0.1568
889.20 0.1568
889.30 0.1567
889.40 0.1567
889.50 0.1566
889.60 0.1566
889.70 0.1565
889.80 0.1564
889.90 0.1564
890.00 0.1563
890.10 0.1563
890.20 0.1562
890.30 0.1562
890.40 0.1561
890.50 0.1561
890.60 0.156
890.70 0.1559
890.80 0.1559
890.90 0.1558
891.00 0.1558
891.10 0.1557
891.20 0.1557
891.30 0.1556
891.40 0.1556
891.50 0.1555
891.60 0.1554
891.70 0.1554
891.80 0.1553
891.90 0.1553
892.00 0.1552
892.10 0.1552
892.20 0.1551
892.30 0.155
892.40 0.155
892.50 0.1549
892.60 0.1549
892.70 0.1548
892.80 0.1548
892.90 0.1547
893.00 0.1546
893.10 0.1546
893.20 0.1545
893.30 0.1545
893.40 0.1544
893.50 0.1544
893.60 0.1543
893.70 0.1543
893.80 0.1542
893.90 0.1541
894.00 0.1541
894.10 0.154
894.20 0.154
894.30 0.1539
894.40 0.1539
894.50 0.1538
894.60 0.1537
894.70 0.1537
894.80 0.1536
894.90 0.1536
895.00 0.1535
895.10 0.1535
895.20 0.1534
895.30 0.1533
895.40 0.1533
895.50 0.1532
895.60 0.1532
895.70 0.1531
895.80 0.1531
895.90 0.153
896.00 0.153
896.10 0.1529
896.20 0.1528
896.30 0.1528
896.40 0.1527
896.50 0.1527
896.60 0.1526
896.70 0.1526
896.80 0.1525
896.90 0.1524
897.00 0.1524
897.10 0.1523
897.20 0.1523
897.30 0.1522
897.40 0.1521
897.50 0.1521
897.60 0.152
897.70 0.152
897.80 0.1519
897.90 0.1518
898.00 0.1518
898.10 0.1517
898.20 0.1517
898.30 0.1516
898.40 0.1515
898.50 0.1515
898.60 0.1514
898.70 0.1514
898.80 0.1513
898.90 0.1512
899.00 0.1512
899.10 0.1511
899.20 0.151
899.30 0.151
899.40 0.1509
899.50 0.1509
899.60 0.1508
899.70 0.1507
899.80 0.1507
899.90 0.1506
900.00 0.1506
900.10 0.1505
900.20 0.1504
900.30 0.1504
900.40 0.1503
900.50 0.1503
900.60 0.1502
900.70 0.1501
900.80 0.1501
900.90 0.15
901.00 0.15
901.10 0.1499
901.20 0.1498
901.30 0.1498
901.40 0.1497
901.50 0.1497
901.60 0.1496
901.70 0.1495
901.80 0.1495
901.90 0.1494
902.00 0.1494
902.10 0.1493
902.20 0.1493
902.30 0.1492
902.40 0.1492
902.50 0.1491
902.60 0.1491
902.70 0.149
902.80 0.149
902.90 0.1489
903.00 0.1489
903.10 0.1488
903.20 0.1488
903.30 0.1487
903.40 0.1487
903.50 0.1486
903.60 0.1486
903.70 0.1485
903.80 0.1485
903.90 0.1484
904.00 0.1484
904.10 0.1483
904.20 0.1483
904.30 0.1483
904.40 0.1482
904.50 0.1482
904.60 0.1481
904.70 0.1481
904.80 0.148
904.90 0.148
905.00 0.1479
905.10 0.1479
905.20 0.1478
905.30 0.1478
905.40 0.1477
905.50 0.1477
905.60 0.1476
905.70 0.1476
905.80 0.1475
905.90 0.1475
906.00 0.1474
906.10 0.1474
906.20 0.1474
906.30 0.1473
906.40 0.1473
906.50 0.1472
906.60 0.1472
906.70 0.1471
906.80 0.1471
906.90 0.147
907.00 0.147
907.10 0.1469
907.20 0.1469
907.30 0.1468
907.40 0.1468
907.50 0.1467
907.60 0.1467
907.70 0.1466
907.80 0.1466
907.90 0.1465
908.00 0.1465
908.10 0.1464
908.20 0.1464
908.30 0.1463
908.40 0.1463
908.50 0.1462
908.60 0.1462
908.70 0.1461
908.80 0.1461
908.90 0.146
909.00 0.146
909.10 0.1459
909.20 0.1459
909.30 0.1459
909.40 0.1458
909.50 0.1458
909.60 0.1457
909.70 0.1457
909.80 0.1456
909.90 0.1456
910.00 0.1455
910.10 0.1455
910.20 0.1454
910.30 0.1454
910.40 0.1453
910.50 0.1453
910.60 0.1452
910.70 0.1452
910.80 0.1451
910.90 0.1451
911.00 0.145
911.10 0.145
911.20 0.1449
911.30 0.1449
911.40 0.1448
911.50 0.1448
911.60 0.1447
911.70 0.1447
911.80 0.1446
911.90 0.1446
912.00 0.1445
912.10 0.1445
912.20 0.1444
912.30 0.1444
912.40 0.1443
912.50 0.1443
912.60 0.1442
912.70 0.1442
912.80 0.1441
912.90 0.1441
913.00 0.144
913.10 0.144
913.20 0.1439
913.30 0.1439
913.40 0.1438
913.50 0.1438
913.60 0.1437
913.70 0.1436
913.80 0.1436
913.90 0.1435
914.00 0.1435
914.10 0.1434
914.20 0.1434
914.30 0.1433
914.40 0.1433
914.50 0.1432
914.60 0.1432
914.70 0.1431
914.80 0.1431
914.90 0.143
915.00 0.143
915.10 0.1429
915.20 0.1429
915.30 0.1428
915.40 0.1428
915.50 0.1427
915.60 0.1427
915.70 0.1426
915.80 0.1426
915.90 0.1425
916.00 0.1425
916.10 0.1424
916.20 0.1424
916.30 0.1423
916.40 0.1422
916.50 0.1422
916.60 0.1421
916.70 0.1421
916.80 0.142
916.90 0.142
917.00 0.1419
917.10 0.1419
917.20 0.1418
917.30 0.1418
917.40 0.1417
917.50 0.1417
917.60 0.1416
917.70 0.1415
917.80 0.1415
917.90 0.1414
918.00 0.1414
918.10 0.1413
918.20 0.1413
918.30 0.1412
918.40 0.1411
918.50 0.1411
918.60 0.141
918.70 0.141
918.80 0.1409
918.90 0.1409
919.00 0.1408
919.10 0.1407
919.20 0.1407
919.30 0.1406
919.40 0.1406
919.50 0.1405
919.60 0.1405
919.70 0.1404
919.80 0.1403
919.90 0.1403
920.00 0.1402
920.10 0.1402
920.20 0.1401
920.30 0.1401
920.40 0.14
920.50 0.14
920.60 0.1399
920.70 0.1398
920.80 0.1398
920.90 0.1397
921.00 0.1397
921.10 0.1396
921.20 0.1396
921.30 0.1395
921.40 0.1394
921.50 0.1394
921.60 0.1393
921.70 0.1393
921.80 0.1392
921.90 0.1392
922.00 0.1391
922.10 0.139
922.20 0.139
922.30 0.1389
922.40 0.1389
922.50 0.1388
922.60 0.1388
922.70 0.1387
922.80 0.1386
922.90 0.1386
923.00 0.1385
923.10 0.1385
923.20 0.1384
923.30 0.1383
923.40 0.1383
923.50 0.1382
923.60 0.1382
923.70 0.1381
923.80 0.138
923.90 0.138
924.00 0.1379
924.10 0.1379
924.20 0.1378
924.30 0.1378
924.40 0.1377
924.50 0.1376
924.60 0.1376
924.70 0.1375
924.80 0.1375
924.90 0.1374
925.00 0.1373
925.10 0.1373
925.20 0.1372
925.30 0.1372
925.40 0.1371
925.50 0.1371
925.60 0.137
925.70 0.1369
925.80 0.1369
925.90 0.1368
926.00 0.1368
926.10 0.1367
926.20 0.1366
926.30 0.1366
926.40 0.1365
926.50 0.1365
926.60 0.1364
926.70 0.1364
926.80 0.1363
926.90 0.1362
927.00 0.1362
927.10 0.1362
927.20 0.1361
927.30 0.1361
927.40 0.1361
927.50 0.136
927.60 0.136
927.70 0.136
927.80 0.1359
927.90 0.1359
928.00 0.1359
928.10 0.1358
928.20 0.1358
928.30 0.1358
928.40 0.1358
928.50 0.1357
928.60 0.1357
928.70 0.1357
928.80 0.1356
928.90 0.1356
929.00 0.1356
929.10 0.1355
929.20 0.1355
929.30 0.1355
929.40 0.1355
929.50 0.1354
929.60 0.1354
929.70 0.1354
929.80 0.1353
929.90 0.1353
930.00 0.1353
930.10 0.1352
930.20 0.1352
930.30 0.1352
930.40 0.1352
930.50 0.1351
930.60 0.1351
930.70 0.1351
930.80 0.135
930.90 0.135
931.00 0.135
931.10 0.1349
931.20 0.1349
931.30 0.1349
931.40 0.1349
931.50 0.1348
931.60 0.1348
931.70 0.1348
931.80 0.1347
931.90 0.1347
932.00 0.1347
932.10 0.1346
932.20 0.1346
932.30 0.1346
932.40 0.1345
932.50 0.1345
932.60 0.1344
932.70 0.1344
932.80 0.1344
932.90 0.1343
933.00 0.1343
933.10 0.1343
933.20 0.1342
933.30 0.1342
933.40 0.1341
933.50 0.1341
933.60 0.1341
933.70 0.134
933.80 0.134
933.90 0.134
934.00 0.1339
934.10 0.1339
934.20 0.1339
934.30 0.1338
934.40 0.1338
934.50 0.1337
934.60 0.1337
934.70 0.1337
934.80 0.1336
934.90 0.1336
935.00 0.1335
935.10 0.1335
935.20 0.1334
935.30 0.1334
935.40 0.1334
935.50 0.1333
935.60 0.1333
935.70 0.1332
935.80 0.1332
935.90 0.1332
936.00 0.1331
936.10 0.1331
936.20 0.133
936.30 0.133
936.40 0.133
936.50 0.1329
936.60 0.1329
936.70 0.1328
936.80 0.1328
936.90 0.1328
937.00 0.1327
937.10 0.1327
937.20 0.1326
937.30 0.1326
937.40 0.1325
937.50 0.1325
937.60 0.1325
937.70 0.1324
937.80 0.1324
937.90 0.1323
938.00 0.1323
938.10 0.1322
938.20 0.1322
938.30 0.1322
938.40 0.1321
938.50 0.1321
938.60 0.132
938.70 0.132
938.80 0.1319
938.90 0.1319
939.00 0.1318
939.10 0.1318
939.20 0.1318
939.30 0.1317
939.40 0.1317
939.50 0.1316
939.60 0.1316
939.70 0.1315
939.80 0.1315
939.90 0.1314
940.00 0.1314
940.10 0.1314
940.20 0.1313
940.30 0.1313
940.40 0.1312
940.50 0.1312
940.60 0.1311
940.70 0.1311
940.80 0.131
940.90 0.131
941.00 0.1309
941.10 0.1309
941.20 0.1308
941.30 0.1308
941.40 0.1307
941.50 0.1307
941.60 0.1306
941.70 0.1306
941.80 0.1306
941.90 0.1305
942.00 0.1305
942.10 0.1304
942.20 0.1304
942.30 0.1303
942.40 0.1303
942.50 0.1302
942.60 0.1302
942.70 0.1301
942.80 0.1301
942.90 0.13
943.00 0.13
943.10 0.1299
943.20 0.1298
943.30 0.1298
943.40 0.1297
943.50 0.1297
943.60 0.1296
943.70 0.1296
943.80 0.1295
943.90 0.1295
944.00 0.1294
944.10 0.1294
944.20 0.1293
944.30 0.1293
944.40 0.1292
944.50 0.1292
944.60 0.1291
944.70 0.1291
944.80 0.129
944.90 0.1289
945.00 0.1289
945.10 0.1288
945.20 0.1288
945.30 0.1287
945.40 0.1286
945.50 0.1286
945.60 0.1285
945.70 0.1285
945.80 0.1284
945.90 0.1283
946.00 0.1283
946.10 0.1282
946.20 0.1281
946.30 0.1281
946.40 0.128
946.50 0.128
946.60 0.1279
946.70 0.1278
946.80 0.1278
946.90 0.1277
947.00 0.1276
947.10 0.1276
947.20 0.1275
947.30 0.1274
947.40 0.1274
947.50 0.1273
947.60 0.1272
947.70 0.1271
947.80 0.1271
947.90 0.127
948.00 0.1269
948.10 0.1269
948.20 0.1268
948.30 0.1267
948.40 0.1266
948.50 0.1266
948.60 0.1265
948.70 0.1264
948.80 0.1263
948.90 0.1263
949.00 0.1262
949.10 0.1261
949.20 0.126
949.30 0.126
949.40 0.1259
949.50 0.1258
949.60 0.1257
949.70 0.1257
949.80 0.1256
949.90 0.1255
950.00 0.1254
950.10 0.1253
950.20 0.1253
950.30 0.1252
950.40 0.1251
950.50 0.125
950.60 0.125
950.70 0.1249
950.80 0.1248
950.90 0.1247
951.00 0.1246
951.10 0.1246
951.20 0.1245
951.30 0.1244
951.40 0.1243
951.50 0.1243
951.60 0.1242
951.70 0.1241
951.80 0.1241
951.90 0.124
952.00 0.1239
952.10 0.1239
952.20 0.1238
952.30 0.1238
952.40 0.1237
952.50 0.1237
952.60 0.1236
952.70 0.1236
952.80 0.1235
952.90 0.1235
953.00 0.1234
953.10 0.1234
953.20 0.1234
953.30 0.1234
953.40 0.1233
953.50 0.1233
953.60 0.1234
953.70 0.1235
953.80 0.1236
953.90 0.1237
954.00 0.1238
954.10 0.1239
954.20 0.1239
954.30 0.123
954.40 0.1221
954.50 0.1219
954.60 0.1218
954.70 0.1216
954.80 0.1214
954.90 0.1212
955.00 0.121
955.10 0.1209
955.20 0.1207
955.30 0.1206
955.40 0.1204
955.50 0.1203
955.60 0.1201
955.70 0.12
955.80 0.1198
955.90 0.1198
956.00 0.1198
956.10 0.1197
956.20 0.1197
956.30 0.1197
956.40 0.1196
956.50 0.1196
956.60 0.1195
956.70 0.1195
956.80 0.1195
956.90 0.1194
957.00 0.1194
957.10 0.1194
957.20 0.1193
957.30 0.1193
957.40 0.1193
957.50 0.1193
957.60 0.1193
957.70 0.1193
957.80 0.1193
957.90 0.1193
958.00 0.1193
958.10 0.1193
958.20 0.1193
958.30 0.1193
958.40 0.1193
958.50 0.1192
958.60 0.1192
958.70 0.1192
958.80 0.1192
958.90 0.1192
959.00 0.1192
959.10 0.1192
959.20 0.1192
959.30 0.1192
959.40 0.1192
959.50 0.1192
959.60 0.1192
959.70 0.1192
959.80 0.1192
959.90 0.1192
960.00 0.1192
960.10 0.1192
960.20 0.1192
960.30 0.1192
960.40 0.1192
960.50 0.1192
960.60 0.1192
960.70 0.1192
960.80 0.1192
960.90 0.1192
961.00 0.1192
961.10 0.1192
961.20 0.1192
961.30 0.1192
961.40 0.1192
961.50 0.1192
961.60 0.1192
961.70 0.1192
961.80 0.1192
961.90 0.1192
962.00 0.1192
962.10 0.1192
962.20 0.1192
962.30 0.1192
962.40 0.1192
962.50 0.1192
962.60 0.1192
962.70 0.1192
962.80 0.1192
962.90 0.1192
963.00 0.1192
963.10 0.1192
963.20 0.1192
963.30 0.1192
963.40 0.1192
963.50 0.1192
963.60 0.1192
963.70 0.1192
963.80 0.1192
963.90 0.1191
964.00 0.1191
964.10 0.1191
964.20 0.1191
964.30 0.1191
964.40 0.1191
964.50 0.1191
964.60 0.1191
964.70 0.1191
964.80 0.1191
964.90 0.1191
965.00 0.119
965.10 0.119
965.20 0.119
965.30 0.119
965.40 0.119
965.50 0.119
965.60 0.119
965.70 0.119
965.80 0.1189
965.90 0.1189
966.00 0.1189
966.10 0.1189
966.20 0.1189
966.30 0.1189
966.40 0.1189
966.50 0.1189
966.60 0.1188
966.70 0.1188
966.80 0.1188
966.90 0.1188
967.00 0.1188
967.10 0.1188
967.20 0.1187
967.30 0.1187
967.40 0.1187
967.50 0.1187
967.60 0.1187
967.70 0.1186
967.80 0.1186
967.90 0.1186
968.00 0.1186
968.10 0.1186
968.20 0.1185
968.30 0.1185
968.40 0.1185
968.50 0.1185
968.60 0.1185
968.70 0.1184
968.80 0.1184
968.90 0.1184
969.00 0.1184
969.10 0.1183
969.20 0.1183
969.30 0.1183
969.40 0.1183
969.50 0.1182
969.60 0.1182
969.70 0.1182
969.80 0.1182
969.90 0.1181
970.00 0.1181
970.10 0.1181
970.20 0.1181
970.30 0.1181
970.40 0.118
970.50 0.118
970.60 0.118
970.70 0.1179
970.80 0.1179
970.90 0.1179
971.00 0.1179
971.10 0.1178
971.20 0.1178
971.30 0.1178
971.40 0.1177
971.50 0.1177
971.60 0.1177
971.70 0.1177
971.80 0.1176
971.90 0.1176
972.00 0.1176
972.10 0.1175
972.20 0.1175
972.30 0.1175
972.40 0.1175
972.50 0.1174
972.60 0.1174
972.70 0.1174
972.80 0.1173
972.90 0.1173
973.00 0.1173
973.10 0.1172
973.20 0.1172
973.30 0.1172
973.40 0.1171
973.50 0.1171
973.60 0.1171
973.70 0.117
973.80 0.117
973.90 0.117
974.00 0.117
974.10 0.1169
974.20 0.1169
974.30 0.1169
974.40 0.1168
974.50 0.1168
974.60 0.1168
974.70 0.1167
974.80 0.1167
974.90 0.1166
975.00 0.1166
975.10 0.1166
975.20 0.1165
975.30 0.1165
975.40 0.1165
975.50 0.1164
975.60 0.1164
975.70 0.1164
975.80 0.1163
975.90 0.1163
976.00 0.1163
976.10 0.1162
976.20 0.1162
976.30 0.1162
976.40 0.1161
976.50 0.1161
976.60 0.1161
976.70 0.116
976.80 0.116
976.90 0.1159
977.00 0.1159
977.10 0.1159
977.20 0.1158
977.30 0.1158
977.40 0.1158
977.50 0.1157
977.60 0.1157
977.70 0.1156
977.80 0.1156
977.90 0.1156
978.00 0.1155
978.10 0.1155
978.20 0.1154
978.30 0.1154
978.40 0.1154
978.50 0.1153
978.60 0.1153
978.70 0.1152
978.80 0.1152
978.90 0.1152
979.00 0.1151
979.10 0.1151
979.20 0.115
979.30 0.115
979.40 0.115
979.50 0.1149
979.60 0.1149
979.70 0.1148
979.80 0.1148
979.90 0.1148
980.00 0.1147
980.10 0.1147
980.20 0.1146
980.30 0.1146
980.40 0.1146
980.50 0.1145
980.60 0.1145
980.70 0.1144
980.80 0.1144
980.90 0.1144
981.00 0.1143
981.10 0.1143
981.20 0.1142
981.30 0.1142
981.40 0.1142
981.50 0.1141
981.60 0.1141
981.70 0.1141
981.80 0.114
981.90 0.114
982.00 0.1139
982.10 0.1139
982.20 0.1138
982.30 0.1138
982.40 0.1138
982.50 0.1137
982.60 0.1137
982.70 0.1136
982.80 0.1136
982.90 0.1135
983.00 0.1135
983.10 0.1134
983.20 0.1134
983.30 0.1133
983.40 0.1133
983.50 0.1133
983.60 0.1132
983.70 0.1132
983.80 0.1131
983.90 0.1131
984.00 0.113
984.10 0.113
984.20 0.1129
984.30 0.1129
984.40 0.1129
984.50 0.1128
984.60 0.1128
984.70 0.1127
984.80 0.1127
984.90 0.1126
985.00 0.1126
985.10 0.1125
985.20 0.1125
985.30 0.1124
985.40 0.1124
985.50 0.1123
985.60 0.1123
985.70 0.1122
985.80 0.1122
985.90 0.1121
986.00 0.1121
986.10 0.112
986.20 0.112
986.30 0.1119
986.40 0.1118
986.50 0.1118
986.60 0.1117
986.70 0.1117
986.80 0.1116
986.90 0.1116
987.00 0.1115
987.10 0.1115
987.20 0.1114
987.30 0.1114
987.40 0.1113
987.50 0.1113
987.60 0.1112
987.70 0.1111
987.80 0.1111
987.90 0.111
988.00 0.111
988.10 0.1109
988.20 0.1109
988.30 0.1108
988.40 0.1108
988.50 0.1107
988.60 0.1106
988.70 0.1106
988.80 0.1105
988.90 0.1104
989.00 0.1104
989.10 0.1103
989.20 0.1102
989.30 0.1102
989.40 0.1101
989.50 0.1101
989.60 0.11
989.70 0.1099
989.80 0.1099
989.90 0.1098
990.00 0.1097
990.10 0.1097
990.20 0.1096
990.30 0.1095
990.40 0.1095
990.50 0.1094
990.60 0.1093
990.70 0.1093
990.80 0.1092
990.90 0.1091
991.00 0.109
991.10 0.109
991.20 0.1089
991.30 0.1088
991.40 0.1088
991.50 0.1087
991.60 0.1086
991.70 0.1085
991.80 0.1085
991.90 0.1084
992.00 0.1083
992.10 0.1082
992.20 0.1081
992.30 0.1081
992.40 0.108
992.50 0.1079
992.60 0.1078
992.70 0.1077
992.80 0.1076
992.90 0.1075
993.00 0.1075
993.10 0.1074
993.20 0.1073
993.30 0.1072
993.40 0.1071
993.50 0.107
993.60 0.1069
993.70 0.1068
993.80 0.1067
993.90 0.1066
994.00 0.1065
994.10 0.1065
994.20 0.1064
994.30 0.1063
994.40 0.1062
994.50 0.1061
994.60 0.106
994.70 0.1059
994.80 0.1058
994.90 0.1057
995.00 0.1056
995.10 0.1055
995.20 0.1054
995.30 0.1053
995.40 0.1052
995.50 0.1051
995.60 0.105
995.70 0.1049
995.80 0.1048
995.90 0.1046
996.00 0.1045
996.10 0.1044
996.20 0.1043
996.30 0.1042
996.40 0.1041
996.50 0.104
996.60 0.1039
996.70 0.1037
996.80 0.1036
996.90 0.1035
997.00 0.1034
997.10 0.1033
997.20 0.1032
997.30 0.1031
997.40 0.1029
997.50 0.1028
997.60 0.1027
997.70 0.1026
997.80 0.1025
997.90 0.1023
998.00 0.1022
998.10 0.1021
998.20 0.102
998.30 0.1018
998.40 0.1017
998.50 0.1016
998.60 0.1015
998.70 0.1014
998.80 0.1012
998.90 0.1011
999.00 0.101
999.10 0.1009
999.20 0.1008
999.30 0.1006
999.40 0.1005
999.50 0.1004
999.60 0.1003
999.70 0.1002
999.80 0.1001
999.90 0.09995
1000.00 0.09985
1000.10 0.09974
1000.20 0.09963
1000.30 0.09953
1000.40 0.09942
1000.50 0.09931
1000.60 0.09921
1000.70 0.0991
1000.80 0.09899
1000.90 0.09889
1001.00 0.09878
1001.10 0.09867
1001.20 0.09857
1001.30 0.09846
1001.40 0.09835
1001.50 0.09825
1001.60 0.09814
1001.70 0.09806
1001.80 0.09797
1001.90 0.09789
1002.00 0.09781
1002.10 0.09777
1002.20 0.09772
1002.30 0.09767
1002.40 0.09762
1002.50 0.09757
1002.60 0.09752
1002.70 0.09748
1002.80 0.09743
1002.90 0.09738
1003.00 0.09733
1003.10 0.09728
1003.20 0.09737
1003.30 0.09751
1003.40 0.09765
1003.50 0.09778
1003.60 0.09792
1003.70 0.09805
1003.80 0.09819
1003.90 0.09837
1004.00 0.09855
1004.10 0.09874
1004.20 0.09893
1004.30 0.09912
1004.40 0.0993
1004.50 0.09946
1004.60 0.09955
1004.70 0.09527
1004.80 0.0951
1004.90 0.09488
1005.00 0.09467
1005.10 0.09446
1005.20 0.09424
1005.30 0.09403
1005.40 0.09381
1005.50 0.09364
1005.60 0.09348
1005.70 0.09332
1005.80 0.09316
1005.90 0.093
1006.00 0.09284
1006.10 0.09268
1006.20 0.09258
1006.30 0.09248
1006.40 0.09239
1006.50 0.0923
1006.60 0.09221
1006.70 0.09212
1006.80 0.09203
1006.90 0.09194
1007.00 0.09185
1007.10 0.0918
1007.20 0.09176
1007.30 0.09172
1007.40 0.09167
1007.50 0.09163
1007.60 0.09159
1007.70 0.09158
1007.80 0.09158
1007.90 0.09158
1008.00 0.09158
1008.10 0.09159
1008.20 0.09159
1008.30 0.09159
1008.40 0.09159
1008.50 0.0916
1008.60 0.0916
1008.70 0.0916
1008.80 0.0916
1008.90 0.0916
1009.00 0.09161
1009.10 0.09161
1009.20 0.09161
1009.30 0.09161
1009.40 0.09162
1009.50 0.09162
1009.60 0.09162
1009.70 0.09164
1009.80 0.09167
1009.90 0.09169
1010.00 0.09172
1010.10 0.09175
1010.20 0.09177
1010.30 0.0918
1010.40 0.09182
1010.50 0.09185
1010.60 0.09188
1010.70 0.0919
1010.80 0.09193
1010.90 0.09196
1011.00 0.09198
1011.10 0.09201
1011.20 0.09203
1011.30 0.09206
1011.40 0.09209
1011.50 0.09211
1011.60 0.09214
1011.70 0.09217
1011.80 0.0922
1011.90 0.09223
1012.00 0.09226
1012.10 0.09229
1012.20 0.09232
1012.30 0.09235
1012.40 0.09238
1012.50 0.09241
1012.60 0.09244
1012.70 0.09247
1012.80 0.0925
1012.90 0.09253
1013.00 0.09256
1013.10 0.09259
1013.20 0.09262
1013.30 0.09265
1013.40 0.09268
1013.50 0.09271
1013.60 0.09274
1013.70 0.09277
1013.80 0.09279
1013.90 0.09282
1014.00 0.09285
1014.10 0.09287
1014.20 0.0929
1014.30 0.09293
1014.40 0.09296
1014.50 0.09298
1014.60 0.09301
1014.70 0.09303
1014.80 0.09306
1014.90 0.09308
1015.00 0.0931
1015.10 0.09312
1015.20 0.09315
1015.30 0.09317
1015.40 0.09319
1015.50 0.09321
1015.60 0.09324
1015.70 0.09326
1015.80 0.09328
1015.90 0.0933
1016.00 0.09333
1016.10 0.09335
1016.20 0.09337
1016.30 0.09339
1016.40 0.09342
1016.50 0.09344
1016.60 0.09346
1016.70 0.09348
1016.80 0.0935
1016.90 0.09352
1017.00 0.09354
1017.10 0.09355
1017.20 0.09357
1017.30 0.09359
1017.40 0.0936
1017.50 0.09362
1017.60 0.09363
1017.70 0.09365
1017.80 0.09366
1017.90 0.09368
1018.00 0.0937
1018.10 0.09371
1018.20 0.09373
1018.30 0.09374
1018.40 0.09376
1018.50 0.09377
1018.60 0.09379
1018.70 0.0938
1018.80 0.09381
1018.90 0.09382
1019.00 0.09383
1019.10 0.09384
1019.20 0.09385
1019.30 0.09386
1019.40 0.09387
1019.50 0.09389
1019.60 0.0939
1019.70 0.09391
1019.80 0.09392
1019.90 0.09393
1020.00 0.09394
1020.10 0.09395
1020.20 0.09396
1020.30 0.09397
1020.40 0.09398
1020.50 0.09399
1020.60 0.094
1020.70 0.09401
1020.80 0.09401
1020.90 0.09402
1021.00 0.09402
1021.10 0.09403
1021.20 0.09403
1021.30 0.09404
1021.40 0.09404
1021.50 0.09405
1021.60 0.09406
1021.70 0.09406
1021.80 0.09407
1021.90 0.09407
1022.00 0.09408
1022.10 0.09408
1022.20 0.09408
1022.30 0.09408
1022.40 0.09408
1022.50 0.09408
1022.60 0.09408
1022.70 0.09408
1022.80 0.09408
1022.90 0.09408
1023.00 0.09408
1023.10 0.09408
1023.20 0.09408
1023.30 0.09408
1023.40 0.09408
1023.50 0.09408
1023.60 0.09409
1023.70 0.09409
1023.80 0.09409
1023.90 0.09409
1024.00 0.09409
1024.10 0.09409
1024.20 0.09409
1024.30 0.09409
1024.40 0.09409
1024.50 0.09409
1024.60 0.09409
1024.70 0.09409
1024.80 0.09408
1024.90 0.09408
1025.00 0.09407
1025.10 0.09407
1025.20 0.09406
1025.30 0.09406
1025.40 0.09405
1025.50 0.09405
1025.60 0.09404
1025.70 0.09404
1025.80 0.09403
1025.90 0.09403
1026.00 0.09402
1026.10 0.09402
1026.20 0.09401
1026.30 0.09401
1026.40 0.094
1026.50 0.094
1026.60 0.09399
1026.70 0.09399
1026.80 0.09398
1026.90 0.09398
1027.00 0.09397
1027.10 0.09396
1027.20 0.09395
1027.30 0.09394
1027.40 0.09392
1027.50 0.09391
1027.60 0.0939
1027.70 0.09389
1027.80 0.09388
1027.90 0.09387
1028.00 0.09385
1028.10 0.09384
1028.20 0.09383
1028.30 0.09382
1028.40 0.09381
1028.50 0.0938
1028.60 0.09378
1028.70 0.09377
1028.80 0.09376
1028.90 0.09375
1029.00 0.09374
1029.10 0.09372
1029.20 0.09371
1029.30 0.0937
1029.40 0.09369
1029.50 0.09368
1029.60 0.09367
1029.70 0.09365
1029.80 0.09364
1029.90 0.09363
1030.00 0.09362
1030.10 0.09361
1030.20 0.0936
1030.30 0.09358
1030.40 0.09357
1030.50 0.09356
1030.60 0.09355
1030.70 0.09354
1030.80 0.09353
1030.90 0.09351
1031.00 0.0935
1031.10 0.09349
1031.20 0.09348
1031.30 0.09347
1031.40 0.09346
1031.50 0.09344
1031.60 0.09343
1031.70 0.09342
1031.80 0.09341
1031.90 0.0934
1032.00 0.09339
1032.10 0.09337
1032.20 0.09335
1032.30 0.09333
1032.40 0.09331
1032.50 0.09329
1032.60 0.09327
1032.70 0.09325
1032.80 0.09323
1032.90 0.09321
1033.00 0.09319
1033.10 0.09318
1033.20 0.09316
1033.30 0.09314
1033.40 0.09312
1033.50 0.0931
1033.60 0.09308
1033.70 0.09306
1033.80 0.09304
1033.90 0.09302
1034.00 0.093
1034.10 0.09299
1034.20 0.09297
1034.30 0.09295
1034.40 0.09293
1034.50 0.09291
1034.60 0.09289
1034.70 0.09287
1034.80 0.09285
1034.90 0.09283
1035.00 0.09282
1035.10 0.0928
1035.20 0.09278
1035.30 0.09276
1035.40 0.09274
1035.50 0.09272
1035.60 0.0927
1035.70 0.09268
1035.80 0.09266
1035.90 0.09265
1036.00 0.09263
1036.10 0.09261
1036.20 0.09259
1036.30 0.09257
1036.40 0.09255
1036.50 0.09253
1036.60 0.09251
1036.70 0.09249
1036.80 0.09248
1036.90 0.09246
1037.00 0.09244
1037.10 0.09241
1037.20 0.09239
1037.30 0.09236
1037.40 0.09234
1037.50 0.09232
1037.60 0.09229
1037.70 0.09227
1037.80 0.09224
1037.90 0.09222
1038.00 0.09219
1038.10 0.09217
1038.20 0.09214
1038.30 0.09212
1038.40 0.0921
1038.50 0.09207
1038.60 0.09205
1038.70 0.09202
1038.80 0.092
1038.90 0.09197
1039.00 0.09195
1039.10 0.09192
1039.20 0.0919
1039.30 0.09188
1039.40 0.09185
1039.50 0.09183
1039.60 0.0918
1039.70 0.09178
1039.80 0.09175
1039.90 0.09173
1040.00 0.09171
1040.10 0.09168
1040.20 0.09166
1040.30 0.09163
1040.40 0.09161
1040.50 0.09158
1040.60 0.09156
1040.70 0.09154
1040.80 0.09151
1040.90 0.09149
1041.00 0.09146
1041.10 0.09144
1041.20 0.09141
1041.30 0.09139
1041.40 0.09137
1041.50 0.09134
1041.60 0.09132
1041.70 0.09129
1041.80 0.09127
1041.90 0.09124
1042.00 0.09122
1042.10 0.09119
1042.20 0.09116
1042.30 0.09113
1042.40 0.0911
1042.50 0.09107
1042.60 0.09105
1042.70 0.09102
1042.80 0.09099
1042.90 0.09096
1043.00 0.09093
1043.10 0.0909
1043.20 0.09087
1043.30 0.09084
1043.40 0.09081
1043.50 0.09078
1043.60 0.09075
1043.70 0.09073
1043.80 0.0907
1043.90 0.09067
1044.00 0.09064
1044.10 0.09061
1044.20 0.09058
1044.30 0.09055
1044.40 0.09052
1044.50 0.09049
1044.60 0.09046
1044.70 0.09044
1044.80 0.09041
1044.90 0.09038
1045.00 0.09035
1045.10 0.09032
1045.20 0.09029
1045.30 0.09026
1045.40 0.09023
1045.50 0.0902
1045.60 0.09018
1045.70 0.09015
1045.80 0.09012
1045.90 0.09009
1046.00 0.09006
1046.10 0.09003
1046.20 0.09
1046.30 0.08997
1046.40 0.08994
1046.50 0.08992
1046.60 0.08989
1046.70 0.08986
1046.80 0.08983
1046.90 0.0898
1047.00 0.08977
1047.10 0.08974
1047.20 0.08971
1047.30 0.08967
1047.40 0.08964
1047.50 0.08961
1047.60 0.08957
1047.70 0.08954
1047.80 0.08951
1047.90 0.08947
1048.00 0.08944
1048.10 0.08941
1048.20 0.08937
1048.30 0.08934
1048.40 0.08931
1048.50 0.08927
1048.60 0.08924
1048.70 0.08921
1048.80 0.08917
1048.90 0.08914
1049.00 0.08911
1049.10 0.08907
1049.20 0.08904
1049.30 0.08901
1049.40 0.08898
1049.50 0.08894
1049.60 0.08891
1049.70 0.08888
1049.80 0.08884
1049.90 0.08881
1050.00 0.08878
1050.10 0.08874
1050.20 0.08871
1050.30 0.08868
1050.40 0.08865
1050.50 0.08861
1050.60 0.08858
1050.70 0.08855
1050.80 0.08851
1050.90 0.08848
1051.00 0.08845
1051.10 0.08842
1051.20 0.08838
1051.30 0.08835
1051.40 0.08832
1051.50 0.08828
1051.60 0.08825
1051.70 0.08822
1051.80 0.08819
1051.90 0.08815
1052.00 0.08812
1052.10 0.08808
1052.20 0.08805
1052.30 0.08801
1052.40 0.08797
1052.50 0.08793
1052.60 0.0879
1052.70 0.08786
1052.80 0.08782
1052.90 0.08778
1053.00 0.08775
1053.10 0.08771
1053.20 0.08767
1053.30 0.08763
1053.40 0.0876
1053.50 0.08756
1053.60 0.08752
1053.70 0.08749
1053.80 0.08745
1053.90 0.08741
1054.00 0.08737
1054.10 0.08734
1054.20 0.0873
1054.30 0.08726
1054.40 0.08722
1054.50 0.08719
1054.60 0.08715
1054.70 0.08711
1054.80 0.08708
1054.90 0.08704
1055.00 0.087
1055.10 0.08696
1055.20 0.08693
1055.30 0.08689
1055.40 0.08685
1055.50 0.08682
1055.60 0.08678
1055.70 0.08674
1055.80 0.08671
1055.90 0.08667
1056.00 0.08663
1056.10 0.08659
1056.20 0.08656
1056.30 0.08652
1056.40 0.08648
1056.50 0.08645
1056.60 0.08641
1056.70 0.08637
1056.80 0.08634
1056.90 0.0863
1057.00 0.08626
1057.10 0.08622
1057.20 0.08618
1057.30 0.08614
1057.40 0.08609
1057.50 0.08605
1057.60 0.08601
1057.70 0.08597
1057.80 0.08592
1057.90 0.08588
1058.00 0.08584
1058.10 0.0858
1058.20 0.08576
1058.30 0.08571
1058.40 0.08567
1058.50 0.08563
1058.60 0.08559
1058.70 0.08554
1058.80 0.0855
1058.90 0.08546
1059.00 0.08542
1059.10 0.08538
1059.20 0.08533
1059.30 0.08529
1059.40 0.08525
1059.50 0.08521
1059.60 0.08517
1059.70 0.08512
1059.80 0.08508
1059.90 0.08504
1060.00 0.085
1060.10 0.08496
1060.20 0.08491
1060.30 0.08487
1060.40 0.08483
1060.50 0.08479
1060.60 0.08475
1060.70 0.08471
1060.80 0.08466
1060.90 0.08462
1061.00 0.08458
1061.10 0.08454
1061.20 0.0845
1061.30 0.08445
1061.40 0.08441
1061.50 0.08437
1061.60 0.08433
1061.70 0.08429
1061.80 0.08425
1061.90 0.0842
1062.00 0.08416
1062.10 0.08411
1062.20 0.08407
1062.30 0.08402
1062.40 0.08397
1062.50 0.08392
1062.60 0.08387
1062.70 0.08383
1062.80 0.08378
1062.90 0.08373
1063.00 0.08368
1063.10 0.08363
1063.20 0.08359
1063.30 0.08354
1063.40 0.08349
1063.50 0.08344
1063.60 0.08339
1063.70 0.08335
1063.80 0.0833
1063.90 0.08325
1064.00 0.0832
1064.10 0.08315
1064.20 0.08311
1064.30 0.08306
1064.40 0.08301
1064.50 0.08296
1064.60 0.08291
1064.70 0.08287
1064.80 0.08282
1064.90 0.08277
1065.00 0.08272
1065.10 0.08268
1065.20 0.08263
1065.30 0.08258
1065.40 0.08253
1065.50 0.08248
1065.60 0.08244
1065.70 0.08239
1065.80 0.08234
1065.90 0.08229
1066.00 0.08225
1066.10 0.0822
1066.20 0.08215
1066.30 0.0821
1066.40 0.08206
1066.50 0.08201
1066.60 0.08196
1066.70 0.08191
1066.80 0.08187
1066.90 0.08182
1067.00 0.08177
1067.10 0.08172
1067.20 0.08166
1067.30 0.0816
1067.40 0.08155
1067.50 0.08149
1067.60 0.08144
1067.70 0.08138
1067.80 0.08133
1067.90 0.08127
1068.00 0.08121
1068.10 0.08116
1068.20 0.0811
1068.30 0.08105
1068.40 0.08099
1068.50 0.08094
1068.60 0.08088
1068.70 0.08083
1068.80 0.08077
1068.90 0.08072
1069.00 0.08066
1069.10 0.0806
1069.20 0.08055
1069.30 0.08049
1069.40 0.08044
1069.50 0.08038
1069.60 0.08033
1069.70 0.08027
1069.80 0.08022
1069.90 0.08016
1070.00 0.08011
1070.10 0.08005
1070.20 0.08
1070.30 0.07994
1070.40 0.07989
1070.50 0.07983
1070.60 0.07978
1070.70 0.07972
1070.80 0.07967
1070.90 0.07961
1071.00 0.07956
1071.10 0.0795
1071.20 0.07945
1071.30 0.07939
1071.40 0.07934
1071.50 0.07928
1071.60 0.07923
1071.70 0.07917
1071.80 0.07912
1071.90 0.07906
1072.00 0.07901
1072.10 0.07895
1072.20 0.07889
1072.30 0.07883
1072.40 0.07876
1072.50 0.0787
1072.60 0.07864
1072.70 0.07858
1072.80 0.07852
1072.90 0.07846
1073.00 0.0784
1073.10 0.07834
1073.20 0.07828
1073.30 0.07822
1073.40 0.07815
1073.50 0.07809
1073.60 0.07803
1073.70 0.07796
1073.80 0.07789
1073.90 0.07782
1074.00 0.07776
1074.10 0.07769
1074.20 0.07762
1074.30 0.07756
1074.40 0.07749
1074.50 0.07742
1074.60 0.07736
1074.70 0.07729
1074.80 0.07723
1074.90 0.07716
1075.00 0.07709
1075.10 0.07703
1075.20 0.07696
1075.30 0.07689
1075.40 0.07683
1075.50 0.07676
1075.60 0.07669
1075.70 0.07663
1075.80 0.07656
1075.90 0.07649
1076.00 0.07643
1076.10 0.07636
1076.20 0.0763
1076.30 0.07623
1076.40 0.07616
1076.50 0.0761
1076.60 0.07603
1076.70 0.07597
1076.80 0.0759
1076.90 0.07583
1077.00 0.07577
1077.10 0.0757
1077.20 0.07563
1077.30 0.07555
1077.40 0.07548
1077.50 0.07541
1077.60 0.07534
1077.70 0.07526
1077.80 0.07519
1077.90 0.07511
1078.00 0.07504
1078.10 0.07496
1078.20 0.07489
1078.30 0.07481
1078.40 0.07474
1078.50 0.07466
1078.60 0.07459
1078.70 0.07452
1078.80 0.07444
1078.90 0.07437
1079.00 0.07429
1079.10 0.07422
1079.20 0.07414
1079.30 0.07407
1079.40 0.074
1079.50 0.07392
1079.60 0.07384
1079.70 0.07376
1079.80 0.07368
1079.90 0.0736
1080.00 0.07352
1080.10 0.07344
1080.20 0.07336
1080.30 0.07328
1080.40 0.0732
1080.50 0.07312
1080.60 0.07304
1080.70 0.07296
1080.80 0.07288
1080.90 0.0728
1081.00 0.07272
1081.10 0.07264
1081.20 0.07256
1081.30 0.07248
1081.40 0.0724
1081.50 0.07232
1081.60 0.07223
1081.70 0.07215
1081.80 0.07206
1081.90 0.07198
1082.00 0.0719
1082.10 0.07181
1082.20 0.07172
1082.30 0.07163
1082.40 0.07155
1082.50 0.07146
1082.60 0.07137
1082.70 0.07129
1082.80 0.0712
1082.90 0.07111
1083.00 0.07102
1083.10 0.07094
1083.20 0.07085
1083.30 0.07076
1083.40 0.07068
1083.50 0.07059
1083.60 0.0705
1083.70 0.07041
1083.80 0.07031
1083.90 0.07022
1084.00 0.07013
1084.10 0.07004
1084.20 0.06995
1084.30 0.06986
1084.40 0.06977
1084.50 0.06968
1084.60 0.06958
1084.70 0.06949
1084.80 0.06939
1084.90 0.06929
1085.00 0.0692
1085.10 0.0691
1085.20 0.06901
1085.30 0.06891
1085.40 0.06882
1085.50 0.06872
1085.60 0.06863
1085.70 0.06853
1085.80 0.06844
1085.90 0.06834
1086.00 0.06825
1086.10 0.06815
1086.20 0.06806
1086.30 0.06796
1086.40 0.06787
1086.50 0.06777
1086.60 0.06767
1086.70 0.06757
1086.80 0.06748
1086.90 0.06738
1087.00 0.06728
1087.10 0.06718
1087.20 0.06709
1087.30 0.06699
1087.40 0.06689
1087.50 0.06679
1087.60 0.06669
1087.70 0.0666
1087.80 0.0665
1087.90 0.0664
1088.00 0.0663
1088.10 0.0662
1088.20 0.06611
1088.30 0.06601
1088.40 0.06591
1088.50 0.06582
1088.60 0.06573
1088.70 0.06564
1088.80 0.06555
1088.90 0.06546
1089.00 0.06537
1089.10 0.06528
1089.20 0.06519
1089.30 0.0651
1089.40 0.06501
1089.50 0.06492
1089.60 0.06483
1089.70 0.06474
1089.80 0.06465
1089.90 0.06456
1090.00 0.06447
1090.10 0.06439
1090.20 0.0643
1090.30 0.06421
1090.40 0.06412
1090.50 0.06404
1090.60 0.064
1090.70 0.06395
1090.80 0.06391
1090.90 0.06386
1091.00 0.06382
1091.10 0.06377
1091.20 0.06373
1091.30 0.06368
1091.40 0.06364
1091.50 0.06359
1091.60 0.06355
1091.70 0.0635
1091.80 0.06346
1091.90 0.06341
1092.00 0.06337
1092.10 0.06342
1092.20 0.06347
1092.30 0.06352
1092.40 0.06357
1092.50 0.06362
1092.60 0.06367
1092.70 0.06375
1092.80 0.06388
1092.90 0.06401
1093.00 0.06414
1093.10 0.06428
1093.20 0.06444
1093.30 0.06461
1093.40 0.06475
1093.50 0.06479
1093.60 0.06463
1093.70 0.06442
1093.80 0.06422
1093.90 0.06403
1094.00 0.06386
1094.10 0.06369
1094.20 0.06353
1094.30 0.06338
1094.40 0.0633
1094.50 0.06321
1094.60 0.06313
1094.70 0.06305
1094.80 0.06296
1094.90 0.06288
1095.00 0.06282
1095.10 0.06283
1095.20 0.06283
1095.30 0.06284
1095.40 0.06284
1095.50 0.06285
1095.60 0.06286
1095.70 0.06286
1095.80 0.06287
1095.90 0.06287
1096.00 0.06288
1096.10 0.06288
1096.20 0.06289
1096.30 0.06289
1096.40 0.0629
1096.50 0.06292
1096.60 0.06296
1096.70 0.06301
1096.80 0.06305
1096.90 0.06309
1097.00 0.06314
1097.10 0.06319
1097.20 0.06324
1097.30 0.06328
1097.40 0.06333
1097.50 0.06338
1097.60 0.06343
1097.70 0.06348
1097.80 0.06352
1097.90 0.06357
1098.00 0.06362
1098.10 0.06367
1098.20 0.06372
1098.30 0.06376
1098.40 0.06381
1098.50 0.06386
1098.60 0.06391
1098.70 0.06397
1098.80 0.06402
1098.90 0.06407
1099.00 0.06413
1099.10 0.06418
1099.20 0.06423
1099.30 0.06429
1099.40 0.06434
1099.50 0.06439
1099.60 0.06445
1099.70 0.0645
1099.80 0.06455
1099.90 0.0646
1100.00 0.06466
1100.10 0.06471
1100.20 0.06476
1100.30 0.06482
1100.40 0.06487
1100.50 0.06492
1100.60 0.06497
1100.70 0.06502
1100.80 0.06507
1100.90 0.06512
1101.00 0.06517
1101.10 0.06522
1101.20 0.06526
1101.30 0.06531
1101.40 0.06536
1101.50 0.06541
1101.60 0.06546
1101.70 0.06551
1101.80 0.06556
1101.90 0.06561
1102.00 0.06566
1102.10 0.0657
1102.20 0.06575
1102.30 0.06579
1102.40 0.06584
1102.50 0.06588
1102.60 0.06593
1102.70 0.06597
1102.80 0.06601
1102.90 0.06605
1103.00 0.0661
1103.10 0.06614
1103.20 0.06618
1103.30 0.06622
1103.40 0.06627
1103.50 0.06631
1103.60 0.06635
1103.70 0.06638
1103.80 0.06642
1103.90 0.06646
1104.00 0.06649
1104.10 0.06653
1104.20 0.06657
1104.30 0.0666
1104.40 0.06664
1104.50 0.06668
1104.60 0.06672
1104.70 0.06675
1104.80 0.06679
1104.90 0.06683
1105.00 0.06686
1105.10 0.0669
1105.20 0.06694
1105.30 0.06697
1105.40 0.06701
1105.50 0.06705
1105.60 0.06708
1105.70 0.06711
1105.80 0.06714
1105.90 0.06717
1106.00 0.0672
1106.10 0.06723
1106.20 0.06726
1106.30 0.06729
1106.40 0.06732
1106.50 0.06735
1106.60 0.06738
1106.70 0.06741
1106.80 0.06744
1106.90 0.06747
1107.00 0.0675
1107.10 0.06753
1107.20 0.06756
1107.30 0.06759
1107.40 0.06761
1107.50 0.06764
1107.60 0.06766
1107.70 0.06769
1107.80 0.06771
1107.90 0.06773
1108.00 0.06776
1108.10 0.06778
1108.20 0.0678
1108.30 0.06782
1108.40 0.06785
1108.50 0.06787
1108.60 0.06789
1108.70 0.06792
1108.80 0.06794
1108.90 0.06796
1109.00 0.06799
1109.10 0.06801
1109.20 0.06803
1109.30 0.06806
1109.40 0.06808
1109.50 0.0681
1109.60 0.06812
1109.70 0.06814
1109.80 0.06815
1109.90 0.06817
1110.00 0.06819
1110.10 0.0682
1110.20 0.06822
1110.30 0.06824
1110.40 0.06825
1110.50 0.06827
1110.60 0.06829
1110.70 0.0683
1110.80 0.06832
1110.90 0.06834
1111.00 0.06835
1111.10 0.06837
1111.20 0.06839
1111.30 0.06841
1111.40 0.06842
1111.50 0.06844
1111.60 0.06846
1111.70 0.06847
1111.80 0.06849
1111.90 0.06851
1112.00 0.06852
1112.10 0.06853
1112.20 0.06855
1112.30 0.06856
1112.40 0.06857
1112.50 0.06858
1112.60 0.06859
1112.70 0.06861
1112.80 0.06862
1112.90 0.06863
1113.00 0.06864
1113.10 0.06865
1113.20 0.06867
1113.30 0.06868
1113.40 0.06869
1113.50 0.0687
1113.60 0.06871
1113.70 0.06871
1113.80 0.06872
1113.90 0.06873
1114.00 0.06873
1114.10 0.06874
1114.20 0.06875
1114.30 0.06875
1114.40 0.06876
1114.50 0.06877
1114.60 0.06877
1114.70 0.06878
1114.80 0.06879
1114.90 0.06879
1115.00 0.0688
1115.10 0.06881
1115.20 0.06881
1115.30 0.06882
1115.40 0.06883
1115.50 0.06883
1115.60 0.06884
1115.70 0.06885
1115.80 0.06885
1115.90 0.06886
1116.00 0.06887
1116.10 0.06887
1116.20 0.06888
1116.30 0.06889
1116.40 0.06889
1116.50 0.0689
1116.60 0.06891
1116.70 0.06891
1116.80 0.06892
1116.90 0.06893
1117.00 0.06893
1117.10 0.06893
1117.20 0.06893
1117.30 0.06893
1117.40 0.06893
1117.50 0.06893
1117.60 0.06893
1117.70 0.06893
1117.80 0.06893
1117.90 0.06893
1118.00 0.06893
1118.10 0.06893
1118.20 0.06893
1118.30 0.06893
1118.40 0.06893
1118.50 0.06893
1118.60 0.06893
1118.70 0.06893
1118.80 0.06893
1118.90 0.06893
1119.00 0.06893
1119.10 0.06893
1119.20 0.06893
1119.30 0.06893
1119.40 0.06893
1119.50 0.06893
1119.60 0.06893
1119.70 0.06893
1119.80 0.06893
1119.90 0.06893
1120.00 0.06892
1120.10 0.06892
1120.20 0.06892
1120.30 0.06892
1120.40 0.06892
1120.50 0.06892
1120.60 0.06892
1120.70 0.06892
1120.80 0.06892
1120.90 0.06892
1121.00 0.06892
1121.10 0.06892
1121.20 0.06892
1121.30 0.06892
1121.40 0.06892
1121.50 0.06892
1121.60 0.06892
1121.70 0.06892
1121.80 0.06892
1121.90 0.06892
1122.00 0.06892
1122.10 0.06891
1122.20 0.0689
1122.30 0.0689
1122.40 0.06889
1122.50 0.06889
1122.60 0.06888
1122.70 0.06887
1122.80 0.06887
1122.90 0.06886
1123.00 0.06885
1123.10 0.06885
1123.20 0.06884
1123.30 0.06884
1123.40 0.06883
1123.50 0.06882
1123.60 0.06882
1123.70 0.06881
1123.80 0.0688
1123.90 0.0688
1124.00 0.06879
1124.10 0.06878
1124.20 0.06878
1124.30 0.06877
1124.40 0.06877
1124.50 0.06876
1124.60 0.06875
1124.70 0.06875
1124.80 0.06874
1124.90 0.06873
1125.00 0.06873
1125.10 0.06872
1125.20 0.06871
1125.30 0.06871
1125.40 0.0687
1125.50 0.0687
1125.60 0.06869
1125.70 0.06868
1125.80 0.06868
1125.90 0.06867
1126.00 0.06866
1126.10 0.06866
1126.20 0.06865
1126.30 0.06865
1126.40 0.06864
1126.50 0.06863
1126.60 0.06863
1126.70 0.06862
1126.80 0.06861
1126.90 0.06861
1127.00 0.0686
1127.10 0.06859
1127.20 0.06858
1127.30 0.06857
1127.40 0.06856
1127.50 0.06855
1127.60 0.06854
1127.70 0.06853
1127.80 0.06852
1127.90 0.06851
1128.00 0.0685
1128.10 0.06848
1128.20 0.06847
1128.30 0.06846
1128.40 0.06845
1128.50 0.06844
1128.60 0.06843
1128.70 0.06842
1128.80 0.06841
1128.90 0.0684
1129.00 0.06839
1129.10 0.06838
1129.20 0.06837
1129.30 0.06836
1129.40 0.06835
1129.50 0.06834
1129.60 0.06833
1129.70 0.06831
1129.80 0.0683
1129.90 0.06829
1130.00 0.06828
1130.10 0.06827
1130.20 0.06826
1130.30 0.06825
1130.40 0.06824
1130.50 0.06823
1130.60 0.06822
1130.70 0.06821
1130.80 0.0682
1130.90 0.06819
1131.00 0.06818
1131.10 0.06817
1131.20 0.06816
1131.30 0.06815
1131.40 0.06814
1131.50 0.06813
1131.60 0.06811
1131.70 0.0681
1131.80 0.06809
1131.90 0.06808
1132.00 0.06807
1132.10 0.06806
1132.20 0.06805
1132.30 0.06803
1132.40 0.06802
1132.50 0.068
1132.60 0.06799
1132.70 0.06798
1132.80 0.06796
1132.90 0.06795
1133.00 0.06794
1133.10 0.06792
1133.20 0.06791
1133.30 0.0679
1133.40 0.06788
1133.50 0.06787
1133.60 0.06786
1133.70 0.06784
1133.80 0.06783
1133.90 0.06782
1134.00 0.0678
1134.10 0.06779
1134.20 0.06777
1134.30 0.06776
1134.40 0.06775
1134.50 0.06773
1134.60 0.06772
1134.70 0.06771
1134.80 0.06769
1134.90 0.06768
1135.00 0.06767
1135.10 0.06765
1135.20 0.06764
1135.30 0.06763
1135.40 0.06761
1135.50 0.0676
1135.60 0.06759
1135.70 0.06757
1135.80 0.06756
1135.90 0.06755
1136.00 0.06753
1136.10 0.06752
1136.20 0.06751
1136.30 0.06749
1136.40 0.06748
1136.50 0.06747
1136.60 0.06745
1136.70 0.06744
1136.80 0.06743
1136.90 0.06741
1137.00 0.0674
1137.10 0.06738
1137.20 0.06737
1137.30 0.06735
1137.40 0.06734
1137.50 0.06732
1137.60 0.06731
1137.70 0.06729
1137.80 0.06727
1137.90 0.06726
1138.00 0.06724
1138.10 0.06723
1138.20 0.06721
1138.30 0.0672
1138.40 0.06718
1138.50 0.06717
1138.60 0.06715
1138.70 0.06714
1138.80 0.06712
1138.90 0.0671
1139.00 0.06709
1139.10 0.06707
1139.20 0.06706
1139.30 0.06704
1139.40 0.06703
1139.50 0.06701
1139.60 0.067
1139.70 0.06698
1139.80 0.06697
1139.90 0.06695
1140.00 0.06693
1140.10 0.06692
1140.20 0.0669
1140.30 0.06689
1140.40 0.06687
1140.50 0.06686
1140.60 0.06684
1140.70 0.06683
1140.80 0.06681
1140.90 0.0668
1141.00 0.06678
1141.10 0.06677
1141.20 0.06675
1141.30 0.06673
1141.40 0.06672
1141.50 0.0667
1141.60 0.06669
1141.70 0.06667
1141.80 0.06666
1141.90 0.06664
1142.00 0.06663
1142.10 0.06661
1142.20 0.06659
1142.30 0.06658
1142.40 0.06656
1142.50 0.06654
1142.60 0.06653
1142.70 0.06651
1142.80 0.06649
1142.90 0.06648
1143.00 0.06646
1143.10 0.06644
1143.20 0.06643
1143.30 0.06641
1143.40 0.06639
1143.50 0.06638
1143.60 0.06636
1143.70 0.06634
1143.80 0.06632
1143.90 0.06631
1144.00 0.06629
1144.10 0.06627
1144.20 0.06626
1144.30 0.06624
1144.40 0.06622
1144.50 0.06621
1144.60 0.06619
1144.70 0.06617
1144.80 0.06616
1144.90 0.06614
1145.00 0.06612
1145.10 0.06611
1145.20 0.06609
1145.30 0.06607
1145.40 0.06606
1145.50 0.06604
1145.60 0.06602
1145.70 0.06601
1145.80 0.06599
1145.90 0.06597
1146.00 0.06596
1146.10 0.06594
1146.20 0.06592
1146.30 0.06591
1146.40 0.06589
1146.50 0.06587
1146.60 0.06586
1146.70 0.06584
1146.80 0.06582
1146.90 0.06581
1147.00 0.06579
1147.10 0.06577
1147.20 0.06576
1147.30 0.06574
1147.40 0.06572
1147.50 0.0657
1147.60 0.06568
1147.70 0.06567
1147.80 0.06565
1147.90 0.06563
1148.00 0.06561
1148.10 0.0656
1148.20 0.06558
1148.30 0.06556
1148.40 0.06554
1148.50 0.06553
1148.60 0.06551
1148.70 0.06549
1148.80 0.06547
1148.90 0.06546
1149.00 0.06544
1149.10 0.06542
1149.20 0.0654
1149.30 0.06538
1149.40 0.06537
1149.50 0.06535
1149.60 0.06533
1149.70 0.06531
1149.80 0.0653
1149.90 0.06528
1150.00 0.06526
1150.10 0.06524
1150.20 0.06523
1150.30 0.06521
1150.40 0.06519
1150.50 0.06517
1150.60 0.06516
1150.70 0.06514
1150.80 0.06512
1150.90 0.0651
1151.00 0.06509
1151.10 0.06507
1151.20 0.06505
1151.30 0.06503
1151.40 0.06502
1151.50 0.065
1151.60 0.06498
1151.70 0.06496
1151.80 0.06495
1151.90 0.06493
1152.00 0.06491
1152.10 0.06489
1152.20 0.06488
1152.30 0.06486
1152.40 0.06484
1152.50 0.06482
1152.60 0.0648
1152.70 0.06478
1152.80 0.06477
1152.90 0.06475
1153.00 0.06473
1153.10 0.06471
1153.20 0.06469
1153.30 0.06467
1153.40 0.06466
1153.50 0.06464
1153.60 0.06462
1153.70 0.0646
1153.80 0.06458
1153.90 0.06457
1154.00 0.06455
1154.10 0.06453
1154.20 0.06451
1154.30 0.06449
1154.40 0.06447
1154.50 0.06446
1154.60 0.06444
1154.70 0.06442
1154.80 0.0644
1154.90 0.06438
1155.00 0.06437
1155.10 0.06435
1155.20 0.06433
1155.30 0.06431
1155.40 0.06429
1155.50 0.06427
1155.60 0.06426
1155.70 0.06424
1155.80 0.06422
1155.90 0.0642
1156.00 0.06418
1156.10 0.06417
1156.20 0.06415
1156.30 0.06413
1156.40 0.06411
1156.50 0.06409
1156.60 0.06408
1156.70 0.06406
1156.80 0.06404
1156.90 0.06402
1157.00 0.064
1157.10 0.06399
1157.20 0.06397
1157.30 0.06395
1157.40 0.06393
1157.50 0.06391
1157.60 0.06389
1157.70 0.06387
1157.80 0.06386
1157.90 0.06384
1158.00 0.06382
1158.10 0.0638
1158.20 0.06378
1158.30 0.06376
1158.40 0.06374
1158.50 0.06373
1158.60 0.06371
1158.70 0.06369
1158.80 0.06367
1158.90 0.06365
1159.00 0.06363
1159.10 0.06362
1159.20 0.0636
1159.30 0.06358
1159.40 0.06356
1159.50 0.06354
1159.60 0.06352
1159.70 0.06351
1159.80 0.06349
1159.90 0.06347
1160.00 0.06345
1160.10 0.06343
1160.20 0.06341
1160.30 0.0634
1160.40 0.06338
1160.50 0.06336
1160.60 0.06334
1160.70 0.06332
1160.80 0.0633
1160.90 0.06329
1161.00 0.06327
1161.10 0.06325
1161.20 0.06323
1161.30 0.06321
1161.40 0.06319
1161.50 0.06318
1161.60 0.06316
1161.70 0.06314
1161.80 0.06312
1161.90 0.0631
1162.00 0.06308
1162.10 0.06307
1162.20 0.06305
1162.30 0.06303
1162.40 0.06301
1162.50 0.06299
1162.60 0.06297
1162.70 0.06295
1162.80 0.06293
1162.90 0.06292
1163.00 0.0629
1163.10 0.06288
1163.20 0.06286
1163.30 0.06284
1163.40 0.06282
1163.50 0.0628
1163.60 0.06279
1163.70 0.06277
1163.80 0.06275
1163.90 0.06273
1164.00 0.06271
1164.10 0.06269
1164.20 0.06267
1164.30 0.06265
1164.40 0.06264
1164.50 0.06262
1164.60 0.0626
1164.70 0.06258
1164.80 0.06256
1164.90 0.06254
1165.00 0.06252
1165.10 0.06251
1165.20 0.06249
1165.30 0.06247
1165.40 0.06245
1165.50 0.06243
1165.60 0.06241
1165.70 0.06239
1165.80 0.06238
1165.90 0.06236
1166.00 0.06234
1166.10 0.06232
1166.20 0.0623
1166.30 0.06228
1166.40 0.06226
1166.50 0.06225
1166.60 0.06223
1166.70 0.06221
1166.80 0.06219
1166.90 0.06217
1167.00 0.06215
1167.10 0.06213
1167.20 0.06212
1167.30 0.0621
1167.40 0.06208
1167.50 0.06206
1167.60 0.06204
1167.70 0.06202
1167.80 0.062
1167.90 0.06198
1168.00 0.06197
1168.10 0.06195
1168.20 0.06193
1168.30 0.06191
1168.40 0.06189
1168.50 0.06187
1168.60 0.06185
1168.70 0.06183
1168.80 0.06182
1168.90 0.0618
1169.00 0.06178
1169.10 0.06176
1169.20 0.06174
1169.30 0.06172
1169.40 0.0617
1169.50 0.06168
1169.60 0.06167
1169.70 0.06165
1169.80 0.06163
1169.90 0.06161
1170.00 0.06159
1170.10 0.06157
1170.20 0.06155
1170.30 0.06154
1170.40 0.06152
1170.50 0.0615
1170.60 0.06148
1170.70 0.06146
1170.80 0.06144
1170.90 0.06142
1171.00 0.06141
1171.10 0.06139
1171.20 0.06137
1171.30 0.06135
1171.40 0.06133
1171.50 0.06131
1171.60 0.06129
1171.70 0.06128
1171.80 0.06126
1171.90 0.06124
1172.00 0.06122
1172.10 0.0612
1172.20 0.06118
1172.30 0.06116
1172.40 0.06114
1172.50 0.06113
1172.60 0.06111
1172.70 0.06109
1172.80 0.06107
1172.90 0.06105
1173.00 0.06103
1173.10 0.06101
1173.20 0.061
1173.30 0.06098
1173.40 0.06096
1173.50 0.06094
1173.60 0.06092
1173.70 0.0609
1173.80 0.06088
1173.90 0.06086
1174.00 0.06085
1174.10 0.06083
1174.20 0.06081
1174.30 0.06079
1174.40 0.06077
1174.50 0.06075
1174.60 0.06073
1174.70 0.06072
1174.80 0.0607
1174.90 0.06068
1175.00 0.06066
1175.10 0.06064
1175.20 0.06062
1175.30 0.0606
1175.40 0.06059
1175.50 0.06057
1175.60 0.06055
1175.70 0.06053
1175.80 0.06051
1175.90 0.06049
1176.00 0.06048
1176.10 0.06046
1176.20 0.06044
1176.30 0.06042
1176.40 0.0604
1176.50 0.06038
1176.60 0.06036
1176.70 0.06035
1176.80 0.06033
1176.90 0.06031
1177.00 0.06029
1177.10 0.06027
1177.20 0.06025
1177.30 0.06023
1177.40 0.06022
1177.50 0.0602
1177.60 0.06018
1177.70 0.06016
1177.80 0.06014
1177.90 0.06012
1178.00 0.0601
1178.10 0.06009
1178.20 0.06007
1178.30 0.06005
1178.40 0.06003
1178.50 0.06001
1178.60 0.05999
1178.70 0.05997
1178.80 0.05995
1178.90 0.05994
1179.00 0.05992
1179.10 0.0599
1179.20 0.05988
1179.30 0.05986
1179.40 0.05984
1179.50 0.05982
1179.60 0.05981
1179.70 0.05979
1179.80 0.05977
1179.90 0.05975
1180.00 0.05973
1180.10 0.05971
1180.20 0.05969
1180.30 0.05968
1180.40 0.05966
1180.50 0.05964
1180.60 0.05962
1180.70 0.0596
1180.80 0.05958
1180.90 0.05957
1181.00 0.05955
1181.10 0.05953
1181.20 0.05951
1181.30 0.05949
1181.40 0.05947
1181.50 0.05945
1181.60 0.05944
1181.70 0.05942
1181.80 0.0594
1181.90 0.05938
1182.00 0.05936
1182.10 0.05934
1182.20 0.05932
1182.30 0.05931
1182.40 0.05929
1182.50 0.05927
1182.60 0.05925
1182.70 0.05923
1182.80 0.05921
1182.90 0.05919
1183.00 0.05918
1183.10 0.05916
1183.20 0.05914
1183.30 0.05912
1183.40 0.0591
1183.50 0.05908
1183.60 0.05906
1183.70 0.05905
1183.80 0.05903
1183.90 0.05901
1184.00 0.05899
1184.10 0.05897
1184.20 0.05895
1184.30 0.05893
1184.40 0.05891
1184.50 0.0589
1184.60 0.05888
1184.70 0.05886
1184.80 0.05884
1184.90 0.05882
1185.00 0.0588
1185.10 0.05879
1185.20 0.05877
1185.30 0.05875
1185.40 0.05873
1185.50 0.05871
1185.60 0.05869
1185.70 0.05867
1185.80 0.05866
1185.90 0.05864
1186.00 0.05862
1186.10 0.0586
1186.20 0.05858
1186.30 0.05856
1186.40 0.05854
1186.50 0.05853
1186.60 0.05851
1186.70 0.05849
1186.80 0.05847
1186.90 0.05845
1187.00 0.05843
1187.10 0.05842
1187.20 0.0584
1187.30 0.05838
1187.40 0.05836
1187.50 0.05834
1187.60 0.05832
1187.70 0.0583
1187.80 0.05829
1187.90 0.05827
1188.00 0.05825
1188.10 0.05823
1188.20 0.05821
1188.30 0.05819
1188.40 0.05818
1188.50 0.05816
1188.60 0.05814
1188.70 0.05812
1188.80 0.0581
1188.90 0.05808
1189.00 0.05807
1189.10 0.05805
1189.20 0.05803
1189.30 0.05801
1189.40 0.05799
1189.50 0.05797
1189.60 0.05796
1189.70 0.05794
1189.80 0.05792
1189.90 0.0579
1190.00 0.05788
1190.10 0.05786
1190.20 0.05785
1190.30 0.05783
1190.40 0.05781
1190.50 0.05779
1190.60 0.05777
1190.70 0.05775
1190.80 0.05774
1190.90 0.05772
1191.00 0.0577
1191.10 0.05768
1191.20 0.05766
1191.30 0.05764
1191.40 0.05763
1191.50 0.05761
1191.60 0.05759
1191.70 0.05757
1191.80 0.05755
1191.90 0.05753
1192.00 0.05752
1192.10 0.0575
1192.20 0.05748
1192.30 0.05746
1192.40 0.05744
1192.50 0.05742
1192.60 0.05741
1192.70 0.05739
1192.80 0.05737
1192.90 0.05735
1193.00 0.05733
1193.10 0.05731
1193.20 0.0573
1193.30 0.05728
1193.40 0.05726
1193.50 0.05724
1193.60 0.05722
1193.70 0.0572
1193.80 0.05719
1193.90 0.05717
1194.00 0.05715
1194.10 0.05713
1194.20 0.05711
1194.30 0.05709
1194.40 0.05708
1194.50 0.05706
1194.60 0.05704
1194.70 0.05702
1194.80 0.057
1194.90 0.05698
1195.00 0.05697
1195.10 0.05695
1195.20 0.05693
1195.30 0.05691
1195.40 0.05689
1195.50 0.05687
1195.60 0.05686
1195.70 0.05684
1195.80 0.05682
1195.90 0.0568
1196.00 0.05678
1196.10 0.05677
1196.20 0.05675
1196.30 0.05673
1196.40 0.05671
1196.50 0.05669
1196.60 0.05667
1196.70 0.05666
1196.80 0.05664
1196.90 0.05662
1197.00 0.0566
1197.10 0.05658
1197.20 0.05656
1197.30 0.05655
1197.40 0.05653
1197.50 0.05651
1197.60 0.05649
1197.70 0.05647
1197.80 0.05645
1197.90 0.05643
1198.00 0.05642
1198.10 0.0564
1198.20 0.05638
1198.30 0.05636
1198.40 0.05634
1198.50 0.05632
1198.60 0.05631
1198.70 0.05629
1198.80 0.05627
1198.90 0.05625
1199.00 0.05623
1199.10 0.05621
1199.20 0.0562
1199.30 0.05618
1199.40 0.05616
1199.50 0.05614
1199.60 0.05612
1199.70 0.0561
1199.80 0.05608
1199.90 0.05607
1200.00 0
