# Version 2.1 - nm, norm@500 to 1, cut digits, bergeron_4250_65.dat_4250
# Wavelength(nm)  Flambda(ergs/cm^s/s/nm)
300.00 0.1849
300.10 0.1853
300.20 0.1856
300.30 0.186
300.40 0.1863
300.50 0.1867
300.60 0.187
300.70 0.1874
300.80 0.1877
300.90 0.1881
301.00 0.1884
301.10 0.1887
301.20 0.1891
301.30 0.1894
301.40 0.1898
301.50 0.1901
301.60 0.1905
301.70 0.1908
301.80 0.1911
301.90 0.1915
302.00 0.1918
302.10 0.1922
302.20 0.1925
302.30 0.1929
302.40 0.1932
302.50 0.1936
302.60 0.1939
302.70 0.1943
302.80 0.1946
302.90 0.195
303.00 0.1953
303.10 0.1957
303.20 0.196
303.30 0.1964
303.40 0.1967
303.50 0.1971
303.60 0.1974
303.70 0.1978
303.80 0.1981
303.90 0.1985
304.00 0.1988
304.10 0.1992
304.20 0.1995
304.30 0.1999
304.40 0.2002
304.50 0.2006
304.60 0.201
304.70 0.2013
304.80 0.2017
304.90 0.202
305.00 0.2024
305.10 0.2027
305.20 0.2031
305.30 0.2034
305.40 0.2038
305.50 0.2041
305.60 0.2045
305.70 0.2048
305.80 0.2052
305.90 0.2056
306.00 0.2059
306.10 0.2063
306.20 0.2066
306.30 0.207
306.40 0.2074
306.50 0.2077
306.60 0.2081
306.70 0.2084
306.80 0.2088
306.90 0.2092
307.00 0.2095
307.10 0.2099
307.20 0.2103
307.30 0.2106
307.40 0.211
307.50 0.2113
307.60 0.2117
307.70 0.212
307.80 0.2124
307.90 0.2128
308.00 0.2131
308.10 0.2135
308.20 0.2139
308.30 0.2142
308.40 0.2146
308.50 0.215
308.60 0.2153
308.70 0.2157
308.80 0.2161
308.90 0.2164
309.00 0.2168
309.10 0.2172
309.20 0.2175
309.30 0.2179
309.40 0.2183
309.50 0.2186
309.60 0.219
309.70 0.2194
309.80 0.2197
309.90 0.2201
310.00 0.2205
310.10 0.2208
310.20 0.2212
310.30 0.2216
310.40 0.2219
310.50 0.2223
310.60 0.2227
310.70 0.2231
310.80 0.2234
310.90 0.2238
311.00 0.2242
311.10 0.2246
311.20 0.2249
311.30 0.2253
311.40 0.2257
311.50 0.226
311.60 0.2264
311.70 0.2268
311.80 0.2271
311.90 0.2275
312.00 0.2279
312.10 0.2283
312.20 0.2286
312.30 0.229
312.40 0.2294
312.50 0.2298
312.60 0.2301
312.70 0.2305
312.80 0.2309
312.90 0.2313
313.00 0.2317
313.10 0.232
313.20 0.2324
313.30 0.2328
313.40 0.2332
313.50 0.2335
313.60 0.2339
313.70 0.2343
313.80 0.2347
313.90 0.235
314.00 0.2354
314.10 0.2358
314.20 0.2362
314.30 0.2366
314.40 0.2369
314.50 0.2373
314.60 0.2377
314.70 0.2381
314.80 0.2385
314.90 0.2389
315.00 0.2392
315.10 0.2396
315.20 0.24
315.30 0.2404
315.40 0.2408
315.50 0.2411
315.60 0.2415
315.70 0.2419
315.80 0.2423
315.90 0.2427
316.00 0.243
316.10 0.2434
316.20 0.2438
316.30 0.2442
316.40 0.2446
316.50 0.245
316.60 0.2454
316.70 0.2458
316.80 0.2462
316.90 0.2465
317.00 0.2469
317.10 0.2473
317.20 0.2477
317.30 0.2481
317.40 0.2485
317.50 0.2489
317.60 0.2492
317.70 0.2496
317.80 0.25
317.90 0.2504
318.00 0.2508
318.10 0.2512
318.20 0.2516
318.30 0.252
318.40 0.2524
318.50 0.2527
318.60 0.2531
318.70 0.2535
318.80 0.2539
318.90 0.2543
319.00 0.2547
319.10 0.2551
319.20 0.2555
319.30 0.2559
319.40 0.2563
319.50 0.2567
319.60 0.257
319.70 0.2574
319.80 0.2578
319.90 0.2582
320.00 0.2586
320.10 0.259
320.20 0.2594
320.30 0.2598
320.40 0.2602
320.50 0.2606
320.60 0.261
320.70 0.2614
320.80 0.2618
320.90 0.2622
321.00 0.2626
321.10 0.263
321.20 0.2634
321.30 0.2638
321.40 0.2642
321.50 0.2646
321.60 0.265
321.70 0.2653
321.80 0.2657
321.90 0.2661
322.00 0.2665
322.10 0.2669
322.20 0.2673
322.30 0.2677
322.40 0.2681
322.50 0.2685
322.60 0.2689
322.70 0.2693
322.80 0.2698
322.90 0.2702
323.00 0.2706
323.10 0.271
323.20 0.2713
323.30 0.2717
323.40 0.2721
323.50 0.2725
323.60 0.2729
323.70 0.2733
323.80 0.2737
323.90 0.2741
324.00 0.2745
324.10 0.2749
324.20 0.2753
324.30 0.2758
324.40 0.2762
324.50 0.2766
324.60 0.277
324.70 0.2774
324.80 0.2778
324.90 0.2782
325.00 0.2786
325.10 0.279
325.20 0.2794
325.30 0.2798
325.40 0.2802
325.50 0.2806
325.60 0.281
325.70 0.2814
325.80 0.2818
325.90 0.2822
326.00 0.2826
326.10 0.283
326.20 0.2834
326.30 0.2838
326.40 0.2843
326.50 0.2847
326.60 0.2851
326.70 0.2855
326.80 0.2859
326.90 0.2863
327.00 0.2867
327.10 0.2871
327.20 0.2875
327.30 0.288
327.40 0.2884
327.50 0.2888
327.60 0.2892
327.70 0.2896
327.80 0.29
327.90 0.2904
328.00 0.2908
328.10 0.2912
328.20 0.2916
328.30 0.292
328.40 0.2925
328.50 0.2929
328.60 0.2933
328.70 0.2937
328.80 0.2941
328.90 0.2945
329.00 0.295
329.10 0.2954
329.20 0.2958
329.30 0.2962
329.40 0.2966
329.50 0.297
329.60 0.2974
329.70 0.2978
329.80 0.2982
329.90 0.2986
330.00 0.2991
330.10 0.2995
330.20 0.2999
330.30 0.3003
330.40 0.3007
330.50 0.3012
330.60 0.3016
330.70 0.302
330.80 0.3024
330.90 0.3028
331.00 0.3032
331.10 0.3037
331.20 0.3041
331.30 0.3045
331.40 0.3049
331.50 0.3053
331.60 0.3057
331.70 0.3062
331.80 0.3066
331.90 0.307
332.00 0.3074
332.10 0.3078
332.20 0.3082
332.30 0.3087
332.40 0.3091
332.50 0.3095
332.60 0.3099
332.70 0.3104
332.80 0.3108
332.90 0.3112
333.00 0.3116
333.10 0.312
333.20 0.3125
333.30 0.3129
333.40 0.3133
333.50 0.3137
333.60 0.3141
333.70 0.3145
333.80 0.315
333.90 0.3154
334.00 0.3158
334.10 0.3162
334.20 0.3166
334.30 0.3171
334.40 0.3175
334.50 0.3179
334.60 0.3184
334.70 0.3188
334.80 0.3192
334.90 0.3196
335.00 0.32
335.10 0.3205
335.20 0.3209
335.30 0.3213
335.40 0.3217
335.50 0.3222
335.60 0.3226
335.70 0.323
335.80 0.3234
335.90 0.3238
336.00 0.3243
336.10 0.3247
336.20 0.3251
336.30 0.3256
336.40 0.326
336.50 0.3264
336.60 0.3268
336.70 0.3273
336.80 0.3277
336.90 0.3281
337.00 0.3286
337.10 0.329
337.20 0.3294
337.30 0.3298
337.40 0.3303
337.50 0.3307
337.60 0.3311
337.70 0.3315
337.80 0.332
337.90 0.3324
338.00 0.3328
338.10 0.3333
338.20 0.3337
338.30 0.3341
338.40 0.3346
338.50 0.335
338.60 0.3354
338.70 0.3359
338.80 0.3363
338.90 0.3367
339.00 0.3371
339.10 0.3376
339.20 0.338
339.30 0.3384
339.40 0.3389
339.50 0.3393
339.60 0.3397
339.70 0.3401
339.80 0.3406
339.90 0.341
340.00 0.3414
340.10 0.3419
340.20 0.3423
340.30 0.3427
340.40 0.3432
340.50 0.3436
340.60 0.344
340.70 0.3445
340.80 0.3449
340.90 0.3453
341.00 0.3458
341.10 0.3462
341.20 0.3466
341.30 0.3471
341.40 0.3475
341.50 0.3479
341.60 0.3484
341.70 0.3488
341.80 0.3492
341.90 0.3497
342.00 0.3501
342.10 0.3505
342.20 0.351
342.30 0.3514
342.40 0.3519
342.50 0.3523
342.60 0.3527
342.70 0.3532
342.80 0.3536
342.90 0.354
343.00 0.3545
343.10 0.3549
343.20 0.3554
343.30 0.3558
343.40 0.3562
343.50 0.3567
343.60 0.3571
343.70 0.3575
343.80 0.358
343.90 0.3584
344.00 0.3588
344.10 0.3593
344.20 0.3597
344.30 0.3602
344.40 0.3606
344.50 0.361
344.60 0.3615
344.70 0.3619
344.80 0.3624
344.90 0.3628
345.00 0.3632
345.10 0.3637
345.20 0.3641
345.30 0.3646
345.40 0.365
345.50 0.3654
345.60 0.3659
345.70 0.3663
345.80 0.3667
345.90 0.3672
346.00 0.3676
346.10 0.3681
346.20 0.3685
346.30 0.3689
346.40 0.3694
346.50 0.3698
346.60 0.3703
346.70 0.3707
346.80 0.3712
346.90 0.3716
347.00 0.372
347.10 0.3725
347.20 0.3729
347.30 0.3734
347.40 0.3738
347.50 0.3742
347.60 0.3747
347.70 0.3751
347.80 0.3756
347.90 0.376
348.00 0.3764
348.10 0.3769
348.20 0.3773
348.30 0.3778
348.40 0.3782
348.50 0.3787
348.60 0.3791
348.70 0.3796
348.80 0.38
348.90 0.3805
349.00 0.3809
349.10 0.3814
349.20 0.3818
349.30 0.3822
349.40 0.3827
349.50 0.3831
349.60 0.3836
349.70 0.384
349.80 0.3844
349.90 0.3849
350.00 0.3853
350.10 0.3858
350.20 0.3862
350.30 0.3867
350.40 0.3871
350.50 0.3876
350.60 0.388
350.70 0.3885
350.80 0.3889
350.90 0.3894
351.00 0.3898
351.10 0.3903
351.20 0.3907
351.30 0.3912
351.40 0.3916
351.50 0.392
351.60 0.3925
351.70 0.3929
351.80 0.3934
351.90 0.3938
352.00 0.3942
352.10 0.3947
352.20 0.3952
352.30 0.3956
352.40 0.3961
352.50 0.3965
352.60 0.397
352.70 0.3974
352.80 0.3979
352.90 0.3983
353.00 0.3988
353.10 0.3992
353.20 0.3997
353.30 0.4001
353.40 0.4006
353.50 0.401
353.60 0.4014
353.70 0.4019
353.80 0.4023
353.90 0.4028
354.00 0.4032
354.10 0.4037
354.20 0.4041
354.30 0.4046
354.40 0.405
354.50 0.4055
354.60 0.406
354.70 0.4064
354.80 0.4069
354.90 0.4073
355.00 0.4078
355.10 0.4082
355.20 0.4087
355.30 0.4091
355.40 0.4096
355.50 0.41
355.60 0.4105
355.70 0.4109
355.80 0.4113
355.90 0.4118
356.00 0.4122
356.10 0.4127
356.20 0.4132
356.30 0.4136
356.40 0.4141
356.50 0.4145
356.60 0.415
356.70 0.4154
356.80 0.4159
356.90 0.4163
357.00 0.4168
357.10 0.4172
357.20 0.4177
357.30 0.4181
357.40 0.4186
357.50 0.419
357.60 0.4195
357.70 0.4199
357.80 0.4204
357.90 0.4208
358.00 0.4213
358.10 0.4217
358.20 0.4222
358.30 0.4226
358.40 0.4231
358.50 0.4236
358.60 0.424
358.70 0.4245
358.80 0.4249
358.90 0.4254
359.00 0.4258
359.10 0.4263
359.20 0.4267
359.30 0.4272
359.40 0.4276
359.50 0.4281
359.60 0.4286
359.70 0.429
359.80 0.4295
359.90 0.4299
360.00 0.4303
360.10 0.4308
360.20 0.4313
360.30 0.4317
360.40 0.4322
360.50 0.4326
360.60 0.4331
360.70 0.4336
360.80 0.434
360.90 0.4345
361.00 0.4349
361.10 0.4354
361.20 0.4358
361.30 0.4363
361.40 0.4367
361.50 0.4372
361.60 0.4377
361.70 0.4381
361.80 0.4386
361.90 0.439
362.00 0.4395
362.10 0.4399
362.20 0.4404
362.30 0.4408
362.40 0.4413
362.50 0.4417
362.60 0.4422
362.70 0.4427
362.80 0.4431
362.90 0.4436
363.00 0.444
363.10 0.4445
363.20 0.4449
363.30 0.4454
363.40 0.4459
363.50 0.4463
363.60 0.4468
363.70 0.4472
363.80 0.4477
363.90 0.4481
364.00 0.4486
364.10 0.4491
364.20 0.4495
364.30 0.45
364.40 0.4504
364.50 0.4509
364.60 0.4513
364.70 0.4518
364.80 0.4523
364.90 0.4527
365.00 0.4532
365.10 0.4536
365.20 0.4541
365.30 0.4546
365.40 0.455
365.50 0.4555
365.60 0.4559
365.70 0.4564
365.80 0.4568
365.90 0.4573
366.00 0.4578
366.10 0.4582
366.20 0.4587
366.30 0.4591
366.40 0.4596
366.50 0.4601
366.60 0.4605
366.70 0.461
366.80 0.4614
366.90 0.4619
367.00 0.4624
367.10 0.4628
367.20 0.4633
367.30 0.4637
367.40 0.4642
367.50 0.4647
367.60 0.4651
367.70 0.4656
367.80 0.466
367.90 0.4665
368.00 0.4669
368.10 0.4674
368.20 0.4679
368.30 0.4683
368.40 0.4688
368.50 0.4692
368.60 0.4697
368.70 0.4702
368.80 0.4706
368.90 0.4711
369.00 0.4715
369.10 0.472
369.20 0.4725
369.30 0.4729
369.40 0.4734
369.50 0.4738
369.60 0.4743
369.70 0.4747
369.80 0.4752
369.90 0.4757
370.00 0.4761
370.10 0.4766
370.20 0.477
370.30 0.4775
370.40 0.478
370.50 0.4784
370.60 0.4789
370.70 0.4794
370.80 0.4798
370.90 0.4803
371.00 0.4807
371.10 0.4812
371.20 0.4817
371.30 0.4821
371.40 0.4826
371.50 0.483
371.60 0.4835
371.70 0.484
371.80 0.4844
371.90 0.4849
372.00 0.4853
372.10 0.4858
372.20 0.4863
372.30 0.4867
372.40 0.4872
372.50 0.4877
372.60 0.4881
372.70 0.4886
372.80 0.489
372.90 0.4895
373.00 0.49
373.10 0.4904
373.20 0.4909
373.30 0.4913
373.40 0.4918
373.50 0.4923
373.60 0.4927
373.70 0.4932
373.80 0.4936
373.90 0.4941
374.00 0.4946
374.10 0.495
374.20 0.4955
374.30 0.496
374.40 0.4964
374.50 0.4969
374.60 0.4973
374.70 0.4978
374.80 0.4983
374.90 0.4987
375.00 0.4992
375.10 0.4997
375.20 0.5001
375.30 0.5006
375.40 0.501
375.50 0.5015
375.60 0.5019
375.70 0.5024
375.80 0.5029
375.90 0.5033
376.00 0.5038
376.10 0.5042
376.20 0.5047
376.30 0.5052
376.40 0.5056
376.50 0.5061
376.60 0.5066
376.70 0.507
376.80 0.5075
376.90 0.5079
377.00 0.5084
377.10 0.5089
377.20 0.5093
377.30 0.5098
377.40 0.5102
377.50 0.5107
377.60 0.5112
377.70 0.5116
377.80 0.5121
377.90 0.5126
378.00 0.513
378.10 0.5135
378.20 0.5139
378.30 0.5144
378.40 0.5149
378.50 0.5153
378.60 0.5158
378.70 0.5162
378.80 0.5167
378.90 0.5172
379.00 0.5176
379.10 0.5181
379.20 0.5186
379.30 0.519
379.40 0.5195
379.50 0.5199
379.60 0.5204
379.70 0.5209
379.80 0.5213
379.90 0.5218
380.00 0.5222
380.10 0.5227
380.20 0.5232
380.30 0.5236
380.40 0.5241
380.50 0.5246
380.60 0.525
380.70 0.5255
380.80 0.5259
380.90 0.5264
381.00 0.5269
381.10 0.5273
381.20 0.5278
381.30 0.5282
381.40 0.5287
381.50 0.5292
381.60 0.5296
381.70 0.5301
381.80 0.5305
381.90 0.531
382.00 0.5315
382.10 0.5319
382.20 0.5324
382.30 0.5329
382.40 0.5333
382.50 0.5338
382.60 0.5343
382.70 0.5347
382.80 0.5352
382.90 0.5356
383.00 0.5361
383.10 0.5366
383.20 0.537
383.30 0.5375
383.40 0.5379
383.50 0.5384
383.60 0.5389
383.70 0.5393
383.80 0.5398
383.90 0.5402
384.00 0.5407
384.10 0.5412
384.20 0.5416
384.30 0.5421
384.40 0.5426
384.50 0.543
384.60 0.5435
384.70 0.5439
384.80 0.5444
384.90 0.5449
385.00 0.5453
385.10 0.5458
385.20 0.5462
385.30 0.5467
385.40 0.5472
385.50 0.5476
385.60 0.5481
385.70 0.5485
385.80 0.549
385.90 0.5495
386.00 0.5499
386.10 0.5504
386.20 0.5509
386.30 0.5513
386.40 0.5518
386.50 0.5522
386.60 0.5527
386.70 0.5532
386.80 0.5536
386.90 0.5541
387.00 0.5545
387.10 0.555
387.20 0.5555
387.30 0.5559
387.40 0.5564
387.50 0.5568
387.60 0.5573
387.70 0.5578
387.80 0.5582
387.90 0.5587
388.00 0.5591
388.10 0.5596
388.20 0.5601
388.30 0.5605
388.40 0.561
388.50 0.5614
388.60 0.5619
388.70 0.5624
388.80 0.5628
388.90 0.5633
389.00 0.5637
389.10 0.5642
389.20 0.5647
389.30 0.5651
389.40 0.5656
389.50 0.5661
389.60 0.5665
389.70 0.567
389.80 0.5674
389.90 0.5679
390.00 0.5683
390.10 0.5688
390.20 0.5693
390.30 0.5697
390.40 0.5702
390.50 0.5706
390.60 0.5711
390.70 0.5716
390.80 0.572
390.90 0.5725
391.00 0.573
391.10 0.5734
391.20 0.5739
391.30 0.5743
391.40 0.5748
391.50 0.5752
391.60 0.5757
391.70 0.5762
391.80 0.5766
391.90 0.5771
392.00 0.5775
392.10 0.578
392.20 0.5785
392.30 0.5789
392.40 0.5794
392.50 0.5798
392.60 0.5803
392.70 0.5808
392.80 0.5812
392.90 0.5817
393.00 0.5821
393.10 0.5826
393.20 0.583
393.30 0.5835
393.40 0.584
393.50 0.5844
393.60 0.5849
393.70 0.5853
393.80 0.5858
393.90 0.5863
394.00 0.5867
394.10 0.5872
394.20 0.5876
394.30 0.5881
394.40 0.5885
394.50 0.589
394.60 0.5895
394.70 0.5899
394.80 0.5904
394.90 0.5908
395.00 0.5913
395.10 0.5918
395.20 0.5922
395.30 0.5927
395.40 0.5931
395.50 0.5936
395.60 0.594
395.70 0.5945
395.80 0.595
395.90 0.5954
396.00 0.5959
396.10 0.5963
396.20 0.5968
396.30 0.5972
396.40 0.5977
396.50 0.5982
396.60 0.5986
396.70 0.5991
396.80 0.5995
396.90 0.6
397.00 0.6004
397.10 0.6009
397.20 0.6014
397.30 0.6018
397.40 0.6023
397.50 0.6027
397.60 0.6032
397.70 0.6036
397.80 0.6041
397.90 0.6046
398.00 0.605
398.10 0.6055
398.20 0.6059
398.30 0.6064
398.40 0.6068
398.50 0.6073
398.60 0.6077
398.70 0.6082
398.80 0.6087
398.90 0.6091
399.00 0.6096
399.10 0.61
399.20 0.6105
399.30 0.6109
399.40 0.6114
399.50 0.6118
399.60 0.6123
399.70 0.6128
399.80 0.6132
399.90 0.6137
400.00 0.6141
400.10 0.6146
400.20 0.615
400.30 0.6155
400.40 0.6159
400.50 0.6164
400.60 0.6168
400.70 0.6173
400.80 0.6178
400.90 0.6182
401.00 0.6187
401.10 0.6191
401.20 0.6196
401.30 0.62
401.40 0.6205
401.50 0.6209
401.60 0.6214
401.70 0.6218
401.80 0.6223
401.90 0.6228
402.00 0.6232
402.10 0.6237
402.20 0.6241
402.30 0.6246
402.40 0.625
402.50 0.6255
402.60 0.6259
402.70 0.6264
402.80 0.6268
402.90 0.6273
403.00 0.6277
403.10 0.6282
403.20 0.6286
403.30 0.6291
403.40 0.6295
403.50 0.63
403.60 0.6305
403.70 0.6309
403.80 0.6314
403.90 0.6318
404.00 0.6323
404.10 0.6327
404.20 0.6332
404.30 0.6336
404.40 0.6341
404.50 0.6345
404.60 0.635
404.70 0.6354
404.80 0.6359
404.90 0.6363
405.00 0.6368
405.10 0.6372
405.20 0.6377
405.30 0.6381
405.40 0.6386
405.50 0.639
405.60 0.6395
405.70 0.6399
405.80 0.6404
405.90 0.6408
406.00 0.6413
406.10 0.6417
406.20 0.6422
406.30 0.6426
406.40 0.6431
406.50 0.6435
406.60 0.644
406.70 0.6444
406.80 0.6449
406.90 0.6453
407.00 0.6458
407.10 0.6462
407.20 0.6467
407.30 0.6471
407.40 0.6476
407.50 0.648
407.60 0.6485
407.70 0.6489
407.80 0.6494
407.90 0.6498
408.00 0.6503
408.10 0.6507
408.20 0.6512
408.30 0.6516
408.40 0.6521
408.50 0.6525
408.60 0.653
408.70 0.6534
408.80 0.6538
408.90 0.6543
409.00 0.6547
409.10 0.6552
409.20 0.6556
409.30 0.6561
409.40 0.6565
409.50 0.657
409.60 0.6574
409.70 0.6578
409.80 0.6583
409.90 0.6587
410.00 0.659
410.10 0.6593
410.20 0.6595
410.30 0.6602
410.40 0.6609
410.50 0.6614
410.60 0.6618
410.70 0.6623
410.80 0.6628
410.90 0.6632
411.00 0.6637
411.10 0.6641
411.20 0.6646
411.30 0.665
411.40 0.6655
411.50 0.6659
411.60 0.6664
411.70 0.6668
411.80 0.6673
411.90 0.6677
412.00 0.6681
412.10 0.6686
412.20 0.669
412.30 0.6695
412.40 0.6699
412.50 0.6704
412.60 0.6708
412.70 0.6713
412.80 0.6717
412.90 0.6721
413.00 0.6726
413.10 0.673
413.20 0.6735
413.30 0.6739
413.40 0.6744
413.50 0.6748
413.60 0.6752
413.70 0.6757
413.80 0.6761
413.90 0.6766
414.00 0.677
414.10 0.6775
414.20 0.6779
414.30 0.6783
414.40 0.6788
414.50 0.6792
414.60 0.6797
414.70 0.6801
414.80 0.6806
414.90 0.681
415.00 0.6814
415.10 0.6819
415.20 0.6823
415.30 0.6828
415.40 0.6832
415.50 0.6836
415.60 0.6841
415.70 0.6845
415.80 0.685
415.90 0.6854
416.00 0.6859
416.10 0.6863
416.20 0.6867
416.30 0.6872
416.40 0.6876
416.50 0.6881
416.60 0.6885
416.70 0.6889
416.80 0.6894
416.90 0.6898
417.00 0.6903
417.10 0.6907
417.20 0.6911
417.30 0.6916
417.40 0.692
417.50 0.6925
417.60 0.6929
417.70 0.6933
417.80 0.6938
417.90 0.6942
418.00 0.6947
418.10 0.6951
418.20 0.6955
418.30 0.696
418.40 0.6964
418.50 0.6968
418.60 0.6973
418.70 0.6977
418.80 0.6981
418.90 0.6986
419.00 0.699
419.10 0.6995
419.20 0.6999
419.30 0.7003
419.40 0.7008
419.50 0.7012
419.60 0.7017
419.70 0.7021
419.80 0.7025
419.90 0.703
420.00 0.7034
420.10 0.7038
420.20 0.7043
420.30 0.7047
420.40 0.7051
420.50 0.7056
420.60 0.706
420.70 0.7065
420.80 0.7069
420.90 0.7073
421.00 0.7077
421.10 0.7082
421.20 0.7086
421.30 0.709
421.40 0.7095
421.50 0.7099
421.60 0.7104
421.70 0.7108
421.80 0.7112
421.90 0.7117
422.00 0.7121
422.10 0.7125
422.20 0.713
422.30 0.7134
422.40 0.7138
422.50 0.7143
422.60 0.7147
422.70 0.7151
422.80 0.7156
422.90 0.716
423.00 0.7164
423.10 0.7169
423.20 0.7173
423.30 0.7177
423.40 0.7181
423.50 0.7186
423.60 0.719
423.70 0.7194
423.80 0.7199
423.90 0.7203
424.00 0.7207
424.10 0.7212
424.20 0.7216
424.30 0.722
424.40 0.7225
424.50 0.7229
424.60 0.7233
424.70 0.7238
424.80 0.7242
424.90 0.7246
425.00 0.7251
425.10 0.7255
425.20 0.7259
425.30 0.7263
425.40 0.7268
425.50 0.7272
425.60 0.7276
425.70 0.7281
425.80 0.7285
425.90 0.7289
426.00 0.7293
426.10 0.7298
426.20 0.7302
426.30 0.7306
426.40 0.7311
426.50 0.7315
426.60 0.7319
426.70 0.7323
426.80 0.7328
426.90 0.7332
427.00 0.7336
427.10 0.734
427.20 0.7345
427.30 0.7349
427.40 0.7353
427.50 0.7358
427.60 0.7362
427.70 0.7366
427.80 0.737
427.90 0.7375
428.00 0.7379
428.10 0.7383
428.20 0.7387
428.30 0.7392
428.40 0.7396
428.50 0.74
428.60 0.7404
428.70 0.7409
428.80 0.7413
428.90 0.7417
429.00 0.7421
429.10 0.7426
429.20 0.743
429.30 0.7434
429.40 0.7438
429.50 0.7443
429.60 0.7447
429.70 0.7451
429.80 0.7455
429.90 0.746
430.00 0.7464
430.10 0.7468
430.20 0.7472
430.30 0.7477
430.40 0.7481
430.50 0.7485
430.60 0.7489
430.70 0.7493
430.80 0.7498
430.90 0.7502
431.00 0.7506
431.10 0.751
431.20 0.7515
431.30 0.7519
431.40 0.7523
431.50 0.7527
431.60 0.7531
431.70 0.7536
431.80 0.754
431.90 0.7544
432.00 0.7548
432.10 0.7552
432.20 0.7557
432.30 0.7561
432.40 0.7565
432.50 0.7569
432.60 0.7573
432.70 0.7577
432.80 0.7582
432.90 0.7586
433.00 0.759
433.10 0.7594
433.20 0.7598
433.30 0.7602
433.40 0.7606
433.50 0.761
433.60 0.7614
433.70 0.7618
433.80 0.762
433.90 0.7621
434.00 0.7616
434.10 0.762
434.20 0.7634
434.30 0.7641
434.40 0.7647
434.50 0.7652
434.60 0.7656
434.70 0.7661
434.80 0.7665
434.90 0.7669
435.00 0.7673
435.10 0.7678
435.20 0.7682
435.30 0.7686
435.40 0.769
435.50 0.7694
435.60 0.7699
435.70 0.7703
435.80 0.7707
435.90 0.7711
436.00 0.7715
436.10 0.7719
436.20 0.7723
436.30 0.7728
436.40 0.7732
436.50 0.7736
436.60 0.774
436.70 0.7744
436.80 0.7748
436.90 0.7752
437.00 0.7757
437.10 0.7761
437.20 0.7765
437.30 0.7769
437.40 0.7773
437.50 0.7777
437.60 0.7781
437.70 0.7785
437.80 0.779
437.90 0.7794
438.00 0.7798
438.10 0.7802
438.20 0.7806
438.30 0.781
438.40 0.7814
438.50 0.7818
438.60 0.7822
438.70 0.7827
438.80 0.7831
438.90 0.7835
439.00 0.7839
439.10 0.7843
439.20 0.7847
439.30 0.7851
439.40 0.7855
439.50 0.7859
439.60 0.7863
439.70 0.7868
439.80 0.7872
439.90 0.7876
440.00 0.788
440.10 0.7884
440.20 0.7888
440.30 0.7892
440.40 0.7896
440.50 0.79
440.60 0.7904
440.70 0.7908
440.80 0.7912
440.90 0.7916
441.00 0.7921
441.10 0.7925
441.20 0.7929
441.30 0.7933
441.40 0.7937
441.50 0.7941
441.60 0.7945
441.70 0.7949
441.80 0.7953
441.90 0.7957
442.00 0.7961
442.10 0.7965
442.20 0.7969
442.30 0.7973
442.40 0.7977
442.50 0.7981
442.60 0.7985
442.70 0.7989
442.80 0.7993
442.90 0.7998
443.00 0.8002
443.10 0.8006
443.20 0.801
443.30 0.8014
443.40 0.8018
443.50 0.8022
443.60 0.8026
443.70 0.803
443.80 0.8034
443.90 0.8038
444.00 0.8042
444.10 0.8046
444.20 0.805
444.30 0.8054
444.40 0.8058
444.50 0.8062
444.60 0.8066
444.70 0.807
444.80 0.8074
444.90 0.8078
445.00 0.8082
445.10 0.8086
445.20 0.809
445.30 0.8094
445.40 0.8098
445.50 0.8102
445.60 0.8106
445.70 0.811
445.80 0.8114
445.90 0.8118
446.00 0.8122
446.10 0.8126
446.20 0.813
446.30 0.8134
446.40 0.8138
446.50 0.8142
446.60 0.8146
446.70 0.815
446.80 0.8154
446.90 0.8158
447.00 0.8162
447.10 0.8166
447.20 0.817
447.30 0.8174
447.40 0.8178
447.50 0.8181
447.60 0.8185
447.70 0.8189
447.80 0.8193
447.90 0.8197
448.00 0.8201
448.10 0.8205
448.20 0.8209
448.30 0.8213
448.40 0.8217
448.50 0.8221
448.60 0.8225
448.70 0.8229
448.80 0.8233
448.90 0.8237
449.00 0.8241
449.10 0.8245
449.20 0.8249
449.30 0.8253
449.40 0.8256
449.50 0.826
449.60 0.8264
449.70 0.8268
449.80 0.8272
449.90 0.8276
450.00 0.828
450.10 0.8284
450.20 0.8288
450.30 0.8292
450.40 0.8296
450.50 0.83
450.60 0.8303
450.70 0.8307
450.80 0.8311
450.90 0.8315
451.00 0.8319
451.10 0.8323
451.20 0.8327
451.30 0.8331
451.40 0.8335
451.50 0.8339
451.60 0.8342
451.70 0.8346
451.80 0.835
451.90 0.8354
452.00 0.8358
452.10 0.8362
452.20 0.8366
452.30 0.837
452.40 0.8374
452.50 0.8377
452.60 0.8381
452.70 0.8385
452.80 0.8389
452.90 0.8393
453.00 0.8397
453.10 0.8401
453.20 0.8404
453.30 0.8408
453.40 0.8412
453.50 0.8416
453.60 0.842
453.70 0.8424
453.80 0.8428
453.90 0.8431
454.00 0.8435
454.10 0.8439
454.20 0.8443
454.30 0.8447
454.40 0.8451
454.50 0.8454
454.60 0.8458
454.70 0.8462
454.80 0.8466
454.90 0.847
455.00 0.8474
455.10 0.8477
455.20 0.8481
455.30 0.8485
455.40 0.8489
455.50 0.8493
455.60 0.8497
455.70 0.85
455.80 0.8504
455.90 0.8508
456.00 0.8512
456.10 0.8516
456.20 0.8519
456.30 0.8523
456.40 0.8527
456.50 0.8531
456.60 0.8535
456.70 0.8538
456.80 0.8542
456.90 0.8546
457.00 0.855
457.10 0.8554
457.20 0.8557
457.30 0.8561
457.40 0.8565
457.50 0.8569
457.60 0.8573
457.70 0.8576
457.80 0.858
457.90 0.8584
458.00 0.8588
458.10 0.8591
458.20 0.8595
458.30 0.8599
458.40 0.8603
458.50 0.8607
458.60 0.861
458.70 0.8614
458.80 0.8618
458.90 0.8622
459.00 0.8625
459.10 0.8629
459.20 0.8633
459.30 0.8637
459.40 0.864
459.50 0.8644
459.60 0.8648
459.70 0.8652
459.80 0.8655
459.90 0.8659
460.00 0.8663
460.10 0.8667
460.20 0.867
460.30 0.8674
460.40 0.8678
460.50 0.8681
460.60 0.8685
460.70 0.8689
460.80 0.8693
460.90 0.8696
461.00 0.87
461.10 0.8704
461.20 0.8708
461.30 0.8711
461.40 0.8715
461.50 0.8719
461.60 0.8722
461.70 0.8726
461.80 0.873
461.90 0.8734
462.00 0.8737
462.10 0.8741
462.20 0.8745
462.30 0.8748
462.40 0.8752
462.50 0.8756
462.60 0.8759
462.70 0.8763
462.80 0.8767
462.90 0.877
463.00 0.8774
463.10 0.8778
463.20 0.8781
463.30 0.8785
463.40 0.8789
463.50 0.8792
463.60 0.8796
463.70 0.88
463.80 0.8804
463.90 0.8807
464.00 0.8811
464.10 0.8814
464.20 0.8818
464.30 0.8822
464.40 0.8825
464.50 0.8829
464.60 0.8833
464.70 0.8836
464.80 0.884
464.90 0.8844
465.00 0.8847
465.10 0.8851
465.20 0.8855
465.30 0.8858
465.40 0.8862
465.50 0.8866
465.60 0.8869
465.70 0.8873
465.80 0.8876
465.90 0.888
466.00 0.8884
466.10 0.8887
466.20 0.8891
466.30 0.8895
466.40 0.8898
466.50 0.8902
466.60 0.8905
466.70 0.8909
466.80 0.8913
466.90 0.8916
467.00 0.892
467.10 0.8923
467.20 0.8927
467.30 0.8931
467.40 0.8934
467.50 0.8938
467.60 0.8941
467.70 0.8945
467.80 0.8949
467.90 0.8952
468.00 0.8956
468.10 0.8959
468.20 0.8963
468.30 0.8967
468.40 0.897
468.50 0.8974
468.60 0.8977
468.70 0.8981
468.80 0.8984
468.90 0.8988
469.00 0.8992
469.10 0.8995
469.20 0.8999
469.30 0.9002
469.40 0.9006
469.50 0.9009
469.60 0.9013
469.70 0.9016
469.80 0.902
469.90 0.9024
470.00 0.9027
470.10 0.9031
470.20 0.9034
470.30 0.9038
470.40 0.9041
470.50 0.9045
470.60 0.9048
470.70 0.9052
470.80 0.9055
470.90 0.9059
471.00 0.9063
471.10 0.9066
471.20 0.907
471.30 0.9073
471.40 0.9077
471.50 0.908
471.60 0.9084
471.70 0.9087
471.80 0.9091
471.90 0.9094
472.00 0.9098
472.10 0.9101
472.20 0.9105
472.30 0.9108
472.40 0.9112
472.50 0.9115
472.60 0.9119
472.70 0.9122
472.80 0.9126
472.90 0.9129
473.00 0.9133
473.10 0.9136
473.20 0.914
473.30 0.9143
473.40 0.9147
473.50 0.915
473.60 0.9154
473.70 0.9157
473.80 0.916
473.90 0.9164
474.00 0.9167
474.10 0.9171
474.20 0.9174
474.30 0.9178
474.40 0.9181
474.50 0.9185
474.60 0.9188
474.70 0.9192
474.80 0.9195
474.90 0.9199
475.00 0.9202
475.10 0.9205
475.20 0.9209
475.30 0.9212
475.40 0.9216
475.50 0.9219
475.60 0.9223
475.70 0.9226
475.80 0.923
475.90 0.9233
476.00 0.9236
476.10 0.924
476.20 0.9243
476.30 0.9247
476.40 0.925
476.50 0.9253
476.60 0.9257
476.70 0.926
476.80 0.9264
476.90 0.9267
477.00 0.9271
477.10 0.9274
477.20 0.9277
477.30 0.9281
477.40 0.9284
477.50 0.9288
477.60 0.9291
477.70 0.9294
477.80 0.9298
477.90 0.9301
478.00 0.9304
478.10 0.9308
478.20 0.9311
478.30 0.9315
478.40 0.9318
478.50 0.9321
478.60 0.9325
478.70 0.9328
478.80 0.9332
478.90 0.9335
479.00 0.9338
479.10 0.9342
479.20 0.9345
479.30 0.9348
479.40 0.9352
479.50 0.9355
479.60 0.9358
479.70 0.9362
479.80 0.9365
479.90 0.9369
480.00 0.9372
480.10 0.9375
480.20 0.9379
480.30 0.9382
480.40 0.9385
480.50 0.9389
480.60 0.9392
480.70 0.9395
480.80 0.9399
480.90 0.9402
481.00 0.9405
481.10 0.9409
481.20 0.9412
481.30 0.9415
481.40 0.9419
481.50 0.9422
481.60 0.9425
481.70 0.9428
481.80 0.9432
481.90 0.9435
482.00 0.9438
482.10 0.9442
482.20 0.9445
482.30 0.9448
482.40 0.9452
482.50 0.9455
482.60 0.9458
482.70 0.9461
482.80 0.9465
482.90 0.9468
483.00 0.9471
483.10 0.9475
483.20 0.9478
483.30 0.9481
483.40 0.9484
483.50 0.9488
483.60 0.9491
483.70 0.9494
483.80 0.9497
483.90 0.9501
484.00 0.9504
484.10 0.9507
484.20 0.951
484.30 0.9514
484.40 0.9517
484.50 0.952
484.60 0.9523
484.70 0.9527
484.80 0.953
484.90 0.9533
485.00 0.9536
485.10 0.9539
485.20 0.9542
485.30 0.9545
485.40 0.9548
485.50 0.9551
485.60 0.9553
485.70 0.9555
485.80 0.9555
485.90 0.9554
486.00 0.9545
486.10 0.9507
486.20 0.9529
486.30 0.9561
486.40 0.9571
486.50 0.9579
486.60 0.9585
486.70 0.9589
486.80 0.9593
486.90 0.9597
487.00 0.96
487.10 0.9603
487.20 0.9607
487.30 0.961
487.40 0.9613
487.50 0.9617
487.60 0.962
487.70 0.9623
487.80 0.9626
487.90 0.963
488.00 0.9633
488.10 0.9636
488.20 0.9639
488.30 0.9642
488.40 0.9646
488.50 0.9649
488.60 0.9652
488.70 0.9655
488.80 0.9658
488.90 0.9662
489.00 0.9665
489.10 0.9668
489.20 0.9671
489.30 0.9674
489.40 0.9677
489.50 0.9681
489.60 0.9684
489.70 0.9687
489.80 0.969
489.90 0.9693
490.00 0.9696
490.10 0.9699
490.20 0.9703
490.30 0.9706
490.40 0.9709
490.50 0.9712
490.60 0.9715
490.70 0.9718
490.80 0.9721
490.90 0.9724
491.00 0.9728
491.10 0.9731
491.20 0.9734
491.30 0.9737
491.40 0.974
491.50 0.9743
491.60 0.9746
491.70 0.9749
491.80 0.9753
491.90 0.9756
492.00 0.9759
492.10 0.9762
492.20 0.9765
492.30 0.9768
492.40 0.9771
492.50 0.9774
492.60 0.9777
492.70 0.978
492.80 0.9783
492.90 0.9787
493.00 0.979
493.10 0.9793
493.20 0.9796
493.30 0.9799
493.40 0.9802
493.50 0.9805
493.60 0.9808
493.70 0.9811
493.80 0.9814
493.90 0.9817
494.00 0.982
494.10 0.9823
494.20 0.9826
494.30 0.9829
494.40 0.9832
494.50 0.9836
494.60 0.9839
494.70 0.9842
494.80 0.9845
494.90 0.9848
495.00 0.9851
495.10 0.9854
495.20 0.9857
495.30 0.986
495.40 0.9863
495.50 0.9866
495.60 0.9869
495.70 0.9872
495.80 0.9875
495.90 0.9878
496.00 0.9881
496.10 0.9884
496.20 0.9887
496.30 0.989
496.40 0.9893
496.50 0.9896
496.60 0.9899
496.70 0.9902
496.80 0.9905
496.90 0.9908
497.00 0.9911
497.10 0.9914
497.20 0.9917
497.30 0.992
497.40 0.9923
497.50 0.9926
497.60 0.9929
497.70 0.9932
497.80 0.9935
497.90 0.9938
498.00 0.9941
498.10 0.9944
498.20 0.9947
498.30 0.995
498.40 0.9953
498.50 0.9956
498.60 0.9959
498.70 0.9962
498.80 0.9965
498.90 0.9968
499.00 0.9971
499.10 0.9973
499.20 0.9976
499.30 0.9979
499.40 0.9982
499.50 0.9985
499.60 0.9988
499.70 0.9991
499.80 0.9994
499.90 0.9997
500.00 1
500.10 1
500.20 1.001
500.30 1.001
500.40 1.001
500.50 1.001
500.60 1.002
500.70 1.002
500.80 1.002
500.90 1.003
501.00 1.003
501.10 1.003
501.20 1.004
501.30 1.004
501.40 1.004
501.50 1.004
501.60 1.005
501.70 1.005
501.80 1.005
501.90 1.006
502.00 1.006
502.10 1.006
502.20 1.006
502.30 1.007
502.40 1.007
502.50 1.007
502.60 1.008
502.70 1.008
502.80 1.008
502.90 1.008
503.00 1.009
503.10 1.009
503.20 1.009
503.30 1.01
503.40 1.01
503.50 1.01
503.60 1.01
503.70 1.011
503.80 1.011
503.90 1.011
504.00 1.012
504.10 1.012
504.20 1.012
504.30 1.012
504.40 1.013
504.50 1.013
504.60 1.013
504.70 1.014
504.80 1.014
504.90 1.014
505.00 1.014
505.10 1.015
505.20 1.015
505.30 1.015
505.40 1.016
505.50 1.016
505.60 1.016
505.70 1.016
505.80 1.017
505.90 1.017
506.00 1.017
506.10 1.017
506.20 1.018
506.30 1.018
506.40 1.018
506.50 1.019
506.60 1.019
506.70 1.019
506.80 1.019
506.90 1.02
507.00 1.02
507.10 1.02
507.20 1.021
507.30 1.021
507.40 1.021
507.50 1.021
507.60 1.022
507.70 1.022
507.80 1.022
507.90 1.022
508.00 1.023
508.10 1.023
508.20 1.023
508.30 1.024
508.40 1.024
508.50 1.024
508.60 1.024
508.70 1.025
508.80 1.025
508.90 1.025
509.00 1.026
509.10 1.026
509.20 1.026
509.30 1.026
509.40 1.027
509.50 1.027
509.60 1.027
509.70 1.027
509.80 1.028
509.90 1.028
510.00 1.028
510.10 1.029
510.20 1.029
510.30 1.029
510.40 1.029
510.50 1.03
510.60 1.03
510.70 1.03
510.80 1.03
510.90 1.031
511.00 1.031
511.10 1.031
511.20 1.032
511.30 1.032
511.40 1.032
511.50 1.032
511.60 1.033
511.70 1.033
511.80 1.033
511.90 1.033
512.00 1.034
512.10 1.034
512.20 1.034
512.30 1.034
512.40 1.035
512.50 1.035
512.60 1.035
512.70 1.035
512.80 1.036
512.90 1.036
513.00 1.036
513.10 1.037
513.20 1.037
513.30 1.037
513.40 1.037
513.50 1.038
513.60 1.038
513.70 1.038
513.80 1.038
513.90 1.039
514.00 1.039
514.10 1.039
514.20 1.039
514.30 1.04
514.40 1.04
514.50 1.04
514.60 1.041
514.70 1.041
514.80 1.041
514.90 1.041
515.00 1.042
515.10 1.042
515.20 1.042
515.30 1.042
515.40 1.043
515.50 1.043
515.60 1.043
515.70 1.043
515.80 1.044
515.90 1.044
516.00 1.044
516.10 1.044
516.20 1.045
516.30 1.045
516.40 1.045
516.50 1.046
516.60 1.046
516.70 1.046
516.80 1.046
516.90 1.047
517.00 1.047
517.10 1.047
517.20 1.047
517.30 1.048
517.40 1.048
517.50 1.048
517.60 1.048
517.70 1.049
517.80 1.049
517.90 1.049
518.00 1.049
518.10 1.05
518.20 1.05
518.30 1.05
518.40 1.05
518.50 1.051
518.60 1.051
518.70 1.051
518.80 1.051
518.90 1.052
519.00 1.052
519.10 1.052
519.20 1.052
519.30 1.053
519.40 1.053
519.50 1.053
519.60 1.053
519.70 1.054
519.80 1.054
519.90 1.054
520.00 1.054
520.10 1.055
520.20 1.055
520.30 1.055
520.40 1.055
520.50 1.056
520.60 1.056
520.70 1.056
520.80 1.056
520.90 1.057
521.00 1.057
521.10 1.057
521.20 1.057
521.30 1.058
521.40 1.058
521.50 1.058
521.60 1.058
521.70 1.059
521.80 1.059
521.90 1.059
522.00 1.059
522.10 1.06
522.20 1.06
522.30 1.06
522.40 1.06
522.50 1.061
522.60 1.061
522.70 1.061
522.80 1.061
522.90 1.062
523.00 1.062
523.10 1.062
523.20 1.062
523.30 1.063
523.40 1.063
523.50 1.063
523.60 1.063
523.70 1.064
523.80 1.064
523.90 1.064
524.00 1.064
524.10 1.065
524.20 1.065
524.30 1.065
524.40 1.065
524.50 1.065
524.60 1.066
524.70 1.066
524.80 1.066
524.90 1.066
525.00 1.067
525.10 1.067
525.20 1.067
525.30 1.067
525.40 1.068
525.50 1.068
525.60 1.068
525.70 1.068
525.80 1.069
525.90 1.069
526.00 1.069
526.10 1.069
526.20 1.07
526.30 1.07
526.40 1.07
526.50 1.07
526.60 1.07
526.70 1.071
526.80 1.071
526.90 1.071
527.00 1.071
527.10 1.072
527.20 1.072
527.30 1.072
527.40 1.072
527.50 1.073
527.60 1.073
527.70 1.073
527.80 1.073
527.90 1.074
528.00 1.074
528.10 1.074
528.20 1.074
528.30 1.074
528.40 1.075
528.50 1.075
528.60 1.075
528.70 1.075
528.80 1.076
528.90 1.076
529.00 1.076
529.10 1.076
529.20 1.077
529.30 1.077
529.40 1.077
529.50 1.077
529.60 1.078
529.70 1.078
529.80 1.078
529.90 1.078
530.00 1.078
530.10 1.079
530.20 1.079
530.30 1.079
530.40 1.079
530.50 1.08
530.60 1.08
530.70 1.08
530.80 1.08
530.90 1.08
531.00 1.081
531.10 1.081
531.20 1.081
531.30 1.081
531.40 1.082
531.50 1.082
531.60 1.082
531.70 1.082
531.80 1.083
531.90 1.083
532.00 1.083
532.10 1.083
532.20 1.083
532.30 1.084
532.40 1.084
532.50 1.084
532.60 1.084
532.70 1.085
532.80 1.085
532.90 1.085
533.00 1.085
533.10 1.085
533.20 1.086
533.30 1.086
533.40 1.086
533.50 1.086
533.60 1.087
533.70 1.087
533.80 1.087
533.90 1.087
534.00 1.087
534.10 1.088
534.20 1.088
534.30 1.088
534.40 1.088
534.50 1.089
534.60 1.089
534.70 1.089
534.80 1.089
534.90 1.089
535.00 1.09
535.10 1.09
535.20 1.09
535.30 1.09
535.40 1.091
535.50 1.091
535.60 1.091
535.70 1.091
535.80 1.091
535.90 1.092
536.00 1.092
536.10 1.092
536.20 1.092
536.30 1.093
536.40 1.093
536.50 1.093
536.60 1.093
536.70 1.093
536.80 1.094
536.90 1.094
537.00 1.094
537.10 1.094
537.20 1.094
537.30 1.095
537.40 1.095
537.50 1.095
537.60 1.095
537.70 1.096
537.80 1.096
537.90 1.096
538.00 1.096
538.10 1.096
538.20 1.097
538.30 1.097
538.40 1.097
538.50 1.097
538.60 1.097
538.70 1.098
538.80 1.098
538.90 1.098
539.00 1.098
539.10 1.098
539.20 1.099
539.30 1.099
539.40 1.099
539.50 1.099
539.60 1.1
539.70 1.1
539.80 1.1
539.90 1.1
540.00 1.1
540.10 1.101
540.20 1.101
540.30 1.101
540.40 1.101
540.50 1.101
540.60 1.102
540.70 1.102
540.80 1.102
540.90 1.102
541.00 1.102
541.10 1.103
541.20 1.103
541.30 1.103
541.40 1.103
541.50 1.103
541.60 1.104
541.70 1.104
541.80 1.104
541.90 1.104
542.00 1.104
542.10 1.105
542.20 1.105
542.30 1.105
542.40 1.105
542.50 1.105
542.60 1.106
542.70 1.106
542.80 1.106
542.90 1.106
543.00 1.106
543.10 1.107
543.20 1.107
543.30 1.107
543.40 1.107
543.50 1.108
543.60 1.108
543.70 1.108
543.80 1.108
543.90 1.108
544.00 1.109
544.10 1.109
544.20 1.109
544.30 1.109
544.40 1.109
544.50 1.11
544.60 1.11
544.70 1.11
544.80 1.11
544.90 1.11
545.00 1.111
545.10 1.111
545.20 1.111
545.30 1.111
545.40 1.111
545.50 1.112
545.60 1.112
545.70 1.112
545.80 1.112
545.90 1.112
546.00 1.113
546.10 1.113
546.20 1.113
546.30 1.113
546.40 1.113
546.50 1.113
546.60 1.114
546.70 1.114
546.80 1.114
546.90 1.114
547.00 1.114
547.10 1.115
547.20 1.115
547.30 1.115
547.40 1.115
547.50 1.115
547.60 1.116
547.70 1.116
547.80 1.116
547.90 1.116
548.00 1.116
548.10 1.117
548.20 1.117
548.30 1.117
548.40 1.117
548.50 1.117
548.60 1.118
548.70 1.118
548.80 1.118
548.90 1.118
549.00 1.118
549.10 1.119
549.20 1.119
549.30 1.119
549.40 1.119
549.50 1.119
549.60 1.119
549.70 1.12
549.80 1.12
549.90 1.12
550.00 1.12
550.10 1.12
550.20 1.121
550.30 1.121
550.40 1.121
550.50 1.121
550.60 1.121
550.70 1.122
550.80 1.122
550.90 1.122
551.00 1.122
551.10 1.122
551.20 1.123
551.30 1.123
551.40 1.123
551.50 1.123
551.60 1.123
551.70 1.123
551.80 1.124
551.90 1.124
552.00 1.124
552.10 1.124
552.20 1.124
552.30 1.125
552.40 1.125
552.50 1.125
552.60 1.125
552.70 1.125
552.80 1.125
552.90 1.126
553.00 1.126
553.10 1.126
553.20 1.126
553.30 1.126
553.40 1.126
553.50 1.127
553.60 1.127
553.70 1.127
553.80 1.127
553.90 1.127
554.00 1.128
554.10 1.128
554.20 1.128
554.30 1.128
554.40 1.128
554.50 1.128
554.60 1.129
554.70 1.129
554.80 1.129
554.90 1.129
555.00 1.129
555.10 1.13
555.20 1.13
555.30 1.13
555.40 1.13
555.50 1.13
555.60 1.13
555.70 1.131
555.80 1.131
555.90 1.131
556.00 1.131
556.10 1.131
556.20 1.132
556.30 1.132
556.40 1.132
556.50 1.132
556.60 1.132
556.70 1.132
556.80 1.133
556.90 1.133
557.00 1.133
557.10 1.133
557.20 1.133
557.30 1.133
557.40 1.134
557.50 1.134
557.60 1.134
557.70 1.134
557.80 1.134
557.90 1.134
558.00 1.135
558.10 1.135
558.20 1.135
558.30 1.135
558.40 1.135
558.50 1.136
558.60 1.136
558.70 1.136
558.80 1.136
558.90 1.136
559.00 1.136
559.10 1.137
559.20 1.137
559.30 1.137
559.40 1.137
559.50 1.137
559.60 1.137
559.70 1.138
559.80 1.138
559.90 1.138
560.00 1.138
560.10 1.138
560.20 1.138
560.30 1.139
560.40 1.139
560.50 1.139
560.60 1.139
560.70 1.139
560.80 1.139
560.90 1.14
561.00 1.14
561.10 1.14
561.20 1.14
561.30 1.14
561.40 1.14
561.50 1.141
561.60 1.141
561.70 1.141
561.80 1.141
561.90 1.141
562.00 1.141
562.10 1.142
562.20 1.142
562.30 1.142
562.40 1.142
562.50 1.142
562.60 1.142
562.70 1.143
562.80 1.143
562.90 1.143
563.00 1.143
563.10 1.143
563.20 1.143
563.30 1.143
563.40 1.144
563.50 1.144
563.60 1.144
563.70 1.144
563.80 1.144
563.90 1.144
564.00 1.145
564.10 1.145
564.20 1.145
564.30 1.145
564.40 1.145
564.50 1.145
564.60 1.146
564.70 1.146
564.80 1.146
564.90 1.146
565.00 1.146
565.10 1.146
565.20 1.147
565.30 1.147
565.40 1.147
565.50 1.147
565.60 1.147
565.70 1.147
565.80 1.147
565.90 1.148
566.00 1.148
566.10 1.148
566.20 1.148
566.30 1.148
566.40 1.148
566.50 1.149
566.60 1.149
566.70 1.149
566.80 1.149
566.90 1.149
567.00 1.149
567.10 1.149
567.20 1.15
567.30 1.15
567.40 1.15
567.50 1.15
567.60 1.15
567.70 1.15
567.80 1.151
567.90 1.151
568.00 1.151
568.10 1.151
568.20 1.151
568.30 1.151
568.40 1.152
568.50 1.152
568.60 1.152
568.70 1.152
568.80 1.152
568.90 1.152
569.00 1.152
569.10 1.153
569.20 1.153
569.30 1.153
569.40 1.153
569.50 1.153
569.60 1.153
569.70 1.153
569.80 1.154
569.90 1.154
570.00 1.154
570.10 1.154
570.20 1.154
570.30 1.154
570.40 1.155
570.50 1.155
570.60 1.155
570.70 1.155
570.80 1.155
570.90 1.155
571.00 1.155
571.10 1.156
571.20 1.156
571.30 1.156
571.40 1.156
571.50 1.156
571.60 1.156
571.70 1.156
571.80 1.157
571.90 1.157
572.00 1.157
572.10 1.157
572.20 1.157
572.30 1.157
572.40 1.157
572.50 1.158
572.60 1.158
572.70 1.158
572.80 1.158
572.90 1.158
573.00 1.158
573.10 1.158
573.20 1.159
573.30 1.159
573.40 1.159
573.50 1.159
573.60 1.159
573.70 1.159
573.80 1.159
573.90 1.16
574.00 1.16
574.10 1.16
574.20 1.16
574.30 1.16
574.40 1.16
574.50 1.16
574.60 1.161
574.70 1.161
574.80 1.161
574.90 1.161
575.00 1.161
575.10 1.161
575.20 1.161
575.30 1.162
575.40 1.162
575.50 1.162
575.60 1.162
575.70 1.162
575.80 1.162
575.90 1.162
576.00 1.163
576.10 1.163
576.20 1.163
576.30 1.163
576.40 1.163
576.50 1.163
576.60 1.163
576.70 1.163
576.80 1.164
576.90 1.164
577.00 1.164
577.10 1.164
577.20 1.164
577.30 1.164
577.40 1.164
577.50 1.165
577.60 1.165
577.70 1.165
577.80 1.165
577.90 1.165
578.00 1.165
578.10 1.165
578.20 1.166
578.30 1.166
578.40 1.166
578.50 1.166
578.60 1.166
578.70 1.166
578.80 1.166
578.90 1.166
579.00 1.167
579.10 1.167
579.20 1.167
579.30 1.167
579.40 1.167
579.50 1.167
579.60 1.167
579.70 1.167
579.80 1.168
579.90 1.168
580.00 1.168
580.10 1.168
580.20 1.168
580.30 1.168
580.40 1.168
580.50 1.169
580.60 1.169
580.70 1.169
580.80 1.169
580.90 1.169
581.00 1.169
581.10 1.169
581.20 1.169
581.30 1.17
581.40 1.17
581.50 1.17
581.60 1.17
581.70 1.17
581.80 1.17
581.90 1.17
582.00 1.17
582.10 1.171
582.20 1.171
582.30 1.171
582.40 1.171
582.50 1.171
582.60 1.171
582.70 1.171
582.80 1.171
582.90 1.172
583.00 1.172
583.10 1.172
583.20 1.172
583.30 1.172
583.40 1.172
583.50 1.172
583.60 1.172
583.70 1.173
583.80 1.173
583.90 1.173
584.00 1.173
584.10 1.173
584.20 1.173
584.30 1.173
584.40 1.173
584.50 1.174
584.60 1.174
584.70 1.174
584.80 1.174
584.90 1.174
585.00 1.174
585.10 1.174
585.20 1.174
585.30 1.175
585.40 1.175
585.50 1.175
585.60 1.175
585.70 1.175
585.80 1.175
585.90 1.175
586.00 1.175
586.10 1.175
586.20 1.176
586.30 1.176
586.40 1.176
586.50 1.176
586.60 1.176
586.70 1.176
586.80 1.176
586.90 1.176
587.00 1.177
587.10 1.177
587.20 1.177
587.30 1.177
587.40 1.177
587.50 1.177
587.60 1.177
587.70 1.177
587.80 1.177
587.90 1.178
588.00 1.178
588.10 1.178
588.20 1.178
588.30 1.178
588.40 1.178
588.50 1.178
588.60 1.178
588.70 1.179
588.80 1.179
588.90 1.179
589.00 1.179
589.10 1.179
589.20 1.179
589.30 1.179
589.40 1.179
589.50 1.179
589.60 1.18
589.70 1.18
589.80 1.18
589.90 1.18
590.00 1.18
590.10 1.18
590.20 1.18
590.30 1.18
590.40 1.18
590.50 1.181
590.60 1.181
590.70 1.181
590.80 1.181
590.90 1.181
591.00 1.181
591.10 1.181
591.20 1.181
591.30 1.181
591.40 1.182
591.50 1.182
591.60 1.182
591.70 1.182
591.80 1.182
591.90 1.182
592.00 1.182
592.10 1.182
592.20 1.182
592.30 1.183
592.40 1.183
592.50 1.183
592.60 1.183
592.70 1.183
592.80 1.183
592.90 1.183
593.00 1.183
593.10 1.183
593.20 1.183
593.30 1.184
593.40 1.184
593.50 1.184
593.60 1.184
593.70 1.184
593.80 1.184
593.90 1.184
594.00 1.184
594.10 1.184
594.20 1.185
594.30 1.185
594.40 1.185
594.50 1.185
594.60 1.185
594.70 1.185
594.80 1.185
594.90 1.185
595.00 1.185
595.10 1.185
595.20 1.186
595.30 1.186
595.40 1.186
595.50 1.186
595.60 1.186
595.70 1.186
595.80 1.186
595.90 1.186
596.00 1.186
596.10 1.186
596.20 1.187
596.30 1.187
596.40 1.187
596.50 1.187
596.60 1.187
596.70 1.187
596.80 1.187
596.90 1.187
597.00 1.187
597.10 1.187
597.20 1.188
597.30 1.188
597.40 1.188
597.50 1.188
597.60 1.188
597.70 1.188
597.80 1.188
597.90 1.188
598.00 1.188
598.10 1.188
598.20 1.189
598.30 1.189
598.40 1.189
598.50 1.189
598.60 1.189
598.70 1.189
598.80 1.189
598.90 1.189
599.00 1.189
599.10 1.189
599.20 1.19
599.30 1.19
599.40 1.19
599.50 1.19
599.60 1.19
599.70 1.19
599.80 1.19
599.90 1.19
600.00 1.19
600.10 1.19
600.20 1.191
600.30 1.191
600.40 1.191
600.50 1.191
600.60 1.191
600.70 1.191
600.80 1.191
600.90 1.191
601.00 1.191
601.10 1.191
601.20 1.191
601.30 1.192
601.40 1.192
601.50 1.192
601.60 1.192
601.70 1.192
601.80 1.192
601.90 1.192
602.00 1.192
602.10 1.192
602.20 1.192
602.30 1.192
602.40 1.192
602.50 1.193
602.60 1.193
602.70 1.193
602.80 1.193
602.90 1.193
603.00 1.193
603.10 1.193
603.20 1.193
603.30 1.193
603.40 1.193
603.50 1.193
603.60 1.194
603.70 1.194
603.80 1.194
603.90 1.194
604.00 1.194
604.10 1.194
604.20 1.194
604.30 1.194
604.40 1.194
604.50 1.194
604.60 1.194
604.70 1.195
604.80 1.195
604.90 1.195
605.00 1.195
605.10 1.195
605.20 1.195
605.30 1.195
605.40 1.195
605.50 1.195
605.60 1.195
605.70 1.195
605.80 1.195
605.90 1.196
606.00 1.196
606.10 1.196
606.20 1.196
606.30 1.196
606.40 1.196
606.50 1.196
606.60 1.196
606.70 1.196
606.80 1.196
606.90 1.196
607.00 1.196
607.10 1.197
607.20 1.197
607.30 1.197
607.40 1.197
607.50 1.197
607.60 1.197
607.70 1.197
607.80 1.197
607.90 1.197
608.00 1.197
608.10 1.197
608.20 1.197
608.30 1.198
608.40 1.198
608.50 1.198
608.60 1.198
608.70 1.198
608.80 1.198
608.90 1.198
609.00 1.198
609.10 1.198
609.20 1.198
609.30 1.198
609.40 1.198
609.50 1.199
609.60 1.199
609.70 1.199
609.80 1.199
609.90 1.199
610.00 1.199
610.10 1.199
610.20 1.199
610.30 1.199
610.40 1.199
610.50 1.199
610.60 1.199
610.70 1.199
610.80 1.199
610.90 1.2
611.00 1.2
611.10 1.2
611.20 1.2
611.30 1.2
611.40 1.2
611.50 1.2
611.60 1.2
611.70 1.2
611.80 1.2
611.90 1.2
612.00 1.2
612.10 1.201
612.20 1.201
612.30 1.201
612.40 1.201
612.50 1.201
612.60 1.201
612.70 1.201
612.80 1.201
612.90 1.201
613.00 1.201
613.10 1.201
613.20 1.201
613.30 1.201
613.40 1.201
613.50 1.202
613.60 1.202
613.70 1.202
613.80 1.202
613.90 1.202
614.00 1.202
614.10 1.202
614.20 1.202
614.30 1.202
614.40 1.202
614.50 1.202
614.60 1.202
614.70 1.202
614.80 1.202
614.90 1.203
615.00 1.203
615.10 1.203
615.20 1.203
615.30 1.203
615.40 1.203
615.50 1.203
615.60 1.203
615.70 1.203
615.80 1.203
615.90 1.203
616.00 1.203
616.10 1.203
616.20 1.203
616.30 1.203
616.40 1.204
616.50 1.204
616.60 1.204
616.70 1.204
616.80 1.204
616.90 1.204
617.00 1.204
617.10 1.204
617.20 1.204
617.30 1.204
617.40 1.204
617.50 1.204
617.60 1.204
617.70 1.204
617.80 1.204
617.90 1.205
618.00 1.205
618.10 1.205
618.20 1.205
618.30 1.205
618.40 1.205
618.50 1.205
618.60 1.205
618.70 1.205
618.80 1.205
618.90 1.205
619.00 1.205
619.10 1.205
619.20 1.205
619.30 1.205
619.40 1.205
619.50 1.206
619.60 1.206
619.70 1.206
619.80 1.206
619.90 1.206
620.00 1.206
620.10 1.206
620.20 1.206
620.30 1.206
620.40 1.206
620.50 1.206
620.60 1.206
620.70 1.206
620.80 1.206
620.90 1.206
621.00 1.206
621.10 1.207
621.20 1.207
621.30 1.207
621.40 1.207
621.50 1.207
621.60 1.207
621.70 1.207
621.80 1.207
621.90 1.207
622.00 1.207
622.10 1.207
622.20 1.207
622.30 1.207
622.40 1.207
622.50 1.207
622.60 1.207
622.70 1.207
622.80 1.208
622.90 1.208
623.00 1.208
623.10 1.208
623.20 1.208
623.30 1.208
623.40 1.208
623.50 1.208
623.60 1.208
623.70 1.208
623.80 1.208
623.90 1.208
624.00 1.208
624.10 1.208
624.20 1.208
624.30 1.208
624.40 1.208
624.50 1.208
624.60 1.209
624.70 1.209
624.80 1.209
624.90 1.209
625.00 1.209
625.10 1.209
625.20 1.209
625.30 1.209
625.40 1.209
625.50 1.209
625.60 1.209
625.70 1.209
625.80 1.209
625.90 1.209
626.00 1.209
626.10 1.209
626.20 1.209
626.30 1.209
626.40 1.21
626.50 1.21
626.60 1.21
626.70 1.21
626.80 1.21
626.90 1.21
627.00 1.21
627.10 1.21
627.20 1.21
627.30 1.21
627.40 1.21
627.50 1.21
627.60 1.21
627.70 1.21
627.80 1.21
627.90 1.21
628.00 1.21
628.10 1.21
628.20 1.21
628.30 1.21
628.40 1.211
628.50 1.211
628.60 1.211
628.70 1.211
628.80 1.211
628.90 1.211
629.00 1.211
629.10 1.211
629.20 1.211
629.30 1.211
629.40 1.211
629.50 1.211
629.60 1.211
629.70 1.211
629.80 1.211
629.90 1.211
630.00 1.211
630.10 1.211
630.20 1.211
630.30 1.211
630.40 1.211
630.50 1.211
630.60 1.212
630.70 1.212
630.80 1.212
630.90 1.212
631.00 1.212
631.10 1.212
631.20 1.212
631.30 1.212
631.40 1.212
631.50 1.212
631.60 1.212
631.70 1.212
631.80 1.212
631.90 1.212
632.00 1.212
632.10 1.212
632.20 1.212
632.30 1.212
632.40 1.212
632.50 1.212
632.60 1.212
632.70 1.212
632.80 1.213
632.90 1.213
633.00 1.213
633.10 1.213
633.20 1.213
633.30 1.213
633.40 1.213
633.50 1.213
633.60 1.213
633.70 1.213
633.80 1.213
633.90 1.213
634.00 1.213
634.10 1.213
634.20 1.213
634.30 1.213
634.40 1.213
634.50 1.213
634.60 1.213
634.70 1.213
634.80 1.213
634.90 1.213
635.00 1.213
635.10 1.213
635.20 1.214
635.30 1.214
635.40 1.214
635.50 1.214
635.60 1.214
635.70 1.214
635.80 1.214
635.90 1.214
636.00 1.214
636.10 1.214
636.20 1.214
636.30 1.214
636.40 1.214
636.50 1.214
636.60 1.214
636.70 1.214
636.80 1.214
636.90 1.214
637.00 1.214
637.10 1.214
637.20 1.214
637.30 1.214
637.40 1.214
637.50 1.214
637.60 1.214
637.70 1.214
637.80 1.214
637.90 1.214
638.00 1.215
638.10 1.215
638.20 1.215
638.30 1.215
638.40 1.215
638.50 1.215
638.60 1.215
638.70 1.215
638.80 1.215
638.90 1.215
639.00 1.215
639.10 1.215
639.20 1.215
639.30 1.215
639.40 1.215
639.50 1.215
639.60 1.215
639.70 1.215
639.80 1.215
639.90 1.215
640.00 1.215
640.10 1.215
640.20 1.215
640.30 1.215
640.40 1.215
640.50 1.215
640.60 1.215
640.70 1.215
640.80 1.215
640.90 1.215
641.00 1.216
641.10 1.216
641.20 1.216
641.30 1.216
641.40 1.216
641.50 1.216
641.60 1.216
641.70 1.216
641.80 1.216
641.90 1.216
642.00 1.216
642.10 1.216
642.20 1.216
642.30 1.216
642.40 1.216
642.50 1.216
642.60 1.216
642.70 1.216
642.80 1.216
642.90 1.216
643.00 1.216
643.10 1.216
643.20 1.216
643.30 1.216
643.40 1.216
643.50 1.216
643.60 1.216
643.70 1.216
643.80 1.216
643.90 1.216
644.00 1.216
644.10 1.216
644.20 1.216
644.30 1.216
644.40 1.216
644.50 1.216
644.60 1.217
644.70 1.217
644.80 1.217
644.90 1.217
645.00 1.217
645.10 1.217
645.20 1.217
645.30 1.217
645.40 1.217
645.50 1.217
645.60 1.217
645.70 1.217
645.80 1.217
645.90 1.217
646.00 1.217
646.10 1.217
646.20 1.217
646.30 1.217
646.40 1.217
646.50 1.217
646.60 1.217
646.70 1.217
646.80 1.217
646.90 1.217
647.00 1.217
647.10 1.217
647.20 1.217
647.30 1.217
647.40 1.217
647.50 1.217
647.60 1.217
647.70 1.217
647.80 1.217
647.90 1.217
648.00 1.217
648.10 1.217
648.20 1.217
648.30 1.217
648.40 1.217
648.50 1.217
648.60 1.217
648.70 1.217
648.80 1.217
648.90 1.217
649.00 1.217
649.10 1.218
649.20 1.218
649.30 1.218
649.40 1.218
649.50 1.218
649.60 1.218
649.70 1.218
649.80 1.218
649.90 1.218
650.00 1.218
650.10 1.218
650.20 1.218
650.30 1.218
650.40 1.218
650.50 1.218
650.60 1.218
650.70 1.218
650.80 1.218
650.90 1.218
651.00 1.218
651.10 1.218
651.20 1.218
651.30 1.218
651.40 1.218
651.50 1.218
651.60 1.218
651.70 1.218
651.80 1.218
651.90 1.218
652.00 1.218
652.10 1.218
652.20 1.218
652.30 1.218
652.40 1.218
652.50 1.218
652.60 1.218
652.70 1.218
652.80 1.218
652.90 1.218
653.00 1.218
653.10 1.218
653.20 1.218
653.30 1.218
653.40 1.218
653.50 1.218
653.60 1.218
653.70 1.218
653.80 1.218
653.90 1.218
654.00 1.218
654.10 1.218
654.20 1.218
654.30 1.218
654.40 1.218
654.50 1.218
654.60 1.218
654.70 1.218
654.80 1.218
654.90 1.218
655.00 1.218
655.10 1.218
655.20 1.218
655.30 1.218
655.40 1.218
655.50 1.217
655.60 1.217
655.70 1.217
655.80 1.216
655.90 1.215
656.00 1.211
656.10 1.208
656.20 1.196
656.30 1.186
656.40 1.202
656.50 1.21
656.60 1.213
656.70 1.215
656.80 1.216
656.90 1.217
657.00 1.217
657.10 1.218
657.20 1.218
657.30 1.218
657.40 1.218
657.50 1.218
657.60 1.218
657.70 1.218
657.80 1.218
657.90 1.218
658.00 1.219
658.10 1.219
658.20 1.219
658.30 1.219
658.40 1.219
658.50 1.219
658.60 1.219
658.70 1.219
658.80 1.219
658.90 1.219
659.00 1.219
659.10 1.219
659.20 1.219
659.30 1.219
659.40 1.219
659.50 1.219
659.60 1.219
659.70 1.219
659.80 1.219
659.90 1.219
660.00 1.219
660.10 1.219
660.20 1.219
660.30 1.219
660.40 1.219
660.50 1.219
660.60 1.219
660.70 1.219
660.80 1.219
660.90 1.219
661.00 1.219
661.10 1.219
661.20 1.219
661.30 1.219
661.40 1.219
661.50 1.219
661.60 1.219
661.70 1.219
661.80 1.219
661.90 1.219
662.00 1.219
662.10 1.219
662.20 1.219
662.30 1.219
662.40 1.219
662.50 1.219
662.60 1.219
662.70 1.219
662.80 1.219
662.90 1.219
663.00 1.219
663.10 1.219
663.20 1.219
663.30 1.219
663.40 1.219
663.50 1.219
663.60 1.219
663.70 1.219
663.80 1.219
663.90 1.219
664.00 1.219
664.10 1.219
664.20 1.219
664.30 1.219
664.40 1.219
664.50 1.219
664.60 1.219
664.70 1.219
664.80 1.219
664.90 1.219
665.00 1.219
665.10 1.219
665.20 1.219
665.30 1.219
665.40 1.219
665.50 1.219
665.60 1.219
665.70 1.219
665.80 1.219
665.90 1.219
666.00 1.219
666.10 1.219
666.20 1.219
666.30 1.219
666.40 1.219
666.50 1.219
666.60 1.219
666.70 1.219
666.80 1.219
666.90 1.219
667.00 1.219
667.10 1.219
667.20 1.219
667.30 1.219
667.40 1.219
667.50 1.219
667.60 1.219
667.70 1.219
667.80 1.219
667.90 1.219
668.00 1.219
668.10 1.219
668.20 1.219
668.30 1.219
668.40 1.219
668.50 1.219
668.60 1.219
668.70 1.219
668.80 1.219
668.90 1.219
669.00 1.219
669.10 1.219
669.20 1.219
669.30 1.219
669.40 1.219
669.50 1.219
669.60 1.219
669.70 1.219
669.80 1.219
669.90 1.219
670.00 1.219
670.10 1.219
670.20 1.219
670.30 1.219
670.40 1.219
670.50 1.219
670.60 1.219
670.70 1.219
670.80 1.219
670.90 1.219
671.00 1.219
671.10 1.219
671.20 1.219
671.30 1.219
671.40 1.219
671.50 1.219
671.60 1.219
671.70 1.219
671.80 1.219
671.90 1.219
672.00 1.219
672.10 1.219
672.20 1.219
672.30 1.219
672.40 1.219
672.50 1.219
672.60 1.219
672.70 1.219
672.80 1.219
672.90 1.219
673.00 1.219
673.10 1.219
673.20 1.219
673.30 1.219
673.40 1.219
673.50 1.219
673.60 1.219
673.70 1.218
673.80 1.218
673.90 1.218
674.00 1.218
674.10 1.218
674.20 1.218
674.30 1.218
674.40 1.218
674.50 1.218
674.60 1.218
674.70 1.218
674.80 1.218
674.90 1.218
675.00 1.218
675.10 1.218
675.20 1.218
675.30 1.218
675.40 1.218
675.50 1.218
675.60 1.218
675.70 1.218
675.80 1.218
675.90 1.218
676.00 1.218
676.10 1.218
676.20 1.218
676.30 1.218
676.40 1.218
676.50 1.218
676.60 1.218
676.70 1.218
676.80 1.218
676.90 1.218
677.00 1.218
677.10 1.218
677.20 1.218
677.30 1.218
677.40 1.218
677.50 1.218
677.60 1.218
677.70 1.218
677.80 1.218
677.90 1.218
678.00 1.218
678.10 1.218
678.20 1.218
678.30 1.218
678.40 1.218
678.50 1.218
678.60 1.218
678.70 1.218
678.80 1.218
678.90 1.218
679.00 1.218
679.10 1.218
679.20 1.218
679.30 1.218
679.40 1.218
679.50 1.218
679.60 1.218
679.70 1.218
679.80 1.218
679.90 1.218
680.00 1.218
680.10 1.218
680.20 1.218
680.30 1.218
680.40 1.218
680.50 1.217
680.60 1.217
680.70 1.217
680.80 1.217
680.90 1.217
681.00 1.217
681.10 1.217
681.20 1.217
681.30 1.217
681.40 1.217
681.50 1.217
681.60 1.217
681.70 1.217
681.80 1.217
681.90 1.217
682.00 1.217
682.10 1.217
682.20 1.217
682.30 1.217
682.40 1.217
682.50 1.217
682.60 1.217
682.70 1.217
682.80 1.217
682.90 1.217
683.00 1.217
683.10 1.217
683.20 1.217
683.30 1.217
683.40 1.217
683.50 1.217
683.60 1.217
683.70 1.217
683.80 1.217
683.90 1.217
684.00 1.217
684.10 1.217
684.20 1.217
684.30 1.217
684.40 1.217
684.50 1.217
684.60 1.217
684.70 1.217
684.80 1.217
684.90 1.217
685.00 1.217
685.10 1.217
685.20 1.216
685.30 1.216
685.40 1.216
685.50 1.216
685.60 1.216
685.70 1.216
685.80 1.216
685.90 1.216
686.00 1.216
686.10 1.216
686.20 1.216
686.30 1.216
686.40 1.216
686.50 1.216
686.60 1.216
686.70 1.216
686.80 1.216
686.90 1.216
687.00 1.216
687.10 1.216
687.20 1.216
687.30 1.216
687.40 1.216
687.50 1.216
687.60 1.216
687.70 1.216
687.80 1.216
687.90 1.216
688.00 1.216
688.10 1.216
688.20 1.216
688.30 1.216
688.40 1.216
688.50 1.216
688.60 1.216
688.70 1.216
688.80 1.216
688.90 1.216
689.00 1.216
689.10 1.216
689.20 1.215
689.30 1.215
689.40 1.215
689.50 1.215
689.60 1.215
689.70 1.215
689.80 1.215
689.90 1.215
690.00 1.215
690.10 1.215
690.20 1.215
690.30 1.215
690.40 1.215
690.50 1.215
690.60 1.215
690.70 1.215
690.80 1.215
690.90 1.215
691.00 1.215
691.10 1.215
691.20 1.215
691.30 1.215
691.40 1.215
691.50 1.215
691.60 1.215
691.70 1.215
691.80 1.215
691.90 1.215
692.00 1.215
692.10 1.215
692.20 1.215
692.30 1.215
692.40 1.214
692.50 1.214
692.60 1.214
692.70 1.214
692.80 1.214
692.90 1.214
693.00 1.214
693.10 1.214
693.20 1.214
693.30 1.214
693.40 1.214
693.50 1.214
693.60 1.214
693.70 1.214
693.80 1.214
693.90 1.214
694.00 1.214
694.10 1.214
694.20 1.214
694.30 1.214
694.40 1.214
694.50 1.214
694.60 1.214
694.70 1.214
694.80 1.214
694.90 1.214
695.00 1.214
695.10 1.214
695.20 1.214
695.30 1.214
695.40 1.214
695.50 1.213
695.60 1.213
695.70 1.213
695.80 1.213
695.90 1.213
696.00 1.213
696.10 1.213
696.20 1.213
696.30 1.213
696.40 1.213
696.50 1.213
696.60 1.213
696.70 1.213
696.80 1.213
696.90 1.213
697.00 1.213
697.10 1.213
697.20 1.213
697.30 1.213
697.40 1.213
697.50 1.213
697.60 1.213
697.70 1.213
697.80 1.213
697.90 1.213
698.00 1.213
698.10 1.213
698.20 1.213
698.30 1.212
698.40 1.212
698.50 1.212
698.60 1.212
698.70 1.212
698.80 1.212
698.90 1.212
699.00 1.212
699.10 1.212
699.20 1.212
699.30 1.212
699.40 1.212
699.50 1.212
699.60 1.212
699.70 1.212
699.80 1.212
699.90 1.212
700.00 1.212
700.10 1.212
700.20 1.212
700.30 1.212
700.40 1.212
700.50 1.212
700.60 1.212
700.70 1.212
700.80 1.212
700.90 1.211
701.00 1.211
701.10 1.211
701.20 1.211
701.30 1.211
701.40 1.211
701.50 1.211
701.60 1.211
701.70 1.211
701.80 1.211
701.90 1.211
702.00 1.211
702.10 1.211
702.20 1.211
702.30 1.211
702.40 1.211
702.50 1.211
702.60 1.211
702.70 1.211
702.80 1.211
702.90 1.211
703.00 1.211
703.10 1.211
703.20 1.211
703.30 1.21
703.40 1.21
703.50 1.21
703.60 1.21
703.70 1.21
703.80 1.21
703.90 1.21
704.00 1.21
704.10 1.21
704.20 1.21
704.30 1.21
704.40 1.21
704.50 1.21
704.60 1.21
704.70 1.21
704.80 1.21
704.90 1.21
705.00 1.21
705.10 1.21
705.20 1.21
705.30 1.21
705.40 1.21
705.50 1.21
705.60 1.209
705.70 1.209
705.80 1.209
705.90 1.209
706.00 1.209
706.10 1.209
706.20 1.209
706.30 1.209
706.40 1.209
706.50 1.209
706.60 1.209
706.70 1.209
706.80 1.209
706.90 1.209
707.00 1.209
707.10 1.209
707.20 1.209
707.30 1.209
707.40 1.209
707.50 1.209
707.60 1.209
707.70 1.209
707.80 1.208
707.90 1.208
708.00 1.208
708.10 1.208
708.20 1.208
708.30 1.208
708.40 1.208
708.50 1.208
708.60 1.208
708.70 1.208
708.80 1.208
708.90 1.208
709.00 1.208
709.10 1.208
709.20 1.208
709.30 1.208
709.40 1.208
709.50 1.208
709.60 1.208
709.70 1.208
709.80 1.208
709.90 1.208
710.00 1.207
710.10 1.207
710.20 1.207
710.30 1.207
710.40 1.207
710.50 1.207
710.60 1.207
710.70 1.207
710.80 1.207
710.90 1.207
711.00 1.207
711.10 1.207
711.20 1.207
711.30 1.207
711.40 1.207
711.50 1.207
711.60 1.207
711.70 1.207
711.80 1.207
711.90 1.207
712.00 1.206
712.10 1.206
712.20 1.206
712.30 1.206
712.40 1.206
712.50 1.206
712.60 1.206
712.70 1.206
712.80 1.206
712.90 1.206
713.00 1.206
713.10 1.206
713.20 1.206
713.30 1.206
713.40 1.206
713.50 1.206
713.60 1.206
713.70 1.206
713.80 1.206
713.90 1.206
714.00 1.205
714.10 1.205
714.20 1.205
714.30 1.205
714.40 1.205
714.50 1.205
714.60 1.205
714.70 1.205
714.80 1.205
714.90 1.205
715.00 1.205
715.10 1.205
715.20 1.205
715.30 1.205
715.40 1.205
715.50 1.205
715.60 1.205
715.70 1.205
715.80 1.205
715.90 1.204
716.00 1.204
716.10 1.204
716.20 1.204
716.30 1.204
716.40 1.204
716.50 1.204
716.60 1.204
716.70 1.204
716.80 1.204
716.90 1.204
717.00 1.204
717.10 1.204
717.20 1.204
717.30 1.204
717.40 1.204
717.50 1.204
717.60 1.204
717.70 1.203
717.80 1.203
717.90 1.203
718.00 1.203
718.10 1.203
718.20 1.203
718.30 1.203
718.40 1.203
718.50 1.203
718.60 1.203
718.70 1.203
718.80 1.203
718.90 1.203
719.00 1.203
719.10 1.203
719.20 1.203
719.30 1.203
719.40 1.203
719.50 1.202
719.60 1.202
719.70 1.202
719.80 1.202
719.90 1.202
720.00 1.202
720.10 1.202
720.20 1.202
720.30 1.202
720.40 1.202
720.50 1.202
720.60 1.202
720.70 1.202
720.80 1.202
720.90 1.202
721.00 1.202
721.10 1.202
721.20 1.202
721.30 1.201
721.40 1.201
721.50 1.201
721.60 1.201
721.70 1.201
721.80 1.201
721.90 1.201
722.00 1.201
722.10 1.201
722.20 1.201
722.30 1.201
722.40 1.201
722.50 1.201
722.60 1.201
722.70 1.201
722.80 1.201
722.90 1.201
723.00 1.2
723.10 1.2
723.20 1.2
723.30 1.2
723.40 1.2
723.50 1.2
723.60 1.2
723.70 1.2
723.80 1.2
723.90 1.2
724.00 1.2
724.10 1.2
724.20 1.2
724.30 1.2
724.40 1.2
724.50 1.2
724.60 1.199
724.70 1.199
724.80 1.199
724.90 1.199
725.00 1.199
725.10 1.199
725.20 1.199
725.30 1.199
725.40 1.199
725.50 1.199
725.60 1.199
725.70 1.199
725.80 1.199
725.90 1.199
726.00 1.199
726.10 1.199
726.20 1.199
726.30 1.198
726.40 1.198
726.50 1.198
726.60 1.198
726.70 1.198
726.80 1.198
726.90 1.198
727.00 1.198
727.10 1.198
727.20 1.198
727.30 1.198
727.40 1.198
727.50 1.198
727.60 1.198
727.70 1.198
727.80 1.197
727.90 1.197
728.00 1.197
728.10 1.197
728.20 1.197
728.30 1.197
728.40 1.197
728.50 1.197
728.60 1.197
728.70 1.197
728.80 1.197
728.90 1.197
729.00 1.197
729.10 1.197
729.20 1.197
729.30 1.197
729.40 1.196
729.50 1.196
729.60 1.196
729.70 1.196
729.80 1.196
729.90 1.196
730.00 1.196
730.10 1.196
730.20 1.196
730.30 1.196
730.40 1.196
730.50 1.196
730.60 1.196
730.70 1.196
730.80 1.196
730.90 1.195
731.00 1.195
731.10 1.195
731.20 1.195
731.30 1.195
731.40 1.195
731.50 1.195
731.60 1.195
731.70 1.195
731.80 1.195
731.90 1.195
732.00 1.195
732.10 1.195
732.20 1.195
732.30 1.195
732.40 1.194
732.50 1.194
732.60 1.194
732.70 1.194
732.80 1.194
732.90 1.194
733.00 1.194
733.10 1.194
733.20 1.194
733.30 1.194
733.40 1.194
733.50 1.194
733.60 1.194
733.70 1.194
733.80 1.194
733.90 1.193
734.00 1.193
734.10 1.193
734.20 1.193
734.30 1.193
734.40 1.193
734.50 1.193
734.60 1.193
734.70 1.193
734.80 1.193
734.90 1.193
735.00 1.193
735.10 1.193
735.20 1.193
735.30 1.192
735.40 1.192
735.50 1.192
735.60 1.192
735.70 1.192
735.80 1.192
735.90 1.192
736.00 1.192
736.10 1.192
736.20 1.192
736.30 1.192
736.40 1.192
736.50 1.192
736.60 1.192
736.70 1.192
736.80 1.191
736.90 1.191
737.00 1.191
737.10 1.191
737.20 1.191
737.30 1.191
737.40 1.191
737.50 1.191
737.60 1.191
737.70 1.191
737.80 1.191
737.90 1.191
738.00 1.191
738.10 1.191
738.20 1.19
738.30 1.19
738.40 1.19
738.50 1.19
738.60 1.19
738.70 1.19
738.80 1.19
738.90 1.19
739.00 1.19
739.10 1.19
739.20 1.19
739.30 1.19
739.40 1.19
739.50 1.19
739.60 1.19
739.70 1.189
739.80 1.189
739.90 1.189
740.00 1.189
740.10 1.189
740.20 1.189
740.30 1.189
740.40 1.189
740.50 1.189
740.60 1.189
740.70 1.189
740.80 1.189
740.90 1.189
741.00 1.188
741.10 1.188
741.20 1.188
741.30 1.188
741.40 1.188
741.50 1.188
741.60 1.188
741.70 1.188
741.80 1.188
741.90 1.188
742.00 1.188
742.10 1.188
742.20 1.188
742.30 1.188
742.40 1.187
742.50 1.187
742.60 1.187
742.70 1.187
742.80 1.187
742.90 1.187
743.00 1.187
743.10 1.187
743.20 1.187
743.30 1.187
743.40 1.187
743.50 1.187
743.60 1.187
743.70 1.186
743.80 1.186
743.90 1.186
744.00 1.186
744.10 1.186
744.20 1.186
744.30 1.186
744.40 1.186
744.50 1.186
744.60 1.186
744.70 1.186
744.80 1.186
744.90 1.186
745.00 1.185
745.10 1.185
745.20 1.185
745.30 1.185
745.40 1.185
745.50 1.185
745.60 1.185
745.70 1.185
745.80 1.185
745.90 1.185
746.00 1.185
746.10 1.185
746.20 1.185
746.30 1.184
746.40 1.184
746.50 1.184
746.60 1.184
746.70 1.184
746.80 1.184
746.90 1.184
747.00 1.184
747.10 1.184
747.20 1.184
747.30 1.184
747.40 1.184
747.50 1.184
747.60 1.184
747.70 1.183
747.80 1.183
747.90 1.183
748.00 1.183
748.10 1.183
748.20 1.183
748.30 1.183
748.40 1.183
748.50 1.183
748.60 1.183
748.70 1.183
748.80 1.183
748.90 1.183
749.00 1.182
749.10 1.182
749.20 1.182
749.30 1.182
749.40 1.182
749.50 1.182
749.60 1.182
749.70 1.182
749.80 1.182
749.90 1.182
750.00 1.182
750.10 1.182
750.20 1.182
750.30 1.181
750.40 1.181
750.50 1.181
750.60 1.181
750.70 1.181
750.80 1.181
750.90 1.181
751.00 1.181
751.10 1.181
751.20 1.181
751.30 1.181
751.40 1.181
751.50 1.18
751.60 1.18
751.70 1.18
751.80 1.18
751.90 1.18
752.00 1.18
752.10 1.18
752.20 1.18
752.30 1.18
752.40 1.18
752.50 1.18
752.60 1.18
752.70 1.179
752.80 1.179
752.90 1.179
753.00 1.179
753.10 1.179
753.20 1.179
753.30 1.179
753.40 1.179
753.50 1.179
753.60 1.179
753.70 1.179
753.80 1.179
753.90 1.179
754.00 1.178
754.10 1.178
754.20 1.178
754.30 1.178
754.40 1.178
754.50 1.178
754.60 1.178
754.70 1.178
754.80 1.178
754.90 1.178
755.00 1.178
755.10 1.178
755.20 1.177
755.30 1.177
755.40 1.177
755.50 1.177
755.60 1.177
755.70 1.177
755.80 1.177
755.90 1.177
756.00 1.177
756.10 1.177
756.20 1.177
756.30 1.177
756.40 1.176
756.50 1.176
756.60 1.176
756.70 1.176
756.80 1.176
756.90 1.176
757.00 1.176
757.10 1.176
757.20 1.176
757.30 1.176
757.40 1.176
757.50 1.176
757.60 1.175
757.70 1.175
757.80 1.175
757.90 1.175
758.00 1.175
758.10 1.175
758.20 1.175
758.30 1.175
758.40 1.175
758.50 1.175
758.60 1.175
758.70 1.175
758.80 1.174
758.90 1.174
759.00 1.174
759.10 1.174
759.20 1.174
759.30 1.174
759.40 1.174
759.50 1.174
759.60 1.174
759.70 1.174
759.80 1.174
759.90 1.174
760.00 1.173
760.10 1.173
760.20 1.173
760.30 1.173
760.40 1.173
760.50 1.173
760.60 1.173
760.70 1.173
760.80 1.173
760.90 1.173
761.00 1.173
761.10 1.173
761.20 1.172
761.30 1.172
761.40 1.172
761.50 1.172
761.60 1.172
761.70 1.172
761.80 1.172
761.90 1.172
762.00 1.172
762.10 1.172
762.20 1.172
762.30 1.171
762.40 1.171
762.50 1.171
762.60 1.171
762.70 1.171
762.80 1.171
762.90 1.171
763.00 1.171
763.10 1.171
763.20 1.171
763.30 1.171
763.40 1.17
763.50 1.17
763.60 1.17
763.70 1.17
763.80 1.17
763.90 1.17
764.00 1.17
764.10 1.17
764.20 1.17
764.30 1.17
764.40 1.17
764.50 1.17
764.60 1.169
764.70 1.169
764.80 1.169
764.90 1.169
765.00 1.169
765.10 1.169
765.20 1.169
765.30 1.169
765.40 1.169
765.50 1.169
765.60 1.169
765.70 1.168
765.80 1.168
765.90 1.168
766.00 1.168
766.10 1.168
766.20 1.168
766.30 1.168
766.40 1.168
766.50 1.168
766.60 1.168
766.70 1.168
766.80 1.167
766.90 1.167
767.00 1.167
767.10 1.167
767.20 1.167
767.30 1.167
767.40 1.167
767.50 1.167
767.60 1.167
767.70 1.167
767.80 1.167
767.90 1.167
768.00 1.166
768.10 1.166
768.20 1.166
768.30 1.166
768.40 1.166
768.50 1.166
768.60 1.166
768.70 1.166
768.80 1.166
768.90 1.166
769.00 1.166
769.10 1.165
769.20 1.165
769.30 1.165
769.40 1.165
769.50 1.165
769.60 1.165
769.70 1.165
769.80 1.165
769.90 1.165
770.00 1.165
770.10 1.165
770.20 1.164
770.30 1.164
770.40 1.164
770.50 1.164
770.60 1.164
770.70 1.164
770.80 1.164
770.90 1.164
771.00 1.164
771.10 1.164
771.20 1.164
771.30 1.163
771.40 1.163
771.50 1.163
771.60 1.163
771.70 1.163
771.80 1.163
771.90 1.163
772.00 1.163
772.10 1.163
772.20 1.163
772.30 1.163
772.40 1.162
772.50 1.162
772.60 1.162
772.70 1.162
772.80 1.162
772.90 1.162
773.00 1.162
773.10 1.162
773.20 1.162
773.30 1.162
773.40 1.161
773.50 1.161
773.60 1.161
773.70 1.161
773.80 1.161
773.90 1.161
774.00 1.161
774.10 1.161
774.20 1.161
774.30 1.161
774.40 1.161
774.50 1.16
774.60 1.16
774.70 1.16
774.80 1.16
774.90 1.16
775.00 1.16
775.10 1.16
775.20 1.16
775.30 1.16
775.40 1.16
775.50 1.16
775.60 1.159
775.70 1.159
775.80 1.159
775.90 1.159
776.00 1.159
776.10 1.159
776.20 1.159
776.30 1.159
776.40 1.159
776.50 1.159
776.60 1.159
776.70 1.158
776.80 1.158
776.90 1.158
777.00 1.158
777.10 1.158
777.20 1.158
777.30 1.158
777.40 1.158
777.50 1.158
777.60 1.158
777.70 1.157
777.80 1.157
777.90 1.157
778.00 1.157
778.10 1.157
778.20 1.157
778.30 1.157
778.40 1.157
778.50 1.157
778.60 1.157
778.70 1.157
778.80 1.156
778.90 1.156
779.00 1.156
779.10 1.156
779.20 1.156
779.30 1.156
779.40 1.156
779.50 1.156
779.60 1.156
779.70 1.156
779.80 1.156
779.90 1.155
780.00 1.155
780.10 1.155
780.20 1.155
780.30 1.155
780.40 1.155
780.50 1.155
780.60 1.155
780.70 1.155
780.80 1.155
780.90 1.154
781.00 1.154
781.10 1.154
781.20 1.154
781.30 1.154
781.40 1.154
781.50 1.154
781.60 1.154
781.70 1.154
781.80 1.154
781.90 1.153
782.00 1.153
782.10 1.153
782.20 1.153
782.30 1.153
782.40 1.153
782.50 1.153
782.60 1.153
782.70 1.153
782.80 1.153
782.90 1.152
783.00 1.152
783.10 1.152
783.20 1.152
783.30 1.152
783.40 1.152
783.50 1.152
783.60 1.152
783.70 1.152
783.80 1.152
783.90 1.151
784.00 1.151
784.10 1.151
784.20 1.151
784.30 1.151
784.40 1.151
784.50 1.151
784.60 1.151
784.70 1.151
784.80 1.151
784.90 1.151
785.00 1.15
785.10 1.15
785.20 1.15
785.30 1.15
785.40 1.15
785.50 1.15
785.60 1.15
785.70 1.15
785.80 1.15
785.90 1.15
786.00 1.149
786.10 1.149
786.20 1.149
786.30 1.149
786.40 1.149
786.50 1.149
786.60 1.149
786.70 1.149
786.80 1.149
786.90 1.149
787.00 1.148
787.10 1.148
787.20 1.148
787.30 1.148
787.40 1.148
787.50 1.148
787.60 1.148
787.70 1.148
787.80 1.148
787.90 1.148
788.00 1.147
788.10 1.147
788.20 1.147
788.30 1.147
788.40 1.147
788.50 1.147
788.60 1.147
788.70 1.147
788.80 1.147
788.90 1.147
789.00 1.146
789.10 1.146
789.20 1.146
789.30 1.146
789.40 1.146
789.50 1.146
789.60 1.146
789.70 1.146
789.80 1.146
789.90 1.146
790.00 1.146
790.10 1.145
790.20 1.145
790.30 1.145
790.40 1.145
790.50 1.145
790.60 1.145
790.70 1.145
790.80 1.145
790.90 1.145
791.00 1.144
791.10 1.144
791.20 1.144
791.30 1.144
791.40 1.144
791.50 1.144
791.60 1.144
791.70 1.144
791.80 1.144
791.90 1.144
792.00 1.143
792.10 1.143
792.20 1.143
792.30 1.143
792.40 1.143
792.50 1.143
792.60 1.143
792.70 1.143
792.80 1.143
792.90 1.142
793.00 1.142
793.10 1.142
793.20 1.142
793.30 1.142
793.40 1.142
793.50 1.142
793.60 1.142
793.70 1.142
793.80 1.142
793.90 1.141
794.00 1.141
794.10 1.141
794.20 1.141
794.30 1.141
794.40 1.141
794.50 1.141
794.60 1.141
794.70 1.141
794.80 1.141
794.90 1.14
795.00 1.14
795.10 1.14
795.20 1.14
795.30 1.14
795.40 1.14
795.50 1.14
795.60 1.14
795.70 1.14
795.80 1.14
795.90 1.139
796.00 1.139
796.10 1.139
796.20 1.139
796.30 1.139
796.40 1.139
796.50 1.139
796.60 1.139
796.70 1.139
796.80 1.138
796.90 1.138
797.00 1.138
797.10 1.138
797.20 1.138
797.30 1.138
797.40 1.138
797.50 1.138
797.60 1.138
797.70 1.138
797.80 1.137
797.90 1.137
798.00 1.137
798.10 1.137
798.20 1.137
798.30 1.137
798.40 1.137
798.50 1.137
798.60 1.137
798.70 1.137
798.80 1.136
798.90 1.136
799.00 1.136
799.10 1.136
799.20 1.136
799.30 1.136
799.40 1.136
799.50 1.136
799.60 1.136
799.70 1.135
799.80 1.135
799.90 1.135
800.00 1.135
800.10 1.135
800.20 1.135
800.30 1.135
800.40 1.135
800.50 1.135
800.60 1.135
800.70 1.134
800.80 1.134
800.90 1.134
801.00 1.134
801.10 1.134
801.20 1.134
801.30 1.134
801.40 1.134
801.50 1.134
801.60 1.133
801.70 1.133
801.80 1.133
801.90 1.133
802.00 1.133
802.10 1.133
802.20 1.133
802.30 1.133
802.40 1.133
802.50 1.132
802.60 1.132
802.70 1.132
802.80 1.132
802.90 1.132
803.00 1.132
803.10 1.132
803.20 1.132
803.30 1.132
803.40 1.132
803.50 1.131
803.60 1.131
803.70 1.131
803.80 1.131
803.90 1.131
804.00 1.131
804.10 1.131
804.20 1.131
804.30 1.131
804.40 1.13
804.50 1.13
804.60 1.13
804.70 1.13
804.80 1.13
804.90 1.13
805.00 1.13
805.10 1.13
805.20 1.13
805.30 1.129
805.40 1.129
805.50 1.129
805.60 1.129
805.70 1.129
805.80 1.129
805.90 1.129
806.00 1.129
806.10 1.129
806.20 1.129
806.30 1.128
806.40 1.128
806.50 1.128
806.60 1.128
806.70 1.128
806.80 1.128
806.90 1.128
807.00 1.128
807.10 1.128
807.20 1.127
807.30 1.127
807.40 1.127
807.50 1.127
807.60 1.127
807.70 1.127
807.80 1.127
807.90 1.127
808.00 1.127
808.10 1.127
808.20 1.126
808.30 1.126
808.40 1.126
808.50 1.126
808.60 1.126
808.70 1.126
808.80 1.126
808.90 1.126
809.00 1.126
809.10 1.125
809.20 1.125
809.30 1.125
809.40 1.125
809.50 1.125
809.60 1.125
809.70 1.125
809.80 1.125
809.90 1.125
810.00 1.124
810.10 1.124
810.20 1.124
810.30 1.124
810.40 1.124
810.50 1.124
810.60 1.124
810.70 1.124
810.80 1.124
810.90 1.123
811.00 1.123
811.10 1.123
811.20 1.123
811.30 1.123
811.40 1.123
811.50 1.123
811.60 1.123
811.70 1.123
811.80 1.122
811.90 1.122
812.00 1.122
812.10 1.122
812.20 1.122
812.30 1.122
812.40 1.122
812.50 1.122
812.60 1.122
812.70 1.121
812.80 1.121
812.90 1.121
813.00 1.121
813.10 1.121
813.20 1.121
813.30 1.121
813.40 1.121
813.50 1.121
813.60 1.12
813.70 1.12
813.80 1.12
813.90 1.12
814.00 1.12
814.10 1.12
814.20 1.12
814.30 1.12
814.40 1.12
814.50 1.119
814.60 1.119
814.70 1.119
814.80 1.119
814.90 1.119
815.00 1.119
815.10 1.119
815.20 1.119
815.30 1.119
815.40 1.118
815.50 1.118
815.60 1.118
815.70 1.118
815.80 1.118
815.90 1.118
816.00 1.118
816.10 1.118
816.20 1.118
816.30 1.118
816.40 1.117
816.50 1.117
816.60 1.117
816.70 1.117
816.80 1.117
816.90 1.117
817.00 1.117
817.10 1.117
817.20 1.117
817.30 1.116
817.40 1.116
817.50 1.116
817.60 1.116
817.70 1.116
817.80 1.116
817.90 1.116
818.00 1.116
818.10 1.116
818.20 1.115
818.30 1.115
818.40 1.115
818.50 1.115
818.60 1.115
818.70 1.115
818.80 1.115
818.90 1.115
819.00 1.115
819.10 1.114
819.20 1.114
819.30 1.114
819.40 1.114
819.50 1.114
819.60 1.114
819.70 1.114
819.80 1.114
819.90 1.114
820.00 1.113
820.10 1.113
820.20 1.113
820.30 1.113
820.40 1.113
820.50 1.113
820.60 1.113
820.70 1.113
820.80 1.113
820.90 1.112
821.00 1.112
821.10 1.112
821.20 1.112
821.30 1.112
821.40 1.112
821.50 1.112
821.60 1.112
821.70 1.112
821.80 1.111
821.90 1.111
822.00 1.111
822.10 1.111
822.20 1.111
822.30 1.111
822.40 1.111
822.50 1.111
822.60 1.11
822.70 1.11
822.80 1.11
822.90 1.11
823.00 1.11
823.10 1.11
823.20 1.11
823.30 1.11
823.40 1.11
823.50 1.109
823.60 1.109
823.70 1.109
823.80 1.109
823.90 1.109
824.00 1.109
824.10 1.109
824.20 1.109
824.30 1.109
824.40 1.108
824.50 1.108
824.60 1.108
824.70 1.108
824.80 1.108
824.90 1.108
825.00 1.108
825.10 1.108
825.20 1.108
825.30 1.107
825.40 1.107
825.50 1.107
825.60 1.107
825.70 1.107
825.80 1.107
825.90 1.107
826.00 1.107
826.10 1.107
826.20 1.106
826.30 1.106
826.40 1.106
826.50 1.106
826.60 1.106
826.70 1.106
826.80 1.106
826.90 1.106
827.00 1.105
827.10 1.105
827.20 1.105
827.30 1.105
827.40 1.105
827.50 1.105
827.60 1.105
827.70 1.105
827.80 1.105
827.90 1.104
828.00 1.104
828.10 1.104
828.20 1.104
828.30 1.104
828.40 1.104
828.50 1.104
828.60 1.104
828.70 1.104
828.80 1.103
828.90 1.103
829.00 1.103
829.10 1.103
829.20 1.103
829.30 1.103
829.40 1.103
829.50 1.103
829.60 1.102
829.70 1.102
829.80 1.102
829.90 1.102
830.00 1.102
830.10 1.102
830.20 1.102
830.30 1.102
830.40 1.102
830.50 1.101
830.60 1.101
830.70 1.101
830.80 1.101
830.90 1.101
831.00 1.101
831.10 1.101
831.20 1.101
831.30 1.101
831.40 1.1
831.50 1.1
831.60 1.1
831.70 1.1
831.80 1.1
831.90 1.1
832.00 1.1
832.10 1.1
832.20 1.099
832.30 1.099
832.40 1.099
832.50 1.099
832.60 1.099
832.70 1.099
832.80 1.099
832.90 1.099
833.00 1.099
833.10 1.098
833.20 1.098
833.30 1.098
833.40 1.098
833.50 1.098
833.60 1.098
833.70 1.098
833.80 1.098
833.90 1.097
834.00 1.097
834.10 1.097
834.20 1.097
834.30 1.097
834.40 1.097
834.50 1.097
834.60 1.097
834.70 1.097
834.80 1.096
834.90 1.096
835.00 1.096
835.10 1.096
835.20 1.096
835.30 1.096
835.40 1.096
835.50 1.096
835.60 1.096
835.70 1.095
835.80 1.095
835.90 1.095
836.00 1.095
836.10 1.095
836.20 1.095
836.30 1.095
836.40 1.095
836.50 1.094
836.60 1.094
836.70 1.094
836.80 1.094
836.90 1.094
837.00 1.094
837.10 1.094
837.20 1.094
837.30 1.094
837.40 1.093
837.50 1.093
837.60 1.093
837.70 1.093
837.80 1.093
837.90 1.093
838.00 1.093
838.10 1.093
838.20 1.092
838.30 1.092
838.40 1.092
838.50 1.092
838.60 1.092
838.70 1.092
838.80 1.092
838.90 1.092
839.00 1.092
839.10 1.091
839.20 1.091
839.30 1.091
839.40 1.091
839.50 1.091
839.60 1.091
839.70 1.091
839.80 1.091
839.90 1.09
840.00 1.09
840.10 1.09
840.20 1.09
840.30 1.09
840.40 1.09
840.50 1.09
840.60 1.09
840.70 1.09
840.80 1.089
840.90 1.089
841.00 1.089
841.10 1.089
841.20 1.089
841.30 1.089
841.40 1.089
841.50 1.089
841.60 1.088
841.70 1.088
841.80 1.088
841.90 1.088
842.00 1.088
842.10 1.088
842.20 1.088
842.30 1.088
842.40 1.087
842.50 1.087
842.60 1.087
842.70 1.087
842.80 1.087
842.90 1.087
843.00 1.087
843.10 1.087
843.20 1.087
843.30 1.086
843.40 1.086
843.50 1.086
843.60 1.086
843.70 1.086
843.80 1.086
843.90 1.086
844.00 1.086
844.10 1.085
844.20 1.085
844.30 1.085
844.40 1.085
844.50 1.085
844.60 1.085
844.70 1.085
844.80 1.085
844.90 1.084
845.00 1.084
845.10 1.084
845.20 1.084
845.30 1.084
845.40 1.084
845.50 1.084
845.60 1.084
845.70 1.084
845.80 1.083
845.90 1.083
846.00 1.083
846.10 1.083
846.20 1.083
846.30 1.083
846.40 1.083
846.50 1.083
846.60 1.082
846.70 1.082
846.80 1.082
846.90 1.082
847.00 1.082
847.10 1.082
847.20 1.082
847.30 1.082
847.40 1.082
847.50 1.081
847.60 1.081
847.70 1.081
847.80 1.081
847.90 1.081
848.00 1.081
848.10 1.081
848.20 1.081
848.30 1.08
848.40 1.08
848.50 1.08
848.60 1.08
848.70 1.08
848.80 1.08
848.90 1.08
849.00 1.08
849.10 1.079
849.20 1.079
849.30 1.079
849.40 1.079
849.50 1.079
849.60 1.079
849.70 1.079
849.80 1.079
849.90 1.078
850.00 1.078
850.10 1.078
850.20 1.078
850.30 1.078
850.40 1.078
850.50 1.078
850.60 1.078
850.70 1.078
850.80 1.077
850.90 1.077
851.00 1.077
851.10 1.077
851.20 1.077
851.30 1.077
851.40 1.077
851.50 1.077
851.60 1.076
851.70 1.076
851.80 1.076
851.90 1.076
852.00 1.076
852.10 1.076
852.20 1.076
852.30 1.076
852.40 1.075
852.50 1.075
852.60 1.075
852.70 1.075
852.80 1.075
852.90 1.075
853.00 1.075
853.10 1.075
853.20 1.075
853.30 1.074
853.40 1.074
853.50 1.074
853.60 1.074
853.70 1.074
853.80 1.074
853.90 1.074
854.00 1.074
854.10 1.073
854.20 1.073
854.30 1.073
854.40 1.073
854.50 1.073
854.60 1.073
854.70 1.073
854.80 1.073
854.90 1.072
855.00 1.072
855.10 1.072
855.20 1.072
855.30 1.072
855.40 1.072
855.50 1.072
855.60 1.072
855.70 1.071
855.80 1.071
855.90 1.071
856.00 1.071
856.10 1.071
856.20 1.071
856.30 1.071
856.40 1.071
856.50 1.071
856.60 1.07
856.70 1.07
856.80 1.07
856.90 1.07
857.00 1.07
857.10 1.07
857.20 1.07
857.30 1.07
857.40 1.069
857.50 1.069
857.60 1.069
857.70 1.069
857.80 1.069
857.90 1.069
858.00 1.069
858.10 1.069
858.20 1.068
858.30 1.068
858.40 1.068
858.50 1.068
858.60 1.068
858.70 1.068
858.80 1.068
858.90 1.068
859.00 1.067
859.10 1.067
859.20 1.067
859.30 1.067
859.40 1.067
859.50 1.067
859.60 1.067
859.70 1.067
859.80 1.066
859.90 1.066
860.00 1.066
860.10 1.066
860.20 1.066
860.30 1.066
860.40 1.066
860.50 1.066
860.60 1.065
860.70 1.065
860.80 1.065
860.90 1.065
861.00 1.065
861.10 1.065
861.20 1.065
861.30 1.065
861.40 1.064
861.50 1.064
861.60 1.064
861.70 1.064
861.80 1.064
861.90 1.064
862.00 1.064
862.10 1.064
862.20 1.063
862.30 1.063
862.40 1.063
862.50 1.063
862.60 1.063
862.70 1.063
862.80 1.063
862.90 1.063
863.00 1.063
863.10 1.062
863.20 1.062
863.30 1.062
863.40 1.062
863.50 1.062
863.60 1.062
863.70 1.062
863.80 1.062
863.90 1.061
864.00 1.061
864.10 1.061
864.20 1.061
864.30 1.061
864.40 1.061
864.50 1.061
864.60 1.061
864.70 1.06
864.80 1.06
864.90 1.06
865.00 1.06
865.10 1.06
865.20 1.06
865.30 1.06
865.40 1.06
865.50 1.059
865.60 1.059
865.70 1.059
865.80 1.059
865.90 1.059
866.00 1.059
866.10 1.059
866.20 1.059
866.30 1.058
866.40 1.058
866.50 1.058
866.60 1.058
866.70 1.058
866.80 1.058
866.90 1.058
867.00 1.058
867.10 1.057
867.20 1.057
867.30 1.057
867.40 1.057
867.50 1.057
867.60 1.057
867.70 1.057
867.80 1.057
867.90 1.056
868.00 1.056
868.10 1.056
868.20 1.056
868.30 1.056
868.40 1.056
868.50 1.056
868.60 1.056
868.70 1.055
868.80 1.055
868.90 1.055
869.00 1.055
869.10 1.055
869.20 1.055
869.30 1.055
869.40 1.055
869.50 1.054
869.60 1.054
869.70 1.054
869.80 1.054
869.90 1.054
870.00 1.054
870.10 1.054
870.20 1.054
870.30 1.053
870.40 1.053
870.50 1.053
870.60 1.053
870.70 1.053
870.80 1.053
870.90 1.053
871.00 1.053
871.10 1.052
871.20 1.052
871.30 1.052
871.40 1.052
871.50 1.052
871.60 1.052
871.70 1.052
871.80 1.052
871.90 1.051
872.00 1.051
872.10 1.051
872.20 1.051
872.30 1.051
872.40 1.051
872.50 1.051
872.60 1.051
872.70 1.05
872.80 1.05
872.90 1.05
873.00 1.05
873.10 1.05
873.20 1.05
873.30 1.05
873.40 1.05
873.50 1.049
873.60 1.049
873.70 1.049
873.80 1.049
873.90 1.049
874.00 1.049
874.10 1.049
874.20 1.049
874.30 1.048
874.40 1.048
874.50 1.048
874.60 1.048
874.70 1.048
874.80 1.048
874.90 1.048
875.00 1.048
875.10 1.047
875.20 1.047
875.30 1.047
875.40 1.047
875.50 1.047
875.60 1.047
875.70 1.047
875.80 1.047
875.90 1.046
876.00 1.046
876.10 1.046
876.20 1.046
876.30 1.046
876.40 1.046
876.50 1.046
876.60 1.046
876.70 1.045
876.80 1.045
876.90 1.045
877.00 1.045
877.10 1.045
877.20 1.045
877.30 1.045
877.40 1.045
877.50 1.044
877.60 1.044
877.70 1.044
877.80 1.044
877.90 1.044
878.00 1.044
878.10 1.044
878.20 1.044
878.30 1.043
878.40 1.043
878.50 1.043
878.60 1.043
878.70 1.043
878.80 1.043
878.90 1.043
879.00 1.043
879.10 1.042
879.20 1.042
879.30 1.042
879.40 1.042
879.50 1.042
879.60 1.042
879.70 1.042
879.80 1.042
879.90 1.041
880.00 1.041
880.10 1.041
880.20 1.041
880.30 1.041
880.40 1.041
880.50 1.041
880.60 1.041
880.70 1.04
880.80 1.04
880.90 1.04
881.00 1.04
881.10 1.04
881.20 1.04
881.30 1.04
881.40 1.04
881.50 1.039
881.60 1.039
881.70 1.039
881.80 1.039
881.90 1.039
882.00 1.039
882.10 1.039
882.20 1.039
882.30 1.038
882.40 1.038
882.50 1.038
882.60 1.038
882.70 1.038
882.80 1.038
882.90 1.038
883.00 1.038
883.10 1.037
883.20 1.037
883.30 1.037
883.40 1.037
883.50 1.037
883.60 1.037
883.70 1.037
883.80 1.036
883.90 1.036
884.00 1.036
884.10 1.036
884.20 1.036
884.30 1.036
884.40 1.036
884.50 1.036
884.60 1.035
884.70 1.035
884.80 1.035
884.90 1.035
885.00 1.035
885.10 1.035
885.20 1.035
885.30 1.035
885.40 1.034
885.50 1.034
885.60 1.034
885.70 1.034
885.80 1.034
885.90 1.034
886.00 1.034
886.10 1.034
886.20 1.033
886.30 1.033
886.40 1.033
886.50 1.033
886.60 1.033
886.70 1.033
886.80 1.033
886.90 1.033
887.00 1.032
887.10 1.032
887.20 1.032
887.30 1.032
887.40 1.032
887.50 1.032
887.60 1.032
887.70 1.032
887.80 1.031
887.90 1.031
888.00 1.031
888.10 1.031
888.20 1.031
888.30 1.031
888.40 1.031
888.50 1.031
888.60 1.03
888.70 1.03
888.80 1.03
888.90 1.03
889.00 1.03
889.10 1.03
889.20 1.03
889.30 1.03
889.40 1.029
889.50 1.029
889.60 1.029
889.70 1.029
889.80 1.029
889.90 1.029
890.00 1.029
890.10 1.028
890.20 1.028
890.30 1.028
890.40 1.028
890.50 1.028
890.60 1.028
890.70 1.028
890.80 1.028
890.90 1.027
891.00 1.027
891.10 1.027
891.20 1.027
891.30 1.027
891.40 1.027
891.50 1.027
891.60 1.027
891.70 1.026
891.80 1.026
891.90 1.026
892.00 1.026
892.10 1.026
892.20 1.026
892.30 1.026
892.40 1.026
892.50 1.025
892.60 1.025
892.70 1.025
892.80 1.025
892.90 1.025
893.00 1.025
893.10 1.025
893.20 1.025
893.30 1.024
893.40 1.024
893.50 1.024
893.60 1.024
893.70 1.024
893.80 1.024
893.90 1.024
894.00 1.023
894.10 1.023
894.20 1.023
894.30 1.023
894.40 1.023
894.50 1.023
894.60 1.023
894.70 1.023
894.80 1.022
894.90 1.022
895.00 1.022
895.10 1.022
895.20 1.022
895.30 1.022
895.40 1.022
895.50 1.022
895.60 1.021
895.70 1.021
895.80 1.021
895.90 1.021
896.00 1.021
896.10 1.021
896.20 1.021
896.30 1.021
896.40 1.02
896.50 1.02
896.60 1.02
896.70 1.02
896.80 1.02
896.90 1.02
897.00 1.02
897.10 1.02
897.20 1.019
897.30 1.019
897.40 1.019
897.50 1.019
897.60 1.019
897.70 1.019
897.80 1.019
897.90 1.019
898.00 1.018
898.10 1.018
898.20 1.018
898.30 1.018
898.40 1.018
898.50 1.018
898.60 1.018
898.70 1.017
898.80 1.017
898.90 1.017
899.00 1.017
899.10 1.017
899.20 1.017
899.30 1.017
899.40 1.017
899.50 1.016
899.60 1.016
899.70 1.016
899.80 1.016
899.90 1.016
900.00 1.016
900.10 1.016
900.20 1.016
900.30 1.015
900.40 1.015
900.50 1.015
900.60 1.015
900.70 1.015
900.80 1.015
900.90 1.015
901.00 1.015
901.10 1.014
901.20 1.014
901.30 1.014
901.40 1.014
901.50 1.014
901.60 1.014
901.70 1.014
901.80 1.013
901.90 1.013
902.00 1.013
902.10 1.013
902.20 1.013
902.30 1.013
902.40 1.013
902.50 1.013
902.60 1.012
902.70 1.012
902.80 1.012
902.90 1.012
903.00 1.012
903.10 1.012
903.20 1.012
903.30 1.012
903.40 1.011
903.50 1.011
903.60 1.011
903.70 1.011
903.80 1.011
903.90 1.011
904.00 1.011
904.10 1.01
904.20 1.01
904.30 1.01
904.40 1.01
904.50 1.01
904.60 1.01
904.70 1.01
904.80 1.01
904.90 1.009
905.00 1.009
905.10 1.009
905.20 1.009
905.30 1.009
905.40 1.009
905.50 1.009
905.60 1.009
905.70 1.008
905.80 1.008
905.90 1.008
906.00 1.008
906.10 1.008
906.20 1.008
906.30 1.008
906.40 1.007
906.50 1.007
906.60 1.007
906.70 1.007
906.80 1.007
906.90 1.007
907.00 1.007
907.10 1.007
907.20 1.006
907.30 1.006
907.40 1.006
907.50 1.006
907.60 1.006
907.70 1.006
907.80 1.006
907.90 1.006
908.00 1.005
908.10 1.005
908.20 1.005
908.30 1.005
908.40 1.005
908.50 1.005
908.60 1.005
908.70 1.005
908.80 1.004
908.90 1.004
909.00 1.004
909.10 1.004
909.20 1.004
909.30 1.004
909.40 1.004
909.50 1.003
909.60 1.003
909.70 1.003
909.80 1.003
909.90 1.003
910.00 1.003
910.10 1.003
910.20 1.003
910.30 1.002
910.40 1.002
910.50 1.002
910.60 1.002
910.70 1.002
910.80 1.002
910.90 1.002
911.00 1.002
911.10 1.001
911.20 1.001
911.30 1.001
911.40 1.001
911.50 1.001
911.60 1.001
911.70 1.001
911.80 1
911.90 1
912.00 1
912.10 1
912.20 1
912.30 0.9998
912.40 0.9997
912.50 0.9996
912.60 0.9995
912.70 0.9993
912.80 0.9992
912.90 0.9991
913.00 0.9989
913.10 0.9988
913.20 0.9987
913.30 0.9985
913.40 0.9984
913.50 0.9983
913.60 0.9982
913.70 0.998
913.80 0.9979
913.90 0.9978
914.00 0.9976
914.10 0.9975
914.20 0.9974
914.30 0.9972
914.40 0.9971
914.50 0.997
914.60 0.9969
914.70 0.9967
914.80 0.9966
914.90 0.9965
915.00 0.9963
915.10 0.9962
915.20 0.9961
915.30 0.9959
915.40 0.9958
915.50 0.9957
915.60 0.9956
915.70 0.9954
915.80 0.9953
915.90 0.9952
916.00 0.995
916.10 0.9949
916.20 0.9948
916.30 0.9947
916.40 0.9945
916.50 0.9944
916.60 0.9943
916.70 0.9941
916.80 0.994
916.90 0.9939
917.00 0.9937
917.10 0.9936
917.20 0.9935
917.30 0.9934
917.40 0.9932
917.50 0.9931
917.60 0.993
917.70 0.9928
917.80 0.9927
917.90 0.9926
918.00 0.9924
918.10 0.9923
918.20 0.9922
918.30 0.992
918.40 0.9919
918.50 0.9918
918.60 0.9917
918.70 0.9915
918.80 0.9914
918.90 0.9913
919.00 0.9911
919.10 0.991
919.20 0.9909
919.30 0.9907
919.40 0.9906
919.50 0.9905
919.60 0.9903
919.70 0.9902
919.80 0.9901
919.90 0.99
920.00 0.9898
920.10 0.9897
920.20 0.9896
920.30 0.9894
920.40 0.9893
920.50 0.9892
920.60 0.989
920.70 0.9889
920.80 0.9888
920.90 0.9887
921.00 0.9885
921.10 0.9884
921.20 0.9883
921.30 0.9881
921.40 0.988
921.50 0.9879
921.60 0.9877
921.70 0.9876
921.80 0.9875
921.90 0.9874
922.00 0.9872
922.10 0.9871
922.20 0.987
922.30 0.9868
922.40 0.9867
922.50 0.9866
922.60 0.9864
922.70 0.9863
922.80 0.9862
922.90 0.986
923.00 0.9859
923.10 0.9858
923.20 0.9856
923.30 0.9855
923.40 0.9854
923.50 0.9853
923.60 0.9851
923.70 0.985
923.80 0.9849
923.90 0.9847
924.00 0.9846
924.10 0.9845
924.20 0.9843
924.30 0.9842
924.40 0.9841
924.50 0.9839
924.60 0.9838
924.70 0.9837
924.80 0.9836
924.90 0.9834
925.00 0.9833
925.10 0.9832
925.20 0.983
925.30 0.9829
925.40 0.9828
925.50 0.9826
925.60 0.9825
925.70 0.9824
925.80 0.9822
925.90 0.9821
926.00 0.982
926.10 0.9819
926.20 0.9817
926.30 0.9816
926.40 0.9815
926.50 0.9813
926.60 0.9812
926.70 0.9811
926.80 0.9809
926.90 0.9808
927.00 0.9807
927.10 0.9806
927.20 0.9804
927.30 0.9803
927.40 0.9802
927.50 0.98
927.60 0.9799
927.70 0.9798
927.80 0.9796
927.90 0.9795
928.00 0.9794
928.10 0.9792
928.20 0.9791
928.30 0.979
928.40 0.9788
928.50 0.9787
928.60 0.9786
928.70 0.9784
928.80 0.9783
928.90 0.9782
929.00 0.9781
929.10 0.9779
929.20 0.9778
929.30 0.9777
929.40 0.9775
929.50 0.9774
929.60 0.9773
929.70 0.9771
929.80 0.977
929.90 0.9769
930.00 0.9767
930.10 0.9766
930.20 0.9765
930.30 0.9763
930.40 0.9762
930.50 0.9761
930.60 0.976
930.70 0.9758
930.80 0.9757
930.90 0.9756
931.00 0.9754
931.10 0.9753
931.20 0.9752
931.30 0.975
931.40 0.9749
931.50 0.9748
931.60 0.9746
931.70 0.9745
931.80 0.9744
931.90 0.9742
932.00 0.9741
932.10 0.974
932.20 0.9739
932.30 0.9737
932.40 0.9736
932.50 0.9735
932.60 0.9733
932.70 0.9732
932.80 0.9731
932.90 0.9729
933.00 0.9728
933.10 0.9727
933.20 0.9726
933.30 0.9724
933.40 0.9723
933.50 0.9722
933.60 0.972
933.70 0.9719
933.80 0.9718
933.90 0.9716
934.00 0.9715
934.10 0.9714
934.20 0.9713
934.30 0.9711
934.40 0.971
934.50 0.9709
934.60 0.9707
934.70 0.9706
934.80 0.9705
934.90 0.9703
935.00 0.9702
935.10 0.9701
935.20 0.9699
935.30 0.9698
935.40 0.9697
935.50 0.9695
935.60 0.9694
935.70 0.9693
935.80 0.9691
935.90 0.969
936.00 0.9689
936.10 0.9688
936.20 0.9686
936.30 0.9685
936.40 0.9684
936.50 0.9682
936.60 0.9681
936.70 0.968
936.80 0.9678
936.90 0.9677
937.00 0.9676
937.10 0.9674
937.20 0.9673
937.30 0.9672
937.40 0.967
937.50 0.9669
937.60 0.9668
937.70 0.9667
937.80 0.9665
937.90 0.9664
938.00 0.9663
938.10 0.9661
938.20 0.966
938.30 0.9659
938.40 0.9657
938.50 0.9656
938.60 0.9655
938.70 0.9653
938.80 0.9652
938.90 0.9651
939.00 0.9649
939.10 0.9648
939.20 0.9647
939.30 0.9645
939.40 0.9644
939.50 0.9643
939.60 0.9642
939.70 0.964
939.80 0.9639
939.90 0.9638
940.00 0.9636
940.10 0.9635
940.20 0.9634
940.30 0.9632
940.40 0.9631
940.50 0.963
940.60 0.9628
940.70 0.9627
940.80 0.9626
940.90 0.9624
941.00 0.9623
941.10 0.9622
941.20 0.9621
941.30 0.9619
941.40 0.9618
941.50 0.9617
941.60 0.9615
941.70 0.9614
941.80 0.9613
941.90 0.9611
942.00 0.961
942.10 0.9609
942.20 0.9607
942.30 0.9606
942.40 0.9605
942.50 0.9603
942.60 0.9602
942.70 0.9601
942.80 0.9599
942.90 0.9598
943.00 0.9597
943.10 0.9595
943.20 0.9594
943.30 0.9593
943.40 0.9591
943.50 0.959
943.60 0.9589
943.70 0.9588
943.80 0.9586
943.90 0.9585
944.00 0.9584
944.10 0.9582
944.20 0.9581
944.30 0.958
944.40 0.9578
944.50 0.9577
944.60 0.9576
944.70 0.9574
944.80 0.9573
944.90 0.9572
945.00 0.957
945.10 0.9569
945.20 0.9568
945.30 0.9567
945.40 0.9565
945.50 0.9564
945.60 0.9563
945.70 0.9561
945.80 0.956
945.90 0.9559
946.00 0.9557
946.10 0.9556
946.20 0.9555
946.30 0.9553
946.40 0.9552
946.50 0.9551
946.60 0.9549
946.70 0.9548
946.80 0.9547
946.90 0.9546
947.00 0.9544
947.10 0.9543
947.20 0.9542
947.30 0.954
947.40 0.9539
947.50 0.9538
947.60 0.9536
947.70 0.9535
947.80 0.9534
947.90 0.9532
948.00 0.9531
948.10 0.953
948.20 0.9528
948.30 0.9527
948.40 0.9526
948.50 0.9524
948.60 0.9523
948.70 0.9522
948.80 0.952
948.90 0.9519
949.00 0.9518
949.10 0.9516
949.20 0.9515
949.30 0.9514
949.40 0.9512
949.50 0.9511
949.60 0.951
949.70 0.9508
949.80 0.9507
949.90 0.9506
950.00 0.9505
950.10 0.9503
950.20 0.9502
950.30 0.9501
950.40 0.9499
950.50 0.9498
950.60 0.9497
950.70 0.9495
950.80 0.9494
950.90 0.9493
951.00 0.9492
951.10 0.949
951.20 0.9489
951.30 0.9488
951.40 0.9486
951.50 0.9485
951.60 0.9484
951.70 0.9482
951.80 0.9481
951.90 0.948
952.00 0.9478
952.10 0.9477
952.20 0.9476
952.30 0.9474
952.40 0.9473
952.50 0.9472
952.60 0.947
952.70 0.9469
952.80 0.9468
952.90 0.9466
953.00 0.9465
953.10 0.9464
953.20 0.9462
953.30 0.9461
953.40 0.946
953.50 0.9459
953.60 0.9457
953.70 0.9456
953.80 0.9455
953.90 0.9453
954.00 0.9452
954.10 0.945
954.20 0.9449
954.30 0.9448
954.40 0.9447
954.50 0.9445
954.60 0.9444
954.70 0.9443
954.80 0.9441
954.90 0.944
955.00 0.9439
955.10 0.9437
955.20 0.9436
955.30 0.9435
955.40 0.9433
955.50 0.9432
955.60 0.9431
955.70 0.943
955.80 0.9428
955.90 0.9427
956.00 0.9426
956.10 0.9424
956.20 0.9423
956.30 0.9422
956.40 0.942
956.50 0.9419
956.60 0.9418
956.70 0.9416
956.80 0.9415
956.90 0.9414
957.00 0.9412
957.10 0.9411
957.20 0.941
957.30 0.9409
957.40 0.9407
957.50 0.9406
957.60 0.9405
957.70 0.9403
957.80 0.9402
957.90 0.9401
958.00 0.9399
958.10 0.9398
958.20 0.9397
958.30 0.9395
958.40 0.9394
958.50 0.9393
958.60 0.9391
958.70 0.939
958.80 0.9389
958.90 0.9387
959.00 0.9386
959.10 0.9385
959.20 0.9383
959.30 0.9382
959.40 0.9381
959.50 0.9379
959.60 0.9378
959.70 0.9377
959.80 0.9375
959.90 0.9374
960.00 0.9373
960.10 0.9372
960.20 0.937
960.30 0.9369
960.40 0.9368
960.50 0.9366
960.60 0.9365
960.70 0.9364
960.80 0.9362
960.90 0.9361
961.00 0.936
961.10 0.9358
961.20 0.9357
961.30 0.9356
961.40 0.9354
961.50 0.9353
961.60 0.9352
961.70 0.935
961.80 0.9349
961.90 0.9348
962.00 0.9346
962.10 0.9345
962.20 0.9344
962.30 0.9342
962.40 0.9341
962.50 0.934
962.60 0.9339
962.70 0.9337
962.80 0.9336
962.90 0.9335
963.00 0.9333
963.10 0.9332
963.20 0.9331
963.30 0.9329
963.40 0.9328
963.50 0.9327
963.60 0.9325
963.70 0.9324
963.80 0.9323
963.90 0.9321
964.00 0.932
964.10 0.9319
964.20 0.9318
964.30 0.9316
964.40 0.9315
964.50 0.9314
964.60 0.9312
964.70 0.9311
964.80 0.931
964.90 0.9308
965.00 0.9307
965.10 0.9306
965.20 0.9304
965.30 0.9303
965.40 0.9302
965.50 0.93
965.60 0.9299
965.70 0.9298
965.80 0.9296
965.90 0.9295
966.00 0.9294
966.10 0.9292
966.20 0.9291
966.30 0.929
966.40 0.9289
966.50 0.9287
966.60 0.9286
966.70 0.9285
966.80 0.9283
966.90 0.9282
967.00 0.9281
967.10 0.9279
967.20 0.9278
967.30 0.9277
967.40 0.9275
967.50 0.9274
967.60 0.9273
967.70 0.9271
967.80 0.927
967.90 0.9269
968.00 0.9267
968.10 0.9266
968.20 0.9265
968.30 0.9264
968.40 0.9262
968.50 0.9261
968.60 0.926
968.70 0.9258
968.80 0.9257
968.90 0.9256
969.00 0.9254
969.10 0.9253
969.20 0.9252
969.30 0.925
969.40 0.9249
969.50 0.9248
969.60 0.9246
969.70 0.9245
969.80 0.9244
969.90 0.9242
970.00 0.9241
970.10 0.924
970.20 0.9238
970.30 0.9237
970.40 0.9236
970.50 0.9234
970.60 0.9233
970.70 0.9232
970.80 0.9231
970.90 0.9229
971.00 0.9228
971.10 0.9227
971.20 0.9225
971.30 0.9224
971.40 0.9223
971.50 0.9221
971.60 0.922
971.70 0.9219
971.80 0.9217
971.90 0.9216
972.00 0.9215
972.10 0.9213
972.20 0.9212
972.30 0.9211
972.40 0.921
972.50 0.9208
972.60 0.9207
972.70 0.9206
972.80 0.9204
972.90 0.9203
973.00 0.9202
973.10 0.92
973.20 0.9199
973.30 0.9198
973.40 0.9196
973.50 0.9195
973.60 0.9194
973.70 0.9192
973.80 0.9191
973.90 0.919
974.00 0.9189
974.10 0.9187
974.20 0.9186
974.30 0.9185
974.40 0.9183
974.50 0.9182
974.60 0.9181
974.70 0.9179
974.80 0.9178
974.90 0.9177
975.00 0.9175
975.10 0.9174
975.20 0.9173
975.30 0.9171
975.40 0.917
975.50 0.9169
975.60 0.9167
975.70 0.9166
975.80 0.9165
975.90 0.9163
976.00 0.9162
976.10 0.9161
976.20 0.9159
976.30 0.9158
976.40 0.9157
976.50 0.9156
976.60 0.9154
976.70 0.9153
976.80 0.9152
976.90 0.915
977.00 0.9149
977.10 0.9148
977.20 0.9146
977.30 0.9145
977.40 0.9144
977.50 0.9142
977.60 0.9141
977.70 0.914
977.80 0.9138
977.90 0.9137
978.00 0.9136
978.10 0.9134
978.20 0.9133
978.30 0.9132
978.40 0.9131
978.50 0.9129
978.60 0.9128
978.70 0.9127
978.80 0.9125
978.90 0.9124
979.00 0.9123
979.10 0.9121
979.20 0.912
979.30 0.9119
979.40 0.9117
979.50 0.9116
979.60 0.9115
979.70 0.9113
979.80 0.9112
979.90 0.9111
980.00 0.911
980.10 0.9108
980.20 0.9107
980.30 0.9106
980.40 0.9104
980.50 0.9103
980.60 0.9102
980.70 0.91
980.80 0.9099
980.90 0.9098
981.00 0.9096
981.10 0.9095
981.20 0.9094
981.30 0.9093
981.40 0.9091
981.50 0.909
981.60 0.9089
981.70 0.9087
981.80 0.9086
981.90 0.9085
982.00 0.9083
982.10 0.9082
982.20 0.9081
982.30 0.9079
982.40 0.9078
982.50 0.9077
982.60 0.9076
982.70 0.9074
982.80 0.9073
982.90 0.9072
983.00 0.907
983.10 0.9069
983.20 0.9068
983.30 0.9066
983.40 0.9065
983.50 0.9064
983.60 0.9062
983.70 0.9061
983.80 0.906
983.90 0.9059
984.00 0.9057
984.10 0.9056
984.20 0.9055
984.30 0.9053
984.40 0.9052
984.50 0.9051
984.60 0.9049
984.70 0.9048
984.80 0.9047
984.90 0.9045
985.00 0.9044
985.10 0.9043
985.20 0.9041
985.30 0.904
985.40 0.9039
985.50 0.9038
985.60 0.9036
985.70 0.9035
985.80 0.9034
985.90 0.9032
986.00 0.9031
986.10 0.903
986.20 0.9028
986.30 0.9027
986.40 0.9026
986.50 0.9024
986.60 0.9023
986.70 0.9022
986.80 0.9021
986.90 0.9019
987.00 0.9018
987.10 0.9017
987.20 0.9015
987.30 0.9014
987.40 0.9013
987.50 0.9011
987.60 0.901
987.70 0.9009
987.80 0.9007
987.90 0.9006
988.00 0.9005
988.10 0.9004
988.20 0.9002
988.30 0.9001
988.40 0.9
988.50 0.8998
988.60 0.8997
988.70 0.8996
988.80 0.8994
988.90 0.8993
989.00 0.8992
989.10 0.899
989.20 0.8989
989.30 0.8988
989.40 0.8987
989.50 0.8985
989.60 0.8984
989.70 0.8983
989.80 0.8981
989.90 0.898
990.00 0.8979
990.10 0.8977
990.20 0.8976
990.30 0.8975
990.40 0.8974
990.50 0.8972
990.60 0.8971
990.70 0.897
990.80 0.8968
990.90 0.8967
991.00 0.8966
991.10 0.8964
991.20 0.8963
991.30 0.8962
991.40 0.896
991.50 0.8959
991.60 0.8958
991.70 0.8956
991.80 0.8955
991.90 0.8954
992.00 0.8953
992.10 0.8951
992.20 0.895
992.30 0.8949
992.40 0.8947
992.50 0.8946
992.60 0.8945
992.70 0.8943
992.80 0.8942
992.90 0.8941
993.00 0.8939
993.10 0.8938
993.20 0.8937
993.30 0.8936
993.40 0.8934
993.50 0.8933
993.60 0.8932
993.70 0.893
993.80 0.8929
993.90 0.8928
994.00 0.8926
994.10 0.8925
994.20 0.8924
994.30 0.8923
994.40 0.8921
994.50 0.892
994.60 0.8919
994.70 0.8917
994.80 0.8916
994.90 0.8915
995.00 0.8913
995.10 0.8912
995.20 0.8911
995.30 0.891
995.40 0.8908
995.50 0.8907
995.60 0.8906
995.70 0.8904
995.80 0.8903
995.90 0.8902
996.00 0.89
996.10 0.8899
996.20 0.8898
996.30 0.8897
996.40 0.8895
996.50 0.8894
996.60 0.8893
996.70 0.8891
996.80 0.889
996.90 0.8889
997.00 0.8887
997.10 0.8886
997.20 0.8885
997.30 0.8883
997.40 0.8882
997.50 0.8881
997.60 0.8879
997.70 0.8878
997.80 0.8877
997.90 0.8876
998.00 0.8874
998.10 0.8873
998.20 0.8872
998.30 0.887
998.40 0.8869
998.50 0.8868
998.60 0.8866
998.70 0.8865
998.80 0.8864
998.90 0.8863
999.00 0.8861
999.10 0.886
999.20 0.8859
999.30 0.8857
999.40 0.8856
999.50 0.8855
999.60 0.8853
999.70 0.8852
999.80 0.8851
999.90 0.885
1000.00 0.8848
1000.10 0.8847
1000.20 0.8846
1000.30 0.8844
1000.40 0.8843
1000.50 0.8842
1000.60 0.8841
1000.70 0.8839
1000.80 0.8838
1000.90 0.8837
1001.00 0.8835
1001.10 0.8834
1001.20 0.8833
1001.30 0.8831
1001.40 0.883
1001.50 0.8829
1001.60 0.8828
1001.70 0.8826
1001.80 0.8825
1001.90 0.8824
1002.00 0.8822
1002.10 0.8821
1002.20 0.882
1002.30 0.8819
1002.40 0.8817
1002.50 0.8816
1002.60 0.8815
1002.70 0.8813
1002.80 0.8812
1002.90 0.8811
1003.00 0.8809
1003.10 0.8808
1003.20 0.8807
1003.30 0.8806
1003.40 0.8804
1003.50 0.8803
1003.60 0.8802
1003.70 0.88
1003.80 0.8799
1003.90 0.8798
1004.00 0.8797
1004.10 0.8795
1004.20 0.8794
1004.30 0.8793
1004.40 0.8791
1004.50 0.879
1004.60 0.8788
1004.70 0.8787
1004.80 0.8786
1004.90 0.8785
1005.00 0.8783
1005.10 0.8782
1005.20 0.8781
1005.30 0.878
1005.40 0.8778
1005.50 0.8777
1005.60 0.8776
1005.70 0.8774
1005.80 0.8773
1005.90 0.8772
1006.00 0.8771
1006.10 0.8769
1006.20 0.8768
1006.30 0.8767
1006.40 0.8765
1006.50 0.8764
1006.60 0.8763
1006.70 0.8761
1006.80 0.876
1006.90 0.8759
1007.00 0.8758
1007.10 0.8756
1007.20 0.8755
1007.30 0.8754
1007.40 0.8752
1007.50 0.8751
1007.60 0.875
1007.70 0.8749
1007.80 0.8747
1007.90 0.8746
1008.00 0.8745
1008.10 0.8743
1008.20 0.8742
1008.30 0.8741
1008.40 0.874
1008.50 0.8738
1008.60 0.8737
1008.70 0.8736
1008.80 0.8734
1008.90 0.8733
1009.00 0.8732
1009.10 0.8731
1009.20 0.8729
1009.30 0.8728
1009.40 0.8727
1009.50 0.8726
1009.60 0.8724
1009.70 0.8723
1009.80 0.8722
1009.90 0.872
1010.00 0.8719
1010.10 0.8718
1010.20 0.8716
1010.30 0.8715
1010.40 0.8714
1010.50 0.8713
1010.60 0.8711
1010.70 0.871
1010.80 0.8709
1010.90 0.8707
1011.00 0.8706
1011.10 0.8705
1011.20 0.8703
1011.30 0.8702
1011.40 0.8701
1011.50 0.87
1011.60 0.8698
1011.70 0.8697
1011.80 0.8696
1011.90 0.8695
1012.00 0.8693
1012.10 0.8692
1012.20 0.8691
1012.30 0.8689
1012.40 0.8688
1012.50 0.8687
1012.60 0.8685
1012.70 0.8684
1012.80 0.8683
1012.90 0.8682
1013.00 0.868
1013.10 0.8679
1013.20 0.8678
1013.30 0.8676
1013.40 0.8675
1013.50 0.8674
1013.60 0.8672
1013.70 0.8671
1013.80 0.867
1013.90 0.8669
1014.00 0.8667
1014.10 0.8666
1014.20 0.8665
1014.30 0.8663
1014.40 0.8662
1014.50 0.8661
1014.60 0.866
1014.70 0.8658
1014.80 0.8657
1014.90 0.8656
1015.00 0.8654
1015.10 0.8653
1015.20 0.8652
1015.30 0.8651
1015.40 0.8649
1015.50 0.8648
1015.60 0.8647
1015.70 0.8646
1015.80 0.8644
1015.90 0.8643
1016.00 0.8642
1016.10 0.864
1016.20 0.8639
1016.30 0.8638
1016.40 0.8637
1016.50 0.8635
1016.60 0.8634
1016.70 0.8633
1016.80 0.8631
1016.90 0.863
1017.00 0.8629
1017.10 0.8628
1017.20 0.8626
1017.30 0.8625
1017.40 0.8624
1017.50 0.8622
1017.60 0.8621
1017.70 0.862
1017.80 0.8619
1017.90 0.8617
1018.00 0.8616
1018.10 0.8615
1018.20 0.8613
1018.30 0.8612
1018.40 0.8611
1018.50 0.861
1018.60 0.8608
1018.70 0.8607
1018.80 0.8606
1018.90 0.8604
1019.00 0.8603
1019.10 0.8602
1019.20 0.8601
1019.30 0.8599
1019.40 0.8598
1019.50 0.8597
1019.60 0.8595
1019.70 0.8594
1019.80 0.8593
1019.90 0.8592
1020.00 0.859
1020.10 0.8589
1020.20 0.8588
1020.30 0.8587
1020.40 0.8585
1020.50 0.8584
1020.60 0.8583
1020.70 0.8581
1020.80 0.858
1020.90 0.8579
1021.00 0.8578
1021.10 0.8576
1021.20 0.8575
1021.30 0.8574
1021.40 0.8573
1021.50 0.8571
1021.60 0.857
1021.70 0.8569
1021.80 0.8567
1021.90 0.8566
1022.00 0.8565
1022.10 0.8564
1022.20 0.8562
1022.30 0.8561
1022.40 0.856
1022.50 0.8559
1022.60 0.8557
1022.70 0.8556
1022.80 0.8555
1022.90 0.8553
1023.00 0.8552
1023.10 0.8551
1023.20 0.855
1023.30 0.8548
1023.40 0.8547
1023.50 0.8546
1023.60 0.8544
1023.70 0.8543
1023.80 0.8542
1023.90 0.8541
1024.00 0.8539
1024.10 0.8538
1024.20 0.8537
1024.30 0.8536
1024.40 0.8534
1024.50 0.8533
1024.60 0.8532
1024.70 0.853
1024.80 0.8529
1024.90 0.8528
1025.00 0.8527
1025.10 0.8525
1025.20 0.8524
1025.30 0.8523
1025.40 0.8522
1025.50 0.852
1025.60 0.8519
1025.70 0.8518
1025.80 0.8516
1025.90 0.8515
1026.00 0.8514
1026.10 0.8513
1026.20 0.8511
1026.30 0.851
1026.40 0.8509
1026.50 0.8508
1026.60 0.8506
1026.70 0.8505
1026.80 0.8504
1026.90 0.8502
1027.00 0.8501
1027.10 0.85
1027.20 0.8499
1027.30 0.8497
1027.40 0.8496
1027.50 0.8495
1027.60 0.8494
1027.70 0.8492
1027.80 0.8491
1027.90 0.849
1028.00 0.8488
1028.10 0.8487
1028.20 0.8486
1028.30 0.8485
1028.40 0.8483
1028.50 0.8482
1028.60 0.8481
1028.70 0.848
1028.80 0.8478
1028.90 0.8477
1029.00 0.8476
1029.10 0.8474
1029.20 0.8473
1029.30 0.8472
1029.40 0.8471
1029.50 0.8469
1029.60 0.8468
1029.70 0.8467
1029.80 0.8466
1029.90 0.8464
1030.00 0.8463
1030.10 0.8462
1030.20 0.8461
1030.30 0.8459
1030.40 0.8458
1030.50 0.8457
1030.60 0.8455
1030.70 0.8454
1030.80 0.8453
1030.90 0.8452
1031.00 0.845
1031.10 0.8449
1031.20 0.8448
1031.30 0.8447
1031.40 0.8445
1031.50 0.8444
1031.60 0.8443
1031.70 0.8442
1031.80 0.844
1031.90 0.8439
1032.00 0.8438
1032.10 0.8437
1032.20 0.8435
1032.30 0.8434
1032.40 0.8433
1032.50 0.8431
1032.60 0.843
1032.70 0.8429
1032.80 0.8428
1032.90 0.8426
1033.00 0.8425
1033.10 0.8424
1033.20 0.8423
1033.30 0.8421
1033.40 0.842
1033.50 0.8419
1033.60 0.8417
1033.70 0.8416
1033.80 0.8415
1033.90 0.8414
1034.00 0.8412
1034.10 0.8411
1034.20 0.841
1034.30 0.8409
1034.40 0.8407
1034.50 0.8406
1034.60 0.8405
1034.70 0.8404
1034.80 0.8402
1034.90 0.8401
1035.00 0.84
1035.10 0.8398
1035.20 0.8397
1035.30 0.8396
1035.40 0.8395
1035.50 0.8393
1035.60 0.8392
1035.70 0.8391
1035.80 0.839
1035.90 0.8388
1036.00 0.8387
1036.10 0.8386
1036.20 0.8385
1036.30 0.8383
1036.40 0.8382
1036.50 0.8381
1036.60 0.838
1036.70 0.8378
1036.80 0.8377
1036.90 0.8376
1037.00 0.8375
1037.10 0.8373
1037.20 0.8372
1037.30 0.8371
1037.40 0.8369
1037.50 0.8368
1037.60 0.8367
1037.70 0.8366
1037.80 0.8364
1037.90 0.8363
1038.00 0.8362
1038.10 0.8361
1038.20 0.8359
1038.30 0.8358
1038.40 0.8357
1038.50 0.8356
1038.60 0.8354
1038.70 0.8353
1038.80 0.8352
1038.90 0.8351
1039.00 0.8349
1039.10 0.8348
1039.20 0.8347
1039.30 0.8346
1039.40 0.8344
1039.50 0.8343
1039.60 0.8342
1039.70 0.8341
1039.80 0.8339
1039.90 0.8338
1040.00 0.8337
1040.10 0.8336
1040.20 0.8334
1040.30 0.8333
1040.40 0.8332
1040.50 0.8331
1040.60 0.8329
1040.70 0.8328
1040.80 0.8327
1040.90 0.8326
1041.00 0.8324
1041.10 0.8323
1041.20 0.8322
1041.30 0.8321
1041.40 0.8319
1041.50 0.8318
1041.60 0.8317
1041.70 0.8316
1041.80 0.8314
1041.90 0.8313
1042.00 0.8312
1042.10 0.8311
1042.20 0.8309
1042.30 0.8308
1042.40 0.8307
1042.50 0.8306
1042.60 0.8304
1042.70 0.8303
1042.80 0.8302
1042.90 0.8301
1043.00 0.8299
1043.10 0.8298
1043.20 0.8297
1043.30 0.8296
1043.40 0.8294
1043.50 0.8293
1043.60 0.8292
1043.70 0.8291
1043.80 0.8289
1043.90 0.8288
1044.00 0.8287
1044.10 0.8286
1044.20 0.8284
1044.30 0.8283
1044.40 0.8282
1044.50 0.8281
1044.60 0.8279
1044.70 0.8278
1044.80 0.8277
1044.90 0.8276
1045.00 0.8274
1045.10 0.8273
1045.20 0.8272
1045.30 0.8271
1045.40 0.8269
1045.50 0.8268
1045.60 0.8267
1045.70 0.8266
1045.80 0.8264
1045.90 0.8263
1046.00 0.8262
1046.10 0.8261
1046.20 0.8259
1046.30 0.8258
1046.40 0.8257
1046.50 0.8256
1046.60 0.8254
1046.70 0.8253
1046.80 0.8252
1046.90 0.8251
1047.00 0.8249
1047.10 0.8248
1047.20 0.8247
1047.30 0.8246
1047.40 0.8244
1047.50 0.8243
1047.60 0.8242
1047.70 0.8241
1047.80 0.8239
1047.90 0.8238
1048.00 0.8237
1048.10 0.8236
1048.20 0.8235
1048.30 0.8233
1048.40 0.8232
1048.50 0.8231
1048.60 0.823
1048.70 0.8228
1048.80 0.8227
1048.90 0.8226
1049.00 0.8225
1049.10 0.8223
1049.20 0.8222
1049.30 0.8221
1049.40 0.822
1049.50 0.8218
1049.60 0.8217
1049.70 0.8216
1049.80 0.8215
1049.90 0.8213
1050.00 0.8212
1050.10 0.8211
1050.20 0.821
1050.30 0.8208
1050.40 0.8207
1050.50 0.8206
1050.60 0.8205
1050.70 0.8203
1050.80 0.8202
1050.90 0.8201
1051.00 0.82
1051.10 0.8199
1051.20 0.8197
1051.30 0.8196
1051.40 0.8195
1051.50 0.8194
1051.60 0.8192
1051.70 0.8191
1051.80 0.819
1051.90 0.8189
1052.00 0.8187
1052.10 0.8186
1052.20 0.8185
1052.30 0.8184
1052.40 0.8183
1052.50 0.8181
1052.60 0.818
1052.70 0.8179
1052.80 0.8178
1052.90 0.8176
1053.00 0.8175
1053.10 0.8174
1053.20 0.8173
1053.30 0.8171
1053.40 0.817
1053.50 0.8169
1053.60 0.8168
1053.70 0.8166
1053.80 0.8165
1053.90 0.8164
1054.00 0.8163
1054.10 0.8162
1054.20 0.816
1054.30 0.8159
1054.40 0.8158
1054.50 0.8157
1054.60 0.8155
1054.70 0.8154
1054.80 0.8153
1054.90 0.8152
1055.00 0.815
1055.10 0.8149
1055.20 0.8148
1055.30 0.8147
1055.40 0.8146
1055.50 0.8144
1055.60 0.8143
1055.70 0.8142
1055.80 0.8141
1055.90 0.8139
1056.00 0.8138
1056.10 0.8137
1056.20 0.8136
1056.30 0.8135
1056.40 0.8133
1056.50 0.8132
1056.60 0.8131
1056.70 0.813
1056.80 0.8128
1056.90 0.8127
1057.00 0.8126
1057.10 0.8125
1057.20 0.8124
1057.30 0.8122
1057.40 0.8121
1057.50 0.812
1057.60 0.8119
1057.70 0.8117
1057.80 0.8116
1057.90 0.8115
1058.00 0.8114
1058.10 0.8112
1058.20 0.8111
1058.30 0.811
1058.40 0.8109
1058.50 0.8108
1058.60 0.8106
1058.70 0.8105
1058.80 0.8104
1058.90 0.8103
1059.00 0.8101
1059.10 0.81
1059.20 0.8099
1059.30 0.8098
1059.40 0.8096
1059.50 0.8095
1059.60 0.8094
1059.70 0.8093
1059.80 0.8092
1059.90 0.809
1060.00 0.8089
1060.10 0.8088
1060.20 0.8087
1060.30 0.8085
1060.40 0.8084
1060.50 0.8083
1060.60 0.8082
1060.70 0.8081
1060.80 0.8079
1060.90 0.8078
1061.00 0.8077
1061.10 0.8076
1061.20 0.8074
1061.30 0.8073
1061.40 0.8072
1061.50 0.8071
1061.60 0.807
1061.70 0.8068
1061.80 0.8067
1061.90 0.8066
1062.00 0.8065
1062.10 0.8063
1062.20 0.8062
1062.30 0.8061
1062.40 0.806
1062.50 0.8059
1062.60 0.8057
1062.70 0.8056
1062.80 0.8055
1062.90 0.8054
1063.00 0.8052
1063.10 0.8051
1063.20 0.805
1063.30 0.8049
1063.40 0.8048
1063.50 0.8046
1063.60 0.8045
1063.70 0.8044
1063.80 0.8043
1063.90 0.8041
1064.00 0.804
1064.10 0.8039
1064.20 0.8038
1064.30 0.8037
1064.40 0.8035
1064.50 0.8034
1064.60 0.8033
1064.70 0.8032
1064.80 0.8031
1064.90 0.8029
1065.00 0.8028
1065.10 0.8027
1065.20 0.8026
1065.30 0.8024
1065.40 0.8023
1065.50 0.8022
1065.60 0.8021
1065.70 0.802
1065.80 0.8018
1065.90 0.8017
1066.00 0.8016
1066.10 0.8015
1066.20 0.8014
1066.30 0.8012
1066.40 0.8011
1066.50 0.801
1066.60 0.8009
1066.70 0.8008
1066.80 0.8006
1066.90 0.8005
1067.00 0.8004
1067.10 0.8003
1067.20 0.8001
1067.30 0.8
1067.40 0.7999
1067.50 0.7998
1067.60 0.7997
1067.70 0.7995
1067.80 0.7994
1067.90 0.7993
1068.00 0.7992
1068.10 0.7991
1068.20 0.7989
1068.30 0.7988
1068.40 0.7987
1068.50 0.7986
1068.60 0.7985
1068.70 0.7983
1068.80 0.7982
1068.90 0.7981
1069.00 0.798
1069.10 0.7979
1069.20 0.7977
1069.30 0.7976
1069.40 0.7975
1069.50 0.7974
1069.60 0.7972
1069.70 0.7971
1069.80 0.797
1069.90 0.7969
1070.00 0.7968
1070.10 0.7966
1070.20 0.7965
1070.30 0.7964
1070.40 0.7963
1070.50 0.7962
1070.60 0.796
1070.70 0.7959
1070.80 0.7958
1070.90 0.7957
1071.00 0.7956
1071.10 0.7954
1071.20 0.7953
1071.30 0.7952
1071.40 0.7951
1071.50 0.795
1071.60 0.7948
1071.70 0.7947
1071.80 0.7946
1071.90 0.7945
1072.00 0.7944
1072.10 0.7942
1072.20 0.7941
1072.30 0.794
1072.40 0.7939
1072.50 0.7938
1072.60 0.7936
1072.70 0.7935
1072.80 0.7934
1072.90 0.7933
1073.00 0.7932
1073.10 0.793
1073.20 0.7929
1073.30 0.7928
1073.40 0.7927
1073.50 0.7926
1073.60 0.7924
1073.70 0.7923
1073.80 0.7922
1073.90 0.7921
1074.00 0.792
1074.10 0.7918
1074.20 0.7917
1074.30 0.7916
1074.40 0.7915
1074.50 0.7914
1074.60 0.7912
1074.70 0.7911
1074.80 0.791
1074.90 0.7909
1075.00 0.7908
1075.10 0.7906
1075.20 0.7905
1075.30 0.7904
1075.40 0.7903
1075.50 0.7902
1075.60 0.79
1075.70 0.7899
1075.80 0.7898
1075.90 0.7897
1076.00 0.7896
1076.10 0.7894
1076.20 0.7893
1076.30 0.7892
1076.40 0.7891
1076.50 0.789
1076.60 0.7888
1076.70 0.7887
1076.80 0.7886
1076.90 0.7885
1077.00 0.7884
1077.10 0.7882
1077.20 0.7881
1077.30 0.788
1077.40 0.7879
1077.50 0.7878
1077.60 0.7876
1077.70 0.7875
1077.80 0.7874
1077.90 0.7873
1078.00 0.7872
1078.10 0.7871
1078.20 0.7869
1078.30 0.7868
1078.40 0.7867
1078.50 0.7866
1078.60 0.7865
1078.70 0.7863
1078.80 0.7862
1078.90 0.7861
1079.00 0.786
1079.10 0.7859
1079.20 0.7857
1079.30 0.7856
1079.40 0.7855
1079.50 0.7854
1079.60 0.7853
1079.70 0.7851
1079.80 0.785
1079.90 0.7849
1080.00 0.7848
1080.10 0.7847
1080.20 0.7845
1080.30 0.7844
1080.40 0.7843
1080.50 0.7842
1080.60 0.7841
1080.70 0.7839
1080.80 0.7838
1080.90 0.7837
1081.00 0.7836
1081.10 0.7835
1081.20 0.7833
1081.30 0.7832
1081.40 0.7831
1081.50 0.783
1081.60 0.7829
1081.70 0.7828
1081.80 0.7826
1081.90 0.7825
1082.00 0.7824
1082.10 0.7823
1082.20 0.7822
1082.30 0.782
1082.40 0.7819
1082.50 0.7818
1082.60 0.7817
1082.70 0.7816
1082.80 0.7815
1082.90 0.7813
1083.00 0.7812
1083.10 0.7811
1083.20 0.781
1083.30 0.7809
1083.40 0.7807
1083.50 0.7806
1083.60 0.7805
1083.70 0.7804
1083.80 0.7803
1083.90 0.7801
1084.00 0.78
1084.10 0.7799
1084.20 0.7798
1084.30 0.7797
1084.40 0.7795
1084.50 0.7794
1084.60 0.7793
1084.70 0.7792
1084.80 0.7791
1084.90 0.7789
1085.00 0.7788
1085.10 0.7787
1085.20 0.7786
1085.30 0.7785
1085.40 0.7784
1085.50 0.7782
1085.60 0.7781
1085.70 0.778
1085.80 0.7779
1085.90 0.7778
1086.00 0.7776
1086.10 0.7775
1086.20 0.7774
1086.30 0.7773
1086.40 0.7772
1086.50 0.7771
1086.60 0.7769
1086.70 0.7768
1086.80 0.7767
1086.90 0.7766
1087.00 0.7765
1087.10 0.7763
1087.20 0.7762
1087.30 0.7761
1087.40 0.776
1087.50 0.7759
1087.60 0.7758
1087.70 0.7756
1087.80 0.7755
1087.90 0.7754
1088.00 0.7753
1088.10 0.7752
1088.20 0.775
1088.30 0.7749
1088.40 0.7748
1088.50 0.7747
1088.60 0.7746
1088.70 0.7745
1088.80 0.7743
1088.90 0.7742
1089.00 0.7741
1089.10 0.774
1089.20 0.7739
1089.30 0.7738
1089.40 0.7736
1089.50 0.7735
1089.60 0.7734
1089.70 0.7733
1089.80 0.7732
1089.90 0.7731
1090.00 0.7729
1090.10 0.7728
1090.20 0.7727
1090.30 0.7726
1090.40 0.7725
1090.50 0.7724
1090.60 0.7722
1090.70 0.7721
1090.80 0.772
1090.90 0.7719
1091.00 0.7718
1091.10 0.7716
1091.20 0.7715
1091.30 0.7714
1091.40 0.7713
1091.50 0.7712
1091.60 0.771
1091.70 0.7709
1091.80 0.7708
1091.90 0.7707
1092.00 0.7706
1092.10 0.7705
1092.20 0.7704
1092.30 0.7702
1092.40 0.7701
1092.50 0.77
1092.60 0.7699
1092.70 0.7698
1092.80 0.7696
1092.90 0.7695
1093.00 0.7694
1093.10 0.7693
1093.20 0.7692
1093.30 0.7691
1093.40 0.7689
1093.50 0.7688
1093.60 0.7687
1093.70 0.7686
1093.80 0.7685
1093.90 0.7684
1094.00 0.7682
1094.10 0.7681
1094.20 0.768
1094.30 0.7679
1094.40 0.7678
1094.50 0.7677
1094.60 0.7675
1094.70 0.7674
1094.80 0.7673
1094.90 0.7672
1095.00 0.7671
1095.10 0.7669
1095.20 0.7668
1095.30 0.7667
1095.40 0.7666
1095.50 0.7665
1095.60 0.7664
1095.70 0.7662
1095.80 0.7661
1095.90 0.766
1096.00 0.7659
1096.10 0.7658
1096.20 0.7657
1096.30 0.7655
1096.40 0.7654
1096.50 0.7653
1096.60 0.7652
1096.70 0.7651
1096.80 0.765
1096.90 0.7648
1097.00 0.7647
1097.10 0.7646
1097.20 0.7645
1097.30 0.7644
1097.40 0.7643
1097.50 0.7642
1097.60 0.764
1097.70 0.7639
1097.80 0.7638
1097.90 0.7637
1098.00 0.7636
1098.10 0.7635
1098.20 0.7633
1098.30 0.7632
1098.40 0.7631
1098.50 0.763
1098.60 0.7629
1098.70 0.7628
1098.80 0.7626
1098.90 0.7625
1099.00 0.7624
1099.10 0.7623
1099.20 0.7622
1099.30 0.7621
1099.40 0.7619
1099.50 0.7618
1099.60 0.7617
1099.70 0.7616
1099.80 0.7615
1099.90 0.7614
1100.00 0.7612
1100.10 0.7611
1100.20 0.761
1100.30 0.7609
1100.40 0.7608
1100.50 0.7607
1100.60 0.7605
1100.70 0.7604
1100.80 0.7603
1100.90 0.7602
1101.00 0.7601
1101.10 0.76
1101.20 0.7599
1101.30 0.7597
1101.40 0.7596
1101.50 0.7595
1101.60 0.7594
1101.70 0.7593
1101.80 0.7592
1101.90 0.759
1102.00 0.7589
1102.10 0.7588
1102.20 0.7587
1102.30 0.7586
1102.40 0.7584
1102.50 0.7583
1102.60 0.7582
1102.70 0.7581
1102.80 0.758
1102.90 0.7579
1103.00 0.7578
1103.10 0.7576
1103.20 0.7575
1103.30 0.7574
1103.40 0.7573
1103.50 0.7572
1103.60 0.7571
1103.70 0.757
1103.80 0.7568
1103.90 0.7567
1104.00 0.7566
1104.10 0.7565
1104.20 0.7564
1104.30 0.7563
1104.40 0.7561
1104.50 0.756
1104.60 0.7559
1104.70 0.7558
1104.80 0.7557
1104.90 0.7556
1105.00 0.7554
1105.10 0.7553
1105.20 0.7552
1105.30 0.7551
1105.40 0.755
1105.50 0.7549
1105.60 0.7548
1105.70 0.7546
1105.80 0.7545
1105.90 0.7544
1106.00 0.7543
1106.10 0.7542
1106.20 0.7541
1106.30 0.7539
1106.40 0.7538
1106.50 0.7537
1106.60 0.7536
1106.70 0.7535
1106.80 0.7534
1106.90 0.7532
1107.00 0.7531
1107.10 0.753
1107.20 0.7529
1107.30 0.7528
1107.40 0.7527
1107.50 0.7526
1107.60 0.7524
1107.70 0.7523
1107.80 0.7522
1107.90 0.7521
1108.00 0.752
1108.10 0.7519
1108.20 0.7518
1108.30 0.7516
1108.40 0.7515
1108.50 0.7514
1108.60 0.7513
1108.70 0.7512
1108.80 0.7511
1108.90 0.751
1109.00 0.7508
1109.10 0.7507
1109.20 0.7506
1109.30 0.7505
1109.40 0.7504
1109.50 0.7503
1109.60 0.7502
1109.70 0.75
1109.80 0.7499
1109.90 0.7498
1110.00 0.7497
1110.10 0.7496
1110.20 0.7495
1110.30 0.7493
1110.40 0.7492
1110.50 0.7491
1110.60 0.749
1110.70 0.7489
1110.80 0.7488
1110.90 0.7487
1111.00 0.7485
1111.10 0.7484
1111.20 0.7483
1111.30 0.7482
1111.40 0.7481
1111.50 0.748
1111.60 0.7479
1111.70 0.7477
1111.80 0.7476
1111.90 0.7475
1112.00 0.7474
1112.10 0.7473
1112.20 0.7472
1112.30 0.747
1112.40 0.7469
1112.50 0.7468
1112.60 0.7467
1112.70 0.7466
1112.80 0.7465
1112.90 0.7464
1113.00 0.7462
1113.10 0.7461
1113.20 0.746
1113.30 0.7459
1113.40 0.7458
1113.50 0.7457
1113.60 0.7456
1113.70 0.7454
1113.80 0.7453
1113.90 0.7452
1114.00 0.7451
1114.10 0.745
1114.20 0.7449
1114.30 0.7448
1114.40 0.7446
1114.50 0.7445
1114.60 0.7444
1114.70 0.7443
1114.80 0.7442
1114.90 0.7441
1115.00 0.744
1115.10 0.7439
1115.20 0.7437
1115.30 0.7436
1115.40 0.7435
1115.50 0.7434
1115.60 0.7433
1115.70 0.7432
1115.80 0.7431
1115.90 0.7429
1116.00 0.7428
1116.10 0.7427
1116.20 0.7426
1116.30 0.7425
1116.40 0.7424
1116.50 0.7423
1116.60 0.7422
1116.70 0.742
1116.80 0.7419
1116.90 0.7418
1117.00 0.7417
1117.10 0.7416
1117.20 0.7415
1117.30 0.7414
1117.40 0.7412
1117.50 0.7411
1117.60 0.741
1117.70 0.7409
1117.80 0.7408
1117.90 0.7407
1118.00 0.7406
1118.10 0.7404
1118.20 0.7403
1118.30 0.7402
1118.40 0.7401
1118.50 0.74
1118.60 0.7399
1118.70 0.7398
1118.80 0.7396
1118.90 0.7395
1119.00 0.7394
1119.10 0.7393
1119.20 0.7392
1119.30 0.7391
1119.40 0.739
1119.50 0.7389
1119.60 0.7387
1119.70 0.7386
1119.80 0.7385
1119.90 0.7384
1120.00 0.7383
1120.10 0.7382
1120.20 0.7381
1120.30 0.7379
1120.40 0.7378
1120.50 0.7377
1120.60 0.7376
1120.70 0.7375
1120.80 0.7374
1120.90 0.7373
1121.00 0.7372
1121.10 0.737
1121.20 0.7369
1121.30 0.7368
1121.40 0.7367
1121.50 0.7366
1121.60 0.7365
1121.70 0.7364
1121.80 0.7362
1121.90 0.7361
1122.00 0.736
1122.10 0.7359
1122.20 0.7358
1122.30 0.7357
1122.40 0.7356
1122.50 0.7355
1122.60 0.7353
1122.70 0.7352
1122.80 0.7351
1122.90 0.735
1123.00 0.7349
1123.10 0.7348
1123.20 0.7347
1123.30 0.7346
1123.40 0.7344
1123.50 0.7343
1123.60 0.7342
1123.70 0.7341
1123.80 0.734
1123.90 0.7339
1124.00 0.7338
1124.10 0.7336
1124.20 0.7335
1124.30 0.7334
1124.40 0.7333
1124.50 0.7332
1124.60 0.7331
1124.70 0.733
1124.80 0.7329
1124.90 0.7327
1125.00 0.7326
1125.10 0.7325
1125.20 0.7324
1125.30 0.7323
1125.40 0.7322
1125.50 0.7321
1125.60 0.732
1125.70 0.7319
1125.80 0.7317
1125.90 0.7316
1126.00 0.7315
1126.10 0.7314
1126.20 0.7313
1126.30 0.7312
1126.40 0.7311
1126.50 0.731
1126.60 0.7308
1126.70 0.7307
1126.80 0.7306
1126.90 0.7305
1127.00 0.7304
1127.10 0.7303
1127.20 0.7302
1127.30 0.7301
1127.40 0.7299
1127.50 0.7298
1127.60 0.7297
1127.70 0.7296
1127.80 0.7295
1127.90 0.7294
1128.00 0.7293
1128.10 0.7292
1128.20 0.729
1128.30 0.7289
1128.40 0.7288
1128.50 0.7287
1128.60 0.7286
1128.70 0.7285
1128.80 0.7284
1128.90 0.7283
1129.00 0.7281
1129.10 0.728
1129.20 0.7279
1129.30 0.7278
1129.40 0.7277
1129.50 0.7276
1129.60 0.7275
1129.70 0.7274
1129.80 0.7273
1129.90 0.7271
1130.00 0.727
1130.10 0.7269
1130.20 0.7268
1130.30 0.7267
1130.40 0.7266
1130.50 0.7265
1130.60 0.7264
1130.70 0.7262
1130.80 0.7261
1130.90 0.726
1131.00 0.7259
1131.10 0.7258
1131.20 0.7257
1131.30 0.7256
1131.40 0.7255
1131.50 0.7254
1131.60 0.7252
1131.70 0.7251
1131.80 0.725
1131.90 0.7249
1132.00 0.7248
1132.10 0.7247
1132.20 0.7246
1132.30 0.7245
1132.40 0.7243
1132.50 0.7242
1132.60 0.7241
1132.70 0.724
1132.80 0.7239
1132.90 0.7238
1133.00 0.7237
1133.10 0.7236
1133.20 0.7235
1133.30 0.7233
1133.40 0.7232
1133.50 0.7231
1133.60 0.723
1133.70 0.7229
1133.80 0.7228
1133.90 0.7227
1134.00 0.7226
1134.10 0.7224
1134.20 0.7223
1134.30 0.7222
1134.40 0.7221
1134.50 0.722
1134.60 0.7219
1134.70 0.7218
1134.80 0.7217
1134.90 0.7216
1135.00 0.7214
1135.10 0.7213
1135.20 0.7212
1135.30 0.7211
1135.40 0.721
1135.50 0.7209
1135.60 0.7208
1135.70 0.7207
1135.80 0.7206
1135.90 0.7204
1136.00 0.7203
1136.10 0.7202
1136.20 0.7201
1136.30 0.72
1136.40 0.7199
1136.50 0.7198
1136.60 0.7197
1136.70 0.7196
1136.80 0.7194
1136.90 0.7193
1137.00 0.7192
1137.10 0.7191
1137.20 0.719
1137.30 0.7189
1137.40 0.7188
1137.50 0.7187
1137.60 0.7186
1137.70 0.7185
1137.80 0.7183
1137.90 0.7182
1138.00 0.7181
1138.10 0.718
1138.20 0.7179
1138.30 0.7178
1138.40 0.7177
1138.50 0.7176
1138.60 0.7175
1138.70 0.7173
1138.80 0.7172
1138.90 0.7171
1139.00 0.717
1139.10 0.7169
1139.20 0.7168
1139.30 0.7167
1139.40 0.7166
1139.50 0.7165
1139.60 0.7164
1139.70 0.7162
1139.80 0.7161
1139.90 0.716
1140.00 0.7159
1140.10 0.7158
1140.20 0.7157
1140.30 0.7156
1140.40 0.7155
1140.50 0.7154
1140.60 0.7152
1140.70 0.7151
1140.80 0.715
1140.90 0.7149
1141.00 0.7148
1141.10 0.7147
1141.20 0.7146
1141.30 0.7145
1141.40 0.7144
1141.50 0.7143
1141.60 0.7141
1141.70 0.714
1141.80 0.7139
1141.90 0.7138
1142.00 0.7137
1142.10 0.7136
1142.20 0.7135
1142.30 0.7134
1142.40 0.7133
1142.50 0.7132
1142.60 0.713
1142.70 0.7129
1142.80 0.7128
1142.90 0.7127
1143.00 0.7126
1143.10 0.7125
1143.20 0.7124
1143.30 0.7123
1143.40 0.7122
1143.50 0.7121
1143.60 0.7119
1143.70 0.7118
1143.80 0.7117
1143.90 0.7116
1144.00 0.7115
1144.10 0.7114
1144.20 0.7113
1144.30 0.7112
1144.40 0.7111
1144.50 0.7109
1144.60 0.7108
1144.70 0.7107
1144.80 0.7106
1144.90 0.7105
1145.00 0.7104
1145.10 0.7103
1145.20 0.7102
1145.30 0.7101
1145.40 0.71
1145.50 0.7098
1145.60 0.7097
1145.70 0.7096
1145.80 0.7095
1145.90 0.7094
1146.00 0.7093
1146.10 0.7092
1146.20 0.7091
1146.30 0.709
1146.40 0.7089
1146.50 0.7088
1146.60 0.7086
1146.70 0.7085
1146.80 0.7084
1146.90 0.7083
1147.00 0.7082
1147.10 0.7081
1147.20 0.708
1147.30 0.7079
1147.40 0.7078
1147.50 0.7077
1147.60 0.7075
1147.70 0.7074
1147.80 0.7073
1147.90 0.7072
1148.00 0.7071
1148.10 0.707
1148.20 0.7069
1148.30 0.7068
1148.40 0.7067
1148.50 0.7066
1148.60 0.7064
1148.70 0.7063
1148.80 0.7062
1148.90 0.7061
1149.00 0.706
1149.10 0.7059
1149.20 0.7058
1149.30 0.7057
1149.40 0.7056
1149.50 0.7055
1149.60 0.7054
1149.70 0.7052
1149.80 0.7051
1149.90 0.705
1150.00 0.7049
1150.10 0.7048
1150.20 0.7047
1150.30 0.7046
1150.40 0.7045
1150.50 0.7044
1150.60 0.7043
1150.70 0.7042
1150.80 0.704
1150.90 0.7039
1151.00 0.7038
1151.10 0.7037
1151.20 0.7036
1151.30 0.7035
1151.40 0.7034
1151.50 0.7033
1151.60 0.7032
1151.70 0.7031
1151.80 0.703
1151.90 0.7029
1152.00 0.7027
1152.10 0.7026
1152.20 0.7025
1152.30 0.7024
1152.40 0.7023
1152.50 0.7022
1152.60 0.7021
1152.70 0.702
1152.80 0.7019
1152.90 0.7018
1153.00 0.7017
1153.10 0.7015
1153.20 0.7014
1153.30 0.7013
1153.40 0.7012
1153.50 0.7011
1153.60 0.701
1153.70 0.7009
1153.80 0.7008
1153.90 0.7007
1154.00 0.7006
1154.10 0.7005
1154.20 0.7003
1154.30 0.7002
1154.40 0.7001
1154.50 0.7
1154.60 0.6999
1154.70 0.6998
1154.80 0.6997
1154.90 0.6996
1155.00 0.6995
1155.10 0.6994
1155.20 0.6993
1155.30 0.6992
1155.40 0.699
1155.50 0.6989
1155.60 0.6988
1155.70 0.6987
1155.80 0.6986
1155.90 0.6985
1156.00 0.6984
1156.10 0.6983
1156.20 0.6982
1156.30 0.6981
1156.40 0.698
1156.50 0.6979
1156.60 0.6977
1156.70 0.6976
1156.80 0.6975
1156.90 0.6974
1157.00 0.6973
1157.10 0.6972
1157.20 0.6971
1157.30 0.697
1157.40 0.6969
1157.50 0.6968
1157.60 0.6967
1157.70 0.6966
1157.80 0.6965
1157.90 0.6963
1158.00 0.6962
1158.10 0.6961
1158.20 0.696
1158.30 0.6959
1158.40 0.6958
1158.50 0.6957
1158.60 0.6956
1158.70 0.6955
1158.80 0.6954
1158.90 0.6953
1159.00 0.6952
1159.10 0.695
1159.20 0.6949
1159.30 0.6948
1159.40 0.6947
1159.50 0.6946
1159.60 0.6945
1159.70 0.6944
1159.80 0.6943
1159.90 0.6942
1160.00 0.6941
1160.10 0.694
1160.20 0.6939
1160.30 0.6938
1160.40 0.6937
1160.50 0.6935
1160.60 0.6934
1160.70 0.6933
1160.80 0.6932
1160.90 0.6931
1161.00 0.693
1161.10 0.6929
1161.20 0.6928
1161.30 0.6927
1161.40 0.6926
1161.50 0.6925
1161.60 0.6924
1161.70 0.6923
1161.80 0.6922
1161.90 0.692
1162.00 0.6919
1162.10 0.6918
1162.20 0.6917
1162.30 0.6916
1162.40 0.6915
1162.50 0.6914
1162.60 0.6913
1162.70 0.6912
1162.80 0.6911
1162.90 0.691
1163.00 0.6909
1163.10 0.6907
1163.20 0.6906
1163.30 0.6905
1163.40 0.6904
1163.50 0.6903
1163.60 0.6902
1163.70 0.6901
1163.80 0.69
1163.90 0.6899
1164.00 0.6898
1164.10 0.6897
1164.20 0.6896
1164.30 0.6895
1164.40 0.6894
1164.50 0.6892
1164.60 0.6891
1164.70 0.689
1164.80 0.6889
1164.90 0.6888
1165.00 0.6887
1165.10 0.6886
1165.20 0.6885
1165.30 0.6884
1165.40 0.6883
1165.50 0.6882
1165.60 0.6881
1165.70 0.688
1165.80 0.6878
1165.90 0.6877
1166.00 0.6876
1166.10 0.6875
1166.20 0.6874
1166.30 0.6873
1166.40 0.6872
1166.50 0.6871
1166.60 0.687
1166.70 0.6869
1166.80 0.6868
1166.90 0.6867
1167.00 0.6866
1167.10 0.6865
1167.20 0.6864
1167.30 0.6862
1167.40 0.6861
1167.50 0.686
1167.60 0.6859
1167.70 0.6858
1167.80 0.6857
1167.90 0.6856
1168.00 0.6855
1168.10 0.6854
1168.20 0.6853
1168.30 0.6852
1168.40 0.6851
1168.50 0.685
1168.60 0.6849
1168.70 0.6847
1168.80 0.6846
1168.90 0.6845
1169.00 0.6844
1169.10 0.6843
1169.20 0.6842
1169.30 0.6841
1169.40 0.684
1169.50 0.6839
1169.60 0.6838
1169.70 0.6837
1169.80 0.6836
1169.90 0.6835
1170.00 0.6834
1170.10 0.6833
1170.20 0.6832
1170.30 0.683
1170.40 0.6829
1170.50 0.6828
1170.60 0.6827
1170.70 0.6826
1170.80 0.6825
1170.90 0.6824
1171.00 0.6823
1171.10 0.6822
1171.20 0.6821
1171.30 0.682
1171.40 0.6819
1171.50 0.6818
1171.60 0.6817
1171.70 0.6816
1171.80 0.6815
1171.90 0.6813
1172.00 0.6812
1172.10 0.6811
1172.20 0.681
1172.30 0.6809
1172.40 0.6808
1172.50 0.6807
1172.60 0.6806
1172.70 0.6805
1172.80 0.6804
1172.90 0.6803
1173.00 0.6802
1173.10 0.6801
1173.20 0.68
1173.30 0.6799
1173.40 0.6798
1173.50 0.6796
1173.60 0.6795
1173.70 0.6794
1173.80 0.6793
1173.90 0.6792
1174.00 0.6791
1174.10 0.679
1174.20 0.6789
1174.30 0.6788
1174.40 0.6787
1174.50 0.6786
1174.60 0.6785
1174.70 0.6784
1174.80 0.6783
1174.90 0.6782
1175.00 0.6781
1175.10 0.678
1175.20 0.6778
1175.30 0.6777
1175.40 0.6776
1175.50 0.6775
1175.60 0.6774
1175.70 0.6773
1175.80 0.6772
1175.90 0.6771
1176.00 0.677
1176.10 0.6769
1176.20 0.6768
1176.30 0.6767
1176.40 0.6766
1176.50 0.6765
1176.60 0.6764
1176.70 0.6763
1176.80 0.6762
1176.90 0.6761
1177.00 0.6759
1177.10 0.6758
1177.20 0.6757
1177.30 0.6756
1177.40 0.6755
1177.50 0.6754
1177.60 0.6753
1177.70 0.6752
1177.80 0.6751
1177.90 0.675
1178.00 0.6749
1178.10 0.6748
1178.20 0.6747
1178.30 0.6746
1178.40 0.6745
1178.50 0.6744
1178.60 0.6743
1178.70 0.6742
1178.80 0.674
1178.90 0.6739
1179.00 0.6738
1179.10 0.6737
1179.20 0.6736
1179.30 0.6735
1179.40 0.6734
1179.50 0.6733
1179.60 0.6732
1179.70 0.6731
1179.80 0.673
1179.90 0.6729
1180.00 0.6728
1180.10 0.6727
1180.20 0.6726
1180.30 0.6725
1180.40 0.6724
1180.50 0.6723
1180.60 0.6722
1180.70 0.672
1180.80 0.6719
1180.90 0.6718
1181.00 0.6717
1181.10 0.6716
1181.20 0.6715
1181.30 0.6714
1181.40 0.6713
1181.50 0.6712
1181.60 0.6711
1181.70 0.671
1181.80 0.6709
1181.90 0.6708
1182.00 0.6707
1182.10 0.6706
1182.20 0.6705
1182.30 0.6704
1182.40 0.6703
1182.50 0.6702
1182.60 0.6701
1182.70 0.6699
1182.80 0.6698
1182.90 0.6697
1183.00 0.6696
1183.10 0.6695
1183.20 0.6694
1183.30 0.6693
1183.40 0.6692
1183.50 0.6691
1183.60 0.669
1183.70 0.6689
1183.80 0.6688
1183.90 0.6687
1184.00 0.6686
1184.10 0.6685
1184.20 0.6684
1184.30 0.6683
1184.40 0.6682
1184.50 0.6681
1184.60 0.668
1184.70 0.6678
1184.80 0.6677
1184.90 0.6676
1185.00 0.6675
1185.10 0.6674
1185.20 0.6673
1185.30 0.6672
1185.40 0.6671
1185.50 0.667
1185.60 0.6669
1185.70 0.6668
1185.80 0.6667
1185.90 0.6666
1186.00 0.6665
1186.10 0.6664
1186.20 0.6663
1186.30 0.6662
1186.40 0.6661
1186.50 0.666
1186.60 0.6659
1186.70 0.6658
1186.80 0.6657
1186.90 0.6655
1187.00 0.6654
1187.10 0.6653
1187.20 0.6652
1187.30 0.6651
1187.40 0.665
1187.50 0.6649
1187.60 0.6648
1187.70 0.6647
1187.80 0.6646
1187.90 0.6645
1188.00 0.6644
1188.10 0.6643
1188.20 0.6642
1188.30 0.6641
1188.40 0.664
1188.50 0.6639
1188.60 0.6638
1188.70 0.6637
1188.80 0.6636
1188.90 0.6635
1189.00 0.6634
1189.10 0.6633
1189.20 0.6632
1189.30 0.663
1189.40 0.6629
1189.50 0.6628
1189.60 0.6627
1189.70 0.6626
1189.80 0.6625
1189.90 0.6624
1190.00 0.6623
1190.10 0.6622
1190.20 0.6621
1190.30 0.662
1190.40 0.6619
1190.50 0.6618
1190.60 0.6617
1190.70 0.6616
1190.80 0.6615
1190.90 0.6614
1191.00 0.6613
1191.10 0.6612
1191.20 0.6611
1191.30 0.661
1191.40 0.6609
1191.50 0.6608
1191.60 0.6607
1191.70 0.6606
1191.80 0.6605
1191.90 0.6604
1192.00 0.6603
1192.10 0.6601
1192.20 0.66
1192.30 0.6599
1192.40 0.6598
1192.50 0.6597
1192.60 0.6596
1192.70 0.6595
1192.80 0.6594
1192.90 0.6593
1193.00 0.6592
1193.10 0.6591
1193.20 0.659
1193.30 0.6589
1193.40 0.6588
1193.50 0.6587
1193.60 0.6586
1193.70 0.6585
1193.80 0.6584
1193.90 0.6583
1194.00 0.6582
1194.10 0.6581
1194.20 0.658
1194.30 0.6579
1194.40 0.6578
1194.50 0.6577
1194.60 0.6576
1194.70 0.6575
1194.80 0.6574
1194.90 0.6572
1195.00 0.6571
1195.10 0.657
1195.20 0.6569
1195.30 0.6568
1195.40 0.6567
1195.50 0.6566
1195.60 0.6565
1195.70 0.6564
1195.80 0.6563
1195.90 0.6562
1196.00 0.6561
1196.10 0.656
1196.20 0.6559
1196.30 0.6558
1196.40 0.6557
1196.50 0.6556
1196.60 0.6555
1196.70 0.6554
1196.80 0.6553
1196.90 0.6552
1197.00 0.6551
1197.10 0.655
1197.20 0.6549
1197.30 0.6548
1197.40 0.6547
1197.50 0.6546
1197.60 0.6545
1197.70 0.6544
1197.80 0.6543
1197.90 0.6542
1198.00 0.6541
1198.10 0.654
1198.20 0.6539
1198.30 0.6538
1198.40 0.6536
1198.50 0.6535
1198.60 0.6534
1198.70 0.6533
1198.80 0.6532
1198.90 0.6531
1199.00 0.653
1199.10 0.6529
1199.20 0.6528
1199.30 0.6527
1199.40 0.6526
1199.50 0.6525
1199.60 0.6524
1199.70 0.6523
1199.80 0.6522
1199.90 0.6521
1200.00 0
