# Version 2.1 - nm, norm@500 to 1, cut digits, bergeron_80000_85.dat_80000
# Wavelength(nm)  Flambda(ergs/cm^s/s/nm)
300.00 6.677
300.10 6.669
300.20 6.661
300.30 6.652
300.40 6.644
300.50 6.636
300.60 6.628
300.70 6.619
300.80 6.611
300.90 6.603
301.00 6.595
301.10 6.587
301.20 6.579
301.30 6.57
301.40 6.562
301.50 6.554
301.60 6.546
301.70 6.538
301.80 6.53
301.90 6.522
302.00 6.514
302.10 6.506
302.20 6.498
302.30 6.49
302.40 6.482
302.50 6.474
302.60 6.466
302.70 6.458
302.80 6.45
302.90 6.442
303.00 6.434
303.10 6.426
303.20 6.418
303.30 6.41
303.40 6.402
303.50 6.394
303.60 6.387
303.70 6.379
303.80 6.371
303.90 6.363
304.00 6.355
304.10 6.347
304.20 6.34
304.30 6.332
304.40 6.324
304.50 6.316
304.60 6.309
304.70 6.301
304.80 6.293
304.90 6.285
305.00 6.278
305.10 6.27
305.20 6.262
305.30 6.255
305.40 6.247
305.50 6.24
305.60 6.232
305.70 6.224
305.80 6.217
305.90 6.209
306.00 6.202
306.10 6.194
306.20 6.186
306.30 6.179
306.40 6.171
306.50 6.164
306.60 6.156
306.70 6.149
306.80 6.141
306.90 6.134
307.00 6.126
307.10 6.119
307.20 6.112
307.30 6.104
307.40 6.097
307.50 6.089
307.60 6.082
307.70 6.075
307.80 6.067
307.90 6.06
308.00 6.052
308.10 6.045
308.20 6.038
308.30 6.03
308.40 6.023
308.50 6.016
308.60 6.009
308.70 6.001
308.80 5.994
308.90 5.987
309.00 5.98
309.10 5.972
309.20 5.965
309.30 5.958
309.40 5.951
309.50 5.944
309.60 5.936
309.70 5.929
309.80 5.922
309.90 5.915
310.00 5.908
310.10 5.901
310.20 5.894
310.30 5.887
310.40 5.879
310.50 5.872
310.60 5.865
310.70 5.858
310.80 5.851
310.90 5.844
311.00 5.837
311.10 5.83
311.20 5.823
311.30 5.816
311.40 5.809
311.50 5.802
311.60 5.795
311.70 5.788
311.80 5.781
311.90 5.774
312.00 5.768
312.10 5.761
312.20 5.754
312.30 5.747
312.40 5.74
312.50 5.733
312.60 5.726
312.70 5.719
312.80 5.713
312.90 5.706
313.00 5.699
313.10 5.692
313.20 5.685
313.30 5.679
313.40 5.672
313.50 5.665
313.60 5.658
313.70 5.652
313.80 5.645
313.90 5.638
314.00 5.631
314.10 5.625
314.20 5.618
314.30 5.611
314.40 5.605
314.50 5.598
314.60 5.591
314.70 5.585
314.80 5.578
314.90 5.571
315.00 5.565
315.10 5.558
315.20 5.552
315.30 5.545
315.40 5.538
315.50 5.532
315.60 5.525
315.70 5.519
315.80 5.512
315.90 5.506
316.00 5.499
316.10 5.493
316.20 5.486
316.30 5.48
316.40 5.473
316.50 5.467
316.60 5.46
316.70 5.454
316.80 5.447
316.90 5.441
317.00 5.435
317.10 5.428
317.20 5.422
317.30 5.415
317.40 5.409
317.50 5.403
317.60 5.396
317.70 5.39
317.80 5.384
317.90 5.377
318.00 5.371
318.10 5.365
318.20 5.358
318.30 5.352
318.40 5.346
318.50 5.339
318.60 5.333
318.70 5.327
318.80 5.321
318.90 5.314
319.00 5.308
319.10 5.302
319.20 5.296
319.30 5.29
319.40 5.283
319.50 5.277
319.60 5.271
319.70 5.265
319.80 5.259
319.90 5.252
320.00 5.246
320.10 5.24
320.20 5.234
320.30 5.228
320.40 5.222
320.50 5.216
320.60 5.21
320.70 5.204
320.80 5.198
320.90 5.192
321.00 5.185
321.10 5.179
321.20 5.173
321.30 5.167
321.40 5.161
321.50 5.155
321.60 5.149
321.70 5.143
321.80 5.137
321.90 5.131
322.00 5.125
322.10 5.119
322.20 5.114
322.30 5.108
322.40 5.102
322.50 5.096
322.60 5.09
322.70 5.084
322.80 5.078
322.90 5.072
323.00 5.066
323.10 5.06
323.20 5.055
323.30 5.049
323.40 5.043
323.50 5.037
323.60 5.031
323.70 5.025
323.80 5.02
323.90 5.014
324.00 5.008
324.10 5.002
324.20 4.996
324.30 4.991
324.40 4.985
324.50 4.979
324.60 4.973
324.70 4.968
324.80 4.962
324.90 4.956
325.00 4.95
325.10 4.945
325.20 4.939
325.30 4.933
325.40 4.928
325.50 4.922
325.60 4.916
325.70 4.911
325.80 4.905
325.90 4.899
326.00 4.894
326.10 4.888
326.20 4.883
326.30 4.877
326.40 4.871
326.50 4.866
326.60 4.86
326.70 4.855
326.80 4.849
326.90 4.844
327.00 4.838
327.10 4.832
327.20 4.827
327.30 4.821
327.40 4.816
327.50 4.81
327.60 4.805
327.70 4.799
327.80 4.794
327.90 4.788
328.00 4.783
328.10 4.778
328.20 4.772
328.30 4.767
328.40 4.761
328.50 4.756
328.60 4.75
328.70 4.745
328.80 4.739
328.90 4.734
329.00 4.729
329.10 4.723
329.20 4.718
329.30 4.713
329.40 4.707
329.50 4.702
329.60 4.697
329.70 4.691
329.80 4.686
329.90 4.681
330.00 4.675
330.10 4.67
330.20 4.665
330.30 4.659
330.40 4.654
330.50 4.649
330.60 4.644
330.70 4.638
330.80 4.633
330.90 4.628
331.00 4.623
331.10 4.617
331.20 4.612
331.30 4.607
331.40 4.602
331.50 4.596
331.60 4.591
331.70 4.586
331.80 4.581
331.90 4.576
332.00 4.571
332.10 4.565
332.20 4.56
332.30 4.555
332.40 4.55
332.50 4.545
332.60 4.54
332.70 4.535
332.80 4.53
332.90 4.524
333.00 4.519
333.10 4.514
333.20 4.509
333.30 4.504
333.40 4.499
333.50 4.494
333.60 4.489
333.70 4.484
333.80 4.479
333.90 4.474
334.00 4.469
334.10 4.464
334.20 4.459
334.30 4.454
334.40 4.449
334.50 4.444
334.60 4.439
334.70 4.434
334.80 4.429
334.90 4.424
335.00 4.419
335.10 4.414
335.20 4.409
335.30 4.404
335.40 4.399
335.50 4.394
335.60 4.389
335.70 4.384
335.80 4.38
335.90 4.375
336.00 4.37
336.10 4.365
336.20 4.36
336.30 4.355
336.40 4.35
336.50 4.345
336.60 4.341
336.70 4.336
336.80 4.331
336.90 4.326
337.00 4.321
337.10 4.317
337.20 4.312
337.30 4.307
337.40 4.302
337.50 4.297
337.60 4.293
337.70 4.288
337.80 4.283
337.90 4.278
338.00 4.274
338.10 4.269
338.20 4.264
338.30 4.259
338.40 4.255
338.50 4.25
338.60 4.245
338.70 4.241
338.80 4.236
338.90 4.231
339.00 4.226
339.10 4.222
339.20 4.217
339.30 4.212
339.40 4.208
339.50 4.203
339.60 4.199
339.70 4.194
339.80 4.189
339.90 4.185
340.00 4.18
340.10 4.175
340.20 4.171
340.30 4.166
340.40 4.162
340.50 4.157
340.60 4.152
340.70 4.148
340.80 4.143
340.90 4.139
341.00 4.134
341.10 4.13
341.20 4.125
341.30 4.121
341.40 4.116
341.50 4.111
341.60 4.107
341.70 4.102
341.80 4.098
341.90 4.093
342.00 4.089
342.10 4.084
342.20 4.08
342.30 4.076
342.40 4.071
342.50 4.067
342.60 4.062
342.70 4.058
342.80 4.053
342.90 4.049
343.00 4.044
343.10 4.04
343.20 4.036
343.30 4.031
343.40 4.027
343.50 4.022
343.60 4.018
343.70 4.014
343.80 4.009
343.90 4.005
344.00 4
344.10 3.996
344.20 3.992
344.30 3.987
344.40 3.983
344.50 3.979
344.60 3.974
344.70 3.97
344.80 3.966
344.90 3.961
345.00 3.957
345.10 3.953
345.20 3.948
345.30 3.944
345.40 3.94
345.50 3.936
345.60 3.931
345.70 3.927
345.80 3.923
345.90 3.918
346.00 3.914
346.10 3.91
346.20 3.906
346.30 3.901
346.40 3.897
346.50 3.893
346.60 3.889
346.70 3.885
346.80 3.88
346.90 3.876
347.00 3.872
347.10 3.868
347.20 3.864
347.30 3.859
347.40 3.855
347.50 3.851
347.60 3.847
347.70 3.843
347.80 3.839
347.90 3.834
348.00 3.83
348.10 3.826
348.20 3.822
348.30 3.818
348.40 3.814
348.50 3.81
348.60 3.806
348.70 3.802
348.80 3.797
348.90 3.793
349.00 3.789
349.10 3.785
349.20 3.781
349.30 3.777
349.40 3.773
349.50 3.769
349.60 3.765
349.70 3.761
349.80 3.757
349.90 3.753
350.00 3.749
350.10 3.745
350.20 3.741
350.30 3.737
350.40 3.733
350.50 3.729
350.60 3.725
350.70 3.721
350.80 3.717
350.90 3.713
351.00 3.709
351.10 3.705
351.20 3.701
351.30 3.697
351.40 3.693
351.50 3.689
351.60 3.685
351.70 3.681
351.80 3.677
351.90 3.673
352.00 3.669
352.10 3.665
352.20 3.661
352.30 3.658
352.40 3.654
352.50 3.65
352.60 3.646
352.70 3.642
352.80 3.638
352.90 3.634
353.00 3.63
353.10 3.627
353.20 3.623
353.30 3.619
353.40 3.615
353.50 3.611
353.60 3.607
353.70 3.603
353.80 3.6
353.90 3.596
354.00 3.592
354.10 3.588
354.20 3.584
354.30 3.581
354.40 3.577
354.50 3.573
354.60 3.569
354.70 3.565
354.80 3.562
354.90 3.558
355.00 3.554
355.10 3.55
355.20 3.547
355.30 3.543
355.40 3.539
355.50 3.535
355.60 3.532
355.70 3.528
355.80 3.524
355.90 3.52
356.00 3.517
356.10 3.513
356.20 3.509
356.30 3.506
356.40 3.502
356.50 3.498
356.60 3.494
356.70 3.491
356.80 3.487
356.90 3.483
357.00 3.48
357.10 3.476
357.20 3.472
357.30 3.469
357.40 3.465
357.50 3.461
357.60 3.458
357.70 3.454
357.80 3.451
357.90 3.447
358.00 3.443
358.10 3.44
358.20 3.436
358.30 3.432
358.40 3.429
358.50 3.425
358.60 3.422
358.70 3.418
358.80 3.415
358.90 3.411
359.00 3.407
359.10 3.404
359.20 3.4
359.30 3.397
359.40 3.393
359.50 3.39
359.60 3.386
359.70 3.382
359.80 3.379
359.90 3.375
360.00 3.372
360.10 3.368
360.20 3.365
360.30 3.361
360.40 3.358
360.50 3.354
360.60 3.351
360.70 3.347
360.80 3.344
360.90 3.34
361.00 3.337
361.10 3.333
361.20 3.33
361.30 3.326
361.40 3.323
361.50 3.32
361.60 3.316
361.70 3.313
361.80 3.309
361.90 3.306
362.00 3.302
362.10 3.299
362.20 3.295
362.30 3.292
362.40 3.289
362.50 3.285
362.60 3.282
362.70 3.278
362.80 3.275
362.90 3.272
363.00 3.268
363.10 3.265
363.20 3.261
363.30 3.258
363.40 3.255
363.50 3.251
363.60 3.248
363.70 3.245
363.80 3.241
363.90 3.238
364.00 3.234
364.10 3.231
364.20 3.228
364.30 3.224
364.40 3.221
364.50 3.218
364.60 3.214
364.70 3.211
364.80 3.208
364.90 3.205
365.00 3.201
365.10 3.198
365.20 3.195
365.30 3.191
365.40 3.188
365.50 3.185
365.60 3.182
365.70 3.178
365.80 3.175
365.90 3.172
366.00 3.168
366.10 3.165
366.20 3.162
366.30 3.159
366.40 3.155
366.50 3.152
366.60 3.149
366.70 3.145
366.80 3.142
366.90 3.139
367.00 3.136
367.10 3.132
367.20 3.129
367.30 3.126
367.40 3.123
367.50 3.119
367.60 3.116
367.70 3.113
367.80 3.11
367.90 3.106
368.00 3.103
368.10 3.1
368.20 3.097
368.30 3.094
368.40 3.09
368.50 3.087
368.60 3.084
368.70 3.081
368.80 3.077
368.90 3.074
369.00 3.071
369.10 3.068
369.20 3.064
369.30 3.061
369.40 3.058
369.50 3.055
369.60 3.052
369.70 3.048
369.80 3.045
369.90 3.042
370.00 3.039
370.10 3.036
370.20 3.033
370.30 3.029
370.40 3.026
370.50 3.023
370.60 3.02
370.70 3.017
370.80 3.014
370.90 3.011
371.00 3.007
371.10 3.004
371.20 3.001
371.30 2.998
371.40 2.995
371.50 2.992
371.60 2.989
371.70 2.986
371.80 2.983
371.90 2.979
372.00 2.976
372.10 2.973
372.20 2.97
372.30 2.967
372.40 2.964
372.50 2.961
372.60 2.958
372.70 2.955
372.80 2.952
372.90 2.949
373.00 2.946
373.10 2.943
373.20 2.94
373.30 2.937
373.40 2.934
373.50 2.931
373.60 2.929
373.70 2.926
373.80 2.923
373.90 2.92
374.00 2.917
374.10 2.914
374.20 2.911
374.30 2.908
374.40 2.905
374.50 2.902
374.60 2.899
374.70 2.896
374.80 2.893
374.90 2.89
375.00 2.887
375.10 2.884
375.20 2.881
375.30 2.878
375.40 2.875
375.50 2.872
375.60 2.869
375.70 2.866
375.80 2.863
375.90 2.86
376.00 2.857
376.10 2.854
376.20 2.851
376.30 2.849
376.40 2.846
376.50 2.843
376.60 2.84
376.70 2.837
376.80 2.834
376.90 2.831
377.00 2.828
377.10 2.825
377.20 2.823
377.30 2.82
377.40 2.817
377.50 2.814
377.60 2.811
377.70 2.808
377.80 2.806
377.90 2.803
378.00 2.8
378.10 2.797
378.20 2.794
378.30 2.792
378.40 2.789
378.50 2.786
378.60 2.783
378.70 2.781
378.80 2.778
378.90 2.775
379.00 2.772
379.10 2.769
379.20 2.767
379.30 2.764
379.40 2.761
379.50 2.759
379.60 2.756
379.70 2.753
379.80 2.75
379.90 2.748
380.00 2.745
380.10 2.742
380.20 2.74
380.30 2.737
380.40 2.734
380.50 2.732
380.60 2.729
380.70 2.726
380.80 2.724
380.90 2.721
381.00 2.718
381.10 2.716
381.20 2.713
381.30 2.71
381.40 2.708
381.50 2.705
381.60 2.702
381.70 2.7
381.80 2.697
381.90 2.694
382.00 2.692
382.10 2.689
382.20 2.687
382.30 2.684
382.40 2.681
382.50 2.679
382.60 2.676
382.70 2.674
382.80 2.671
382.90 2.668
383.00 2.666
383.10 2.663
383.20 2.661
383.30 2.658
383.40 2.656
383.50 2.653
383.60 2.651
383.70 2.648
383.80 2.646
383.90 2.643
384.00 2.641
384.10 2.638
384.20 2.636
384.30 2.633
384.40 2.631
384.50 2.629
384.60 2.626
384.70 2.624
384.80 2.621
384.90 2.619
385.00 2.616
385.10 2.614
385.20 2.612
385.30 2.609
385.40 2.607
385.50 2.604
385.60 2.602
385.70 2.599
385.80 2.597
385.90 2.594
386.00 2.592
386.10 2.589
386.20 2.587
386.30 2.584
386.40 2.582
386.50 2.579
386.60 2.577
386.70 2.574
386.80 2.572
386.90 2.569
387.00 2.567
387.10 2.564
387.20 2.562
387.30 2.559
387.40 2.557
387.50 2.554
387.60 2.552
387.70 2.549
387.80 2.547
387.90 2.544
388.00 2.542
388.10 2.539
388.20 2.537
388.30 2.534
388.40 2.532
388.50 2.529
388.60 2.527
388.70 2.525
388.80 2.522
388.90 2.52
389.00 2.518
389.10 2.516
389.20 2.513
389.30 2.511
389.40 2.509
389.50 2.507
389.60 2.505
389.70 2.503
389.80 2.501
389.90 2.499
390.00 2.497
390.10 2.495
390.20 2.493
390.30 2.491
390.40 2.489
390.50 2.487
390.60 2.485
390.70 2.483
390.80 2.481
390.90 2.479
391.00 2.477
391.10 2.474
391.20 2.472
391.30 2.47
391.40 2.468
391.50 2.466
391.60 2.464
391.70 2.461
391.80 2.459
391.90 2.457
392.00 2.455
392.10 2.452
392.20 2.45
392.30 2.448
392.40 2.445
392.50 2.443
392.60 2.441
392.70 2.438
392.80 2.436
392.90 2.433
393.00 2.431
393.10 2.428
393.20 2.426
393.30 2.423
393.40 2.42
393.50 2.418
393.60 2.415
393.70 2.413
393.80 2.41
393.90 2.407
394.00 2.404
394.10 2.402
394.20 2.399
394.30 2.396
394.40 2.393
394.50 2.39
394.60 2.387
394.70 2.384
394.80 2.381
394.90 2.378
395.00 2.375
395.10 2.372
395.20 2.369
395.30 2.366
395.40 2.363
395.50 2.36
395.60 2.357
395.70 2.354
395.80 2.351
395.90 2.348
396.00 2.345
396.10 2.342
396.20 2.339
396.30 2.336
396.40 2.333
396.50 2.33
396.60 2.327
396.70 2.324
396.80 2.321
396.90 2.319
397.00 2.316
397.10 2.315
397.20 2.313
397.30 2.312
397.40 2.311
397.50 2.31
397.60 2.309
397.70 2.308
397.80 2.307
397.90 2.306
398.00 2.305
398.10 2.304
398.20 2.303
398.30 2.302
398.40 2.301
398.50 2.3
398.60 2.299
398.70 2.298
398.80 2.297
398.90 2.296
399.00 2.295
399.10 2.294
399.20 2.293
399.30 2.292
399.40 2.291
399.50 2.29
399.60 2.288
399.70 2.287
399.80 2.286
399.90 2.285
400.00 2.284
400.10 2.282
400.20 2.281
400.30 2.28
400.40 2.278
400.50 2.277
400.60 2.275
400.70 2.274
400.80 2.272
400.90 2.271
401.00 2.269
401.10 2.268
401.20 2.266
401.30 2.265
401.40 2.263
401.50 2.261
401.60 2.26
401.70 2.258
401.80 2.256
401.90 2.254
402.00 2.252
402.10 2.251
402.20 2.249
402.30 2.247
402.40 2.245
402.50 2.243
402.60 2.241
402.70 2.239
402.80 2.237
402.90 2.235
403.00 2.233
403.10 2.23
403.20 2.228
403.30 2.226
403.40 2.224
403.50 2.222
403.60 2.219
403.70 2.217
403.80 2.215
403.90 2.212
404.00 2.21
404.10 2.207
404.20 2.205
404.30 2.202
404.40 2.2
404.50 2.197
404.60 2.195
404.70 2.192
404.80 2.189
404.90 2.186
405.00 2.184
405.10 2.181
405.20 2.178
405.30 2.175
405.40 2.172
405.50 2.169
405.60 2.166
405.70 2.163
405.80 2.16
405.90 2.157
406.00 2.154
406.10 2.151
406.20 2.147
406.30 2.144
406.40 2.141
406.50 2.137
406.60 2.134
406.70 2.13
406.80 2.127
406.90 2.123
407.00 2.119
407.10 2.116
407.20 2.112
407.30 2.108
407.40 2.104
407.50 2.1
407.60 2.096
407.70 2.092
407.80 2.088
407.90 2.084
408.00 2.08
408.10 2.076
408.20 2.071
408.30 2.067
408.40 2.063
408.50 2.058
408.60 2.054
408.70 2.049
408.80 2.045
408.90 2.04
409.00 2.036
409.10 2.032
409.20 2.027
409.30 2.023
409.40 2.019
409.50 2.015
409.60 2.011
409.70 2.008
409.80 2.005
409.90 2.003
410.00 2.002
410.10 2.002
410.20 2.001
410.30 1.998
410.40 1.995
410.50 1.993
410.60 1.992
410.70 1.991
410.80 1.991
410.90 1.992
411.00 1.992
411.10 1.993
411.20 1.994
411.30 1.994
411.40 1.995
411.50 1.996
411.60 1.997
411.70 1.998
411.80 1.999
411.90 2
412.00 2
412.10 2.001
412.20 2.002
412.30 2.002
412.40 2.003
412.50 2.003
412.60 2.004
412.70 2.004
412.80 2.005
412.90 2.005
413.00 2.005
413.10 2.005
413.20 2.005
413.30 2.006
413.40 2.006
413.50 2.006
413.60 2.006
413.70 2.005
413.80 2.005
413.90 2.005
414.00 2.005
414.10 2.004
414.20 2.004
414.30 2.004
414.40 2.003
414.50 2.003
414.60 2.002
414.70 2.002
414.80 2.001
414.90 2
415.00 2
415.10 1.999
415.20 1.998
415.30 1.998
415.40 1.997
415.50 1.996
415.60 1.995
415.70 1.994
415.80 1.993
415.90 1.992
416.00 1.991
416.10 1.99
416.20 1.989
416.30 1.988
416.40 1.987
416.50 1.986
416.60 1.985
416.70 1.984
416.80 1.983
416.90 1.981
417.00 1.98
417.10 1.979
417.20 1.978
417.30 1.976
417.40 1.975
417.50 1.974
417.60 1.973
417.70 1.971
417.80 1.97
417.90 1.969
418.00 1.967
418.10 1.966
418.20 1.964
418.30 1.963
418.40 1.962
418.50 1.96
418.60 1.959
418.70 1.957
418.80 1.956
418.90 1.954
419.00 1.953
419.10 1.951
419.20 1.95
419.30 1.948
419.40 1.947
419.50 1.945
419.60 1.944
419.70 1.942
419.80 1.94
419.90 1.939
420.00 1.937
420.10 1.936
420.20 1.934
420.30 1.933
420.40 1.931
420.50 1.929
420.60 1.928
420.70 1.926
420.80 1.924
420.90 1.923
421.00 1.921
421.10 1.919
421.20 1.918
421.30 1.916
421.40 1.914
421.50 1.913
421.60 1.911
421.70 1.909
421.80 1.908
421.90 1.906
422.00 1.904
422.10 1.902
422.20 1.901
422.30 1.899
422.40 1.897
422.50 1.895
422.60 1.894
422.70 1.892
422.80 1.89
422.90 1.888
423.00 1.887
423.10 1.885
423.20 1.883
423.30 1.881
423.40 1.879
423.50 1.877
423.60 1.876
423.70 1.874
423.80 1.872
423.90 1.87
424.00 1.868
424.10 1.866
424.20 1.864
424.30 1.863
424.40 1.861
424.50 1.859
424.60 1.857
424.70 1.855
424.80 1.853
424.90 1.851
425.00 1.849
425.10 1.847
425.20 1.845
425.30 1.843
425.40 1.841
425.50 1.839
425.60 1.837
425.70 1.835
425.80 1.833
425.90 1.831
426.00 1.829
426.10 1.827
426.20 1.825
426.30 1.822
426.40 1.82
426.50 1.818
426.60 1.816
426.70 1.814
426.80 1.812
426.90 1.809
427.00 1.807
427.10 1.805
427.20 1.802
427.30 1.8
427.40 1.798
427.50 1.795
427.60 1.793
427.70 1.791
427.80 1.788
427.90 1.786
428.00 1.783
428.10 1.78
428.20 1.778
428.30 1.775
428.40 1.773
428.50 1.77
428.60 1.767
428.70 1.764
428.80 1.762
428.90 1.759
429.00 1.756
429.10 1.753
429.20 1.75
429.30 1.747
429.40 1.744
429.50 1.741
429.60 1.738
429.70 1.734
429.80 1.731
429.90 1.728
430.00 1.724
430.10 1.721
430.20 1.717
430.30 1.714
430.40 1.71
430.50 1.706
430.60 1.703
430.70 1.699
430.80 1.695
430.90 1.691
431.00 1.687
431.10 1.683
431.20 1.678
431.30 1.674
431.40 1.67
431.50 1.665
431.60 1.661
431.70 1.656
431.80 1.652
431.90 1.647
432.00 1.642
432.10 1.637
432.20 1.632
432.30 1.627
432.40 1.622
432.50 1.617
432.60 1.612
432.70 1.607
432.80 1.601
432.90 1.596
433.00 1.591
433.10 1.586
433.20 1.581
433.30 1.576
433.40 1.571
433.50 1.566
433.60 1.561
433.70 1.555
433.80 1.55
433.90 1.543
434.00 1.539
434.10 1.538
434.20 1.54
434.30 1.544
434.40 1.547
434.50 1.549
434.60 1.552
434.70 1.554
434.80 1.556
434.90 1.559
435.00 1.561
435.10 1.564
435.20 1.566
435.30 1.569
435.40 1.571
435.50 1.573
435.60 1.576
435.70 1.578
435.80 1.58
435.90 1.583
436.00 1.585
436.10 1.587
436.20 1.589
436.30 1.591
436.40 1.592
436.50 1.594
436.60 1.596
436.70 1.597
436.80 1.599
436.90 1.6
437.00 1.601
437.10 1.603
437.20 1.604
437.30 1.605
437.40 1.606
437.50 1.607
437.60 1.607
437.70 1.608
437.80 1.609
437.90 1.609
438.00 1.61
438.10 1.61
438.20 1.611
438.30 1.611
438.40 1.611
438.50 1.611
438.60 1.612
438.70 1.612
438.80 1.612
438.90 1.612
439.00 1.612
439.10 1.611
439.20 1.611
439.30 1.611
439.40 1.611
439.50 1.611
439.60 1.61
439.70 1.61
439.80 1.61
439.90 1.609
440.00 1.609
440.10 1.608
440.20 1.608
440.30 1.607
440.40 1.606
440.50 1.606
440.60 1.605
440.70 1.605
440.80 1.604
440.90 1.603
441.00 1.602
441.10 1.602
441.20 1.601
441.30 1.6
441.40 1.599
441.50 1.598
441.60 1.598
441.70 1.597
441.80 1.596
441.90 1.595
442.00 1.594
442.10 1.593
442.20 1.592
442.30 1.591
442.40 1.59
442.50 1.589
442.60 1.588
442.70 1.587
442.80 1.586
442.90 1.585
443.00 1.584
443.10 1.583
443.20 1.582
443.30 1.581
443.40 1.58
443.50 1.579
443.60 1.578
443.70 1.577
443.80 1.575
443.90 1.574
444.00 1.573
444.10 1.572
444.20 1.571
444.30 1.57
444.40 1.569
444.50 1.568
444.60 1.566
444.70 1.565
444.80 1.564
444.90 1.563
445.00 1.562
445.10 1.561
445.20 1.559
445.30 1.558
445.40 1.557
445.50 1.556
445.60 1.555
445.70 1.553
445.80 1.552
445.90 1.551
446.00 1.55
446.10 1.549
446.20 1.547
446.30 1.546
446.40 1.545
446.50 1.544
446.60 1.543
446.70 1.541
446.80 1.54
446.90 1.539
447.00 1.538
447.10 1.537
447.20 1.535
447.30 1.534
447.40 1.533
447.50 1.532
447.60 1.53
447.70 1.529
447.80 1.528
447.90 1.527
448.00 1.526
448.10 1.524
448.20 1.523
448.30 1.522
448.40 1.521
448.50 1.519
448.60 1.518
448.70 1.517
448.80 1.516
448.90 1.514
449.00 1.513
449.10 1.512
449.20 1.511
449.30 1.509
449.40 1.508
449.50 1.507
449.60 1.506
449.70 1.505
449.80 1.503
449.90 1.502
450.00 1.501
450.10 1.5
450.20 1.498
450.30 1.497
450.40 1.496
450.50 1.495
450.60 1.493
450.70 1.492
450.80 1.491
450.90 1.49
451.00 1.488
451.10 1.487
451.20 1.486
451.30 1.485
451.40 1.484
451.50 1.482
451.60 1.481
451.70 1.48
451.80 1.479
451.90 1.477
452.00 1.476
452.10 1.475
452.20 1.474
452.30 1.472
452.40 1.471
452.50 1.47
452.60 1.469
452.70 1.468
452.80 1.466
452.90 1.465
453.00 1.464
453.10 1.463
453.20 1.461
453.30 1.46
453.40 1.459
453.50 1.458
453.60 1.457
453.70 1.455
453.80 1.454
453.90 1.453
454.00 1.452
454.10 1.451
454.20 1.449
454.30 1.448
454.40 1.447
454.50 1.446
454.60 1.445
454.70 1.443
454.80 1.442
454.90 1.441
455.00 1.44
455.10 1.438
455.20 1.437
455.30 1.436
455.40 1.435
455.50 1.434
455.60 1.432
455.70 1.431
455.80 1.43
455.90 1.429
456.00 1.428
456.10 1.426
456.20 1.425
456.30 1.424
456.40 1.423
456.50 1.422
456.60 1.421
456.70 1.419
456.80 1.418
456.90 1.417
457.00 1.416
457.10 1.415
457.20 1.413
457.30 1.412
457.40 1.411
457.50 1.41
457.60 1.409
457.70 1.407
457.80 1.406
457.90 1.405
458.00 1.404
458.10 1.403
458.20 1.402
458.30 1.4
458.40 1.399
458.50 1.398
458.60 1.397
458.70 1.396
458.80 1.395
458.90 1.393
459.00 1.392
459.10 1.391
459.20 1.39
459.30 1.389
459.40 1.388
459.50 1.386
459.60 1.385
459.70 1.384
459.80 1.383
459.90 1.382
460.00 1.381
460.10 1.379
460.20 1.378
460.30 1.377
460.40 1.376
460.50 1.375
460.60 1.374
460.70 1.373
460.80 1.371
460.90 1.37
461.00 1.369
461.10 1.368
461.20 1.367
461.30 1.366
461.40 1.365
461.50 1.363
461.60 1.362
461.70 1.361
461.80 1.36
461.90 1.359
462.00 1.358
462.10 1.357
462.20 1.355
462.30 1.354
462.40 1.353
462.50 1.352
462.60 1.351
462.70 1.35
462.80 1.349
462.90 1.347
463.00 1.346
463.10 1.345
463.20 1.344
463.30 1.343
463.40 1.342
463.50 1.341
463.60 1.34
463.70 1.338
463.80 1.337
463.90 1.336
464.00 1.335
464.10 1.334
464.20 1.333
464.30 1.332
464.40 1.331
464.50 1.329
464.60 1.328
464.70 1.327
464.80 1.326
464.90 1.325
465.00 1.324
465.10 1.323
465.20 1.322
465.30 1.321
465.40 1.319
465.50 1.318
465.60 1.317
465.70 1.316
465.80 1.315
465.90 1.314
466.00 1.313
466.10 1.312
466.20 1.311
466.30 1.31
466.40 1.308
466.50 1.307
466.60 1.306
466.70 1.305
466.80 1.304
466.90 1.303
467.00 1.302
467.10 1.301
467.20 1.3
467.30 1.299
467.40 1.297
467.50 1.296
467.60 1.295
467.70 1.294
467.80 1.293
467.90 1.292
468.00 1.291
468.10 1.29
468.20 1.289
468.30 1.288
468.40 1.286
468.50 1.285
468.60 1.284
468.70 1.283
468.80 1.282
468.90 1.281
469.00 1.28
469.10 1.279
469.20 1.278
469.30 1.277
469.40 1.276
469.50 1.274
469.60 1.273
469.70 1.272
469.80 1.271
469.90 1.27
470.00 1.269
470.10 1.268
470.20 1.267
470.30 1.266
470.40 1.265
470.50 1.264
470.60 1.263
470.70 1.261
470.80 1.26
470.90 1.259
471.00 1.258
471.10 1.257
471.20 1.256
471.30 1.255
471.40 1.254
471.50 1.253
471.60 1.252
471.70 1.251
471.80 1.249
471.90 1.248
472.00 1.247
472.10 1.246
472.20 1.245
472.30 1.244
472.40 1.243
472.50 1.242
472.60 1.241
472.70 1.24
472.80 1.239
472.90 1.237
473.00 1.236
473.10 1.235
473.20 1.234
473.30 1.233
473.40 1.232
473.50 1.231
473.60 1.23
473.70 1.229
473.80 1.228
473.90 1.226
474.00 1.225
474.10 1.224
474.20 1.223
474.30 1.222
474.40 1.221
474.50 1.22
474.60 1.219
474.70 1.218
474.80 1.216
474.90 1.215
475.00 1.214
475.10 1.213
475.20 1.212
475.30 1.211
475.40 1.21
475.50 1.208
475.60 1.207
475.70 1.206
475.80 1.205
475.90 1.204
476.00 1.203
476.10 1.202
476.20 1.2
476.30 1.199
476.40 1.198
476.50 1.197
476.60 1.196
476.70 1.194
476.80 1.193
476.90 1.192
477.00 1.191
477.10 1.19
477.20 1.188
477.30 1.187
477.40 1.186
477.50 1.185
477.60 1.183
477.70 1.182
477.80 1.181
477.90 1.18
478.00 1.178
478.10 1.177
478.20 1.176
478.30 1.174
478.40 1.173
478.50 1.172
478.60 1.17
478.70 1.169
478.80 1.168
478.90 1.166
479.00 1.165
479.10 1.163
479.20 1.162
479.30 1.16
479.40 1.159
479.50 1.157
479.60 1.156
479.70 1.154
479.80 1.153
479.90 1.151
480.00 1.15
480.10 1.148
480.20 1.147
480.30 1.145
480.40 1.143
480.50 1.141
480.60 1.14
480.70 1.138
480.80 1.136
480.90 1.135
481.00 1.133
481.10 1.131
481.20 1.129
481.30 1.127
481.40 1.125
481.50 1.123
481.60 1.121
481.70 1.119
481.80 1.117
481.90 1.115
482.00 1.113
482.10 1.111
482.20 1.108
482.30 1.106
482.40 1.103
482.50 1.101
482.60 1.098
482.70 1.096
482.80 1.093
482.90 1.091
483.00 1.088
483.10 1.086
483.20 1.083
483.30 1.08
483.40 1.076
483.50 1.073
483.60 1.07
483.70 1.067
483.80 1.064
483.90 1.061
484.00 1.058
484.10 1.055
484.20 1.051
484.30 1.048
484.40 1.044
484.50 1.041
484.60 1.037
484.70 1.033
484.80 1.03
484.90 1.026
485.00 1.022
485.10 1.018
485.20 1.015
485.30 1.011
485.40 1.007
485.50 1.004
485.60 1.001
485.70 0.9977
485.80 0.9964
485.90 0.9958
486.00 0.9992
486.10 1.009
486.20 1.005
486.30 0.9945
486.40 0.9921
486.50 0.9911
486.60 0.9917
486.70 0.993
486.80 0.9948
486.90 0.9968
487.00 0.9989
487.10 1.001
487.20 1.003
487.30 1.005
487.40 1.008
487.50 1.01
487.60 1.012
487.70 1.014
487.80 1.016
487.90 1.018
488.00 1.02
488.10 1.022
488.20 1.023
488.30 1.025
488.40 1.026
488.50 1.028
488.60 1.029
488.70 1.03
488.80 1.032
488.90 1.033
489.00 1.035
489.10 1.036
489.20 1.037
489.30 1.038
489.40 1.038
489.50 1.039
489.60 1.04
489.70 1.041
489.80 1.041
489.90 1.042
490.00 1.043
490.10 1.044
490.20 1.044
490.30 1.044
490.40 1.045
490.50 1.045
490.60 1.045
490.70 1.045
490.80 1.046
490.90 1.046
491.00 1.046
491.10 1.047
491.20 1.047
491.30 1.046
491.40 1.046
491.50 1.046
491.60 1.046
491.70 1.046
491.80 1.046
491.90 1.046
492.00 1.046
492.10 1.046
492.20 1.046
492.30 1.045
492.40 1.045
492.50 1.045
492.60 1.044
492.70 1.044
492.80 1.044
492.90 1.044
493.00 1.043
493.10 1.043
493.20 1.043
493.30 1.042
493.40 1.042
493.50 1.041
493.60 1.041
493.70 1.04
493.80 1.04
493.90 1.039
494.00 1.039
494.10 1.038
494.20 1.038
494.30 1.037
494.40 1.037
494.50 1.036
494.60 1.036
494.70 1.035
494.80 1.035
494.90 1.034
495.00 1.034
495.10 1.033
495.20 1.032
495.30 1.032
495.40 1.031
495.50 1.031
495.60 1.03
495.70 1.029
495.80 1.029
495.90 1.028
496.00 1.027
496.10 1.027
496.20 1.026
496.30 1.026
496.40 1.025
496.50 1.024
496.60 1.024
496.70 1.023
496.80 1.022
496.90 1.022
497.00 1.021
497.10 1.02
497.20 1.02
497.30 1.019
497.40 1.018
497.50 1.018
497.60 1.017
497.70 1.016
497.80 1.015
497.90 1.015
498.00 1.014
498.10 1.013
498.20 1.013
498.30 1.012
498.40 1.011
498.50 1.011
498.60 1.01
498.70 1.009
498.80 1.009
498.90 1.008
499.00 1.007
499.10 1.006
499.20 1.006
499.30 1.005
499.40 1.004
499.50 1.004
499.60 1.003
499.70 1.002
499.80 1.001
499.90 1.001
500.00 1
500.10 0.9993
500.20 0.9986
500.30 0.9979
500.40 0.9971
500.50 0.9964
500.60 0.9957
500.70 0.995
500.80 0.9943
500.90 0.9935
501.00 0.9928
501.10 0.9921
501.20 0.9914
501.30 0.9907
501.40 0.9899
501.50 0.9892
501.60 0.9885
501.70 0.9878
501.80 0.9871
501.90 0.9863
502.00 0.9856
502.10 0.9849
502.20 0.9842
502.30 0.9834
502.40 0.9827
502.50 0.982
502.60 0.9813
502.70 0.9806
502.80 0.9798
502.90 0.9791
503.00 0.9784
503.10 0.9777
503.20 0.977
503.30 0.9762
503.40 0.9755
503.50 0.9748
503.60 0.9741
503.70 0.9733
503.80 0.9726
503.90 0.9719
504.00 0.9712
504.10 0.9705
504.20 0.9697
504.30 0.969
504.40 0.9683
504.50 0.9676
504.60 0.9669
504.70 0.9661
504.80 0.9654
504.90 0.9647
505.00 0.964
505.10 0.9633
505.20 0.9626
505.30 0.9618
505.40 0.9611
505.50 0.9604
505.60 0.9597
505.70 0.959
505.80 0.9583
505.90 0.9576
506.00 0.9568
506.10 0.9561
506.20 0.9554
506.30 0.9547
506.40 0.954
506.50 0.9533
506.60 0.9526
506.70 0.9519
506.80 0.9512
506.90 0.9504
507.00 0.9497
507.10 0.949
507.20 0.9483
507.30 0.9476
507.40 0.9469
507.50 0.9462
507.60 0.9455
507.70 0.9448
507.80 0.9441
507.90 0.9434
508.00 0.9427
508.10 0.942
508.20 0.9413
508.30 0.9406
508.40 0.9399
508.50 0.9392
508.60 0.9384
508.70 0.9377
508.80 0.937
508.90 0.9363
509.00 0.9356
509.10 0.9349
509.20 0.9342
509.30 0.9336
509.40 0.9329
509.50 0.9322
509.60 0.9315
509.70 0.9308
509.80 0.9301
509.90 0.9294
510.00 0.9287
510.10 0.928
510.20 0.9273
510.30 0.9266
510.40 0.9259
510.50 0.9252
510.60 0.9245
510.70 0.9238
510.80 0.9231
510.90 0.9225
511.00 0.9218
511.10 0.9211
511.20 0.9204
511.30 0.9197
511.40 0.919
511.50 0.9183
511.60 0.9176
511.70 0.917
511.80 0.9163
511.90 0.9156
512.00 0.9149
512.10 0.9142
512.20 0.9135
512.30 0.9129
512.40 0.9122
512.50 0.9115
512.60 0.9108
512.70 0.9101
512.80 0.9095
512.90 0.9088
513.00 0.9081
513.10 0.9074
513.20 0.9067
513.30 0.9061
513.40 0.9054
513.50 0.9047
513.60 0.904
513.70 0.9034
513.80 0.9027
513.90 0.902
514.00 0.9013
514.10 0.9007
514.20 0.9
514.30 0.8993
514.40 0.8987
514.50 0.898
514.60 0.8973
514.70 0.8967
514.80 0.896
514.90 0.8953
515.00 0.8947
515.10 0.894
515.20 0.8933
515.30 0.8927
515.40 0.892
515.50 0.8913
515.60 0.8907
515.70 0.89
515.80 0.8893
515.90 0.8887
516.00 0.888
516.10 0.8874
516.20 0.8867
516.30 0.886
516.40 0.8854
516.50 0.8847
516.60 0.8841
516.70 0.8834
516.80 0.8828
516.90 0.8821
517.00 0.8814
517.10 0.8808
517.20 0.8801
517.30 0.8795
517.40 0.8788
517.50 0.8782
517.60 0.8775
517.70 0.8769
517.80 0.8762
517.90 0.8756
518.00 0.8749
518.10 0.8743
518.20 0.8736
518.30 0.873
518.40 0.8723
518.50 0.8717
518.60 0.871
518.70 0.8704
518.80 0.8698
518.90 0.8691
519.00 0.8685
519.10 0.8678
519.20 0.8672
519.30 0.8665
519.40 0.8659
519.50 0.8653
519.60 0.8646
519.70 0.864
519.80 0.8633
519.90 0.8627
520.00 0.8621
520.10 0.8614
520.20 0.8608
520.30 0.8602
520.40 0.8595
520.50 0.8589
520.60 0.8583
520.70 0.8576
520.80 0.857
520.90 0.8564
521.00 0.8557
521.10 0.8551
521.20 0.8545
521.30 0.8538
521.40 0.8532
521.50 0.8526
521.60 0.8519
521.70 0.8513
521.80 0.8507
521.90 0.8501
522.00 0.8494
522.10 0.8488
522.20 0.8482
522.30 0.8476
522.40 0.8469
522.50 0.8463
522.60 0.8457
522.70 0.8451
522.80 0.8444
522.90 0.8438
523.00 0.8432
523.10 0.8426
523.20 0.842
523.30 0.8413
523.40 0.8407
523.50 0.8401
523.60 0.8395
523.70 0.8389
523.80 0.8383
523.90 0.8376
524.00 0.837
524.10 0.8364
524.20 0.8358
524.30 0.8352
524.40 0.8346
524.50 0.834
524.60 0.8333
524.70 0.8327
524.80 0.8321
524.90 0.8315
525.00 0.8309
525.10 0.8303
525.20 0.8297
525.30 0.8291
525.40 0.8285
525.50 0.8279
525.60 0.8273
525.70 0.8266
525.80 0.826
525.90 0.8254
526.00 0.8248
526.10 0.8242
526.20 0.8236
526.30 0.823
526.40 0.8224
526.50 0.8218
526.60 0.8212
526.70 0.8206
526.80 0.82
526.90 0.8194
527.00 0.8188
527.10 0.8182
527.20 0.8176
527.30 0.817
527.40 0.8164
527.50 0.8158
527.60 0.8152
527.70 0.8146
527.80 0.814
527.90 0.8134
528.00 0.8129
528.10 0.8123
528.20 0.8117
528.30 0.8111
528.40 0.8105
528.50 0.8099
528.60 0.8093
528.70 0.8087
528.80 0.8081
528.90 0.8075
529.00 0.807
529.10 0.8064
529.20 0.8058
529.30 0.8052
529.40 0.8046
529.50 0.804
529.60 0.8034
529.70 0.8029
529.80 0.8023
529.90 0.8017
530.00 0.8011
530.10 0.8005
530.20 0.7999
530.30 0.7994
530.40 0.7988
530.50 0.7982
530.60 0.7976
530.70 0.797
530.80 0.7965
530.90 0.7959
531.00 0.7953
531.10 0.7947
531.20 0.7941
531.30 0.7936
531.40 0.793
531.50 0.7924
531.60 0.7918
531.70 0.7913
531.80 0.7907
531.90 0.7901
532.00 0.7895
532.10 0.789
532.20 0.7884
532.30 0.7878
532.40 0.7873
532.50 0.7867
532.60 0.7861
532.70 0.7856
532.80 0.785
532.90 0.7844
533.00 0.7839
533.10 0.7833
533.20 0.7827
533.30 0.7822
533.40 0.7816
533.50 0.781
533.60 0.7805
533.70 0.7799
533.80 0.7793
533.90 0.7788
534.00 0.7782
534.10 0.7776
534.20 0.7771
534.30 0.7765
534.40 0.776
534.50 0.7754
534.60 0.7748
534.70 0.7743
534.80 0.7737
534.90 0.7732
535.00 0.7726
535.10 0.7721
535.20 0.7715
535.30 0.7709
535.40 0.7704
535.50 0.7698
535.60 0.7693
535.70 0.7687
535.80 0.7682
535.90 0.7676
536.00 0.7671
536.10 0.7665
536.20 0.766
536.30 0.7654
536.40 0.7649
536.50 0.7643
536.60 0.7638
536.70 0.7632
536.80 0.7627
536.90 0.7621
537.00 0.7616
537.10 0.761
537.20 0.7605
537.30 0.7599
537.40 0.7594
537.50 0.7588
537.60 0.7583
537.70 0.7578
537.80 0.7572
537.90 0.7567
538.00 0.7561
538.10 0.7556
538.20 0.755
538.30 0.7545
538.40 0.754
538.50 0.7534
538.60 0.7529
538.70 0.7523
538.80 0.7518
538.90 0.7513
539.00 0.7507
539.10 0.7502
539.20 0.7496
539.30 0.7491
539.40 0.7486
539.50 0.748
539.60 0.7475
539.70 0.747
539.80 0.7464
539.90 0.7459
540.00 0.7454
540.10 0.7448
540.20 0.7443
540.30 0.7438
540.40 0.7432
540.50 0.7427
540.60 0.7422
540.70 0.7417
540.80 0.7411
540.90 0.7406
541.00 0.7401
541.10 0.7395
541.20 0.739
541.30 0.7385
541.40 0.738
541.50 0.7374
541.60 0.7369
541.70 0.7364
541.80 0.7359
541.90 0.7353
542.00 0.7348
542.10 0.7343
542.20 0.7338
542.30 0.7332
542.40 0.7327
542.50 0.7322
542.60 0.7317
542.70 0.7312
542.80 0.7306
542.90 0.7301
543.00 0.7296
543.10 0.7291
543.20 0.7286
543.30 0.728
543.40 0.7275
543.50 0.727
543.60 0.7265
543.70 0.726
543.80 0.7255
543.90 0.725
544.00 0.7244
544.10 0.7239
544.20 0.7234
544.30 0.7229
544.40 0.7224
544.50 0.7219
544.60 0.7214
544.70 0.7209
544.80 0.7203
544.90 0.7198
545.00 0.7193
545.10 0.7188
545.20 0.7183
545.30 0.7178
545.40 0.7173
545.50 0.7168
545.60 0.7163
545.70 0.7158
545.80 0.7153
545.90 0.7148
546.00 0.7142
546.10 0.7137
546.20 0.7132
546.30 0.7127
546.40 0.7122
546.50 0.7117
546.60 0.7112
546.70 0.7107
546.80 0.7102
546.90 0.7097
547.00 0.7092
547.10 0.7087
547.20 0.7082
547.30 0.7077
547.40 0.7072
547.50 0.7067
547.60 0.7062
547.70 0.7057
547.80 0.7052
547.90 0.7047
548.00 0.7042
548.10 0.7037
548.20 0.7032
548.30 0.7027
548.40 0.7023
548.50 0.7018
548.60 0.7013
548.70 0.7008
548.80 0.7003
548.90 0.6998
549.00 0.6993
549.10 0.6988
549.20 0.6983
549.30 0.6978
549.40 0.6973
549.50 0.6968
549.60 0.6963
549.70 0.6959
549.80 0.6954
549.90 0.6949
550.00 0.6944
550.10 0.6939
550.20 0.6934
550.30 0.6929
550.40 0.6924
550.50 0.692
550.60 0.6915
550.70 0.691
550.80 0.6905
550.90 0.69
551.00 0.6895
551.10 0.6891
551.20 0.6886
551.30 0.6881
551.40 0.6876
551.50 0.6871
551.60 0.6866
551.70 0.6862
551.80 0.6857
551.90 0.6852
552.00 0.6847
552.10 0.6842
552.20 0.6838
552.30 0.6833
552.40 0.6828
552.50 0.6823
552.60 0.6819
552.70 0.6814
552.80 0.6809
552.90 0.6804
553.00 0.68
553.10 0.6795
553.20 0.679
553.30 0.6785
553.40 0.6781
553.50 0.6776
553.60 0.6771
553.70 0.6766
553.80 0.6762
553.90 0.6757
554.00 0.6752
554.10 0.6748
554.20 0.6743
554.30 0.6738
554.40 0.6733
554.50 0.6729
554.60 0.6724
554.70 0.6719
554.80 0.6715
554.90 0.671
555.00 0.6705
555.10 0.6701
555.20 0.6696
555.30 0.6691
555.40 0.6687
555.50 0.6682
555.60 0.6677
555.70 0.6673
555.80 0.6668
555.90 0.6664
556.00 0.6659
556.10 0.6654
556.20 0.665
556.30 0.6645
556.40 0.664
556.50 0.6636
556.60 0.6631
556.70 0.6627
556.80 0.6622
556.90 0.6617
557.00 0.6613
557.10 0.6608
557.20 0.6604
557.30 0.6599
557.40 0.6595
557.50 0.659
557.60 0.6585
557.70 0.6581
557.80 0.6576
557.90 0.6572
558.00 0.6567
558.10 0.6563
558.20 0.6558
558.30 0.6554
558.40 0.6549
558.50 0.6545
558.60 0.654
558.70 0.6535
558.80 0.6531
558.90 0.6526
559.00 0.6522
559.10 0.6517
559.20 0.6513
559.30 0.6508
559.40 0.6504
559.50 0.6499
559.60 0.6495
559.70 0.649
559.80 0.6486
559.90 0.6481
560.00 0.6477
560.10 0.6473
560.20 0.6468
560.30 0.6464
560.40 0.6459
560.50 0.6455
560.60 0.645
560.70 0.6446
560.80 0.6441
560.90 0.6437
561.00 0.6433
561.10 0.6428
561.20 0.6424
561.30 0.6419
561.40 0.6415
561.50 0.641
561.60 0.6406
561.70 0.6402
561.80 0.6397
561.90 0.6393
562.00 0.6388
562.10 0.6384
562.20 0.638
562.30 0.6375
562.40 0.6371
562.50 0.6366
562.60 0.6362
562.70 0.6358
562.80 0.6353
562.90 0.6349
563.00 0.6345
563.10 0.634
563.20 0.6336
563.30 0.6332
563.40 0.6327
563.50 0.6323
563.60 0.6319
563.70 0.6314
563.80 0.631
563.90 0.6306
564.00 0.6301
564.10 0.6297
564.20 0.6293
564.30 0.6288
564.40 0.6284
564.50 0.628
564.60 0.6275
564.70 0.6271
564.80 0.6267
564.90 0.6263
565.00 0.6258
565.10 0.6254
565.20 0.625
565.30 0.6245
565.40 0.6241
565.50 0.6237
565.60 0.6233
565.70 0.6228
565.80 0.6224
565.90 0.622
566.00 0.6216
566.10 0.6211
566.20 0.6207
566.30 0.6203
566.40 0.6199
566.50 0.6194
566.60 0.619
566.70 0.6186
566.80 0.6182
566.90 0.6178
567.00 0.6173
567.10 0.6169
567.20 0.6165
567.30 0.6161
567.40 0.6157
567.50 0.6152
567.60 0.6148
567.70 0.6144
567.80 0.614
567.90 0.6136
568.00 0.6131
568.10 0.6127
568.20 0.6123
568.30 0.6119
568.40 0.6115
568.50 0.6111
568.60 0.6106
568.70 0.6102
568.80 0.6098
568.90 0.6094
569.00 0.609
569.10 0.6086
569.20 0.6082
569.30 0.6077
569.40 0.6073
569.50 0.6069
569.60 0.6065
569.70 0.6061
569.80 0.6057
569.90 0.6053
570.00 0.6049
570.10 0.6045
570.20 0.604
570.30 0.6036
570.40 0.6032
570.50 0.6028
570.60 0.6024
570.70 0.602
570.80 0.6016
570.90 0.6012
571.00 0.6008
571.10 0.6004
571.20 0.6
571.30 0.5996
571.40 0.5992
571.50 0.5988
571.60 0.5983
571.70 0.5979
571.80 0.5975
571.90 0.5971
572.00 0.5967
572.10 0.5963
572.20 0.5959
572.30 0.5955
572.40 0.5951
572.50 0.5947
572.60 0.5943
572.70 0.5939
572.80 0.5935
572.90 0.5931
573.00 0.5927
573.10 0.5923
573.20 0.5919
573.30 0.5915
573.40 0.5911
573.50 0.5907
573.60 0.5903
573.70 0.5899
573.80 0.5895
573.90 0.5891
574.00 0.5887
574.10 0.5883
574.20 0.5879
574.30 0.5875
574.40 0.5871
574.50 0.5868
574.60 0.5864
574.70 0.586
574.80 0.5856
574.90 0.5852
575.00 0.5848
575.10 0.5844
575.20 0.584
575.30 0.5836
575.40 0.5832
575.50 0.5828
575.60 0.5824
575.70 0.582
575.80 0.5816
575.90 0.5813
576.00 0.5809
576.10 0.5805
576.20 0.5801
576.30 0.5797
576.40 0.5793
576.50 0.5789
576.60 0.5785
576.70 0.5781
576.80 0.5778
576.90 0.5774
577.00 0.577
577.10 0.5766
577.20 0.5762
577.30 0.5758
577.40 0.5754
577.50 0.5751
577.60 0.5747
577.70 0.5743
577.80 0.5739
577.90 0.5735
578.00 0.5731
578.10 0.5727
578.20 0.5724
578.30 0.572
578.40 0.5716
578.50 0.5712
578.60 0.5708
578.70 0.5705
578.80 0.5701
578.90 0.5697
579.00 0.5693
579.10 0.5689
579.20 0.5685
579.30 0.5682
579.40 0.5678
579.50 0.5674
579.60 0.567
579.70 0.5667
579.80 0.5663
579.90 0.5659
580.00 0.5655
580.10 0.5651
580.20 0.5648
580.30 0.5644
580.40 0.564
580.50 0.5636
580.60 0.5633
580.70 0.5629
580.80 0.5625
580.90 0.5621
581.00 0.5618
581.10 0.5614
581.20 0.561
581.30 0.5606
581.40 0.5603
581.50 0.5599
581.60 0.5595
581.70 0.5592
581.80 0.5588
581.90 0.5584
582.00 0.558
582.10 0.5577
582.20 0.5573
582.30 0.5569
582.40 0.5566
582.50 0.5562
582.60 0.5558
582.70 0.5555
582.80 0.5551
582.90 0.5547
583.00 0.5543
583.10 0.554
583.20 0.5536
583.30 0.5532
583.40 0.5529
583.50 0.5525
583.60 0.5521
583.70 0.5518
583.80 0.5514
583.90 0.551
584.00 0.5507
584.10 0.5503
584.20 0.55
584.30 0.5496
584.40 0.5492
584.50 0.5489
584.60 0.5485
584.70 0.5481
584.80 0.5478
584.90 0.5474
585.00 0.547
585.10 0.5467
585.20 0.5463
585.30 0.546
585.40 0.5456
585.50 0.5452
585.60 0.5449
585.70 0.5445
585.80 0.5442
585.90 0.5438
586.00 0.5434
586.10 0.5431
586.20 0.5427
586.30 0.5424
586.40 0.542
586.50 0.5417
586.60 0.5413
586.70 0.5409
586.80 0.5406
586.90 0.5402
587.00 0.5399
587.10 0.5395
587.20 0.5392
587.30 0.5388
587.40 0.5384
587.50 0.5381
587.60 0.5377
587.70 0.5374
587.80 0.537
587.90 0.5367
588.00 0.5363
588.10 0.536
588.20 0.5356
588.30 0.5353
588.40 0.5349
588.50 0.5346
588.60 0.5342
588.70 0.5339
588.80 0.5335
588.90 0.5332
589.00 0.5328
589.10 0.5325
589.20 0.5321
589.30 0.5318
589.40 0.5314
589.50 0.5311
589.60 0.5307
589.70 0.5304
589.80 0.53
589.90 0.5297
590.00 0.5293
590.10 0.529
590.20 0.5286
590.30 0.5283
590.40 0.5279
590.50 0.5276
590.60 0.5272
590.70 0.5269
590.80 0.5266
590.90 0.5262
591.00 0.5259
591.10 0.5255
591.20 0.5252
591.30 0.5248
591.40 0.5245
591.50 0.5241
591.60 0.5238
591.70 0.5235
591.80 0.5231
591.90 0.5228
592.00 0.5224
592.10 0.5221
592.20 0.5218
592.30 0.5214
592.40 0.5211
592.50 0.5207
592.60 0.5204
592.70 0.52
592.80 0.5197
592.90 0.5194
593.00 0.519
593.10 0.5187
593.20 0.5184
593.30 0.518
593.40 0.5177
593.50 0.5173
593.60 0.517
593.70 0.5167
593.80 0.5163
593.90 0.516
594.00 0.5157
594.10 0.5153
594.20 0.515
594.30 0.5146
594.40 0.5143
594.50 0.514
594.60 0.5136
594.70 0.5133
594.80 0.513
594.90 0.5126
595.00 0.5123
595.10 0.512
595.20 0.5116
595.30 0.5113
595.40 0.511
595.50 0.5106
595.60 0.5103
595.70 0.51
595.80 0.5097
595.90 0.5093
596.00 0.509
596.10 0.5087
596.20 0.5083
596.30 0.508
596.40 0.5077
596.50 0.5073
596.60 0.507
596.70 0.5067
596.80 0.5064
596.90 0.506
597.00 0.5057
597.10 0.5054
597.20 0.505
597.30 0.5047
597.40 0.5044
597.50 0.5041
597.60 0.5037
597.70 0.5034
597.80 0.5031
597.90 0.5028
598.00 0.5024
598.10 0.5021
598.20 0.5018
598.30 0.5015
598.40 0.5011
598.50 0.5008
598.60 0.5005
598.70 0.5002
598.80 0.4998
598.90 0.4995
599.00 0.4992
599.10 0.4989
599.20 0.4985
599.30 0.4982
599.40 0.4979
599.50 0.4976
599.60 0.4973
599.70 0.4969
599.80 0.4966
599.90 0.4963
600.00 0.496
600.10 0.4957
600.20 0.4953
600.30 0.495
600.40 0.4947
600.50 0.4944
600.60 0.4941
600.70 0.4937
600.80 0.4934
600.90 0.4931
601.00 0.4928
601.10 0.4925
601.20 0.4921
601.30 0.4918
601.40 0.4915
601.50 0.4912
601.60 0.4909
601.70 0.4906
601.80 0.4902
601.90 0.4899
602.00 0.4896
602.10 0.4893
602.20 0.489
602.30 0.4887
602.40 0.4884
602.50 0.488
602.60 0.4877
602.70 0.4874
602.80 0.4871
602.90 0.4868
603.00 0.4865
603.10 0.4862
603.20 0.4859
603.30 0.4855
603.40 0.4852
603.50 0.4849
603.60 0.4846
603.70 0.4843
603.80 0.484
603.90 0.4837
604.00 0.4834
604.10 0.4831
604.20 0.4827
604.30 0.4824
604.40 0.4821
604.50 0.4818
604.60 0.4815
604.70 0.4812
604.80 0.4809
604.90 0.4806
605.00 0.4803
605.10 0.48
605.20 0.4797
605.30 0.4794
605.40 0.479
605.50 0.4787
605.60 0.4784
605.70 0.4781
605.80 0.4778
605.90 0.4775
606.00 0.4772
606.10 0.4769
606.20 0.4766
606.30 0.4763
606.40 0.476
606.50 0.4757
606.60 0.4754
606.70 0.4751
606.80 0.4748
606.90 0.4745
607.00 0.4742
607.10 0.4739
607.20 0.4736
607.30 0.4733
607.40 0.473
607.50 0.4727
607.60 0.4724
607.70 0.4721
607.80 0.4718
607.90 0.4715
608.00 0.4712
608.10 0.4709
608.20 0.4706
608.30 0.4703
608.40 0.47
608.50 0.4697
608.60 0.4694
608.70 0.4691
608.80 0.4688
608.90 0.4685
609.00 0.4682
609.10 0.4679
609.20 0.4676
609.30 0.4673
609.40 0.467
609.50 0.4667
609.60 0.4664
609.70 0.4661
609.80 0.4658
609.90 0.4655
610.00 0.4652
610.10 0.4649
610.20 0.4646
610.30 0.4643
610.40 0.464
610.50 0.4637
610.60 0.4634
610.70 0.4631
610.80 0.4628
610.90 0.4625
611.00 0.4623
611.10 0.462
611.20 0.4617
611.30 0.4614
611.40 0.4611
611.50 0.4608
611.60 0.4605
611.70 0.4602
611.80 0.4599
611.90 0.4596
612.00 0.4593
612.10 0.459
612.20 0.4587
612.30 0.4585
612.40 0.4582
612.50 0.4579
612.60 0.4576
612.70 0.4573
612.80 0.457
612.90 0.4567
613.00 0.4564
613.10 0.4561
613.20 0.4559
613.30 0.4556
613.40 0.4553
613.50 0.455
613.60 0.4547
613.70 0.4544
613.80 0.4541
613.90 0.4538
614.00 0.4536
614.10 0.4533
614.20 0.453
614.30 0.4527
614.40 0.4524
614.50 0.4521
614.60 0.4518
614.70 0.4515
614.80 0.4513
614.90 0.451
615.00 0.4507
615.10 0.4504
615.20 0.4501
615.30 0.4498
615.40 0.4496
615.50 0.4493
615.60 0.449
615.70 0.4487
615.80 0.4484
615.90 0.4481
616.00 0.4479
616.10 0.4476
616.20 0.4473
616.30 0.447
616.40 0.4467
616.50 0.4465
616.60 0.4462
616.70 0.4459
616.80 0.4456
616.90 0.4453
617.00 0.4451
617.10 0.4448
617.20 0.4445
617.30 0.4442
617.40 0.4439
617.50 0.4437
617.60 0.4434
617.70 0.4431
617.80 0.4428
617.90 0.4425
618.00 0.4423
618.10 0.442
618.20 0.4417
618.30 0.4414
618.40 0.4412
618.50 0.4409
618.60 0.4406
618.70 0.4403
618.80 0.44
618.90 0.4398
619.00 0.4395
619.10 0.4392
619.20 0.4389
619.30 0.4387
619.40 0.4384
619.50 0.4381
619.60 0.4378
619.70 0.4376
619.80 0.4373
619.90 0.437
620.00 0.4367
620.10 0.4365
620.20 0.4362
620.30 0.4359
620.40 0.4357
620.50 0.4354
620.60 0.4351
620.70 0.4348
620.80 0.4346
620.90 0.4343
621.00 0.434
621.10 0.4337
621.20 0.4335
621.30 0.4332
621.40 0.4329
621.50 0.4327
621.60 0.4324
621.70 0.4321
621.80 0.4319
621.90 0.4316
622.00 0.4313
622.10 0.431
622.20 0.4308
622.30 0.4305
622.40 0.4302
622.50 0.43
622.60 0.4297
622.70 0.4294
622.80 0.4292
622.90 0.4289
623.00 0.4286
623.10 0.4284
623.20 0.4281
623.30 0.4278
623.40 0.4276
623.50 0.4273
623.60 0.427
623.70 0.4268
623.80 0.4265
623.90 0.4262
624.00 0.426
624.10 0.4257
624.20 0.4254
624.30 0.4252
624.40 0.4249
624.50 0.4246
624.60 0.4244
624.70 0.4241
624.80 0.4238
624.90 0.4236
625.00 0.4233
625.10 0.423
625.20 0.4228
625.30 0.4225
625.40 0.4223
625.50 0.422
625.60 0.4217
625.70 0.4215
625.80 0.4212
625.90 0.4209
626.00 0.4207
626.10 0.4204
626.20 0.4202
626.30 0.4199
626.40 0.4196
626.50 0.4194
626.60 0.4191
626.70 0.4189
626.80 0.4186
626.90 0.4183
627.00 0.4181
627.10 0.4178
627.20 0.4176
627.30 0.4173
627.40 0.417
627.50 0.4168
627.60 0.4165
627.70 0.4163
627.80 0.416
627.90 0.4157
628.00 0.4155
628.10 0.4152
628.20 0.415
628.30 0.4147
628.40 0.4145
628.50 0.4142
628.60 0.4139
628.70 0.4137
628.80 0.4134
628.90 0.4132
629.00 0.4129
629.10 0.4127
629.20 0.4124
629.30 0.4121
629.40 0.4119
629.50 0.4116
629.60 0.4114
629.70 0.4111
629.80 0.4109
629.90 0.4106
630.00 0.4104
630.10 0.4101
630.20 0.4098
630.30 0.4096
630.40 0.4093
630.50 0.4091
630.60 0.4088
630.70 0.4086
630.80 0.4083
630.90 0.4081
631.00 0.4078
631.10 0.4076
631.20 0.4073
631.30 0.4071
631.40 0.4068
631.50 0.4066
631.60 0.4063
631.70 0.406
631.80 0.4058
631.90 0.4055
632.00 0.4053
632.10 0.405
632.20 0.4048
632.30 0.4045
632.40 0.4043
632.50 0.404
632.60 0.4038
632.70 0.4035
632.80 0.4033
632.90 0.403
633.00 0.4028
633.10 0.4025
633.20 0.4023
633.30 0.402
633.40 0.4018
633.50 0.4015
633.60 0.4013
633.70 0.401
633.80 0.4008
633.90 0.4005
634.00 0.4003
634.10 0.4
634.20 0.3998
634.30 0.3995
634.40 0.3993
634.50 0.3991
634.60 0.3988
634.70 0.3986
634.80 0.3983
634.90 0.3981
635.00 0.3978
635.10 0.3976
635.20 0.3973
635.30 0.3971
635.40 0.3968
635.50 0.3966
635.60 0.3963
635.70 0.3961
635.80 0.3958
635.90 0.3956
636.00 0.3953
636.10 0.3951
636.20 0.3949
636.30 0.3946
636.40 0.3944
636.50 0.3941
636.60 0.3939
636.70 0.3936
636.80 0.3934
636.90 0.3931
637.00 0.3929
637.10 0.3926
637.20 0.3924
637.30 0.3922
637.40 0.3919
637.50 0.3917
637.60 0.3914
637.70 0.3912
637.80 0.3909
637.90 0.3907
638.00 0.3904
638.10 0.3902
638.20 0.39
638.30 0.3897
638.40 0.3895
638.50 0.3892
638.60 0.389
638.70 0.3887
638.80 0.3885
638.90 0.3883
639.00 0.388
639.10 0.3878
639.20 0.3875
639.30 0.3873
639.40 0.387
639.50 0.3868
639.60 0.3865
639.70 0.3863
639.80 0.3861
639.90 0.3858
640.00 0.3856
640.10 0.3853
640.20 0.3851
640.30 0.3848
640.40 0.3846
640.50 0.3844
640.60 0.3841
640.70 0.3839
640.80 0.3836
640.90 0.3834
641.00 0.3831
641.10 0.3829
641.20 0.3826
641.30 0.3824
641.40 0.3822
641.50 0.3819
641.60 0.3817
641.70 0.3814
641.80 0.3812
641.90 0.3809
642.00 0.3807
642.10 0.3804
642.20 0.3802
642.30 0.38
642.40 0.3797
642.50 0.3795
642.60 0.3792
642.70 0.379
642.80 0.3787
642.90 0.3785
643.00 0.3782
643.10 0.378
643.20 0.3777
643.30 0.3775
643.40 0.3773
643.50 0.377
643.60 0.3768
643.70 0.3765
643.80 0.3763
643.90 0.376
644.00 0.3758
644.10 0.3755
644.20 0.3753
644.30 0.375
644.40 0.3748
644.50 0.3745
644.60 0.3743
644.70 0.374
644.80 0.3738
644.90 0.3735
645.00 0.3732
645.10 0.373
645.20 0.3727
645.30 0.3725
645.40 0.3722
645.50 0.372
645.60 0.3717
645.70 0.3715
645.80 0.3712
645.90 0.3709
646.00 0.3707
646.10 0.3704
646.20 0.3702
646.30 0.3699
646.40 0.3696
646.50 0.3694
646.60 0.3691
646.70 0.3688
646.80 0.3686
646.90 0.3683
647.00 0.368
647.10 0.3677
647.20 0.3675
647.30 0.3672
647.40 0.3669
647.50 0.3666
647.60 0.3664
647.70 0.3661
647.80 0.3658
647.90 0.3655
648.00 0.3652
648.10 0.3649
648.20 0.3647
648.30 0.3644
648.40 0.3641
648.50 0.3638
648.60 0.3635
648.70 0.3632
648.80 0.3628
648.90 0.3625
649.00 0.3622
649.10 0.3619
649.20 0.3616
649.30 0.3613
649.40 0.361
649.50 0.3606
649.60 0.3603
649.70 0.36
649.80 0.3596
649.90 0.3593
650.00 0.359
650.10 0.3586
650.20 0.3583
650.30 0.3579
650.40 0.3575
650.50 0.3572
650.60 0.3568
650.70 0.3564
650.80 0.356
650.90 0.3556
651.00 0.3552
651.10 0.3548
651.20 0.3544
651.30 0.354
651.40 0.3536
651.50 0.3531
651.60 0.3526
651.70 0.3522
651.80 0.3517
651.90 0.3513
652.00 0.3508
652.10 0.3503
652.20 0.3499
652.30 0.3494
652.40 0.3488
652.50 0.3482
652.60 0.3477
652.70 0.3471
652.80 0.3465
652.90 0.3459
653.00 0.3454
653.10 0.3448
653.20 0.3442
653.30 0.3436
653.40 0.3429
653.50 0.3422
653.60 0.3415
653.70 0.3408
653.80 0.34
653.90 0.3393
654.00 0.3386
654.10 0.3379
654.20 0.3372
654.30 0.3364
654.40 0.3356
654.50 0.3348
654.60 0.3339
654.70 0.3331
654.80 0.3323
654.90 0.3314
655.00 0.3305
655.10 0.3297
655.20 0.3288
655.30 0.3279
655.40 0.3271
655.50 0.3262
655.60 0.3254
655.70 0.3247
655.80 0.3241
655.90 0.3237
656.00 0.3243
656.10 0.3254
656.20 0.3358
656.30 0.3488
656.40 0.3294
656.50 0.3239
656.60 0.3229
656.70 0.3222
656.80 0.3224
656.90 0.3226
657.00 0.323
657.10 0.3235
657.20 0.3239
657.30 0.3244
657.40 0.3249
657.50 0.3254
657.60 0.3259
657.70 0.3264
657.80 0.3269
657.90 0.3273
658.00 0.3277
658.10 0.3282
658.20 0.3286
658.30 0.329
658.40 0.3293
658.50 0.3296
658.60 0.33
658.70 0.3303
658.80 0.3306
658.90 0.3309
659.00 0.3312
659.10 0.3315
659.20 0.3318
659.30 0.3321
659.40 0.3323
659.50 0.3325
659.60 0.3326
659.70 0.3328
659.80 0.3329
659.90 0.3331
660.00 0.3333
660.10 0.3334
660.20 0.3336
660.30 0.3337
660.40 0.3338
660.50 0.3338
660.60 0.3338
660.70 0.3339
660.80 0.3339
660.90 0.334
661.00 0.334
661.10 0.3341
661.20 0.3341
661.30 0.3341
661.40 0.3341
661.50 0.3341
661.60 0.334
661.70 0.334
661.80 0.334
661.90 0.334
662.00 0.3339
662.10 0.3339
662.20 0.3339
662.30 0.3338
662.40 0.3337
662.50 0.3336
662.60 0.3336
662.70 0.3335
662.80 0.3334
662.90 0.3333
663.00 0.3332
663.10 0.3331
663.20 0.3331
663.30 0.333
663.40 0.3329
663.50 0.3327
663.60 0.3326
663.70 0.3325
663.80 0.3324
663.90 0.3323
664.00 0.3322
664.10 0.332
664.20 0.3319
664.30 0.3318
664.40 0.3317
664.50 0.3315
664.60 0.3314
664.70 0.3313
664.80 0.3311
664.90 0.331
665.00 0.3308
665.10 0.3307
665.20 0.3306
665.30 0.3304
665.40 0.3303
665.50 0.3301
665.60 0.33
665.70 0.3298
665.80 0.3297
665.90 0.3295
666.00 0.3294
666.10 0.3292
666.20 0.3291
666.30 0.3289
666.40 0.3287
666.50 0.3286
666.60 0.3284
666.70 0.3283
666.80 0.3281
666.90 0.3279
667.00 0.3278
667.10 0.3276
667.20 0.3275
667.30 0.3273
667.40 0.3271
667.50 0.327
667.60 0.3268
667.70 0.3266
667.80 0.3265
667.90 0.3263
668.00 0.3261
668.10 0.326
668.20 0.3258
668.30 0.3256
668.40 0.3254
668.50 0.3253
668.60 0.3251
668.70 0.3249
668.80 0.3248
668.90 0.3246
669.00 0.3244
669.10 0.3243
669.20 0.3241
669.30 0.3239
669.40 0.3237
669.50 0.3236
669.60 0.3234
669.70 0.3232
669.80 0.323
669.90 0.3229
670.00 0.3227
670.10 0.3225
670.20 0.3223
670.30 0.3222
670.40 0.322
670.50 0.3218
670.60 0.3216
670.70 0.3215
670.80 0.3213
670.90 0.3211
671.00 0.3209
671.10 0.3208
671.20 0.3206
671.30 0.3204
671.40 0.3202
671.50 0.3201
671.60 0.3199
671.70 0.3197
671.80 0.3195
671.90 0.3194
672.00 0.3192
672.10 0.319
672.20 0.3188
672.30 0.3187
672.40 0.3185
672.50 0.3183
672.60 0.3181
672.70 0.318
672.80 0.3178
672.90 0.3176
673.00 0.3174
673.10 0.3172
673.20 0.3171
673.30 0.3169
673.40 0.3167
673.50 0.3165
673.60 0.3164
673.70 0.3162
673.80 0.316
673.90 0.3158
674.00 0.3157
674.10 0.3155
674.20 0.3153
674.30 0.3151
674.40 0.315
674.50 0.3148
674.60 0.3146
674.70 0.3144
674.80 0.3143
674.90 0.3141
675.00 0.3139
675.10 0.3137
675.20 0.3135
675.30 0.3134
675.40 0.3132
675.50 0.313
675.60 0.3128
675.70 0.3127
675.80 0.3125
675.90 0.3123
676.00 0.3121
676.10 0.312
676.20 0.3118
676.30 0.3116
676.40 0.3114
676.50 0.3113
676.60 0.3111
676.70 0.3109
676.80 0.3107
676.90 0.3106
677.00 0.3104
677.10 0.3102
677.20 0.31
677.30 0.3099
677.40 0.3097
677.50 0.3095
677.60 0.3093
677.70 0.3092
677.80 0.309
677.90 0.3088
678.00 0.3086
678.10 0.3085
678.20 0.3083
678.30 0.3081
678.40 0.308
678.50 0.3078
678.60 0.3076
678.70 0.3074
678.80 0.3073
678.90 0.3071
679.00 0.3069
679.10 0.3067
679.20 0.3066
679.30 0.3064
679.40 0.3062
679.50 0.306
679.60 0.3059
679.70 0.3057
679.80 0.3055
679.90 0.3054
680.00 0.3052
680.10 0.305
680.20 0.3048
680.30 0.3047
680.40 0.3045
680.50 0.3043
680.60 0.3042
680.70 0.304
680.80 0.3038
680.90 0.3036
681.00 0.3035
681.10 0.3033
681.20 0.3031
681.30 0.303
681.40 0.3028
681.50 0.3026
681.60 0.3024
681.70 0.3023
681.80 0.3021
681.90 0.3019
682.00 0.3018
682.10 0.3016
682.20 0.3014
682.30 0.3012
682.40 0.3011
682.50 0.3009
682.60 0.3007
682.70 0.3006
682.80 0.3004
682.90 0.3002
683.00 0.3001
683.10 0.2999
683.20 0.2997
683.30 0.2996
683.40 0.2994
683.50 0.2992
683.60 0.299
683.70 0.2989
683.80 0.2987
683.90 0.2985
684.00 0.2984
684.10 0.2982
684.20 0.298
684.30 0.2979
684.40 0.2977
684.50 0.2975
684.60 0.2974
684.70 0.2972
684.80 0.297
684.90 0.2969
685.00 0.2967
685.10 0.2965
685.20 0.2964
685.30 0.2962
685.40 0.296
685.50 0.2959
685.60 0.2957
685.70 0.2955
685.80 0.2954
685.90 0.2952
686.00 0.295
686.10 0.2949
686.20 0.2947
686.30 0.2945
686.40 0.2944
686.50 0.2942
686.60 0.294
686.70 0.2939
686.80 0.2937
686.90 0.2935
687.00 0.2934
687.10 0.2932
687.20 0.293
687.30 0.2929
687.40 0.2927
687.50 0.2926
687.60 0.2924
687.70 0.2922
687.80 0.2921
687.90 0.2919
688.00 0.2917
688.10 0.2916
688.20 0.2914
688.30 0.2912
688.40 0.2911
688.50 0.2909
688.60 0.2907
688.70 0.2906
688.80 0.2904
688.90 0.2903
689.00 0.2901
689.10 0.2899
689.20 0.2898
689.30 0.2896
689.40 0.2894
689.50 0.2893
689.60 0.2891
689.70 0.289
689.80 0.2888
689.90 0.2886
690.00 0.2885
690.10 0.2883
690.20 0.2882
690.30 0.288
690.40 0.2878
690.50 0.2877
690.60 0.2875
690.70 0.2874
690.80 0.2872
690.90 0.287
691.00 0.2869
691.10 0.2867
691.20 0.2866
691.30 0.2864
691.40 0.2862
691.50 0.2861
691.60 0.2859
691.70 0.2858
691.80 0.2856
691.90 0.2854
692.00 0.2853
692.10 0.2851
692.20 0.285
692.30 0.2848
692.40 0.2846
692.50 0.2845
692.60 0.2843
692.70 0.2842
692.80 0.284
692.90 0.2838
693.00 0.2837
693.10 0.2835
693.20 0.2834
693.30 0.2832
693.40 0.283
693.50 0.2829
693.60 0.2827
693.70 0.2826
693.80 0.2824
693.90 0.2823
694.00 0.2821
694.10 0.2819
694.20 0.2818
694.30 0.2816
694.40 0.2815
694.50 0.2813
694.60 0.2811
694.70 0.281
694.80 0.2808
694.90 0.2807
695.00 0.2805
695.10 0.2804
695.20 0.2802
695.30 0.2801
695.40 0.2799
695.50 0.2797
695.60 0.2796
695.70 0.2794
695.80 0.2793
695.90 0.2791
696.00 0.279
696.10 0.2788
696.20 0.2787
696.30 0.2785
696.40 0.2783
696.50 0.2782
696.60 0.278
696.70 0.2779
696.80 0.2777
696.90 0.2776
697.00 0.2774
697.10 0.2773
697.20 0.2771
697.30 0.277
697.40 0.2768
697.50 0.2767
697.60 0.2765
697.70 0.2763
697.80 0.2762
697.90 0.276
698.00 0.2759
698.10 0.2757
698.20 0.2756
698.30 0.2754
698.40 0.2753
698.50 0.2751
698.60 0.275
698.70 0.2748
698.80 0.2747
698.90 0.2745
699.00 0.2744
699.10 0.2742
699.20 0.274
699.30 0.2739
699.40 0.2737
699.50 0.2736
699.60 0.2734
699.70 0.2733
699.80 0.2731
699.90 0.273
700.00 0.2728
700.10 0.2727
700.20 0.2725
700.30 0.2724
700.40 0.2722
700.50 0.2721
700.60 0.2719
700.70 0.2718
700.80 0.2716
700.90 0.2715
701.00 0.2713
701.10 0.2712
701.20 0.271
701.30 0.2709
701.40 0.2707
701.50 0.2706
701.60 0.2704
701.70 0.2703
701.80 0.2701
701.90 0.27
702.00 0.2698
702.10 0.2697
702.20 0.2695
702.30 0.2694
702.40 0.2692
702.50 0.2691
702.60 0.2689
702.70 0.2688
702.80 0.2686
702.90 0.2685
703.00 0.2684
703.10 0.2682
703.20 0.2681
703.30 0.2679
703.40 0.2678
703.50 0.2676
703.60 0.2675
703.70 0.2673
703.80 0.2672
703.90 0.267
704.00 0.2669
704.10 0.2667
704.20 0.2666
704.30 0.2664
704.40 0.2663
704.50 0.2661
704.60 0.266
704.70 0.2658
704.80 0.2657
704.90 0.2655
705.00 0.2654
705.10 0.2653
705.20 0.2651
705.30 0.265
705.40 0.2648
705.50 0.2647
705.60 0.2645
705.70 0.2644
705.80 0.2642
705.90 0.2641
706.00 0.264
706.10 0.2638
706.20 0.2637
706.30 0.2635
706.40 0.2634
706.50 0.2632
706.60 0.2631
706.70 0.2629
706.80 0.2628
706.90 0.2627
707.00 0.2625
707.10 0.2624
707.20 0.2622
707.30 0.2621
707.40 0.2619
707.50 0.2618
707.60 0.2616
707.70 0.2615
707.80 0.2614
707.90 0.2612
708.00 0.2611
708.10 0.2609
708.20 0.2608
708.30 0.2606
708.40 0.2605
708.50 0.2604
708.60 0.2602
708.70 0.2601
708.80 0.2599
708.90 0.2598
709.00 0.2596
709.10 0.2595
709.20 0.2594
709.30 0.2592
709.40 0.2591
709.50 0.2589
709.60 0.2588
709.70 0.2586
709.80 0.2585
709.90 0.2584
710.00 0.2582
710.10 0.2581
710.20 0.2579
710.30 0.2578
710.40 0.2577
710.50 0.2575
710.60 0.2574
710.70 0.2572
710.80 0.2571
710.90 0.257
711.00 0.2568
711.10 0.2567
711.20 0.2565
711.30 0.2564
711.40 0.2563
711.50 0.2561
711.60 0.256
711.70 0.2558
711.80 0.2557
711.90 0.2556
712.00 0.2554
712.10 0.2553
712.20 0.2551
712.30 0.255
712.40 0.2549
712.50 0.2547
712.60 0.2546
712.70 0.2545
712.80 0.2543
712.90 0.2542
713.00 0.254
713.10 0.2539
713.20 0.2538
713.30 0.2536
713.40 0.2535
713.50 0.2533
713.60 0.2532
713.70 0.2531
713.80 0.2529
713.90 0.2528
714.00 0.2527
714.10 0.2525
714.20 0.2524
714.30 0.2522
714.40 0.2521
714.50 0.252
714.60 0.2518
714.70 0.2517
714.80 0.2516
714.90 0.2514
715.00 0.2513
715.10 0.2511
715.20 0.251
715.30 0.2509
715.40 0.2507
715.50 0.2506
715.60 0.2505
715.70 0.2503
715.80 0.2502
715.90 0.2501
716.00 0.2499
716.10 0.2498
716.20 0.2497
716.30 0.2495
716.40 0.2494
716.50 0.2492
716.60 0.2491
716.70 0.249
716.80 0.2488
716.90 0.2487
717.00 0.2486
717.10 0.2484
717.20 0.2483
717.30 0.2482
717.40 0.248
717.50 0.2479
717.60 0.2478
717.70 0.2476
717.80 0.2475
717.90 0.2474
718.00 0.2472
718.10 0.2471
718.20 0.247
718.30 0.2468
718.40 0.2467
718.50 0.2466
718.60 0.2464
718.70 0.2463
718.80 0.2462
718.90 0.246
719.00 0.2459
719.10 0.2458
719.20 0.2456
719.30 0.2455
719.40 0.2454
719.50 0.2452
719.60 0.2451
719.70 0.245
719.80 0.2448
719.90 0.2447
720.00 0.2446
720.10 0.2444
720.20 0.2443
720.30 0.2442
720.40 0.244
720.50 0.2439
720.60 0.2438
720.70 0.2437
720.80 0.2435
720.90 0.2434
721.00 0.2433
721.10 0.2431
721.20 0.243
721.30 0.2429
721.40 0.2427
721.50 0.2426
721.60 0.2425
721.70 0.2423
721.80 0.2422
721.90 0.2421
722.00 0.242
722.10 0.2418
722.20 0.2417
722.30 0.2416
722.40 0.2414
722.50 0.2413
722.60 0.2412
722.70 0.241
722.80 0.2409
722.90 0.2408
723.00 0.2407
723.10 0.2405
723.20 0.2404
723.30 0.2403
723.40 0.2401
723.50 0.24
723.60 0.2399
723.70 0.2398
723.80 0.2396
723.90 0.2395
724.00 0.2394
724.10 0.2392
724.20 0.2391
724.30 0.239
724.40 0.2389
724.50 0.2387
724.60 0.2386
724.70 0.2385
724.80 0.2383
724.90 0.2382
725.00 0.2381
725.10 0.238
725.20 0.2378
725.30 0.2377
725.40 0.2376
725.50 0.2374
725.60 0.2373
725.70 0.2372
725.80 0.2371
725.90 0.2369
726.00 0.2368
726.10 0.2367
726.20 0.2366
726.30 0.2364
726.40 0.2363
726.50 0.2362
726.60 0.2361
726.70 0.2359
726.80 0.2358
726.90 0.2357
727.00 0.2356
727.10 0.2354
727.20 0.2353
727.30 0.2352
727.40 0.2351
727.50 0.2349
727.60 0.2348
727.70 0.2347
727.80 0.2346
727.90 0.2344
728.00 0.2343
728.10 0.2342
728.20 0.234
728.30 0.2339
728.40 0.2338
728.50 0.2337
728.60 0.2335
728.70 0.2334
728.80 0.2333
728.90 0.2332
729.00 0.2331
729.10 0.2329
729.20 0.2328
729.30 0.2327
729.40 0.2326
729.50 0.2324
729.60 0.2323
729.70 0.2322
729.80 0.2321
729.90 0.2319
730.00 0.2318
730.10 0.2317
730.20 0.2316
730.30 0.2314
730.40 0.2313
730.50 0.2312
730.60 0.2311
730.70 0.231
730.80 0.2308
730.90 0.2307
731.00 0.2306
731.10 0.2305
731.20 0.2303
731.30 0.2302
731.40 0.2301
731.50 0.23
731.60 0.2299
731.70 0.2297
731.80 0.2296
731.90 0.2295
732.00 0.2294
732.10 0.2293
732.20 0.2291
732.30 0.229
732.40 0.2289
732.50 0.2288
732.60 0.2286
732.70 0.2285
732.80 0.2284
732.90 0.2283
733.00 0.2282
733.10 0.228
733.20 0.2279
733.30 0.2278
733.40 0.2277
733.50 0.2276
733.60 0.2274
733.70 0.2273
733.80 0.2272
733.90 0.2271
734.00 0.227
734.10 0.2268
734.20 0.2267
734.30 0.2266
734.40 0.2265
734.50 0.2264
734.60 0.2262
734.70 0.2261
734.80 0.226
734.90 0.2259
735.00 0.2258
735.10 0.2256
735.20 0.2255
735.30 0.2254
735.40 0.2253
735.50 0.2252
735.60 0.2251
735.70 0.2249
735.80 0.2248
735.90 0.2247
736.00 0.2246
736.10 0.2245
736.20 0.2243
736.30 0.2242
736.40 0.2241
736.50 0.224
736.60 0.2239
736.70 0.2237
736.80 0.2236
736.90 0.2235
737.00 0.2234
737.10 0.2233
737.20 0.2232
737.30 0.223
737.40 0.2229
737.50 0.2228
737.60 0.2227
737.70 0.2226
737.80 0.2224
737.90 0.2223
738.00 0.2222
738.10 0.2221
738.20 0.222
738.30 0.2219
738.40 0.2217
738.50 0.2216
738.60 0.2215
738.70 0.2214
738.80 0.2213
738.90 0.2212
739.00 0.221
739.10 0.2209
739.20 0.2208
739.30 0.2207
739.40 0.2206
739.50 0.2205
739.60 0.2203
739.70 0.2202
739.80 0.2201
739.90 0.22
740.00 0.2199
740.10 0.2198
740.20 0.2196
740.30 0.2195
740.40 0.2194
740.50 0.2193
740.60 0.2192
740.70 0.2191
740.80 0.219
740.90 0.2188
741.00 0.2187
741.10 0.2186
741.20 0.2185
741.30 0.2184
741.40 0.2183
741.50 0.2182
741.60 0.218
741.70 0.2179
741.80 0.2178
741.90 0.2177
742.00 0.2176
742.10 0.2175
742.20 0.2174
742.30 0.2173
742.40 0.2171
742.50 0.217
742.60 0.2169
742.70 0.2168
742.80 0.2167
742.90 0.2166
743.00 0.2165
743.10 0.2163
743.20 0.2162
743.30 0.2161
743.40 0.216
743.50 0.2159
743.60 0.2158
743.70 0.2157
743.80 0.2156
743.90 0.2154
744.00 0.2153
744.10 0.2152
744.20 0.2151
744.30 0.215
744.40 0.2149
744.50 0.2148
744.60 0.2147
744.70 0.2145
744.80 0.2144
744.90 0.2143
745.00 0.2142
745.10 0.2141
745.20 0.214
745.30 0.2139
745.40 0.2138
745.50 0.2137
745.60 0.2135
745.70 0.2134
745.80 0.2133
745.90 0.2132
746.00 0.2131
746.10 0.213
746.20 0.2129
746.30 0.2128
746.40 0.2127
746.50 0.2125
746.60 0.2124
746.70 0.2123
746.80 0.2122
746.90 0.2121
747.00 0.212
747.10 0.2119
747.20 0.2118
747.30 0.2117
747.40 0.2115
747.50 0.2114
747.60 0.2113
747.70 0.2112
747.80 0.2111
747.90 0.211
748.00 0.2109
748.10 0.2108
748.20 0.2107
748.30 0.2106
748.40 0.2104
748.50 0.2103
748.60 0.2102
748.70 0.2101
748.80 0.21
748.90 0.2099
749.00 0.2098
749.10 0.2097
749.20 0.2096
749.30 0.2095
749.40 0.2093
749.50 0.2092
749.60 0.2091
749.70 0.209
749.80 0.2089
749.90 0.2088
750.00 0.2087
750.10 0.2086
750.20 0.2085
750.30 0.2084
750.40 0.2083
750.50 0.2082
750.60 0.208
750.70 0.2079
750.80 0.2078
750.90 0.2077
751.00 0.2076
751.10 0.2075
751.20 0.2074
751.30 0.2073
751.40 0.2072
751.50 0.2071
751.60 0.207
751.70 0.2069
751.80 0.2068
751.90 0.2067
752.00 0.2066
752.10 0.2064
752.20 0.2063
752.30 0.2062
752.40 0.2061
752.50 0.206
752.60 0.2059
752.70 0.2058
752.80 0.2057
752.90 0.2056
753.00 0.2055
753.10 0.2054
753.20 0.2053
753.30 0.2052
753.40 0.2051
753.50 0.205
753.60 0.2049
753.70 0.2048
753.80 0.2047
753.90 0.2045
754.00 0.2044
754.10 0.2043
754.20 0.2042
754.30 0.2041
754.40 0.204
754.50 0.2039
754.60 0.2038
754.70 0.2037
754.80 0.2036
754.90 0.2035
755.00 0.2034
755.10 0.2033
755.20 0.2032
755.30 0.2031
755.40 0.203
755.50 0.2029
755.60 0.2028
755.70 0.2027
755.80 0.2026
755.90 0.2024
756.00 0.2023
756.10 0.2022
756.20 0.2021
756.30 0.202
756.40 0.2019
756.50 0.2018
756.60 0.2017
756.70 0.2016
756.80 0.2015
756.90 0.2014
757.00 0.2013
757.10 0.2012
757.20 0.2011
757.30 0.201
757.40 0.2009
757.50 0.2008
757.60 0.2007
757.70 0.2006
757.80 0.2005
757.90 0.2004
758.00 0.2003
758.10 0.2002
758.20 0.2001
758.30 0.2
758.40 0.1999
758.50 0.1998
758.60 0.1996
758.70 0.1995
758.80 0.1994
758.90 0.1993
759.00 0.1992
759.10 0.1991
759.20 0.199
759.30 0.1989
759.40 0.1988
759.50 0.1987
759.60 0.1986
759.70 0.1985
759.80 0.1984
759.90 0.1983
760.00 0.1982
760.10 0.1981
760.20 0.198
760.30 0.1979
760.40 0.1978
760.50 0.1977
760.60 0.1976
760.70 0.1975
760.80 0.1974
760.90 0.1973
761.00 0.1972
761.10 0.1971
761.20 0.197
761.30 0.1969
761.40 0.1968
761.50 0.1967
761.60 0.1966
761.70 0.1965
761.80 0.1964
761.90 0.1963
762.00 0.1962
762.10 0.1961
762.20 0.196
762.30 0.1959
762.40 0.1958
762.50 0.1957
762.60 0.1956
762.70 0.1955
762.80 0.1954
762.90 0.1953
763.00 0.1952
763.10 0.1951
763.20 0.195
763.30 0.1949
763.40 0.1948
763.50 0.1947
763.60 0.1946
763.70 0.1945
763.80 0.1944
763.90 0.1943
764.00 0.1942
764.10 0.1941
764.20 0.194
764.30 0.1939
764.40 0.1938
764.50 0.1937
764.60 0.1936
764.70 0.1935
764.80 0.1934
764.90 0.1933
765.00 0.1932
765.10 0.1931
765.20 0.193
765.30 0.1929
765.40 0.1928
765.50 0.1928
765.60 0.1927
765.70 0.1926
765.80 0.1925
765.90 0.1924
766.00 0.1923
766.10 0.1922
766.20 0.1921
766.30 0.192
766.40 0.1919
766.50 0.1918
766.60 0.1917
766.70 0.1916
766.80 0.1915
766.90 0.1914
767.00 0.1913
767.10 0.1912
767.20 0.1911
767.30 0.191
767.40 0.1909
767.50 0.1908
767.60 0.1907
767.70 0.1906
767.80 0.1905
767.90 0.1904
768.00 0.1903
768.10 0.1902
768.20 0.1901
768.30 0.19
768.40 0.1899
768.50 0.1898
768.60 0.1897
768.70 0.1896
768.80 0.1895
768.90 0.1894
769.00 0.1893
769.10 0.1893
769.20 0.1892
769.30 0.1891
769.40 0.189
769.50 0.1889
769.60 0.1888
769.70 0.1887
769.80 0.1886
769.90 0.1885
770.00 0.1884
770.10 0.1883
770.20 0.1882
770.30 0.1881
770.40 0.188
770.50 0.1879
770.60 0.1878
770.70 0.1877
770.80 0.1876
770.90 0.1875
771.00 0.1874
771.10 0.1873
771.20 0.1873
771.30 0.1872
771.40 0.1871
771.50 0.187
771.60 0.1869
771.70 0.1868
771.80 0.1867
771.90 0.1866
772.00 0.1865
772.10 0.1864
772.20 0.1863
772.30 0.1862
772.40 0.1861
772.50 0.186
772.60 0.1859
772.70 0.1859
772.80 0.1858
772.90 0.1857
773.00 0.1856
773.10 0.1855
773.20 0.1854
773.30 0.1853
773.40 0.1852
773.50 0.1851
773.60 0.185
773.70 0.1849
773.80 0.1848
773.90 0.1847
774.00 0.1846
774.10 0.1846
774.20 0.1845
774.30 0.1844
774.40 0.1843
774.50 0.1842
774.60 0.1841
774.70 0.184
774.80 0.1839
774.90 0.1838
775.00 0.1837
775.10 0.1836
775.20 0.1835
775.30 0.1834
775.40 0.1834
775.50 0.1833
775.60 0.1832
775.70 0.1831
775.80 0.183
775.90 0.1829
776.00 0.1828
776.10 0.1827
776.20 0.1826
776.30 0.1825
776.40 0.1824
776.50 0.1823
776.60 0.1823
776.70 0.1822
776.80 0.1821
776.90 0.182
777.00 0.1819
777.10 0.1818
777.20 0.1817
777.30 0.1816
777.40 0.1815
777.50 0.1814
777.60 0.1813
777.70 0.1812
777.80 0.1812
777.90 0.1811
778.00 0.181
778.10 0.1809
778.20 0.1808
778.30 0.1807
778.40 0.1806
778.50 0.1805
778.60 0.1804
778.70 0.1803
778.80 0.1802
778.90 0.1802
779.00 0.1801
779.10 0.18
779.20 0.1799
779.30 0.1798
779.40 0.1797
779.50 0.1796
779.60 0.1795
779.70 0.1794
779.80 0.1793
779.90 0.1793
780.00 0.1792
780.10 0.1791
780.20 0.179
780.30 0.1789
780.40 0.1788
780.50 0.1787
780.60 0.1786
780.70 0.1785
780.80 0.1785
780.90 0.1784
781.00 0.1783
781.10 0.1782
781.20 0.1781
781.30 0.178
781.40 0.1779
781.50 0.1778
781.60 0.1777
781.70 0.1777
781.80 0.1776
781.90 0.1775
782.00 0.1774
782.10 0.1773
782.20 0.1772
782.30 0.1771
782.40 0.177
782.50 0.177
782.60 0.1769
782.70 0.1768
782.80 0.1767
782.90 0.1766
783.00 0.1765
783.10 0.1764
783.20 0.1763
783.30 0.1763
783.40 0.1762
783.50 0.1761
783.60 0.176
783.70 0.1759
783.80 0.1758
783.90 0.1757
784.00 0.1756
784.10 0.1756
784.20 0.1755
784.30 0.1754
784.40 0.1753
784.50 0.1752
784.60 0.1751
784.70 0.175
784.80 0.175
784.90 0.1749
785.00 0.1748
785.10 0.1747
785.20 0.1746
785.30 0.1745
785.40 0.1744
785.50 0.1743
785.60 0.1743
785.70 0.1742
785.80 0.1741
785.90 0.174
786.00 0.1739
786.10 0.1738
786.20 0.1737
786.30 0.1737
786.40 0.1736
786.50 0.1735
786.60 0.1734
786.70 0.1733
786.80 0.1732
786.90 0.1731
787.00 0.1731
787.10 0.173
787.20 0.1729
787.30 0.1728
787.40 0.1727
787.50 0.1726
787.60 0.1725
787.70 0.1725
787.80 0.1724
787.90 0.1723
788.00 0.1722
788.10 0.1721
788.20 0.172
788.30 0.1719
788.40 0.1719
788.50 0.1718
788.60 0.1717
788.70 0.1716
788.80 0.1715
788.90 0.1714
789.00 0.1713
789.10 0.1713
789.20 0.1712
789.30 0.1711
789.40 0.171
789.50 0.1709
789.60 0.1708
789.70 0.1707
789.80 0.1707
789.90 0.1706
790.00 0.1705
790.10 0.1704
790.20 0.1703
790.30 0.1702
790.40 0.1702
790.50 0.1701
790.60 0.17
790.70 0.1699
790.80 0.1698
790.90 0.1697
791.00 0.1697
791.10 0.1696
791.20 0.1695
791.30 0.1694
791.40 0.1693
791.50 0.1692
791.60 0.1692
791.70 0.1691
791.80 0.169
791.90 0.1689
792.00 0.1688
792.10 0.1688
792.20 0.1687
792.30 0.1686
792.40 0.1685
792.50 0.1684
792.60 0.1683
792.70 0.1683
792.80 0.1682
792.90 0.1681
793.00 0.168
793.10 0.1679
793.20 0.1678
793.30 0.1678
793.40 0.1677
793.50 0.1676
793.60 0.1675
793.70 0.1674
793.80 0.1674
793.90 0.1673
794.00 0.1672
794.10 0.1671
794.20 0.167
794.30 0.1669
794.40 0.1669
794.50 0.1668
794.60 0.1667
794.70 0.1666
794.80 0.1665
794.90 0.1665
795.00 0.1664
795.10 0.1663
795.20 0.1662
795.30 0.1661
795.40 0.166
795.50 0.166
795.60 0.1659
795.70 0.1658
795.80 0.1657
795.90 0.1656
796.00 0.1656
796.10 0.1655
796.20 0.1654
796.30 0.1653
796.40 0.1652
796.50 0.1652
796.60 0.1651
796.70 0.165
796.80 0.1649
796.90 0.1648
797.00 0.1648
797.10 0.1647
797.20 0.1646
797.30 0.1645
797.40 0.1644
797.50 0.1643
797.60 0.1643
797.70 0.1642
797.80 0.1641
797.90 0.164
798.00 0.1639
798.10 0.1639
798.20 0.1638
798.30 0.1637
798.40 0.1636
798.50 0.1635
798.60 0.1635
798.70 0.1634
798.80 0.1633
798.90 0.1632
799.00 0.1631
799.10 0.1631
799.20 0.163
799.30 0.1629
799.40 0.1628
799.50 0.1627
799.60 0.1627
799.70 0.1626
799.80 0.1625
799.90 0.1624
800.00 0.1623
800.10 0.1623
800.20 0.1622
800.30 0.1621
800.40 0.162
800.50 0.162
800.60 0.1619
800.70 0.1618
800.80 0.1617
800.90 0.1616
801.00 0.1616
801.10 0.1615
801.20 0.1614
801.30 0.1613
801.40 0.1613
801.50 0.1612
801.60 0.1611
801.70 0.161
801.80 0.1609
801.90 0.1609
802.00 0.1608
802.10 0.1607
802.20 0.1606
802.30 0.1606
802.40 0.1605
802.50 0.1604
802.60 0.1603
802.70 0.1602
802.80 0.1602
802.90 0.1601
803.00 0.16
803.10 0.1599
803.20 0.1599
803.30 0.1598
803.40 0.1597
803.50 0.1596
803.60 0.1595
803.70 0.1595
803.80 0.1594
803.90 0.1593
804.00 0.1592
804.10 0.1592
804.20 0.1591
804.30 0.159
804.40 0.1589
804.50 0.1589
804.60 0.1588
804.70 0.1587
804.80 0.1586
804.90 0.1585
805.00 0.1585
805.10 0.1584
805.20 0.1583
805.30 0.1582
805.40 0.1582
805.50 0.1581
805.60 0.158
805.70 0.1579
805.80 0.1579
805.90 0.1578
806.00 0.1577
806.10 0.1576
806.20 0.1576
806.30 0.1575
806.40 0.1574
806.50 0.1573
806.60 0.1572
806.70 0.1572
806.80 0.1571
806.90 0.157
807.00 0.1569
807.10 0.1569
807.20 0.1568
807.30 0.1567
807.40 0.1566
807.50 0.1566
807.60 0.1565
807.70 0.1564
807.80 0.1563
807.90 0.1563
808.00 0.1562
808.10 0.1561
808.20 0.156
808.30 0.156
808.40 0.1559
808.50 0.1558
808.60 0.1557
808.70 0.1557
808.80 0.1556
808.90 0.1555
809.00 0.1554
809.10 0.1554
809.20 0.1553
809.30 0.1552
809.40 0.1551
809.50 0.1551
809.60 0.155
809.70 0.1549
809.80 0.1548
809.90 0.1548
810.00 0.1547
810.10 0.1546
810.20 0.1545
810.30 0.1545
810.40 0.1544
810.50 0.1543
810.60 0.1542
810.70 0.1542
810.80 0.1541
810.90 0.154
811.00 0.1539
811.10 0.1539
811.20 0.1538
811.30 0.1537
811.40 0.1537
811.50 0.1536
811.60 0.1535
811.70 0.1534
811.80 0.1534
811.90 0.1533
812.00 0.1532
812.10 0.1531
812.20 0.1531
812.30 0.153
812.40 0.1529
812.50 0.1528
812.60 0.1528
812.70 0.1527
812.80 0.1526
812.90 0.1526
813.00 0.1525
813.10 0.1524
813.20 0.1523
813.30 0.1523
813.40 0.1522
813.50 0.1521
813.60 0.152
813.70 0.152
813.80 0.1519
813.90 0.1518
814.00 0.1518
814.10 0.1517
814.20 0.1516
814.30 0.1515
814.40 0.1515
814.50 0.1514
814.60 0.1513
814.70 0.1512
814.80 0.1512
814.90 0.1511
815.00 0.151
815.10 0.151
815.20 0.1509
815.30 0.1508
815.40 0.1507
815.50 0.1507
815.60 0.1506
815.70 0.1505
815.80 0.1505
815.90 0.1504
816.00 0.1503
816.10 0.1502
816.20 0.1502
816.30 0.1501
816.40 0.15
816.50 0.15
816.60 0.1499
816.70 0.1498
816.80 0.1497
816.90 0.1497
817.00 0.1496
817.10 0.1495
817.20 0.1495
817.30 0.1494
817.40 0.1493
817.50 0.1492
817.60 0.1492
817.70 0.1491
817.80 0.149
817.90 0.149
818.00 0.1489
818.10 0.1488
818.20 0.1487
818.30 0.1487
818.40 0.1486
818.50 0.1485
818.60 0.1485
818.70 0.1484
818.80 0.1483
818.90 0.1482
819.00 0.1482
819.10 0.1481
819.20 0.148
819.30 0.148
819.40 0.1479
819.50 0.1478
819.60 0.1477
819.70 0.1477
819.80 0.1476
819.90 0.1475
820.00 0.1475
820.10 0.1474
820.20 0.1473
820.30 0.1473
820.40 0.1472
820.50 0.1471
820.60 0.147
820.70 0.147
820.80 0.1469
820.90 0.1468
821.00 0.1468
821.10 0.1467
821.20 0.1466
821.30 0.1466
821.40 0.1465
821.50 0.1464
821.60 0.1463
821.70 0.1463
821.80 0.1462
821.90 0.1461
822.00 0.1461
822.10 0.146
822.20 0.1459
822.30 0.1459
822.40 0.1458
822.50 0.1457
822.60 0.1457
822.70 0.1456
822.80 0.1455
822.90 0.1455
823.00 0.1454
823.10 0.1453
823.20 0.1452
823.30 0.1452
823.40 0.1451
823.50 0.145
823.60 0.145
823.70 0.1449
823.80 0.1448
823.90 0.1448
824.00 0.1447
824.10 0.1446
824.20 0.1446
824.30 0.1445
824.40 0.1444
824.50 0.1444
824.60 0.1443
824.70 0.1442
824.80 0.1442
824.90 0.1441
825.00 0.144
825.10 0.1439
825.20 0.1439
825.30 0.1438
825.40 0.1437
825.50 0.1437
825.60 0.1436
825.70 0.1435
825.80 0.1435
825.90 0.1434
826.00 0.1433
826.10 0.1433
826.20 0.1432
826.30 0.1431
826.40 0.1431
826.50 0.143
826.60 0.1429
826.70 0.1429
826.80 0.1428
826.90 0.1427
827.00 0.1427
827.10 0.1426
827.20 0.1425
827.30 0.1425
827.40 0.1424
827.50 0.1423
827.60 0.1423
827.70 0.1422
827.80 0.1421
827.90 0.1421
828.00 0.142
828.10 0.1419
828.20 0.1419
828.30 0.1418
828.40 0.1417
828.50 0.1417
828.60 0.1416
828.70 0.1415
828.80 0.1415
828.90 0.1414
829.00 0.1413
829.10 0.1413
829.20 0.1412
829.30 0.1411
829.40 0.1411
829.50 0.141
829.60 0.1409
829.70 0.1409
829.80 0.1408
829.90 0.1407
830.00 0.1407
830.10 0.1406
830.20 0.1405
830.30 0.1405
830.40 0.1404
830.50 0.1403
830.60 0.1403
830.70 0.1402
830.80 0.1401
830.90 0.1401
831.00 0.14
831.10 0.1399
831.20 0.1399
831.30 0.1398
831.40 0.1397
831.50 0.1397
831.60 0.1396
831.70 0.1395
831.80 0.1395
831.90 0.1394
832.00 0.1393
832.10 0.1393
832.20 0.1392
832.30 0.1392
832.40 0.1391
832.50 0.139
832.60 0.139
832.70 0.1389
832.80 0.1388
832.90 0.1388
833.00 0.1387
833.10 0.1386
833.20 0.1386
833.30 0.1385
833.40 0.1384
833.50 0.1384
833.60 0.1383
833.70 0.1382
833.80 0.1382
833.90 0.1381
834.00 0.1381
834.10 0.138
834.20 0.1379
834.30 0.1379
834.40 0.1378
834.50 0.1377
834.60 0.1377
834.70 0.1376
834.80 0.1375
834.90 0.1375
835.00 0.1374
835.10 0.1373
835.20 0.1373
835.30 0.1372
835.40 0.1372
835.50 0.1371
835.60 0.137
835.70 0.137
835.80 0.1369
835.90 0.1368
836.00 0.1368
836.10 0.1367
836.20 0.1366
836.30 0.1366
836.40 0.1365
836.50 0.1364
836.60 0.1364
836.70 0.1363
836.80 0.1363
836.90 0.1362
837.00 0.1361
837.10 0.1361
837.20 0.136
837.30 0.1359
837.40 0.1359
837.50 0.1358
837.60 0.1357
837.70 0.1357
837.80 0.1356
837.90 0.1356
838.00 0.1355
838.10 0.1354
838.20 0.1354
838.30 0.1353
838.40 0.1352
838.50 0.1352
838.60 0.1351
838.70 0.1351
838.80 0.135
838.90 0.1349
839.00 0.1349
839.10 0.1348
839.20 0.1347
839.30 0.1347
839.40 0.1346
839.50 0.1346
839.60 0.1345
839.70 0.1344
839.80 0.1344
839.90 0.1343
840.00 0.1342
840.10 0.1342
840.20 0.1341
840.30 0.1341
840.40 0.134
840.50 0.1339
840.60 0.1339
840.70 0.1338
840.80 0.1337
840.90 0.1337
841.00 0.1336
841.10 0.1336
841.20 0.1335
841.30 0.1334
841.40 0.1334
841.50 0.1333
841.60 0.1332
841.70 0.1332
841.80 0.1331
841.90 0.1331
842.00 0.133
842.10 0.1329
842.20 0.1329
842.30 0.1328
842.40 0.1328
842.50 0.1327
842.60 0.1326
842.70 0.1326
842.80 0.1325
842.90 0.1324
843.00 0.1324
843.10 0.1323
843.20 0.1323
843.30 0.1322
843.40 0.1321
843.50 0.1321
843.60 0.132
843.70 0.132
843.80 0.1319
843.90 0.1318
844.00 0.1318
844.10 0.1317
844.20 0.1317
844.30 0.1316
844.40 0.1315
844.50 0.1315
844.60 0.1314
844.70 0.1314
844.80 0.1313
844.90 0.1312
845.00 0.1312
845.10 0.1311
845.20 0.131
845.30 0.131
845.40 0.1309
845.50 0.1309
845.60 0.1308
845.70 0.1307
845.80 0.1307
845.90 0.1306
846.00 0.1306
846.10 0.1305
846.20 0.1304
846.30 0.1304
846.40 0.1303
846.50 0.1303
846.60 0.1302
846.70 0.1301
846.80 0.1301
846.90 0.13
847.00 0.13
847.10 0.1299
847.20 0.1298
847.30 0.1298
847.40 0.1297
847.50 0.1297
847.60 0.1296
847.70 0.1295
847.80 0.1295
847.90 0.1294
848.00 0.1294
848.10 0.1293
848.20 0.1292
848.30 0.1292
848.40 0.1291
848.50 0.1291
848.60 0.129
848.70 0.1289
848.80 0.1289
848.90 0.1288
849.00 0.1288
849.10 0.1287
849.20 0.1287
849.30 0.1286
849.40 0.1285
849.50 0.1285
849.60 0.1284
849.70 0.1284
849.80 0.1283
849.90 0.1282
850.00 0.1282
850.10 0.1281
850.20 0.1281
850.30 0.128
850.40 0.1279
850.50 0.1279
850.60 0.1278
850.70 0.1278
850.80 0.1277
850.90 0.1277
851.00 0.1276
851.10 0.1275
851.20 0.1275
851.30 0.1274
851.40 0.1274
851.50 0.1273
851.60 0.1272
851.70 0.1272
851.80 0.1271
851.90 0.1271
852.00 0.127
852.10 0.1269
852.20 0.1269
852.30 0.1268
852.40 0.1268
852.50 0.1267
852.60 0.1267
852.70 0.1266
852.80 0.1265
852.90 0.1265
853.00 0.1264
853.10 0.1264
853.20 0.1263
853.30 0.1263
853.40 0.1262
853.50 0.1261
853.60 0.1261
853.70 0.126
853.80 0.126
853.90 0.1259
854.00 0.1259
854.10 0.1258
854.20 0.1257
854.30 0.1257
854.40 0.1256
854.50 0.1256
854.60 0.1255
854.70 0.1254
854.80 0.1254
854.90 0.1253
855.00 0.1253
855.10 0.1252
855.20 0.1252
855.30 0.1251
855.40 0.125
855.50 0.125
855.60 0.1249
855.70 0.1249
855.80 0.1248
855.90 0.1248
856.00 0.1247
856.10 0.1246
856.20 0.1246
856.30 0.1245
856.40 0.1245
856.50 0.1244
856.60 0.1244
856.70 0.1243
856.80 0.1242
856.90 0.1242
857.00 0.1241
857.10 0.1241
857.20 0.124
857.30 0.124
857.40 0.1239
857.50 0.1239
857.60 0.1238
857.70 0.1237
857.80 0.1237
857.90 0.1236
858.00 0.1236
858.10 0.1235
858.20 0.1235
858.30 0.1234
858.40 0.1234
858.50 0.1233
858.60 0.1232
858.70 0.1232
858.80 0.1231
858.90 0.1231
859.00 0.123
859.10 0.123
859.20 0.1229
859.30 0.1229
859.40 0.1228
859.50 0.1227
859.60 0.1227
859.70 0.1226
859.80 0.1226
859.90 0.1225
860.00 0.1225
860.10 0.1224
860.20 0.1224
860.30 0.1223
860.40 0.1222
860.50 0.1222
860.60 0.1221
860.70 0.1221
860.80 0.122
860.90 0.122
861.00 0.1219
861.10 0.1219
861.20 0.1218
861.30 0.1217
861.40 0.1217
861.50 0.1216
861.60 0.1216
861.70 0.1215
861.80 0.1215
861.90 0.1214
862.00 0.1214
862.10 0.1213
862.20 0.1212
862.30 0.1212
862.40 0.1211
862.50 0.1211
862.60 0.121
862.70 0.121
862.80 0.1209
862.90 0.1209
863.00 0.1208
863.10 0.1208
863.20 0.1207
863.30 0.1206
863.40 0.1206
863.50 0.1205
863.60 0.1205
863.70 0.1204
863.80 0.1204
863.90 0.1203
864.00 0.1203
864.10 0.1202
864.20 0.1202
864.30 0.1201
864.40 0.12
864.50 0.12
864.60 0.1199
864.70 0.1199
864.80 0.1198
864.90 0.1198
865.00 0.1197
865.10 0.1197
865.20 0.1196
865.30 0.1196
865.40 0.1195
865.50 0.1195
865.60 0.1194
865.70 0.1193
865.80 0.1193
865.90 0.1192
866.00 0.1192
866.10 0.1191
866.20 0.1191
866.30 0.119
866.40 0.119
866.50 0.1189
866.60 0.1189
866.70 0.1188
866.80 0.1188
866.90 0.1187
867.00 0.1186
867.10 0.1186
867.20 0.1185
867.30 0.1185
867.40 0.1184
867.50 0.1184
867.60 0.1183
867.70 0.1183
867.80 0.1182
867.90 0.1182
868.00 0.1181
868.10 0.1181
868.20 0.118
868.30 0.118
868.40 0.1179
868.50 0.1178
868.60 0.1178
868.70 0.1177
868.80 0.1177
868.90 0.1176
869.00 0.1176
869.10 0.1175
869.20 0.1175
869.30 0.1174
869.40 0.1174
869.50 0.1173
869.60 0.1173
869.70 0.1172
869.80 0.1172
869.90 0.1171
870.00 0.1171
870.10 0.117
870.20 0.117
870.30 0.1169
870.40 0.1168
870.50 0.1168
870.60 0.1167
870.70 0.1167
870.80 0.1166
870.90 0.1166
871.00 0.1165
871.10 0.1165
871.20 0.1164
871.30 0.1164
871.40 0.1163
871.50 0.1163
871.60 0.1162
871.70 0.1162
871.80 0.1161
871.90 0.1161
872.00 0.116
872.10 0.116
872.20 0.1159
872.30 0.1159
872.40 0.1158
872.50 0.1158
872.60 0.1157
872.70 0.1156
872.80 0.1156
872.90 0.1155
873.00 0.1155
873.10 0.1154
873.20 0.1154
873.30 0.1153
873.40 0.1153
873.50 0.1152
873.60 0.1152
873.70 0.1151
873.80 0.1151
873.90 0.115
874.00 0.115
874.10 0.1149
874.20 0.1149
874.30 0.1148
874.40 0.1148
874.50 0.1147
874.60 0.1147
874.70 0.1146
874.80 0.1146
874.90 0.1145
875.00 0.1145
875.10 0.1144
875.20 0.1144
875.30 0.1143
875.40 0.1143
875.50 0.1142
875.60 0.1142
875.70 0.1141
875.80 0.1141
875.90 0.114
876.00 0.114
876.10 0.1139
876.20 0.1139
876.30 0.1138
876.40 0.1138
876.50 0.1137
876.60 0.1136
876.70 0.1136
876.80 0.1135
876.90 0.1135
877.00 0.1134
877.10 0.1134
877.20 0.1133
877.30 0.1133
877.40 0.1132
877.50 0.1132
877.60 0.1131
877.70 0.1131
877.80 0.113
877.90 0.113
878.00 0.1129
878.10 0.1129
878.20 0.1128
878.30 0.1128
878.40 0.1127
878.50 0.1127
878.60 0.1126
878.70 0.1126
878.80 0.1125
878.90 0.1125
879.00 0.1124
879.10 0.1124
879.20 0.1123
879.30 0.1123
879.40 0.1122
879.50 0.1122
879.60 0.1121
879.70 0.1121
879.80 0.112
879.90 0.112
880.00 0.1119
880.10 0.1119
880.20 0.1118
880.30 0.1118
880.40 0.1117
880.50 0.1117
880.60 0.1116
880.70 0.1116
880.80 0.1116
880.90 0.1115
881.00 0.1115
881.10 0.1114
881.20 0.1114
881.30 0.1113
881.40 0.1113
881.50 0.1112
881.60 0.1112
881.70 0.1111
881.80 0.1111
881.90 0.111
882.00 0.111
882.10 0.1109
882.20 0.1109
882.30 0.1108
882.40 0.1108
882.50 0.1107
882.60 0.1107
882.70 0.1106
882.80 0.1106
882.90 0.1105
883.00 0.1105
883.10 0.1104
883.20 0.1104
883.30 0.1103
883.40 0.1103
883.50 0.1102
883.60 0.1102
883.70 0.1101
883.80 0.1101
883.90 0.11
884.00 0.11
884.10 0.1099
884.20 0.1099
884.30 0.1098
884.40 0.1098
884.50 0.1097
884.60 0.1097
884.70 0.1096
884.80 0.1096
884.90 0.1095
885.00 0.1095
885.10 0.1095
885.20 0.1094
885.30 0.1094
885.40 0.1093
885.50 0.1093
885.60 0.1092
885.70 0.1092
885.80 0.1091
885.90 0.1091
886.00 0.109
886.10 0.109
886.20 0.1089
886.30 0.1089
886.40 0.1088
886.50 0.1088
886.60 0.1087
886.70 0.1087
886.80 0.1086
886.90 0.1086
887.00 0.1085
887.10 0.1085
887.20 0.1084
887.30 0.1084
887.40 0.1083
887.50 0.1083
887.60 0.1083
887.70 0.1082
887.80 0.1082
887.90 0.1081
888.00 0.1081
888.10 0.108
888.20 0.108
888.30 0.1079
888.40 0.1079
888.50 0.1078
888.60 0.1078
888.70 0.1077
888.80 0.1077
888.90 0.1076
889.00 0.1076
889.10 0.1075
889.20 0.1075
889.30 0.1074
889.40 0.1074
889.50 0.1074
889.60 0.1073
889.70 0.1073
889.80 0.1072
889.90 0.1072
890.00 0.1071
890.10 0.1071
890.20 0.107
890.30 0.107
890.40 0.1069
890.50 0.1069
890.60 0.1068
890.70 0.1068
890.80 0.1067
890.90 0.1067
891.00 0.1067
891.10 0.1066
891.20 0.1066
891.30 0.1065
891.40 0.1065
891.50 0.1064
891.60 0.1064
891.70 0.1063
891.80 0.1063
891.90 0.1062
892.00 0.1062
892.10 0.1061
892.20 0.1061
892.30 0.106
892.40 0.106
892.50 0.106
892.60 0.1059
892.70 0.1059
892.80 0.1058
892.90 0.1058
893.00 0.1057
893.10 0.1057
893.20 0.1056
893.30 0.1056
893.40 0.1055
893.50 0.1055
893.60 0.1054
893.70 0.1054
893.80 0.1054
893.90 0.1053
894.00 0.1053
894.10 0.1052
894.20 0.1052
894.30 0.1051
894.40 0.1051
894.50 0.105
894.60 0.105
894.70 0.1049
894.80 0.1049
894.90 0.1049
895.00 0.1048
895.10 0.1048
895.20 0.1047
895.30 0.1047
895.40 0.1046
895.50 0.1046
895.60 0.1045
895.70 0.1045
895.80 0.1044
895.90 0.1044
896.00 0.1043
896.10 0.1043
896.20 0.1043
896.30 0.1042
896.40 0.1042
896.50 0.1041
896.60 0.1041
896.70 0.104
896.80 0.104
896.90 0.1039
897.00 0.1039
897.10 0.1039
897.20 0.1038
897.30 0.1038
897.40 0.1037
897.50 0.1037
897.60 0.1036
897.70 0.1036
897.80 0.1035
897.90 0.1035
898.00 0.1034
898.10 0.1034
898.20 0.1034
898.30 0.1033
898.40 0.1033
898.50 0.1032
898.60 0.1032
898.70 0.1031
898.80 0.1031
898.90 0.103
899.00 0.103
899.10 0.103
899.20 0.1029
899.30 0.1029
899.40 0.1028
899.50 0.1028
899.60 0.1027
899.70 0.1027
899.80 0.1026
899.90 0.1026
900.00 0.1026
900.10 0.1025
900.20 0.1025
900.30 0.1024
900.40 0.1024
900.50 0.1023
900.60 0.1023
900.70 0.1022
900.80 0.1022
900.90 0.1022
901.00 0.1021
901.10 0.1021
901.20 0.102
901.30 0.102
901.40 0.1019
901.50 0.1019
901.60 0.1019
901.70 0.1018
901.80 0.1018
901.90 0.1017
902.00 0.1017
902.10 0.1016
902.20 0.1016
902.30 0.1015
902.40 0.1015
902.50 0.1015
902.60 0.1014
902.70 0.1014
902.80 0.1013
902.90 0.1013
903.00 0.1012
903.10 0.1012
903.20 0.1012
903.30 0.1011
903.40 0.1011
903.50 0.101
903.60 0.101
903.70 0.1009
903.80 0.1009
903.90 0.1008
904.00 0.1008
904.10 0.1008
904.20 0.1007
904.30 0.1007
904.40 0.1006
904.50 0.1006
904.60 0.1005
904.70 0.1005
904.80 0.1005
904.90 0.1004
905.00 0.1004
905.10 0.1003
905.20 0.1003
905.30 0.1002
905.40 0.1002
905.50 0.1002
905.60 0.1001
905.70 0.1001
905.80 0.1
905.90 0.09998
906.00 0.09993
906.10 0.09989
906.20 0.09985
906.30 0.09981
906.40 0.09976
906.50 0.09972
906.60 0.09968
906.70 0.09963
906.80 0.09959
906.90 0.09955
907.00 0.0995
907.10 0.09946
907.20 0.09942
907.30 0.09938
907.40 0.09933
907.50 0.09929
907.60 0.09925
907.70 0.09921
907.80 0.09916
907.90 0.09912
908.00 0.09908
908.10 0.09904
908.20 0.09899
908.30 0.09895
908.40 0.09891
908.50 0.09887
908.60 0.09882
908.70 0.09878
908.80 0.09874
908.90 0.0987
909.00 0.09866
909.10 0.09861
909.20 0.09857
909.30 0.09853
909.40 0.09849
909.50 0.09844
909.60 0.0984
909.70 0.09836
909.80 0.09832
909.90 0.09828
910.00 0.09823
910.10 0.09819
910.20 0.09815
910.30 0.09811
910.40 0.09807
910.50 0.09802
910.60 0.09798
910.70 0.09794
910.80 0.0979
910.90 0.09786
911.00 0.09781
911.10 0.09777
911.20 0.09773
911.30 0.09769
911.40 0.09765
911.50 0.0976
911.60 0.09756
911.70 0.09752
911.80 0.09748
911.90 0.09744
912.00 0.0974
912.10 0.09735
912.20 0.09731
912.30 0.09727
912.40 0.09723
912.50 0.09719
912.60 0.09715
912.70 0.09711
912.80 0.09707
912.90 0.09702
913.00 0.09698
913.10 0.09694
913.20 0.0969
913.30 0.09686
913.40 0.09682
913.50 0.09678
913.60 0.09674
913.70 0.09669
913.80 0.09665
913.90 0.09661
914.00 0.09657
914.10 0.09653
914.20 0.09649
914.30 0.09645
914.40 0.09641
914.50 0.09637
914.60 0.09632
914.70 0.09628
914.80 0.09624
914.90 0.0962
915.00 0.09616
915.10 0.09612
915.20 0.09608
915.30 0.09604
915.40 0.096
915.50 0.09596
915.60 0.09592
915.70 0.09587
915.80 0.09583
915.90 0.09579
916.00 0.09575
916.10 0.09571
916.20 0.09567
916.30 0.09563
916.40 0.09559
916.50 0.09555
916.60 0.09551
916.70 0.09547
916.80 0.09543
916.90 0.09539
917.00 0.09535
917.10 0.09531
917.20 0.09527
917.30 0.09523
917.40 0.09519
917.50 0.09515
917.60 0.09511
917.70 0.09507
917.80 0.09503
917.90 0.09499
918.00 0.09495
918.10 0.09491
918.20 0.09487
918.30 0.09483
918.40 0.09479
918.50 0.09475
918.60 0.09471
918.70 0.09467
918.80 0.09463
918.90 0.09459
919.00 0.09455
919.10 0.09451
919.20 0.09447
919.30 0.09443
919.40 0.09439
919.50 0.09435
919.60 0.09431
919.70 0.09427
919.80 0.09423
919.90 0.09419
920.00 0.09415
920.10 0.09411
920.20 0.09407
920.30 0.09403
920.40 0.09399
920.50 0.09395
920.60 0.09391
920.70 0.09387
920.80 0.09383
920.90 0.09379
921.00 0.09376
921.10 0.09372
921.20 0.09368
921.30 0.09364
921.40 0.0936
921.50 0.09356
921.60 0.09352
921.70 0.09348
921.80 0.09344
921.90 0.0934
922.00 0.09336
922.10 0.09332
922.20 0.09328
922.30 0.09324
922.40 0.0932
922.50 0.09316
922.60 0.09313
922.70 0.09309
922.80 0.09305
922.90 0.09301
923.00 0.09297
923.10 0.09293
923.20 0.09289
923.30 0.09285
923.40 0.09281
923.50 0.09277
923.60 0.09273
923.70 0.09269
923.80 0.09266
923.90 0.09262
924.00 0.09258
924.10 0.09254
924.20 0.0925
924.30 0.09246
924.40 0.09242
924.50 0.09238
924.60 0.09234
924.70 0.0923
924.80 0.09227
924.90 0.09223
925.00 0.09219
925.10 0.09215
925.20 0.09211
925.30 0.09207
925.40 0.09203
925.50 0.09199
925.60 0.09195
925.70 0.09192
925.80 0.09188
925.90 0.09184
926.00 0.0918
926.10 0.09176
926.20 0.09172
926.30 0.09168
926.40 0.09164
926.50 0.09161
926.60 0.09157
926.70 0.09153
926.80 0.09149
926.90 0.09145
927.00 0.09141
927.10 0.09137
927.20 0.09134
927.30 0.0913
927.40 0.09126
927.50 0.09122
927.60 0.09118
927.70 0.09114
927.80 0.09111
927.90 0.09107
928.00 0.09103
928.10 0.09099
928.20 0.09095
928.30 0.09092
928.40 0.09088
928.50 0.09084
928.60 0.0908
928.70 0.09076
928.80 0.09073
928.90 0.09069
929.00 0.09065
929.10 0.09061
929.20 0.09057
929.30 0.09054
929.40 0.0905
929.50 0.09046
929.60 0.09042
929.70 0.09038
929.80 0.09035
929.90 0.09031
930.00 0.09027
930.10 0.09023
930.20 0.0902
930.30 0.09016
930.40 0.09012
930.50 0.09008
930.60 0.09004
930.70 0.09001
930.80 0.08997
930.90 0.08993
931.00 0.08989
931.10 0.08986
931.20 0.08982
931.30 0.08978
931.40 0.08974
931.50 0.08971
931.60 0.08967
931.70 0.08963
931.80 0.08959
931.90 0.08956
932.00 0.08952
932.10 0.08948
932.20 0.08944
932.30 0.08941
932.40 0.08937
932.50 0.08933
932.60 0.08929
932.70 0.08926
932.80 0.08922
932.90 0.08918
933.00 0.08915
933.10 0.08911
933.20 0.08907
933.30 0.08903
933.40 0.089
933.50 0.08896
933.60 0.08892
933.70 0.08889
933.80 0.08885
933.90 0.08881
934.00 0.08877
934.10 0.08874
934.20 0.0887
934.30 0.08866
934.40 0.08863
934.50 0.08859
934.60 0.08855
934.70 0.08852
934.80 0.08848
934.90 0.08844
935.00 0.0884
935.10 0.08837
935.20 0.08833
935.30 0.08829
935.40 0.08826
935.50 0.08822
935.60 0.08818
935.70 0.08815
935.80 0.08811
935.90 0.08807
936.00 0.08804
936.10 0.088
936.20 0.08796
936.30 0.08793
936.40 0.08789
936.50 0.08785
936.60 0.08782
936.70 0.08778
936.80 0.08774
936.90 0.08771
937.00 0.08767
937.10 0.08763
937.20 0.0876
937.30 0.08756
937.40 0.08752
937.50 0.08749
937.60 0.08745
937.70 0.08741
937.80 0.08738
937.90 0.08734
938.00 0.08731
938.10 0.08727
938.20 0.08723
938.30 0.0872
938.40 0.08716
938.50 0.08712
938.60 0.08709
938.70 0.08705
938.80 0.08701
938.90 0.08698
939.00 0.08694
939.10 0.08691
939.20 0.08687
939.30 0.08683
939.40 0.0868
939.50 0.08676
939.60 0.08673
939.70 0.08669
939.80 0.08665
939.90 0.08662
940.00 0.08658
940.10 0.08654
940.20 0.08651
940.30 0.08647
940.40 0.08644
940.50 0.0864
940.60 0.08636
940.70 0.08633
940.80 0.08629
940.90 0.08626
941.00 0.08622
941.10 0.08619
941.20 0.08615
941.30 0.08611
941.40 0.08608
941.50 0.08604
941.60 0.08601
941.70 0.08597
941.80 0.08593
941.90 0.0859
942.00 0.08586
942.10 0.08583
942.20 0.08579
942.30 0.08575
942.40 0.08572
942.50 0.08568
942.60 0.08565
942.70 0.08561
942.80 0.08558
942.90 0.08554
943.00 0.08551
943.10 0.08547
943.20 0.08543
943.30 0.0854
943.40 0.08536
943.50 0.08533
943.60 0.08529
943.70 0.08526
943.80 0.08522
943.90 0.08519
944.00 0.08515
944.10 0.08511
944.20 0.08508
944.30 0.08504
944.40 0.08501
944.50 0.08497
944.60 0.08494
944.70 0.0849
944.80 0.08487
944.90 0.08483
945.00 0.0848
945.10 0.08476
945.20 0.08473
945.30 0.08469
945.40 0.08466
945.50 0.08462
945.60 0.08459
945.70 0.08455
945.80 0.08451
945.90 0.08448
946.00 0.08444
946.10 0.08441
946.20 0.08437
946.30 0.08434
946.40 0.0843
946.50 0.08427
946.60 0.08423
946.70 0.0842
946.80 0.08416
946.90 0.08413
947.00 0.08409
947.10 0.08406
947.20 0.08402
947.30 0.08399
947.40 0.08396
947.50 0.08392
947.60 0.08389
947.70 0.08385
947.80 0.08382
947.90 0.08378
948.00 0.08375
948.10 0.08371
948.20 0.08368
948.30 0.08364
948.40 0.08361
948.50 0.08357
948.60 0.08354
948.70 0.0835
948.80 0.08347
948.90 0.08344
949.00 0.0834
949.10 0.08337
949.20 0.08333
949.30 0.0833
949.40 0.08326
949.50 0.08323
949.60 0.0832
949.70 0.08316
949.80 0.08313
949.90 0.08309
950.00 0.08306
950.10 0.08303
950.20 0.08299
950.30 0.08296
950.40 0.08292
950.50 0.08289
950.60 0.08285
950.70 0.08282
950.80 0.08279
950.90 0.08275
951.00 0.08272
951.10 0.08269
951.20 0.08265
951.30 0.08262
951.40 0.08258
951.50 0.08255
951.60 0.08252
951.70 0.08248
951.80 0.08245
951.90 0.08242
952.00 0.08238
952.10 0.08235
952.20 0.08232
952.30 0.08228
952.40 0.08225
952.50 0.08222
952.60 0.08218
952.70 0.08215
952.80 0.08212
952.90 0.08208
953.00 0.08205
953.10 0.08202
953.20 0.08199
953.30 0.08195
953.40 0.08192
953.50 0.08189
953.60 0.08185
953.70 0.08182
953.80 0.08179
953.90 0.08176
954.00 0.08172
954.10 0.08169
954.20 0.08166
954.30 0.08163
954.40 0.0816
954.50 0.08156
954.60 0.08153
954.70 0.0815
954.80 0.08146
954.90 0.08143
955.00 0.0814
955.10 0.08136
955.20 0.08133
955.30 0.08129
955.40 0.08126
955.50 0.08123
955.60 0.08119
955.70 0.08116
955.80 0.08112
955.90 0.08109
956.00 0.08106
956.10 0.08103
956.20 0.08099
956.30 0.08096
956.40 0.08093
956.50 0.08089
956.60 0.08086
956.70 0.08083
956.80 0.08079
956.90 0.08076
957.00 0.08073
957.10 0.08069
957.20 0.08066
957.30 0.08063
957.40 0.0806
957.50 0.08056
957.60 0.08053
957.70 0.0805
957.80 0.08047
957.90 0.08043
958.00 0.0804
958.10 0.08037
958.20 0.08034
958.30 0.0803
958.40 0.08027
958.50 0.08024
958.60 0.08021
958.70 0.08017
958.80 0.08014
958.90 0.08011
959.00 0.08008
959.10 0.08004
959.20 0.08001
959.30 0.07998
959.40 0.07995
959.50 0.07992
959.60 0.07988
959.70 0.07985
959.80 0.07982
959.90 0.07979
960.00 0.07976
960.10 0.07972
960.20 0.07969
960.30 0.07966
960.40 0.07963
960.50 0.0796
960.60 0.07957
960.70 0.07953
960.80 0.0795
960.90 0.07947
961.00 0.07944
961.10 0.07941
961.20 0.07938
961.30 0.07934
961.40 0.07931
961.50 0.07928
961.60 0.07925
961.70 0.07922
961.80 0.07919
961.90 0.07915
962.00 0.07912
962.10 0.07909
962.20 0.07906
962.30 0.07903
962.40 0.079
962.50 0.07896
962.60 0.07893
962.70 0.0789
962.80 0.07887
962.90 0.07884
963.00 0.07881
963.10 0.07878
963.20 0.07875
963.30 0.07871
963.40 0.07868
963.50 0.07865
963.60 0.07862
963.70 0.07859
963.80 0.07856
963.90 0.07853
964.00 0.0785
964.10 0.07846
964.20 0.07843
964.30 0.0784
964.40 0.07837
964.50 0.07834
964.60 0.07831
964.70 0.07828
964.80 0.07825
964.90 0.07822
965.00 0.07818
965.10 0.07815
965.20 0.07812
965.30 0.07809
965.40 0.07806
965.50 0.07803
965.60 0.078
965.70 0.07797
965.80 0.07794
965.90 0.07791
966.00 0.07787
966.10 0.07784
966.20 0.07781
966.30 0.07778
966.40 0.07775
966.50 0.07772
966.60 0.07769
966.70 0.07766
966.80 0.07763
966.90 0.0776
967.00 0.07757
967.10 0.07753
967.20 0.0775
967.30 0.07747
967.40 0.07744
967.50 0.07741
967.60 0.07738
967.70 0.07735
967.80 0.07732
967.90 0.07729
968.00 0.07726
968.10 0.07723
968.20 0.0772
968.30 0.07717
968.40 0.07714
968.50 0.0771
968.60 0.07707
968.70 0.07704
968.80 0.07701
968.90 0.07698
969.00 0.07695
969.10 0.07692
969.20 0.07689
969.30 0.07686
969.40 0.07683
969.50 0.0768
969.60 0.07677
969.70 0.07674
969.80 0.07671
969.90 0.07668
970.00 0.07665
970.10 0.07662
970.20 0.07658
970.30 0.07655
970.40 0.07652
970.50 0.07649
970.60 0.07646
970.70 0.07643
970.80 0.0764
970.90 0.07637
971.00 0.07634
971.10 0.07631
971.20 0.07628
971.30 0.07625
971.40 0.07622
971.50 0.07619
971.60 0.07616
971.70 0.07613
971.80 0.0761
971.90 0.07607
972.00 0.07604
972.10 0.07601
972.20 0.07598
972.30 0.07595
972.40 0.07592
972.50 0.07589
972.60 0.07586
972.70 0.07583
972.80 0.0758
972.90 0.07577
973.00 0.07574
973.10 0.0757
973.20 0.07567
973.30 0.07564
973.40 0.07561
973.50 0.07558
973.60 0.07555
973.70 0.07552
973.80 0.07549
973.90 0.07546
974.00 0.07543
974.10 0.0754
974.20 0.07537
974.30 0.07534
974.40 0.07531
974.50 0.07528
974.60 0.07525
974.70 0.07522
974.80 0.07519
974.90 0.07516
975.00 0.07513
975.10 0.0751
975.20 0.07507
975.30 0.07504
975.40 0.07501
975.50 0.07498
975.60 0.07495
975.70 0.07492
975.80 0.07489
975.90 0.07486
976.00 0.07483
976.10 0.0748
976.20 0.07477
976.30 0.07474
976.40 0.07471
976.50 0.07468
976.60 0.07465
976.70 0.07462
976.80 0.07459
976.90 0.07456
977.00 0.07453
977.10 0.0745
977.20 0.07447
977.30 0.07444
977.40 0.07441
977.50 0.07438
977.60 0.07435
977.70 0.07432
977.80 0.07429
977.90 0.07426
978.00 0.07423
978.10 0.0742
978.20 0.07417
978.30 0.07414
978.40 0.07411
978.50 0.07409
978.60 0.07406
978.70 0.07403
978.80 0.074
978.90 0.07397
979.00 0.07394
979.10 0.07391
979.20 0.07388
979.30 0.07385
979.40 0.07382
979.50 0.07379
979.60 0.07376
979.70 0.07373
979.80 0.0737
979.90 0.07367
980.00 0.07364
980.10 0.07361
980.20 0.07358
980.30 0.07355
980.40 0.07352
980.50 0.07349
980.60 0.07346
980.70 0.07343
980.80 0.0734
980.90 0.07337
981.00 0.07334
981.10 0.07331
981.20 0.07328
981.30 0.07325
981.40 0.07323
981.50 0.0732
981.60 0.07317
981.70 0.07314
981.80 0.07311
981.90 0.07308
982.00 0.07305
982.10 0.07302
982.20 0.07299
982.30 0.07296
982.40 0.07293
982.50 0.0729
982.60 0.07287
982.70 0.07284
982.80 0.07281
982.90 0.07278
983.00 0.07275
983.10 0.07272
983.20 0.07269
983.30 0.07267
983.40 0.07264
983.50 0.07261
983.60 0.07258
983.70 0.07255
983.80 0.07252
983.90 0.07249
984.00 0.07246
984.10 0.07243
984.20 0.0724
984.30 0.07237
984.40 0.07234
984.50 0.07231
984.60 0.07228
984.70 0.07225
984.80 0.07222
984.90 0.0722
985.00 0.07217
985.10 0.07214
985.20 0.07211
985.30 0.07208
985.40 0.07205
985.50 0.07202
985.60 0.07199
985.70 0.07196
985.80 0.07193
985.90 0.0719
986.00 0.07187
986.10 0.07184
986.20 0.07181
986.30 0.07179
986.40 0.07176
986.50 0.07173
986.60 0.0717
986.70 0.07167
986.80 0.07164
986.90 0.07161
987.00 0.07158
987.10 0.07155
987.20 0.07152
987.30 0.07149
987.40 0.07146
987.50 0.07143
987.60 0.07141
987.70 0.07138
987.80 0.07135
987.90 0.07132
988.00 0.07129
988.10 0.07126
988.20 0.07123
988.30 0.0712
988.40 0.07117
988.50 0.07114
988.60 0.07111
988.70 0.07108
988.80 0.07106
988.90 0.07103
989.00 0.071
989.10 0.07097
989.20 0.07094
989.30 0.07091
989.40 0.07088
989.50 0.07085
989.60 0.07082
989.70 0.07079
989.80 0.07076
989.90 0.07074
990.00 0.07071
990.10 0.07068
990.20 0.07065
990.30 0.07062
990.40 0.07059
990.50 0.07056
990.60 0.07053
990.70 0.0705
990.80 0.07047
990.90 0.07045
991.00 0.07042
991.10 0.07039
991.20 0.07036
991.30 0.07033
991.40 0.0703
991.50 0.07027
991.60 0.07024
991.70 0.07021
991.80 0.07018
991.90 0.07016
992.00 0.07013
992.10 0.0701
992.20 0.07007
992.30 0.07004
992.40 0.07001
992.50 0.06998
992.60 0.06995
992.70 0.06992
992.80 0.06989
992.90 0.06987
993.00 0.06984
993.10 0.06981
993.20 0.06978
993.30 0.06975
993.40 0.06972
993.50 0.06969
993.60 0.06966
993.70 0.06963
993.80 0.06961
993.90 0.06958
994.00 0.06955
994.10 0.06952
994.20 0.06949
994.30 0.06946
994.40 0.06943
994.50 0.0694
994.60 0.06938
994.70 0.06935
994.80 0.06932
994.90 0.06929
995.00 0.06926
995.10 0.06923
995.20 0.0692
995.30 0.06917
995.40 0.06914
995.50 0.06912
995.60 0.06909
995.70 0.06906
995.80 0.06903
995.90 0.069
996.00 0.06897
996.10 0.06894
996.20 0.06892
996.30 0.06889
996.40 0.06886
996.50 0.06883
996.60 0.0688
996.70 0.06877
996.80 0.06874
996.90 0.06872
997.00 0.06869
997.10 0.06866
997.20 0.06863
997.30 0.0686
997.40 0.06857
997.50 0.06854
997.60 0.06852
997.70 0.06849
997.80 0.06846
997.90 0.06843
998.00 0.0684
998.10 0.06837
998.20 0.06835
998.30 0.06832
998.40 0.06829
998.50 0.06826
998.60 0.06823
998.70 0.0682
998.80 0.06818
998.90 0.06815
999.00 0.06812
999.10 0.06809
999.20 0.06806
999.30 0.06804
999.40 0.06801
999.50 0.06798
999.60 0.06795
999.70 0.06792
999.80 0.06789
999.90 0.06786
1000.00 0.06784
1000.10 0.06781
1000.20 0.06778
1000.30 0.06775
1000.40 0.06772
1000.50 0.06769
1000.60 0.06766
1000.70 0.06763
1000.80 0.0676
1000.90 0.06757
1001.00 0.06755
1001.10 0.06752
1001.20 0.06749
1001.30 0.06746
1001.40 0.06743
1001.50 0.0674
1001.60 0.06737
1001.70 0.06735
1001.80 0.06732
1001.90 0.06729
1002.00 0.06727
1002.10 0.06724
1002.20 0.06722
1002.30 0.06719
1002.40 0.06717
1002.50 0.06714
1002.60 0.06712
1002.70 0.06709
1002.80 0.06707
1002.90 0.06704
1003.00 0.06702
1003.10 0.06699
1003.20 0.06697
1003.30 0.06694
1003.40 0.06692
1003.50 0.0669
1003.60 0.06687
1003.70 0.06685
1003.80 0.06683
1003.90 0.0668
1004.00 0.06678
1004.10 0.06676
1004.20 0.06674
1004.30 0.06671
1004.40 0.06669
1004.50 0.06667
1004.60 0.06665
1004.70 0.06662
1004.80 0.0666
1004.90 0.06657
1005.00 0.06654
1005.10 0.06652
1005.20 0.06649
1005.30 0.06646
1005.40 0.06644
1005.50 0.06641
1005.60 0.06638
1005.70 0.06635
1005.80 0.06632
1005.90 0.06629
1006.00 0.06626
1006.10 0.06623
1006.20 0.06621
1006.30 0.06618
1006.40 0.06615
1006.50 0.06612
1006.60 0.0661
1006.70 0.06607
1006.80 0.06604
1006.90 0.06601
1007.00 0.06599
1007.10 0.06596
1007.20 0.06593
1007.30 0.06591
1007.40 0.06588
1007.50 0.06586
1007.60 0.06583
1007.70 0.0658
1007.80 0.06578
1007.90 0.06575
1008.00 0.06573
1008.10 0.06571
1008.20 0.06568
1008.30 0.06566
1008.40 0.06563
1008.50 0.06561
1008.60 0.06558
1008.70 0.06556
1008.80 0.06553
1008.90 0.06551
1009.00 0.06548
1009.10 0.06546
1009.20 0.06543
1009.30 0.06541
1009.40 0.06538
1009.50 0.06536
1009.60 0.06534
1009.70 0.06531
1009.80 0.06529
1009.90 0.06526
1010.00 0.06524
1010.10 0.06522
1010.20 0.06519
1010.30 0.06517
1010.40 0.06515
1010.50 0.06512
1010.60 0.0651
1010.70 0.06508
1010.80 0.06505
1010.90 0.06503
1011.00 0.06501
1011.10 0.06498
1011.20 0.06496
1011.30 0.06493
1011.40 0.06491
1011.50 0.06489
1011.60 0.06486
1011.70 0.06484
1011.80 0.06482
1011.90 0.06479
1012.00 0.06477
1012.10 0.06475
1012.20 0.06472
1012.30 0.0647
1012.40 0.06468
1012.50 0.06465
1012.60 0.06463
1012.70 0.06461
1012.80 0.06459
1012.90 0.06456
1013.00 0.06454
1013.10 0.06452
1013.20 0.06449
1013.30 0.06447
1013.40 0.06445
1013.50 0.06442
1013.60 0.0644
1013.70 0.06438
1013.80 0.06435
1013.90 0.06433
1014.00 0.06431
1014.10 0.06429
1014.20 0.06426
1014.30 0.06424
1014.40 0.06422
1014.50 0.06419
1014.60 0.06417
1014.70 0.06415
1014.80 0.06412
1014.90 0.0641
1015.00 0.06408
1015.10 0.06405
1015.20 0.06403
1015.30 0.06401
1015.40 0.06399
1015.50 0.06396
1015.60 0.06394
1015.70 0.06392
1015.80 0.06389
1015.90 0.06387
1016.00 0.06385
1016.10 0.06383
1016.20 0.0638
1016.30 0.06378
1016.40 0.06376
1016.50 0.06373
1016.60 0.06371
1016.70 0.06369
1016.80 0.06366
1016.90 0.06364
1017.00 0.06362
1017.10 0.0636
1017.20 0.06357
1017.30 0.06355
1017.40 0.06353
1017.50 0.0635
1017.60 0.06348
1017.70 0.06346
1017.80 0.06344
1017.90 0.06341
1018.00 0.06339
1018.10 0.06337
1018.20 0.06334
1018.30 0.06332
1018.40 0.0633
1018.50 0.06327
1018.60 0.06325
1018.70 0.06323
1018.80 0.06321
1018.90 0.06318
1019.00 0.06316
1019.10 0.06314
1019.20 0.06311
1019.30 0.06309
1019.40 0.06307
1019.50 0.06305
1019.60 0.06302
1019.70 0.063
1019.80 0.06298
1019.90 0.06295
1020.00 0.06293
1020.10 0.06291
1020.20 0.06288
1020.30 0.06286
1020.40 0.06284
1020.50 0.06282
1020.60 0.06279
1020.70 0.06277
1020.80 0.06275
1020.90 0.06272
1021.00 0.0627
1021.10 0.06268
1021.20 0.06266
1021.30 0.06263
1021.40 0.06261
1021.50 0.06259
1021.60 0.06256
1021.70 0.06254
1021.80 0.06252
1021.90 0.0625
1022.00 0.06247
1022.10 0.06245
1022.20 0.06243
1022.30 0.0624
1022.40 0.06238
1022.50 0.06236
1022.60 0.06234
1022.70 0.06231
1022.80 0.06229
1022.90 0.06227
1023.00 0.06224
1023.10 0.06222
1023.20 0.0622
1023.30 0.06218
1023.40 0.06215
1023.50 0.06213
1023.60 0.06211
1023.70 0.06208
1023.80 0.06206
1023.90 0.06204
1024.00 0.06202
1024.10 0.06199
1024.20 0.06197
1024.30 0.06195
1024.40 0.06193
1024.50 0.0619
1024.60 0.06188
1024.70 0.06186
1024.80 0.06183
1024.90 0.06181
1025.00 0.06179
1025.10 0.06177
1025.20 0.06174
1025.30 0.06172
1025.40 0.0617
1025.50 0.06168
1025.60 0.06165
1025.70 0.06163
1025.80 0.06161
1025.90 0.06158
1026.00 0.06156
1026.10 0.06154
1026.20 0.06152
1026.30 0.06149
1026.40 0.06147
1026.50 0.06145
1026.60 0.06143
1026.70 0.0614
1026.80 0.06138
1026.90 0.06136
1027.00 0.06133
1027.10 0.06131
1027.20 0.06129
1027.30 0.06127
1027.40 0.06124
1027.50 0.06122
1027.60 0.0612
1027.70 0.06118
1027.80 0.06115
1027.90 0.06113
1028.00 0.06111
1028.10 0.06109
1028.20 0.06106
1028.30 0.06104
1028.40 0.06102
1028.50 0.06099
1028.60 0.06097
1028.70 0.06095
1028.80 0.06093
1028.90 0.0609
1029.00 0.06088
1029.10 0.06086
1029.20 0.06084
1029.30 0.06081
1029.40 0.06079
1029.50 0.06077
1029.60 0.06075
1029.70 0.06072
1029.80 0.0607
1029.90 0.06068
1030.00 0.06066
1030.10 0.06063
1030.20 0.06061
1030.30 0.06059
1030.40 0.06057
1030.50 0.06054
1030.60 0.06052
1030.70 0.0605
1030.80 0.06048
1030.90 0.06045
1031.00 0.06043
1031.10 0.06041
1031.20 0.06039
1031.30 0.06036
1031.40 0.06034
1031.50 0.06032
1031.60 0.0603
1031.70 0.06028
1031.80 0.06025
1031.90 0.06023
1032.00 0.06021
1032.10 0.06019
1032.20 0.06016
1032.30 0.06014
1032.40 0.06012
1032.50 0.0601
1032.60 0.06007
1032.70 0.06005
1032.80 0.06003
1032.90 0.06001
1033.00 0.05998
1033.10 0.05996
1033.20 0.05994
1033.30 0.05992
1033.40 0.0599
1033.50 0.05987
1033.60 0.05985
1033.70 0.05983
1033.80 0.05981
1033.90 0.05978
1034.00 0.05976
1034.10 0.05974
1034.20 0.05972
1034.30 0.0597
1034.40 0.05967
1034.50 0.05965
1034.60 0.05963
1034.70 0.05961
1034.80 0.05958
1034.90 0.05956
1035.00 0.05954
1035.10 0.05952
1035.20 0.0595
1035.30 0.05947
1035.40 0.05945
1035.50 0.05943
1035.60 0.05941
1035.70 0.05938
1035.80 0.05936
1035.90 0.05934
1036.00 0.05932
1036.10 0.0593
1036.20 0.05927
1036.30 0.05925
1036.40 0.05923
1036.50 0.05921
1036.60 0.05919
1036.70 0.05916
1036.80 0.05914
1036.90 0.05912
1037.00 0.0591
1037.10 0.05908
1037.20 0.05905
1037.30 0.05903
1037.40 0.05901
1037.50 0.05899
1037.60 0.05897
1037.70 0.05894
1037.80 0.05892
1037.90 0.0589
1038.00 0.05888
1038.10 0.05886
1038.20 0.05883
1038.30 0.05881
1038.40 0.05879
1038.50 0.05877
1038.60 0.05875
1038.70 0.05872
1038.80 0.0587
1038.90 0.05868
1039.00 0.05866
1039.10 0.05864
1039.20 0.05861
1039.30 0.05859
1039.40 0.05857
1039.50 0.05855
1039.60 0.05853
1039.70 0.05851
1039.80 0.05848
1039.90 0.05846
1040.00 0.05844
1040.10 0.05842
1040.20 0.0584
1040.30 0.05837
1040.40 0.05835
1040.50 0.05833
1040.60 0.05831
1040.70 0.05829
1040.80 0.05827
1040.90 0.05824
1041.00 0.05822
1041.10 0.0582
1041.20 0.05818
1041.30 0.05816
1041.40 0.05814
1041.50 0.05811
1041.60 0.05809
1041.70 0.05807
1041.80 0.05805
1041.90 0.05803
1042.00 0.05801
1042.10 0.05798
1042.20 0.05796
1042.30 0.05794
1042.40 0.05792
1042.50 0.0579
1042.60 0.05788
1042.70 0.05785
1042.80 0.05783
1042.90 0.05781
1043.00 0.05779
1043.10 0.05777
1043.20 0.05775
1043.30 0.05772
1043.40 0.0577
1043.50 0.05768
1043.60 0.05766
1043.70 0.05764
1043.80 0.05762
1043.90 0.0576
1044.00 0.05757
1044.10 0.05755
1044.20 0.05753
1044.30 0.05751
1044.40 0.05749
1044.50 0.05747
1044.60 0.05744
1044.70 0.05742
1044.80 0.0574
1044.90 0.05738
1045.00 0.05736
1045.10 0.05734
1045.20 0.05732
1045.30 0.05729
1045.40 0.05727
1045.50 0.05725
1045.60 0.05723
1045.70 0.05721
1045.80 0.05719
1045.90 0.05717
1046.00 0.05715
1046.10 0.05712
1046.20 0.0571
1046.30 0.05708
1046.40 0.05706
1046.50 0.05704
1046.60 0.05702
1046.70 0.057
1046.80 0.05697
1046.90 0.05695
1047.00 0.05693
1047.10 0.05691
1047.20 0.05689
1047.30 0.05687
1047.40 0.05685
1047.50 0.05683
1047.60 0.0568
1047.70 0.05678
1047.80 0.05676
1047.90 0.05674
1048.00 0.05672
1048.10 0.0567
1048.20 0.05668
1048.30 0.05666
1048.40 0.05664
1048.50 0.05661
1048.60 0.05659
1048.70 0.05657
1048.80 0.05655
1048.90 0.05653
1049.00 0.05651
1049.10 0.05649
1049.20 0.05647
1049.30 0.05644
1049.40 0.05642
1049.50 0.0564
1049.60 0.05638
1049.70 0.05636
1049.80 0.05634
1049.90 0.05632
1050.00 0.0563
1050.10 0.05628
1050.20 0.05626
1050.30 0.05623
1050.40 0.05621
1050.50 0.05619
1050.60 0.05617
1050.70 0.05615
1050.80 0.05613
1050.90 0.05611
1051.00 0.05609
1051.10 0.05607
1051.20 0.05605
1051.30 0.05602
1051.40 0.056
1051.50 0.05598
1051.60 0.05596
1051.70 0.05594
1051.80 0.05592
1051.90 0.0559
1052.00 0.05588
1052.10 0.05586
1052.20 0.05584
1052.30 0.05582
1052.40 0.05579
1052.50 0.05577
1052.60 0.05575
1052.70 0.05573
1052.80 0.05571
1052.90 0.05569
1053.00 0.05567
1053.10 0.05565
1053.20 0.05563
1053.30 0.05561
1053.40 0.05559
1053.50 0.05557
1053.60 0.05555
1053.70 0.05552
1053.80 0.0555
1053.90 0.05548
1054.00 0.05546
1054.10 0.05544
1054.20 0.05542
1054.30 0.0554
1054.40 0.05538
1054.50 0.05536
1054.60 0.05534
1054.70 0.05532
1054.80 0.0553
1054.90 0.05528
1055.00 0.05526
1055.10 0.05523
1055.20 0.05521
1055.30 0.05519
1055.40 0.05517
1055.50 0.05515
1055.60 0.05513
1055.70 0.05511
1055.80 0.05509
1055.90 0.05507
1056.00 0.05505
1056.10 0.05503
1056.20 0.05501
1056.30 0.05499
1056.40 0.05497
1056.50 0.05495
1056.60 0.05493
1056.70 0.0549
1056.80 0.05488
1056.90 0.05486
1057.00 0.05484
1057.10 0.05482
1057.20 0.0548
1057.30 0.05478
1057.40 0.05476
1057.50 0.05474
1057.60 0.05472
1057.70 0.0547
1057.80 0.05468
1057.90 0.05466
1058.00 0.05464
1058.10 0.05462
1058.20 0.0546
1058.30 0.05458
1058.40 0.05456
1058.50 0.05454
1058.60 0.05452
1058.70 0.0545
1058.80 0.05447
1058.90 0.05445
1059.00 0.05443
1059.10 0.05441
1059.20 0.05439
1059.30 0.05437
1059.40 0.05435
1059.50 0.05433
1059.60 0.05431
1059.70 0.05429
1059.80 0.05427
1059.90 0.05425
1060.00 0.05423
1060.10 0.05421
1060.20 0.05419
1060.30 0.05417
1060.40 0.05415
1060.50 0.05413
1060.60 0.05411
1060.70 0.05409
1060.80 0.05407
1060.90 0.05405
1061.00 0.05403
1061.10 0.05401
1061.20 0.05399
1061.30 0.05397
1061.40 0.05395
1061.50 0.05393
1061.60 0.05391
1061.70 0.05389
1061.80 0.05387
1061.90 0.05384
1062.00 0.05382
1062.10 0.0538
1062.20 0.05378
1062.30 0.05376
1062.40 0.05374
1062.50 0.05372
1062.60 0.0537
1062.70 0.05368
1062.80 0.05366
1062.90 0.05364
1063.00 0.05362
1063.10 0.0536
1063.20 0.05358
1063.30 0.05356
1063.40 0.05354
1063.50 0.05352
1063.60 0.0535
1063.70 0.05348
1063.80 0.05346
1063.90 0.05344
1064.00 0.05342
1064.10 0.0534
1064.20 0.05338
1064.30 0.05336
1064.40 0.05334
1064.50 0.05332
1064.60 0.0533
1064.70 0.05328
1064.80 0.05326
1064.90 0.05324
1065.00 0.05322
1065.10 0.0532
1065.20 0.05318
1065.30 0.05316
1065.40 0.05314
1065.50 0.05312
1065.60 0.0531
1065.70 0.05308
1065.80 0.05306
1065.90 0.05304
1066.00 0.05302
1066.10 0.053
1066.20 0.05298
1066.30 0.05296
1066.40 0.05294
1066.50 0.05292
1066.60 0.0529
1066.70 0.05288
1066.80 0.05286
1066.90 0.05284
1067.00 0.05282
1067.10 0.0528
1067.20 0.05278
1067.30 0.05276
1067.40 0.05274
1067.50 0.05272
1067.60 0.0527
1067.70 0.05268
1067.80 0.05266
1067.90 0.05264
1068.00 0.05262
1068.10 0.0526
1068.20 0.05258
1068.30 0.05256
1068.40 0.05254
1068.50 0.05252
1068.60 0.0525
1068.70 0.05248
1068.80 0.05246
1068.90 0.05244
1069.00 0.05242
1069.10 0.0524
1069.20 0.05238
1069.30 0.05236
1069.40 0.05234
1069.50 0.05232
1069.60 0.0523
1069.70 0.05228
1069.80 0.05226
1069.90 0.05224
1070.00 0.05222
1070.10 0.0522
1070.20 0.05218
1070.30 0.05216
1070.40 0.05214
1070.50 0.05212
1070.60 0.0521
1070.70 0.05208
1070.80 0.05206
1070.90 0.05204
1071.00 0.05202
1071.10 0.052
1071.20 0.05198
1071.30 0.05196
1071.40 0.05194
1071.50 0.05192
1071.60 0.0519
1071.70 0.05188
1071.80 0.05186
1071.90 0.05184
1072.00 0.05182
1072.10 0.0518
1072.20 0.05178
1072.30 0.05176
1072.40 0.05174
1072.50 0.05172
1072.60 0.0517
1072.70 0.05168
1072.80 0.05166
1072.90 0.05164
1073.00 0.05162
1073.10 0.0516
1073.20 0.05158
1073.30 0.05156
1073.40 0.05154
1073.50 0.05152
1073.60 0.0515
1073.70 0.05148
1073.80 0.05146
1073.90 0.05144
1074.00 0.05142
1074.10 0.0514
1074.20 0.05138
1074.30 0.05136
1074.40 0.05134
1074.50 0.05132
1074.60 0.0513
1074.70 0.05128
1074.80 0.05126
1074.90 0.05124
1075.00 0.05122
1075.10 0.0512
1075.20 0.05118
1075.30 0.05116
1075.40 0.05114
1075.50 0.05112
1075.60 0.0511
1075.70 0.05108
1075.80 0.05106
1075.90 0.05104
1076.00 0.05102
1076.10 0.051
1076.20 0.05098
1076.30 0.05096
1076.40 0.05094
1076.50 0.05092
1076.60 0.0509
1076.70 0.05088
1076.80 0.05086
1076.90 0.05084
1077.00 0.05082
1077.10 0.0508
1077.20 0.05078
1077.30 0.05076
1077.40 0.05074
1077.50 0.05072
1077.60 0.0507
1077.70 0.05068
1077.80 0.05066
1077.90 0.05064
1078.00 0.05062
1078.10 0.0506
1078.20 0.05058
1078.30 0.05056
1078.40 0.05054
1078.50 0.05052
1078.60 0.0505
1078.70 0.05048
1078.80 0.05046
1078.90 0.05044
1079.00 0.05042
1079.10 0.0504
1079.20 0.05038
1079.30 0.05036
1079.40 0.05034
1079.50 0.05032
1079.60 0.0503
1079.70 0.05028
1079.80 0.05026
1079.90 0.05024
1080.00 0.05022
1080.10 0.0502
1080.20 0.05018
1080.30 0.05016
1080.40 0.05014
1080.50 0.05012
1080.60 0.0501
1080.70 0.05008
1080.80 0.05006
1080.90 0.05003
1081.00 0.05001
1081.10 0.04999
1081.20 0.04997
1081.30 0.04995
1081.40 0.04993
1081.50 0.04991
1081.60 0.04989
1081.70 0.04987
1081.80 0.04985
1081.90 0.04983
1082.00 0.04981
1082.10 0.04979
1082.20 0.04977
1082.30 0.04975
1082.40 0.04973
1082.50 0.04971
1082.60 0.04969
1082.70 0.04967
1082.80 0.04965
1082.90 0.04963
1083.00 0.04961
1083.10 0.04959
1083.20 0.04957
1083.30 0.04955
1083.40 0.04953
1083.50 0.0495
1083.60 0.04948
1083.70 0.04946
1083.80 0.04944
1083.90 0.04942
1084.00 0.0494
1084.10 0.04938
1084.20 0.04936
1084.30 0.04934
1084.40 0.04932
1084.50 0.0493
1084.60 0.04928
1084.70 0.04926
1084.80 0.04924
1084.90 0.04922
1085.00 0.0492
1085.10 0.04918
1085.20 0.04916
1085.30 0.04914
1085.40 0.04912
1085.50 0.04909
1085.60 0.04907
1085.70 0.04905
1085.80 0.04903
1085.90 0.04901
1086.00 0.04899
1086.10 0.04897
1086.20 0.04895
1086.30 0.04893
1086.40 0.04891
1086.50 0.04889
1086.60 0.04887
1086.70 0.04885
1086.80 0.04883
1086.90 0.04881
1087.00 0.04879
1087.10 0.04877
1087.20 0.04875
1087.30 0.04873
1087.40 0.04871
1087.50 0.04869
1087.60 0.04867
1087.70 0.04865
1087.80 0.04863
1087.90 0.04861
1088.00 0.04859
1088.10 0.04857
1088.20 0.04855
1088.30 0.04853
1088.40 0.04851
1088.50 0.04849
1088.60 0.04847
1088.70 0.04845
1088.80 0.04843
1088.90 0.04841
1089.00 0.04839
1089.10 0.04837
1089.20 0.04835
1089.30 0.04833
1089.40 0.04831
1089.50 0.04829
1089.60 0.04827
1089.70 0.04825
1089.80 0.04823
1089.90 0.04821
1090.00 0.04819
1090.10 0.04817
1090.20 0.04815
1090.30 0.04813
1090.40 0.04811
1090.50 0.0481
1090.60 0.04808
1090.70 0.04806
1090.80 0.04804
1090.90 0.04802
1091.00 0.048
1091.10 0.04798
1091.20 0.04797
1091.30 0.04795
1091.40 0.04793
1091.50 0.04791
1091.60 0.04789
1091.70 0.04787
1091.80 0.04786
1091.90 0.04784
1092.00 0.04782
1092.10 0.0478
1092.20 0.04778
1092.30 0.04777
1092.40 0.04775
1092.50 0.04773
1092.60 0.04771
1092.70 0.0477
1092.80 0.04768
1092.90 0.04766
1093.00 0.04765
1093.10 0.04763
1093.20 0.04762
1093.30 0.0476
1093.40 0.04759
1093.50 0.04758
1093.60 0.04758
1093.70 0.04758
1093.80 0.04757
1093.90 0.04756
1094.00 0.04753
1094.10 0.0475
1094.20 0.04746
1094.30 0.04744
1094.40 0.04742
1094.50 0.0474
1094.60 0.04738
1094.70 0.04737
1094.80 0.04735
1094.90 0.04733
1095.00 0.04731
1095.10 0.0473
1095.20 0.04728
1095.30 0.04726
1095.40 0.04725
1095.50 0.04723
1095.60 0.04722
1095.70 0.0472
1095.80 0.04719
1095.90 0.04717
1096.00 0.04715
1096.10 0.04714
1096.20 0.04712
1096.30 0.04711
1096.40 0.04709
1096.50 0.04708
1096.60 0.04706
1096.70 0.04705
1096.80 0.04703
1096.90 0.04702
1097.00 0.047
1097.10 0.04699
1097.20 0.04697
1097.30 0.04696
1097.40 0.04694
1097.50 0.04693
1097.60 0.04691
1097.70 0.0469
1097.80 0.04688
1097.90 0.04687
1098.00 0.04686
1098.10 0.04684
1098.20 0.04683
1098.30 0.04681
1098.40 0.0468
1098.50 0.04678
1098.60 0.04677
1098.70 0.04676
1098.80 0.04674
1098.90 0.04673
1099.00 0.04671
1099.10 0.0467
1099.20 0.04669
1099.30 0.04667
1099.40 0.04666
1099.50 0.04664
1099.60 0.04663
1099.70 0.04662
1099.80 0.0466
1099.90 0.04659
1100.00 0.04658
1100.10 0.04656
1100.20 0.04655
1100.30 0.04653
1100.40 0.04652
1100.50 0.04651
1100.60 0.04649
1100.70 0.04648
1100.80 0.04646
1100.90 0.04645
1101.00 0.04644
1101.10 0.04642
1101.20 0.04641
1101.30 0.0464
1101.40 0.04638
1101.50 0.04637
1101.60 0.04636
1101.70 0.04634
1101.80 0.04633
1101.90 0.04631
1102.00 0.0463
1102.10 0.04629
1102.20 0.04627
1102.30 0.04626
1102.40 0.04625
1102.50 0.04623
1102.60 0.04622
1102.70 0.04621
1102.80 0.04619
1102.90 0.04618
1103.00 0.04616
1103.10 0.04615
1103.20 0.04614
1103.30 0.04612
1103.40 0.04611
1103.50 0.0461
1103.60 0.04608
1103.70 0.04607
1103.80 0.04605
1103.90 0.04604
1104.00 0.04603
1104.10 0.04601
1104.20 0.046
1104.30 0.04598
1104.40 0.04597
1104.50 0.04596
1104.60 0.04594
1104.70 0.04593
1104.80 0.04592
1104.90 0.0459
1105.00 0.04589
1105.10 0.04587
1105.20 0.04586
1105.30 0.04585
1105.40 0.04583
1105.50 0.04582
1105.60 0.0458
1105.70 0.04579
1105.80 0.04578
1105.90 0.04576
1106.00 0.04575
1106.10 0.04573
1106.20 0.04572
1106.30 0.04571
1106.40 0.04569
1106.50 0.04568
1106.60 0.04566
1106.70 0.04565
1106.80 0.04564
1106.90 0.04562
1107.00 0.04561
1107.10 0.04559
1107.20 0.04558
1107.30 0.04557
1107.40 0.04555
1107.50 0.04554
1107.60 0.04552
1107.70 0.04551
1107.80 0.04549
1107.90 0.04548
1108.00 0.04547
1108.10 0.04545
1108.20 0.04544
1108.30 0.04542
1108.40 0.04541
1108.50 0.04539
1108.60 0.04538
1108.70 0.04537
1108.80 0.04535
1108.90 0.04534
1109.00 0.04532
1109.10 0.04531
1109.20 0.04529
1109.30 0.04528
1109.40 0.04527
1109.50 0.04525
1109.60 0.04524
1109.70 0.04522
1109.80 0.04521
1109.90 0.04519
1110.00 0.04518
1110.10 0.04516
1110.20 0.04515
1110.30 0.04514
1110.40 0.04512
1110.50 0.04511
1110.60 0.04509
1110.70 0.04508
1110.80 0.04506
1110.90 0.04505
1111.00 0.04503
1111.10 0.04502
1111.20 0.04501
1111.30 0.04499
1111.40 0.04498
1111.50 0.04496
1111.60 0.04495
1111.70 0.04493
1111.80 0.04492
1111.90 0.0449
1112.00 0.04489
1112.10 0.04488
1112.20 0.04486
1112.30 0.04485
1112.40 0.04483
1112.50 0.04482
1112.60 0.0448
1112.70 0.04479
1112.80 0.04477
1112.90 0.04476
1113.00 0.04474
1113.10 0.04473
1113.20 0.04472
1113.30 0.0447
1113.40 0.04469
1113.50 0.04467
1113.60 0.04466
1113.70 0.04464
1113.80 0.04463
1113.90 0.04461
1114.00 0.0446
1114.10 0.04458
1114.20 0.04457
1114.30 0.04455
1114.40 0.04454
1114.50 0.04452
1114.60 0.04451
1114.70 0.04449
1114.80 0.04448
1114.90 0.04446
1115.00 0.04445
1115.10 0.04444
1115.20 0.04442
1115.30 0.04441
1115.40 0.04439
1115.50 0.04438
1115.60 0.04436
1115.70 0.04435
1115.80 0.04433
1115.90 0.04432
1116.00 0.0443
1116.10 0.04429
1116.20 0.04427
1116.30 0.04426
1116.40 0.04424
1116.50 0.04423
1116.60 0.04422
1116.70 0.0442
1116.80 0.04419
1116.90 0.04417
1117.00 0.04416
1117.10 0.04414
1117.20 0.04413
1117.30 0.04411
1117.40 0.0441
1117.50 0.04408
1117.60 0.04407
1117.70 0.04405
1117.80 0.04404
1117.90 0.04402
1118.00 0.04401
1118.10 0.04399
1118.20 0.04398
1118.30 0.04396
1118.40 0.04395
1118.50 0.04393
1118.60 0.04392
1118.70 0.04391
1118.80 0.04389
1118.90 0.04388
1119.00 0.04386
1119.10 0.04385
1119.20 0.04383
1119.30 0.04382
1119.40 0.0438
1119.50 0.04379
1119.60 0.04377
1119.70 0.04376
1119.80 0.04374
1119.90 0.04373
1120.00 0.04371
1120.10 0.0437
1120.20 0.04368
1120.30 0.04367
1120.40 0.04365
1120.50 0.04364
1120.60 0.04363
1120.70 0.04361
1120.80 0.0436
1120.90 0.04358
1121.00 0.04357
1121.10 0.04355
1121.20 0.04354
1121.30 0.04352
1121.40 0.04351
1121.50 0.04349
1121.60 0.04348
1121.70 0.04346
1121.80 0.04345
1121.90 0.04344
1122.00 0.04342
1122.10 0.04341
1122.20 0.04339
1122.30 0.04338
1122.40 0.04336
1122.50 0.04335
1122.60 0.04333
1122.70 0.04332
1122.80 0.0433
1122.90 0.04329
1123.00 0.04327
1123.10 0.04326
1123.20 0.04324
1123.30 0.04323
1123.40 0.04321
1123.50 0.0432
1123.60 0.04319
1123.70 0.04317
1123.80 0.04316
1123.90 0.04314
1124.00 0.04313
1124.10 0.04311
1124.20 0.0431
1124.30 0.04308
1124.40 0.04307
1124.50 0.04305
1124.60 0.04304
1124.70 0.04302
1124.80 0.04301
1124.90 0.04299
1125.00 0.04298
1125.10 0.04297
1125.20 0.04295
1125.30 0.04294
1125.40 0.04292
1125.50 0.04291
1125.60 0.04289
1125.70 0.04288
1125.80 0.04286
1125.90 0.04285
1126.00 0.04283
1126.10 0.04282
1126.20 0.04281
1126.30 0.04279
1126.40 0.04278
1126.50 0.04276
1126.60 0.04275
1126.70 0.04273
1126.80 0.04272
1126.90 0.0427
1127.00 0.04269
1127.10 0.04267
1127.20 0.04266
1127.30 0.04265
1127.40 0.04263
1127.50 0.04262
1127.60 0.0426
1127.70 0.04259
1127.80 0.04257
1127.90 0.04256
1128.00 0.04254
1128.10 0.04253
1128.20 0.04251
1128.30 0.0425
1128.40 0.04249
1128.50 0.04247
1128.60 0.04246
1128.70 0.04244
1128.80 0.04243
1128.90 0.04241
1129.00 0.0424
1129.10 0.04238
1129.20 0.04237
1129.30 0.04236
1129.40 0.04234
1129.50 0.04233
1129.60 0.04231
1129.70 0.0423
1129.80 0.04228
1129.90 0.04227
1130.00 0.04225
1130.10 0.04224
1130.20 0.04223
1130.30 0.04221
1130.40 0.0422
1130.50 0.04218
1130.60 0.04217
1130.70 0.04215
1130.80 0.04214
1130.90 0.04212
1131.00 0.04211
1131.10 0.0421
1131.20 0.04208
1131.30 0.04207
1131.40 0.04205
1131.50 0.04204
1131.60 0.04202
1131.70 0.04201
1131.80 0.04199
1131.90 0.04198
1132.00 0.04197
1132.10 0.04195
1132.20 0.04194
1132.30 0.04192
1132.40 0.04191
1132.50 0.04189
1132.60 0.04188
1132.70 0.04187
1132.80 0.04185
1132.90 0.04184
1133.00 0.04182
1133.10 0.04181
1133.20 0.04179
1133.30 0.04178
1133.40 0.04177
1133.50 0.04175
1133.60 0.04174
1133.70 0.04172
1133.80 0.04171
1133.90 0.04169
1134.00 0.04168
1134.10 0.04167
1134.20 0.04165
1134.30 0.04164
1134.40 0.04162
1134.50 0.04161
1134.60 0.0416
1134.70 0.04158
1134.80 0.04157
1134.90 0.04155
1135.00 0.04154
1135.10 0.04152
1135.20 0.04151
1135.30 0.0415
1135.40 0.04148
1135.50 0.04147
1135.60 0.04145
1135.70 0.04144
1135.80 0.04142
1135.90 0.04141
1136.00 0.0414
1136.10 0.04138
1136.20 0.04137
1136.30 0.04135
1136.40 0.04134
1136.50 0.04133
1136.60 0.04131
1136.70 0.0413
1136.80 0.04128
1136.90 0.04127
1137.00 0.04126
1137.10 0.04124
1137.20 0.04123
1137.30 0.04121
1137.40 0.0412
1137.50 0.04118
1137.60 0.04117
1137.70 0.04116
1137.80 0.04114
1137.90 0.04113
1138.00 0.04111
1138.10 0.0411
1138.20 0.04109
1138.30 0.04107
1138.40 0.04106
1138.50 0.04104
1138.60 0.04103
1138.70 0.04102
1138.80 0.041
1138.90 0.04099
1139.00 0.04097
1139.10 0.04096
1139.20 0.04095
1139.30 0.04093
1139.40 0.04092
1139.50 0.0409
1139.60 0.04089
1139.70 0.04088
1139.80 0.04086
1139.90 0.04085
1140.00 0.04083
1140.10 0.04082
1140.20 0.04081
1140.30 0.04079
1140.40 0.04078
1140.50 0.04077
1140.60 0.04075
1140.70 0.04074
1140.80 0.04072
1140.90 0.04071
1141.00 0.0407
1141.10 0.04068
1141.20 0.04067
1141.30 0.04065
1141.40 0.04064
1141.50 0.04063
1141.60 0.04061
1141.70 0.0406
1141.80 0.04058
1141.90 0.04057
1142.00 0.04056
1142.10 0.04054
1142.20 0.04053
1142.30 0.04052
1142.40 0.0405
1142.50 0.04049
1142.60 0.04047
1142.70 0.04046
1142.80 0.04045
1142.90 0.04043
1143.00 0.04042
1143.10 0.04041
1143.20 0.04039
1143.30 0.04038
1143.40 0.04036
1143.50 0.04035
1143.60 0.04034
1143.70 0.04032
1143.80 0.04031
1143.90 0.0403
1144.00 0.04028
1144.10 0.04027
1144.20 0.04025
1144.30 0.04024
1144.40 0.04023
1144.50 0.04021
1144.60 0.0402
1144.70 0.04019
1144.80 0.04017
1144.90 0.04016
1145.00 0.04014
1145.10 0.04013
1145.20 0.04012
1145.30 0.0401
1145.40 0.04009
1145.50 0.04008
1145.60 0.04006
1145.70 0.04005
1145.80 0.04004
1145.90 0.04002
1146.00 0.04001
1146.10 0.03999
1146.20 0.03998
1146.30 0.03997
1146.40 0.03995
1146.50 0.03994
1146.60 0.03993
1146.70 0.03991
1146.80 0.0399
1146.90 0.03989
1147.00 0.03987
1147.10 0.03986
1147.20 0.03984
1147.30 0.03983
1147.40 0.03982
1147.50 0.0398
1147.60 0.03979
1147.70 0.03978
1147.80 0.03976
1147.90 0.03975
1148.00 0.03974
1148.10 0.03972
1148.20 0.03971
1148.30 0.0397
1148.40 0.03968
1148.50 0.03967
1148.60 0.03966
1148.70 0.03964
1148.80 0.03963
1148.90 0.03962
1149.00 0.0396
1149.10 0.03959
1149.20 0.03958
1149.30 0.03956
1149.40 0.03955
1149.50 0.03953
1149.60 0.03952
1149.70 0.03951
1149.80 0.03949
1149.90 0.03948
1150.00 0.03947
1150.10 0.03945
1150.20 0.03944
1150.30 0.03943
1150.40 0.03941
1150.50 0.0394
1150.60 0.03939
1150.70 0.03937
1150.80 0.03936
1150.90 0.03935
1151.00 0.03933
1151.10 0.03932
1151.20 0.03931
1151.30 0.03929
1151.40 0.03928
1151.50 0.03927
1151.60 0.03925
1151.70 0.03924
1151.80 0.03923
1151.90 0.03921
1152.00 0.0392
1152.10 0.03919
1152.20 0.03917
1152.30 0.03916
1152.40 0.03915
1152.50 0.03913
1152.60 0.03912
1152.70 0.03911
1152.80 0.03909
1152.90 0.03908
1153.00 0.03907
1153.10 0.03905
1153.20 0.03904
1153.30 0.03903
1153.40 0.03902
1153.50 0.039
1153.60 0.03899
1153.70 0.03898
1153.80 0.03896
1153.90 0.03895
1154.00 0.03894
1154.10 0.03892
1154.20 0.03891
1154.30 0.0389
1154.40 0.03888
1154.50 0.03887
1154.60 0.03886
1154.70 0.03884
1154.80 0.03883
1154.90 0.03882
1155.00 0.0388
1155.10 0.03879
1155.20 0.03878
1155.30 0.03877
1155.40 0.03875
1155.50 0.03874
1155.60 0.03873
1155.70 0.03871
1155.80 0.0387
1155.90 0.03869
1156.00 0.03867
1156.10 0.03866
1156.20 0.03865
1156.30 0.03863
1156.40 0.03862
1156.50 0.03861
1156.60 0.03859
1156.70 0.03858
1156.80 0.03857
1156.90 0.03856
1157.00 0.03854
1157.10 0.03853
1157.20 0.03852
1157.30 0.0385
1157.40 0.03849
1157.50 0.03848
1157.60 0.03846
1157.70 0.03845
1157.80 0.03844
1157.90 0.03843
1158.00 0.03841
1158.10 0.0384
1158.20 0.03839
1158.30 0.03837
1158.40 0.03836
1158.50 0.03835
1158.60 0.03834
1158.70 0.03832
1158.80 0.03831
1158.90 0.0383
1159.00 0.03828
1159.10 0.03827
1159.20 0.03826
1159.30 0.03824
1159.40 0.03823
1159.50 0.03822
1159.60 0.03821
1159.70 0.03819
1159.80 0.03818
1159.90 0.03817
1160.00 0.03815
1160.10 0.03814
1160.20 0.03813
1160.30 0.03812
1160.40 0.0381
1160.50 0.03809
1160.60 0.03808
1160.70 0.03806
1160.80 0.03805
1160.90 0.03804
1161.00 0.03803
1161.10 0.03801
1161.20 0.038
1161.30 0.03799
1161.40 0.03797
1161.50 0.03796
1161.60 0.03795
1161.70 0.03794
1161.80 0.03792
1161.90 0.03791
1162.00 0.0379
1162.10 0.03788
1162.20 0.03787
1162.30 0.03786
1162.40 0.03785
1162.50 0.03783
1162.60 0.03782
1162.70 0.03781
1162.80 0.0378
1162.90 0.03778
1163.00 0.03777
1163.10 0.03776
1163.20 0.03775
1163.30 0.03773
1163.40 0.03772
1163.50 0.03771
1163.60 0.03769
1163.70 0.03768
1163.80 0.03767
1163.90 0.03766
1164.00 0.03764
1164.10 0.03763
1164.20 0.03762
1164.30 0.03761
1164.40 0.03759
1164.50 0.03758
1164.60 0.03757
1164.70 0.03756
1164.80 0.03754
1164.90 0.03753
1165.00 0.03752
1165.10 0.0375
1165.20 0.03749
1165.30 0.03748
1165.40 0.03747
1165.50 0.03745
1165.60 0.03744
1165.70 0.03743
1165.80 0.03742
1165.90 0.0374
1166.00 0.03739
1166.10 0.03738
1166.20 0.03737
1166.30 0.03735
1166.40 0.03734
1166.50 0.03733
1166.60 0.03732
1166.70 0.0373
1166.80 0.03729
1166.90 0.03728
1167.00 0.03727
1167.10 0.03725
1167.20 0.03724
1167.30 0.03723
1167.40 0.03722
1167.50 0.0372
1167.60 0.03719
1167.70 0.03718
1167.80 0.03717
1167.90 0.03715
1168.00 0.03714
1168.10 0.03713
1168.20 0.03712
1168.30 0.0371
1168.40 0.03709
1168.50 0.03708
1168.60 0.03707
1168.70 0.03705
1168.80 0.03704
1168.90 0.03703
1169.00 0.03702
1169.10 0.03701
1169.20 0.03699
1169.30 0.03698
1169.40 0.03697
1169.50 0.03696
1169.60 0.03694
1169.70 0.03693
1169.80 0.03692
1169.90 0.03691
1170.00 0.03689
1170.10 0.03688
1170.20 0.03687
1170.30 0.03686
1170.40 0.03684
1170.50 0.03683
1170.60 0.03682
1170.70 0.03681
1170.80 0.0368
1170.90 0.03678
1171.00 0.03677
1171.10 0.03676
1171.20 0.03675
1171.30 0.03673
1171.40 0.03672
1171.50 0.03671
1171.60 0.0367
1171.70 0.03668
1171.80 0.03667
1171.90 0.03666
1172.00 0.03665
1172.10 0.03664
1172.20 0.03662
1172.30 0.03661
1172.40 0.0366
1172.50 0.03659
1172.60 0.03657
1172.70 0.03656
1172.80 0.03655
1172.90 0.03654
1173.00 0.03653
1173.10 0.03651
1173.20 0.0365
1173.30 0.03649
1173.40 0.03648
1173.50 0.03646
1173.60 0.03645
1173.70 0.03644
1173.80 0.03643
1173.90 0.03642
1174.00 0.0364
1174.10 0.03639
1174.20 0.03638
1174.30 0.03637
1174.40 0.03636
1174.50 0.03634
1174.60 0.03633
1174.70 0.03632
1174.80 0.03631
1174.90 0.03629
1175.00 0.03628
1175.10 0.03627
1175.20 0.03626
1175.30 0.03625
1175.40 0.03623
1175.50 0.03622
1175.60 0.03621
1175.70 0.0362
1175.80 0.03619
1175.90 0.03617
1176.00 0.03616
1176.10 0.03615
1176.20 0.03614
1176.30 0.03613
1176.40 0.03611
1176.50 0.0361
1176.60 0.03609
1176.70 0.03608
1176.80 0.03607
1176.90 0.03605
1177.00 0.03604
1177.10 0.03603
1177.20 0.03602
1177.30 0.03601
1177.40 0.03599
1177.50 0.03598
1177.60 0.03597
1177.70 0.03596
1177.80 0.03595
1177.90 0.03593
1178.00 0.03592
1178.10 0.03591
1178.20 0.0359
1178.30 0.03589
1178.40 0.03587
1178.50 0.03586
1178.60 0.03585
1178.70 0.03584
1178.80 0.03583
1178.90 0.03581
1179.00 0.0358
1179.10 0.03579
1179.20 0.03578
1179.30 0.03577
1179.40 0.03576
1179.50 0.03574
1179.60 0.03573
1179.70 0.03572
1179.80 0.03571
1179.90 0.0357
1180.00 0.03568
1180.10 0.03567
1180.20 0.03566
1180.30 0.03565
1180.40 0.03564
1180.50 0.03562
1180.60 0.03561
1180.70 0.0356
1180.80 0.03559
1180.90 0.03558
1181.00 0.03557
1181.10 0.03555
1181.20 0.03554
1181.30 0.03553
1181.40 0.03552
1181.50 0.03551
1181.60 0.03549
1181.70 0.03548
1181.80 0.03547
1181.90 0.03546
1182.00 0.03545
1182.10 0.03544
1182.20 0.03542
1182.30 0.03541
1182.40 0.0354
1182.50 0.03539
1182.60 0.03538
1182.70 0.03537
1182.80 0.03535
1182.90 0.03534
1183.00 0.03533
1183.10 0.03532
1183.20 0.03531
1183.30 0.0353
1183.40 0.03528
1183.50 0.03527
1183.60 0.03526
1183.70 0.03525
1183.80 0.03524
1183.90 0.03523
1184.00 0.03521
1184.10 0.0352
1184.20 0.03519
1184.30 0.03518
1184.40 0.03517
1184.50 0.03516
1184.60 0.03514
1184.70 0.03513
1184.80 0.03512
1184.90 0.03511
1185.00 0.0351
1185.10 0.03509
1185.20 0.03507
1185.30 0.03506
1185.40 0.03505
1185.50 0.03504
1185.60 0.03503
1185.70 0.03502
1185.80 0.035
1185.90 0.03499
1186.00 0.03498
1186.10 0.03497
1186.20 0.03496
1186.30 0.03495
1186.40 0.03494
1186.50 0.03492
1186.60 0.03491
1186.70 0.0349
1186.80 0.03489
1186.90 0.03488
1187.00 0.03487
1187.10 0.03485
1187.20 0.03484
1187.30 0.03483
1187.40 0.03482
1187.50 0.03481
1187.60 0.0348
1187.70 0.03479
1187.80 0.03477
1187.90 0.03476
1188.00 0.03475
1188.10 0.03474
1188.20 0.03473
1188.30 0.03472
1188.40 0.03471
1188.50 0.03469
1188.60 0.03468
1188.70 0.03467
1188.80 0.03466
1188.90 0.03465
1189.00 0.03464
1189.10 0.03463
1189.20 0.03461
1189.30 0.0346
1189.40 0.03459
1189.50 0.03458
1189.60 0.03457
1189.70 0.03456
1189.80 0.03455
1189.90 0.03453
1190.00 0.03452
1190.10 0.03451
1190.20 0.0345
1190.30 0.03449
1190.40 0.03448
1190.50 0.03447
1190.60 0.03445
1190.70 0.03444
1190.80 0.03443
1190.90 0.03442
1191.00 0.03441
1191.10 0.0344
1191.20 0.03439
1191.30 0.03438
1191.40 0.03436
1191.50 0.03435
1191.60 0.03434
1191.70 0.03433
1191.80 0.03432
1191.90 0.03431
1192.00 0.0343
1192.10 0.03428
1192.20 0.03427
1192.30 0.03426
1192.40 0.03425
1192.50 0.03424
1192.60 0.03423
1192.70 0.03422
1192.80 0.03421
1192.90 0.03419
1193.00 0.03418
1193.10 0.03417
1193.20 0.03416
1193.30 0.03415
1193.40 0.03414
1193.50 0.03413
1193.60 0.03412
1193.70 0.03411
1193.80 0.03409
1193.90 0.03408
1194.00 0.03407
1194.10 0.03406
1194.20 0.03405
1194.30 0.03404
1194.40 0.03403
1194.50 0.03402
1194.60 0.034
1194.70 0.03399
1194.80 0.03398
1194.90 0.03397
1195.00 0.03396
1195.10 0.03395
1195.20 0.03394
1195.30 0.03393
1195.40 0.03392
1195.50 0.0339
1195.60 0.03389
1195.70 0.03388
1195.80 0.03387
1195.90 0.03386
1196.00 0.03385
1196.10 0.03384
1196.20 0.03383
1196.30 0.03382
1196.40 0.0338
1196.50 0.03379
1196.60 0.03378
1196.70 0.03377
1196.80 0.03376
1196.90 0.03375
1197.00 0.03374
1197.10 0.03373
1197.20 0.03372
1197.30 0.0337
1197.40 0.03369
1197.50 0.03368
1197.60 0.03367
1197.70 0.03366
1197.80 0.03365
1197.90 0.03364
1198.00 0.03363
1198.10 0.03362
1198.20 0.03361
1198.30 0.03359
1198.40 0.03358
1198.50 0.03357
1198.60 0.03356
1198.70 0.03355
1198.80 0.03354
1198.90 0.03353
1199.00 0.03352
1199.10 0.03351
1199.20 0.0335
1199.30 0.03348
1199.40 0.03347
1199.50 0.03346
1199.60 0.03345
1199.70 0.03344
1199.80 0.03343
1199.90 0.03342
1200.00 0
