# Version 2.1 - nm, norm@500 to 1, cut digits, bergeron_90000_80.dat_90000
# Wavelength(nm)  Flambda(ergs/cm^s/s/nm)
300.00 6.76
300.10 6.751
300.20 6.743
300.30 6.735
300.40 6.726
300.50 6.718
300.60 6.709
300.70 6.701
300.80 6.693
300.90 6.684
301.00 6.676
301.10 6.668
301.20 6.66
301.30 6.651
301.40 6.643
301.50 6.635
301.60 6.626
301.70 6.618
301.80 6.61
301.90 6.602
302.00 6.594
302.10 6.585
302.20 6.577
302.30 6.569
302.40 6.561
302.50 6.553
302.60 6.545
302.70 6.537
302.80 6.528
302.90 6.52
303.00 6.512
303.10 6.504
303.20 6.496
303.30 6.488
303.40 6.48
303.50 6.472
303.60 6.464
303.70 6.456
303.80 6.448
303.90 6.44
304.00 6.432
304.10 6.424
304.20 6.416
304.30 6.409
304.40 6.401
304.50 6.393
304.60 6.385
304.70 6.377
304.80 6.369
304.90 6.361
305.00 6.354
305.10 6.346
305.20 6.338
305.30 6.33
305.40 6.322
305.50 6.315
305.60 6.307
305.70 6.299
305.80 6.291
305.90 6.284
306.00 6.276
306.10 6.268
306.20 6.261
306.30 6.253
306.40 6.245
306.50 6.238
306.60 6.23
306.70 6.222
306.80 6.215
306.90 6.207
307.00 6.2
307.10 6.192
307.20 6.184
307.30 6.177
307.40 6.169
307.50 6.162
307.60 6.154
307.70 6.147
307.80 6.139
307.90 6.132
308.00 6.124
308.10 6.117
308.20 6.109
308.30 6.102
308.40 6.095
308.50 6.087
308.60 6.08
308.70 6.072
308.80 6.065
308.90 6.058
309.00 6.05
309.10 6.043
309.20 6.036
309.30 6.028
309.40 6.021
309.50 6.014
309.60 6.006
309.70 5.999
309.80 5.992
309.90 5.985
310.00 5.977
310.10 5.97
310.20 5.963
310.30 5.956
310.40 5.948
310.50 5.941
310.60 5.934
310.70 5.927
310.80 5.92
310.90 5.913
311.00 5.905
311.10 5.898
311.20 5.891
311.30 5.884
311.40 5.877
311.50 5.87
311.60 5.863
311.70 5.856
311.80 5.849
311.90 5.842
312.00 5.835
312.10 5.828
312.20 5.821
312.30 5.814
312.40 5.807
312.50 5.8
312.60 5.793
312.70 5.786
312.80 5.779
312.90 5.772
313.00 5.765
313.10 5.758
313.20 5.751
313.30 5.744
313.40 5.737
313.50 5.73
313.60 5.724
313.70 5.717
313.80 5.71
313.90 5.703
314.00 5.696
314.10 5.689
314.20 5.683
314.30 5.676
314.40 5.669
314.50 5.662
314.60 5.655
314.70 5.649
314.80 5.642
314.90 5.635
315.00 5.629
315.10 5.622
315.20 5.615
315.30 5.608
315.40 5.602
315.50 5.595
315.60 5.588
315.70 5.582
315.80 5.575
315.90 5.569
316.00 5.562
316.10 5.555
316.20 5.549
316.30 5.542
316.40 5.535
316.50 5.529
316.60 5.522
316.70 5.516
316.80 5.509
316.90 5.503
317.00 5.496
317.10 5.49
317.20 5.483
317.30 5.477
317.40 5.47
317.50 5.464
317.60 5.457
317.70 5.451
317.80 5.444
317.90 5.438
318.00 5.432
318.10 5.425
318.20 5.419
318.30 5.412
318.40 5.406
318.50 5.4
318.60 5.393
318.70 5.387
318.80 5.38
318.90 5.374
319.00 5.368
319.10 5.361
319.20 5.355
319.30 5.349
319.40 5.343
319.50 5.336
319.60 5.33
319.70 5.324
319.80 5.317
319.90 5.311
320.00 5.305
320.10 5.299
320.20 5.293
320.30 5.286
320.40 5.28
320.50 5.274
320.60 5.268
320.70 5.262
320.80 5.255
320.90 5.249
321.00 5.243
321.10 5.237
321.20 5.231
321.30 5.225
321.40 5.219
321.50 5.212
321.60 5.206
321.70 5.2
321.80 5.194
321.90 5.188
322.00 5.182
322.10 5.176
322.20 5.17
322.30 5.164
322.40 5.158
322.50 5.152
322.60 5.146
322.70 5.14
322.80 5.134
322.90 5.128
323.00 5.122
323.10 5.116
323.20 5.11
323.30 5.104
323.40 5.098
323.50 5.092
323.60 5.086
323.70 5.08
323.80 5.075
323.90 5.069
324.00 5.063
324.10 5.057
324.20 5.051
324.30 5.045
324.40 5.039
324.50 5.033
324.60 5.028
324.70 5.022
324.80 5.016
324.90 5.01
325.00 5.004
325.10 4.999
325.20 4.993
325.30 4.987
325.40 4.981
325.50 4.976
325.60 4.97
325.70 4.964
325.80 4.958
325.90 4.953
326.00 4.947
326.10 4.941
326.20 4.935
326.30 4.93
326.40 4.924
326.50 4.918
326.60 4.913
326.70 4.907
326.80 4.901
326.90 4.896
327.00 4.89
327.10 4.885
327.20 4.879
327.30 4.873
327.40 4.868
327.50 4.862
327.60 4.857
327.70 4.851
327.80 4.845
327.90 4.84
328.00 4.834
328.10 4.829
328.20 4.823
328.30 4.818
328.40 4.812
328.50 4.807
328.60 4.801
328.70 4.796
328.80 4.79
328.90 4.785
329.00 4.779
329.10 4.774
329.20 4.768
329.30 4.763
329.40 4.757
329.50 4.752
329.60 4.746
329.70 4.741
329.80 4.736
329.90 4.73
330.00 4.725
330.10 4.719
330.20 4.714
330.30 4.709
330.40 4.703
330.50 4.698
330.60 4.693
330.70 4.687
330.80 4.682
330.90 4.677
331.00 4.671
331.10 4.666
331.20 4.661
331.30 4.655
331.40 4.65
331.50 4.645
331.60 4.64
331.70 4.634
331.80 4.629
331.90 4.624
332.00 4.619
332.10 4.613
332.20 4.608
332.30 4.603
332.40 4.598
332.50 4.592
332.60 4.587
332.70 4.582
332.80 4.577
332.90 4.572
333.00 4.567
333.10 4.561
333.20 4.556
333.30 4.551
333.40 4.546
333.50 4.541
333.60 4.536
333.70 4.531
333.80 4.525
333.90 4.52
334.00 4.515
334.10 4.51
334.20 4.505
334.30 4.5
334.40 4.495
334.50 4.49
334.60 4.485
334.70 4.48
334.80 4.475
334.90 4.47
335.00 4.465
335.10 4.46
335.20 4.455
335.30 4.45
335.40 4.445
335.50 4.44
335.60 4.435
335.70 4.43
335.80 4.425
335.90 4.42
336.00 4.415
336.10 4.41
336.20 4.405
336.30 4.4
336.40 4.395
336.50 4.39
336.60 4.385
336.70 4.38
336.80 4.375
336.90 4.371
337.00 4.366
337.10 4.361
337.20 4.356
337.30 4.351
337.40 4.346
337.50 4.341
337.60 4.336
337.70 4.332
337.80 4.327
337.90 4.322
338.00 4.317
338.10 4.312
338.20 4.307
338.30 4.303
338.40 4.298
338.50 4.293
338.60 4.288
338.70 4.284
338.80 4.279
338.90 4.274
339.00 4.269
339.10 4.265
339.20 4.26
339.30 4.255
339.40 4.25
339.50 4.246
339.60 4.241
339.70 4.236
339.80 4.232
339.90 4.227
340.00 4.222
340.10 4.217
340.20 4.213
340.30 4.208
340.40 4.203
340.50 4.199
340.60 4.194
340.70 4.19
340.80 4.185
340.90 4.18
341.00 4.176
341.10 4.171
341.20 4.166
341.30 4.162
341.40 4.157
341.50 4.153
341.60 4.148
341.70 4.143
341.80 4.139
341.90 4.134
342.00 4.13
342.10 4.125
342.20 4.121
342.30 4.116
342.40 4.112
342.50 4.107
342.60 4.103
342.70 4.098
342.80 4.094
342.90 4.089
343.00 4.085
343.10 4.08
343.20 4.076
343.30 4.071
343.40 4.067
343.50 4.062
343.60 4.058
343.70 4.053
343.80 4.049
343.90 4.044
344.00 4.04
344.10 4.035
344.20 4.031
344.30 4.027
344.40 4.022
344.50 4.018
344.60 4.013
344.70 4.009
344.80 4.005
344.90 4
345.00 3.996
345.10 3.992
345.20 3.987
345.30 3.983
345.40 3.979
345.50 3.974
345.60 3.97
345.70 3.965
345.80 3.961
345.90 3.957
346.00 3.952
346.10 3.948
346.20 3.944
346.30 3.94
346.40 3.935
346.50 3.931
346.60 3.927
346.70 3.923
346.80 3.918
346.90 3.914
347.00 3.91
347.10 3.905
347.20 3.901
347.30 3.897
347.40 3.893
347.50 3.889
347.60 3.884
347.70 3.88
347.80 3.876
347.90 3.872
348.00 3.867
348.10 3.863
348.20 3.859
348.30 3.855
348.40 3.851
348.50 3.847
348.60 3.842
348.70 3.838
348.80 3.834
348.90 3.83
349.00 3.826
349.10 3.822
349.20 3.818
349.30 3.813
349.40 3.809
349.50 3.805
349.60 3.801
349.70 3.797
349.80 3.793
349.90 3.789
350.00 3.785
350.10 3.781
350.20 3.777
350.30 3.772
350.40 3.768
350.50 3.764
350.60 3.76
350.70 3.756
350.80 3.752
350.90 3.748
351.00 3.744
351.10 3.74
351.20 3.736
351.30 3.732
351.40 3.728
351.50 3.724
351.60 3.72
351.70 3.716
351.80 3.712
351.90 3.708
352.00 3.704
352.10 3.7
352.20 3.696
352.30 3.692
352.40 3.688
352.50 3.684
352.60 3.68
352.70 3.676
352.80 3.673
352.90 3.669
353.00 3.665
353.10 3.661
353.20 3.657
353.30 3.653
353.40 3.649
353.50 3.645
353.60 3.641
353.70 3.637
353.80 3.633
353.90 3.63
354.00 3.626
354.10 3.622
354.20 3.618
354.30 3.614
354.40 3.61
354.50 3.606
354.60 3.603
354.70 3.599
354.80 3.595
354.90 3.591
355.00 3.587
355.10 3.584
355.20 3.58
355.30 3.576
355.40 3.572
355.50 3.568
355.60 3.564
355.70 3.561
355.80 3.557
355.90 3.553
356.00 3.549
356.10 3.546
356.20 3.542
356.30 3.538
356.40 3.534
356.50 3.531
356.60 3.527
356.70 3.523
356.80 3.519
356.90 3.516
357.00 3.512
357.10 3.508
357.20 3.505
357.30 3.501
357.40 3.497
357.50 3.493
357.60 3.49
357.70 3.486
357.80 3.482
357.90 3.479
358.00 3.475
358.10 3.471
358.20 3.468
358.30 3.464
358.40 3.46
358.50 3.457
358.60 3.453
358.70 3.449
358.80 3.446
358.90 3.442
359.00 3.439
359.10 3.435
359.20 3.431
359.30 3.428
359.40 3.424
359.50 3.421
359.60 3.417
359.70 3.413
359.80 3.41
359.90 3.406
360.00 3.403
360.10 3.399
360.20 3.395
360.30 3.392
360.40 3.388
360.50 3.385
360.60 3.381
360.70 3.378
360.80 3.374
360.90 3.371
361.00 3.367
361.10 3.364
361.20 3.36
361.30 3.357
361.40 3.353
361.50 3.35
361.60 3.346
361.70 3.343
361.80 3.339
361.90 3.336
362.00 3.332
362.10 3.329
362.20 3.325
362.30 3.322
362.40 3.318
362.50 3.315
362.60 3.311
362.70 3.308
362.80 3.304
362.90 3.301
363.00 3.297
363.10 3.294
363.20 3.291
363.30 3.287
363.40 3.284
363.50 3.28
363.60 3.277
363.70 3.274
363.80 3.27
363.90 3.267
364.00 3.263
364.10 3.26
364.20 3.257
364.30 3.253
364.40 3.25
364.50 3.246
364.60 3.243
364.70 3.24
364.80 3.236
364.90 3.233
365.00 3.23
365.10 3.226
365.20 3.223
365.30 3.22
365.40 3.216
365.50 3.213
365.60 3.21
365.70 3.206
365.80 3.203
365.90 3.2
366.00 3.196
366.10 3.193
366.20 3.19
366.30 3.186
366.40 3.183
366.50 3.18
366.60 3.176
366.70 3.173
366.80 3.17
366.90 3.167
367.00 3.163
367.10 3.16
367.20 3.157
367.30 3.153
367.40 3.15
367.50 3.147
367.60 3.143
367.70 3.14
367.80 3.137
367.90 3.134
368.00 3.13
368.10 3.127
368.20 3.124
368.30 3.121
368.40 3.117
368.50 3.114
368.60 3.111
368.70 3.108
368.80 3.104
368.90 3.101
369.00 3.098
369.10 3.095
369.20 3.091
369.30 3.088
369.40 3.085
369.50 3.082
369.60 3.078
369.70 3.075
369.80 3.072
369.90 3.069
370.00 3.065
370.10 3.062
370.20 3.059
370.30 3.056
370.40 3.053
370.50 3.05
370.60 3.046
370.70 3.043
370.80 3.04
370.90 3.037
371.00 3.034
371.10 3.031
371.20 3.028
371.30 3.024
371.40 3.021
371.50 3.018
371.60 3.015
371.70 3.012
371.80 3.009
371.90 3.006
372.00 3.002
372.10 2.999
372.20 2.996
372.30 2.993
372.40 2.99
372.50 2.987
372.60 2.984
372.70 2.981
372.80 2.978
372.90 2.975
373.00 2.972
373.10 2.969
373.20 2.966
373.30 2.963
373.40 2.96
373.50 2.957
373.60 2.954
373.70 2.951
373.80 2.948
373.90 2.945
374.00 2.942
374.10 2.939
374.20 2.936
374.30 2.933
374.40 2.93
374.50 2.927
374.60 2.924
374.70 2.921
374.80 2.918
374.90 2.915
375.00 2.912
375.10 2.909
375.20 2.906
375.30 2.903
375.40 2.9
375.50 2.897
375.60 2.894
375.70 2.891
375.80 2.888
375.90 2.885
376.00 2.882
376.10 2.879
376.20 2.876
376.30 2.873
376.40 2.87
376.50 2.867
376.60 2.865
376.70 2.862
376.80 2.859
376.90 2.856
377.00 2.853
377.10 2.85
377.20 2.847
377.30 2.844
377.40 2.842
377.50 2.839
377.60 2.836
377.70 2.833
377.80 2.83
377.90 2.827
378.00 2.825
378.10 2.822
378.20 2.819
378.30 2.816
378.40 2.813
378.50 2.811
378.60 2.808
378.70 2.805
378.80 2.802
378.90 2.799
379.00 2.797
379.10 2.794
379.20 2.791
379.30 2.789
379.40 2.786
379.50 2.783
379.60 2.78
379.70 2.778
379.80 2.775
379.90 2.772
380.00 2.769
380.10 2.767
380.20 2.764
380.30 2.761
380.40 2.759
380.50 2.756
380.60 2.753
380.70 2.751
380.80 2.748
380.90 2.746
381.00 2.743
381.10 2.74
381.20 2.738
381.30 2.735
381.40 2.732
381.50 2.73
381.60 2.727
381.70 2.724
381.80 2.722
381.90 2.719
382.00 2.716
382.10 2.714
382.20 2.711
382.30 2.708
382.40 2.706
382.50 2.703
382.60 2.7
382.70 2.698
382.80 2.695
382.90 2.693
383.00 2.69
383.10 2.687
383.20 2.685
383.30 2.682
383.40 2.68
383.50 2.677
383.60 2.675
383.70 2.672
383.80 2.67
383.90 2.667
384.00 2.665
384.10 2.662
384.20 2.66
384.30 2.658
384.40 2.655
384.50 2.653
384.60 2.651
384.70 2.648
384.80 2.646
384.90 2.643
385.00 2.641
385.10 2.639
385.20 2.636
385.30 2.634
385.40 2.631
385.50 2.629
385.60 2.626
385.70 2.624
385.80 2.621
385.90 2.619
386.00 2.616
386.10 2.614
386.20 2.611
386.30 2.608
386.40 2.606
386.50 2.603
386.60 2.6
386.70 2.598
386.80 2.595
386.90 2.592
387.00 2.59
387.10 2.587
387.20 2.584
387.30 2.581
387.40 2.578
387.50 2.576
387.60 2.573
387.70 2.57
387.80 2.567
387.90 2.564
388.00 2.562
388.10 2.559
388.20 2.556
388.30 2.553
388.40 2.551
388.50 2.548
388.60 2.545
388.70 2.543
388.80 2.541
388.90 2.538
389.00 2.536
389.10 2.534
389.20 2.532
389.30 2.53
389.40 2.528
389.50 2.526
389.60 2.524
389.70 2.523
389.80 2.521
389.90 2.519
390.00 2.517
390.10 2.516
390.20 2.514
390.30 2.512
390.40 2.511
390.50 2.509
390.60 2.507
390.70 2.505
390.80 2.503
390.90 2.501
391.00 2.5
391.10 2.498
391.20 2.496
391.30 2.494
391.40 2.492
391.50 2.49
391.60 2.488
391.70 2.485
391.80 2.483
391.90 2.481
392.00 2.479
392.10 2.477
392.20 2.474
392.30 2.472
392.40 2.47
392.50 2.467
392.60 2.465
392.70 2.462
392.80 2.46
392.90 2.457
393.00 2.455
393.10 2.452
393.20 2.449
393.30 2.446
393.40 2.444
393.50 2.441
393.60 2.438
393.70 2.435
393.80 2.432
393.90 2.429
394.00 2.426
394.10 2.423
394.20 2.419
394.30 2.416
394.40 2.413
394.50 2.41
394.60 2.406
394.70 2.403
394.80 2.399
394.90 2.396
395.00 2.392
395.10 2.389
395.20 2.385
395.30 2.381
395.40 2.378
395.50 2.374
395.60 2.37
395.70 2.366
395.80 2.362
395.90 2.359
396.00 2.355
396.10 2.351
396.20 2.347
396.30 2.343
396.40 2.339
396.50 2.335
396.60 2.332
396.70 2.328
396.80 2.325
396.90 2.321
397.00 2.318
397.10 2.317
397.20 2.316
397.30 2.316
397.40 2.315
397.50 2.315
397.60 2.314
397.70 2.314
397.80 2.314
397.90 2.314
398.00 2.313
398.10 2.313
398.20 2.313
398.30 2.313
398.40 2.312
398.50 2.312
398.60 2.312
398.70 2.311
398.80 2.311
398.90 2.31
399.00 2.31
399.10 2.309
399.20 2.308
399.30 2.308
399.40 2.307
399.50 2.306
399.60 2.306
399.70 2.305
399.80 2.304
399.90 2.303
400.00 2.302
400.10 2.301
400.20 2.3
400.30 2.299
400.40 2.298
400.50 2.296
400.60 2.295
400.70 2.294
400.80 2.293
400.90 2.291
401.00 2.29
401.10 2.288
401.20 2.287
401.30 2.286
401.40 2.284
401.50 2.282
401.60 2.281
401.70 2.279
401.80 2.278
401.90 2.276
402.00 2.274
402.10 2.272
402.20 2.271
402.30 2.269
402.40 2.267
402.50 2.265
402.60 2.263
402.70 2.261
402.80 2.259
402.90 2.257
403.00 2.255
403.10 2.253
403.20 2.251
403.30 2.249
403.40 2.247
403.50 2.244
403.60 2.242
403.70 2.24
403.80 2.238
403.90 2.235
404.00 2.233
404.10 2.231
404.20 2.228
404.30 2.226
404.40 2.223
404.50 2.221
404.60 2.218
404.70 2.216
404.80 2.213
404.90 2.21
405.00 2.207
405.10 2.205
405.20 2.202
405.30 2.199
405.40 2.196
405.50 2.193
405.60 2.19
405.70 2.187
405.80 2.184
405.90 2.181
406.00 2.178
406.10 2.174
406.20 2.171
406.30 2.168
406.40 2.164
406.50 2.161
406.60 2.157
406.70 2.154
406.80 2.15
406.90 2.146
407.00 2.142
407.10 2.138
407.20 2.134
407.30 2.13
407.40 2.126
407.50 2.122
407.60 2.117
407.70 2.113
407.80 2.108
407.90 2.104
408.00 2.099
408.10 2.094
408.20 2.089
408.30 2.084
408.40 2.079
408.50 2.074
408.60 2.069
408.70 2.063
408.80 2.058
408.90 2.053
409.00 2.047
409.10 2.041
409.20 2.036
409.30 2.03
409.40 2.025
409.50 2.019
409.60 2.014
409.70 2.009
409.80 2.005
409.90 2.002
410.00 2.001
410.10 2
410.20 2.001
410.30 1.996
410.40 1.993
410.50 1.992
410.60 1.992
410.70 1.993
410.80 1.995
410.90 1.996
411.00 1.998
411.10 2
411.20 2.002
411.30 2.004
411.40 2.006
411.50 2.008
411.60 2.009
411.70 2.011
411.80 2.013
411.90 2.014
412.00 2.015
412.10 2.017
412.20 2.018
412.30 2.019
412.40 2.02
412.50 2.021
412.60 2.022
412.70 2.022
412.80 2.023
412.90 2.023
413.00 2.024
413.10 2.024
413.20 2.024
413.30 2.024
413.40 2.024
413.50 2.025
413.60 2.024
413.70 2.024
413.80 2.024
413.90 2.024
414.00 2.023
414.10 2.023
414.20 2.023
414.30 2.022
414.40 2.022
414.50 2.021
414.60 2.02
414.70 2.02
414.80 2.019
414.90 2.018
415.00 2.017
415.10 2.016
415.20 2.015
415.30 2.014
415.40 2.013
415.50 2.012
415.60 2.011
415.70 2.01
415.80 2.009
415.90 2.008
416.00 2.007
416.10 2.006
416.20 2.004
416.30 2.003
416.40 2.002
416.50 2.001
416.60 1.999
416.70 1.998
416.80 1.997
416.90 1.995
417.00 1.994
417.10 1.992
417.20 1.991
417.30 1.99
417.40 1.988
417.50 1.987
417.60 1.985
417.70 1.984
417.80 1.982
417.90 1.981
418.00 1.979
418.10 1.978
418.20 1.976
418.30 1.975
418.40 1.973
418.50 1.972
418.60 1.97
418.70 1.968
418.80 1.967
418.90 1.965
419.00 1.964
419.10 1.962
419.20 1.96
419.30 1.959
419.40 1.957
419.50 1.955
419.60 1.954
419.70 1.952
419.80 1.951
419.90 1.949
420.00 1.947
420.10 1.946
420.20 1.944
420.30 1.942
420.40 1.941
420.50 1.939
420.60 1.937
420.70 1.935
420.80 1.934
420.90 1.932
421.00 1.93
421.10 1.929
421.20 1.927
421.30 1.925
421.40 1.924
421.50 1.922
421.60 1.92
421.70 1.918
421.80 1.917
421.90 1.915
422.00 1.913
422.10 1.911
422.20 1.91
422.30 1.908
422.40 1.906
422.50 1.905
422.60 1.903
422.70 1.901
422.80 1.899
422.90 1.897
423.00 1.896
423.10 1.894
423.20 1.892
423.30 1.89
423.40 1.889
423.50 1.887
423.60 1.885
423.70 1.883
423.80 1.882
423.90 1.88
424.00 1.878
424.10 1.876
424.20 1.874
424.30 1.873
424.40 1.871
424.50 1.869
424.60 1.867
424.70 1.865
424.80 1.863
424.90 1.862
425.00 1.86
425.10 1.858
425.20 1.856
425.30 1.854
425.40 1.852
425.50 1.85
425.60 1.849
425.70 1.847
425.80 1.845
425.90 1.843
426.00 1.841
426.10 1.839
426.20 1.837
426.30 1.835
426.40 1.833
426.50 1.831
426.60 1.829
426.70 1.827
426.80 1.825
426.90 1.823
427.00 1.821
427.10 1.819
427.20 1.817
427.30 1.815
427.40 1.813
427.50 1.811
427.60 1.809
427.70 1.806
427.80 1.804
427.90 1.802
428.00 1.8
428.10 1.798
428.20 1.795
428.30 1.793
428.40 1.791
428.50 1.788
428.60 1.786
428.70 1.783
428.80 1.781
428.90 1.778
429.00 1.776
429.10 1.773
429.20 1.771
429.30 1.768
429.40 1.765
429.50 1.762
429.60 1.76
429.70 1.757
429.80 1.754
429.90 1.751
430.00 1.748
430.10 1.745
430.20 1.741
430.30 1.738
430.40 1.735
430.50 1.731
430.60 1.728
430.70 1.724
430.80 1.721
430.90 1.717
431.00 1.713
431.10 1.709
431.20 1.705
431.30 1.701
431.40 1.696
431.50 1.692
431.60 1.688
431.70 1.683
431.80 1.678
431.90 1.673
432.00 1.668
432.10 1.663
432.20 1.658
432.30 1.652
432.40 1.647
432.50 1.641
432.60 1.635
432.70 1.63
432.80 1.624
432.90 1.618
433.00 1.612
433.10 1.606
433.20 1.6
433.30 1.594
433.40 1.588
433.50 1.582
433.60 1.576
433.70 1.571
433.80 1.566
433.90 1.56
434.00 1.555
434.10 1.554
434.20 1.556
434.30 1.559
434.40 1.562
434.50 1.565
434.60 1.568
434.70 1.571
434.80 1.574
434.90 1.577
435.00 1.58
435.10 1.584
435.20 1.587
435.30 1.59
435.40 1.593
435.50 1.596
435.60 1.599
435.70 1.602
435.80 1.604
435.90 1.607
436.00 1.609
436.10 1.611
436.20 1.613
436.30 1.615
436.40 1.617
436.50 1.619
436.60 1.62
436.70 1.622
436.80 1.623
436.90 1.624
437.00 1.625
437.10 1.626
437.20 1.627
437.30 1.628
437.40 1.628
437.50 1.629
437.60 1.629
437.70 1.63
437.80 1.63
437.90 1.63
438.00 1.63
438.10 1.63
438.20 1.63
438.30 1.63
438.40 1.63
438.50 1.63
438.60 1.63
438.70 1.629
438.80 1.629
438.90 1.628
439.00 1.628
439.10 1.627
439.20 1.627
439.30 1.626
439.40 1.626
439.50 1.625
439.60 1.624
439.70 1.624
439.80 1.623
439.90 1.622
440.00 1.621
440.10 1.62
440.20 1.62
440.30 1.619
440.40 1.618
440.50 1.617
440.60 1.616
440.70 1.615
440.80 1.614
440.90 1.613
441.00 1.612
441.10 1.611
441.20 1.61
441.30 1.609
441.40 1.608
441.50 1.607
441.60 1.606
441.70 1.605
441.80 1.603
441.90 1.602
442.00 1.601
442.10 1.6
442.20 1.599
442.30 1.598
442.40 1.597
442.50 1.595
442.60 1.594
442.70 1.593
442.80 1.592
442.90 1.591
443.00 1.589
443.10 1.588
443.20 1.587
443.30 1.586
443.40 1.585
443.50 1.583
443.60 1.582
443.70 1.581
443.80 1.58
443.90 1.578
444.00 1.577
444.10 1.576
444.20 1.575
444.30 1.573
444.40 1.572
444.50 1.571
444.60 1.57
444.70 1.568
444.80 1.567
444.90 1.566
445.00 1.565
445.10 1.563
445.20 1.562
445.30 1.561
445.40 1.56
445.50 1.558
445.60 1.557
445.70 1.556
445.80 1.555
445.90 1.553
446.00 1.552
446.10 1.551
446.20 1.549
446.30 1.548
446.40 1.547
446.50 1.546
446.60 1.544
446.70 1.543
446.80 1.542
446.90 1.541
447.00 1.539
447.10 1.538
447.20 1.537
447.30 1.535
447.40 1.534
447.50 1.533
447.60 1.532
447.70 1.53
447.80 1.529
447.90 1.528
448.00 1.526
448.10 1.525
448.20 1.524
448.30 1.523
448.40 1.521
448.50 1.52
448.60 1.519
448.70 1.518
448.80 1.516
448.90 1.515
449.00 1.514
449.10 1.513
449.20 1.511
449.30 1.51
449.40 1.509
449.50 1.507
449.60 1.506
449.70 1.505
449.80 1.504
449.90 1.502
450.00 1.501
450.10 1.5
450.20 1.499
450.30 1.497
450.40 1.496
450.50 1.495
450.60 1.494
450.70 1.492
450.80 1.491
450.90 1.49
451.00 1.489
451.10 1.487
451.20 1.486
451.30 1.485
451.40 1.484
451.50 1.482
451.60 1.481
451.70 1.48
451.80 1.479
451.90 1.477
452.00 1.476
452.10 1.475
452.20 1.474
452.30 1.472
452.40 1.471
452.50 1.47
452.60 1.469
452.70 1.467
452.80 1.466
452.90 1.465
453.00 1.464
453.10 1.462
453.20 1.461
453.30 1.46
453.40 1.459
453.50 1.458
453.60 1.456
453.70 1.455
453.80 1.454
453.90 1.453
454.00 1.451
454.10 1.45
454.20 1.449
454.30 1.448
454.40 1.447
454.50 1.445
454.60 1.444
454.70 1.443
454.80 1.442
454.90 1.44
455.00 1.439
455.10 1.438
455.20 1.437
455.30 1.436
455.40 1.434
455.50 1.433
455.60 1.432
455.70 1.431
455.80 1.43
455.90 1.428
456.00 1.427
456.10 1.426
456.20 1.425
456.30 1.424
456.40 1.422
456.50 1.421
456.60 1.42
456.70 1.419
456.80 1.418
456.90 1.416
457.00 1.415
457.10 1.414
457.20 1.413
457.30 1.412
457.40 1.41
457.50 1.409
457.60 1.408
457.70 1.407
457.80 1.406
457.90 1.405
458.00 1.403
458.10 1.402
458.20 1.401
458.30 1.4
458.40 1.399
458.50 1.397
458.60 1.396
458.70 1.395
458.80 1.394
458.90 1.393
459.00 1.392
459.10 1.39
459.20 1.389
459.30 1.388
459.40 1.387
459.50 1.386
459.60 1.385
459.70 1.383
459.80 1.382
459.90 1.381
460.00 1.38
460.10 1.379
460.20 1.378
460.30 1.377
460.40 1.375
460.50 1.374
460.60 1.373
460.70 1.372
460.80 1.371
460.90 1.37
461.00 1.368
461.10 1.367
461.20 1.366
461.30 1.365
461.40 1.364
461.50 1.363
461.60 1.362
461.70 1.361
461.80 1.359
461.90 1.358
462.00 1.357
462.10 1.356
462.20 1.355
462.30 1.354
462.40 1.353
462.50 1.351
462.60 1.35
462.70 1.349
462.80 1.348
462.90 1.347
463.00 1.346
463.10 1.345
463.20 1.344
463.30 1.342
463.40 1.341
463.50 1.34
463.60 1.339
463.70 1.338
463.80 1.337
463.90 1.336
464.00 1.335
464.10 1.333
464.20 1.332
464.30 1.331
464.40 1.33
464.50 1.329
464.60 1.328
464.70 1.327
464.80 1.326
464.90 1.325
465.00 1.324
465.10 1.322
465.20 1.321
465.30 1.32
465.40 1.319
465.50 1.318
465.60 1.317
465.70 1.316
465.80 1.315
465.90 1.314
466.00 1.313
466.10 1.311
466.20 1.31
466.30 1.309
466.40 1.308
466.50 1.307
466.60 1.306
466.70 1.305
466.80 1.304
466.90 1.303
467.00 1.302
467.10 1.301
467.20 1.299
467.30 1.298
467.40 1.297
467.50 1.296
467.60 1.295
467.70 1.294
467.80 1.293
467.90 1.292
468.00 1.291
468.10 1.29
468.20 1.289
468.30 1.288
468.40 1.286
468.50 1.285
468.60 1.284
468.70 1.283
468.80 1.282
468.90 1.281
469.00 1.28
469.10 1.279
469.20 1.278
469.30 1.277
469.40 1.276
469.50 1.275
469.60 1.274
469.70 1.273
469.80 1.272
469.90 1.27
470.00 1.269
470.10 1.268
470.20 1.267
470.30 1.266
470.40 1.265
470.50 1.264
470.60 1.263
470.70 1.262
470.80 1.261
470.90 1.26
471.00 1.259
471.10 1.258
471.20 1.257
471.30 1.256
471.40 1.255
471.50 1.254
471.60 1.252
471.70 1.251
471.80 1.25
471.90 1.249
472.00 1.248
472.10 1.247
472.20 1.246
472.30 1.245
472.40 1.244
472.50 1.243
472.60 1.242
472.70 1.241
472.80 1.24
472.90 1.239
473.00 1.238
473.10 1.237
473.20 1.236
473.30 1.235
473.40 1.233
473.50 1.232
473.60 1.231
473.70 1.23
473.80 1.229
473.90 1.228
474.00 1.227
474.10 1.226
474.20 1.225
474.30 1.224
474.40 1.223
474.50 1.222
474.60 1.221
474.70 1.22
474.80 1.219
474.90 1.218
475.00 1.217
475.10 1.216
475.20 1.214
475.30 1.213
475.40 1.212
475.50 1.211
475.60 1.21
475.70 1.209
475.80 1.208
475.90 1.207
476.00 1.206
476.10 1.205
476.20 1.204
476.30 1.203
476.40 1.202
476.50 1.2
476.60 1.199
476.70 1.198
476.80 1.197
476.90 1.196
477.00 1.195
477.10 1.194
477.20 1.193
477.30 1.192
477.40 1.191
477.50 1.189
477.60 1.188
477.70 1.187
477.80 1.186
477.90 1.185
478.00 1.184
478.10 1.183
478.20 1.182
478.30 1.18
478.40 1.179
478.50 1.178
478.60 1.177
478.70 1.176
478.80 1.174
478.90 1.173
479.00 1.172
479.10 1.171
479.20 1.17
479.30 1.168
479.40 1.167
479.50 1.166
479.60 1.164
479.70 1.163
479.80 1.162
479.90 1.161
480.00 1.159
480.10 1.158
480.20 1.157
480.30 1.155
480.40 1.154
480.50 1.152
480.60 1.151
480.70 1.149
480.80 1.148
480.90 1.147
481.00 1.145
481.10 1.144
481.20 1.142
481.30 1.14
481.40 1.139
481.50 1.137
481.60 1.135
481.70 1.133
481.80 1.132
481.90 1.13
482.00 1.128
482.10 1.126
482.20 1.124
482.30 1.122
482.40 1.12
482.50 1.118
482.60 1.116
482.70 1.113
482.80 1.111
482.90 1.109
483.00 1.107
483.10 1.105
483.20 1.102
483.30 1.099
483.40 1.096
483.50 1.093
483.60 1.09
483.70 1.087
483.80 1.084
483.90 1.081
484.00 1.079
484.10 1.076
484.20 1.072
484.30 1.069
484.40 1.065
484.50 1.062
484.60 1.058
484.70 1.054
484.80 1.05
484.90 1.046
485.00 1.042
485.10 1.038
485.20 1.034
485.30 1.03
485.40 1.026
485.50 1.022
485.60 1.018
485.70 1.014
485.80 1.011
485.90 1.009
486.00 1.01
486.10 1.021
486.20 1.016
486.30 1.006
486.40 1.006
486.50 1.006
486.60 1.008
486.70 1.01
486.80 1.013
486.90 1.015
487.00 1.018
487.10 1.02
487.20 1.023
487.30 1.025
487.40 1.027
487.50 1.03
487.60 1.032
487.70 1.034
487.80 1.036
487.90 1.038
488.00 1.04
488.10 1.042
488.20 1.043
488.30 1.044
488.40 1.045
488.50 1.047
488.60 1.048
488.70 1.049
488.80 1.05
488.90 1.051
489.00 1.052
489.10 1.054
489.20 1.054
489.30 1.055
489.40 1.055
489.50 1.056
489.60 1.056
489.70 1.056
489.80 1.057
489.90 1.057
490.00 1.058
490.10 1.058
490.20 1.058
490.30 1.058
490.40 1.058
490.50 1.058
490.60 1.058
490.70 1.058
490.80 1.058
490.90 1.058
491.00 1.057
491.10 1.057
491.20 1.057
491.30 1.057
491.40 1.056
491.50 1.056
491.60 1.056
491.70 1.055
491.80 1.055
491.90 1.055
492.00 1.054
492.10 1.054
492.20 1.053
492.30 1.053
492.40 1.052
492.50 1.052
492.60 1.051
492.70 1.051
492.80 1.05
492.90 1.05
493.00 1.049
493.10 1.049
493.20 1.048
493.30 1.048
493.40 1.047
493.50 1.046
493.60 1.046
493.70 1.045
493.80 1.044
493.90 1.044
494.00 1.043
494.10 1.043
494.20 1.042
494.30 1.041
494.40 1.041
494.50 1.04
494.60 1.039
494.70 1.039
494.80 1.038
494.90 1.037
495.00 1.037
495.10 1.036
495.20 1.035
495.30 1.034
495.40 1.034
495.50 1.033
495.60 1.032
495.70 1.032
495.80 1.031
495.90 1.03
496.00 1.029
496.10 1.029
496.20 1.028
496.30 1.027
496.40 1.027
496.50 1.026
496.60 1.025
496.70 1.024
496.80 1.024
496.90 1.023
497.00 1.022
497.10 1.022
497.20 1.021
497.30 1.02
497.40 1.019
497.50 1.019
497.60 1.018
497.70 1.017
497.80 1.016
497.90 1.016
498.00 1.015
498.10 1.014
498.20 1.013
498.30 1.013
498.40 1.012
498.50 1.011
498.60 1.01
498.70 1.01
498.80 1.009
498.90 1.008
499.00 1.007
499.10 1.007
499.20 1.006
499.30 1.005
499.40 1.004
499.50 1.004
499.60 1.003
499.70 1.002
499.80 1.001
499.90 1.001
500.00 1
500.10 0.9993
500.20 0.9985
500.30 0.9978
500.40 0.997
500.50 0.9963
500.60 0.9955
500.70 0.9948
500.80 0.994
500.90 0.9933
501.00 0.9926
501.10 0.9918
501.20 0.9911
501.30 0.9903
501.40 0.9896
501.50 0.9888
501.60 0.9881
501.70 0.9874
501.80 0.9866
501.90 0.9859
502.00 0.9851
502.10 0.9844
502.20 0.9837
502.30 0.9829
502.40 0.9822
502.50 0.9814
502.60 0.9807
502.70 0.98
502.80 0.9792
502.90 0.9785
503.00 0.9777
503.10 0.977
503.20 0.9763
503.30 0.9755
503.40 0.9748
503.50 0.9741
503.60 0.9733
503.70 0.9726
503.80 0.9719
503.90 0.9711
504.00 0.9704
504.10 0.9697
504.20 0.9689
504.30 0.9682
504.40 0.9675
504.50 0.9667
504.60 0.966
504.70 0.9653
504.80 0.9646
504.90 0.9638
505.00 0.9631
505.10 0.9624
505.20 0.9616
505.30 0.9609
505.40 0.9602
505.50 0.9595
505.60 0.9587
505.70 0.958
505.80 0.9573
505.90 0.9566
506.00 0.9559
506.10 0.9551
506.20 0.9544
506.30 0.9537
506.40 0.953
506.50 0.9523
506.60 0.9515
506.70 0.9508
506.80 0.9501
506.90 0.9494
507.00 0.9487
507.10 0.948
507.20 0.9472
507.30 0.9465
507.40 0.9458
507.50 0.9451
507.60 0.9444
507.70 0.9437
507.80 0.943
507.90 0.9422
508.00 0.9415
508.10 0.9408
508.20 0.9401
508.30 0.9394
508.40 0.9387
508.50 0.938
508.60 0.9373
508.70 0.9366
508.80 0.9359
508.90 0.9352
509.00 0.9345
509.10 0.9338
509.20 0.9331
509.30 0.9324
509.40 0.9317
509.50 0.9309
509.60 0.9302
509.70 0.9295
509.80 0.9288
509.90 0.9281
510.00 0.9274
510.10 0.9268
510.20 0.9261
510.30 0.9254
510.40 0.9247
510.50 0.924
510.60 0.9233
510.70 0.9226
510.80 0.9219
510.90 0.9212
511.00 0.9205
511.10 0.9198
511.20 0.9191
511.30 0.9184
511.40 0.9177
511.50 0.917
511.60 0.9164
511.70 0.9157
511.80 0.915
511.90 0.9143
512.00 0.9136
512.10 0.9129
512.20 0.9122
512.30 0.9115
512.40 0.9109
512.50 0.9102
512.60 0.9095
512.70 0.9088
512.80 0.9081
512.90 0.9075
513.00 0.9068
513.10 0.9061
513.20 0.9054
513.30 0.9047
513.40 0.9041
513.50 0.9034
513.60 0.9027
513.70 0.902
513.80 0.9014
513.90 0.9007
514.00 0.9
514.10 0.8993
514.20 0.8987
514.30 0.898
514.40 0.8973
514.50 0.8966
514.60 0.896
514.70 0.8953
514.80 0.8946
514.90 0.894
515.00 0.8933
515.10 0.8926
515.20 0.892
515.30 0.8913
515.40 0.8906
515.50 0.89
515.60 0.8893
515.70 0.8886
515.80 0.888
515.90 0.8873
516.00 0.8866
516.10 0.886
516.20 0.8853
516.30 0.8847
516.40 0.884
516.50 0.8833
516.60 0.8827
516.70 0.882
516.80 0.8814
516.90 0.8807
517.00 0.8801
517.10 0.8794
517.20 0.8787
517.30 0.8781
517.40 0.8774
517.50 0.8768
517.60 0.8761
517.70 0.8755
517.80 0.8748
517.90 0.8742
518.00 0.8735
518.10 0.8729
518.20 0.8722
518.30 0.8716
518.40 0.8709
518.50 0.8703
518.60 0.8696
518.70 0.869
518.80 0.8683
518.90 0.8677
519.00 0.8671
519.10 0.8664
519.20 0.8658
519.30 0.8651
519.40 0.8645
519.50 0.8638
519.60 0.8632
519.70 0.8626
519.80 0.8619
519.90 0.8613
520.00 0.8606
520.10 0.86
520.20 0.8594
520.30 0.8587
520.40 0.8581
520.50 0.8575
520.60 0.8568
520.70 0.8562
520.80 0.8556
520.90 0.8549
521.00 0.8543
521.10 0.8537
521.20 0.853
521.30 0.8524
521.40 0.8518
521.50 0.8511
521.60 0.8505
521.70 0.8499
521.80 0.8493
521.90 0.8486
522.00 0.848
522.10 0.8474
522.20 0.8468
522.30 0.8461
522.40 0.8455
522.50 0.8449
522.60 0.8443
522.70 0.8436
522.80 0.843
522.90 0.8424
523.00 0.8418
523.10 0.8411
523.20 0.8405
523.30 0.8399
523.40 0.8393
523.50 0.8387
523.60 0.8381
523.70 0.8374
523.80 0.8368
523.90 0.8362
524.00 0.8356
524.10 0.835
524.20 0.8344
524.30 0.8337
524.40 0.8331
524.50 0.8325
524.60 0.8319
524.70 0.8313
524.80 0.8307
524.90 0.8301
525.00 0.8295
525.10 0.8288
525.20 0.8282
525.30 0.8276
525.40 0.827
525.50 0.8264
525.60 0.8258
525.70 0.8252
525.80 0.8246
525.90 0.824
526.00 0.8234
526.10 0.8228
526.20 0.8222
526.30 0.8216
526.40 0.821
526.50 0.8204
526.60 0.8198
526.70 0.8192
526.80 0.8186
526.90 0.818
527.00 0.8174
527.10 0.8168
527.20 0.8162
527.30 0.8156
527.40 0.815
527.50 0.8144
527.60 0.8138
527.70 0.8132
527.80 0.8126
527.90 0.812
528.00 0.8114
528.10 0.8108
528.20 0.8102
528.30 0.8096
528.40 0.809
528.50 0.8085
528.60 0.8079
528.70 0.8073
528.80 0.8067
528.90 0.8061
529.00 0.8055
529.10 0.8049
529.20 0.8043
529.30 0.8037
529.40 0.8032
529.50 0.8026
529.60 0.802
529.70 0.8014
529.80 0.8008
529.90 0.8002
530.00 0.7997
530.10 0.7991
530.20 0.7985
530.30 0.7979
530.40 0.7973
530.50 0.7968
530.60 0.7962
530.70 0.7956
530.80 0.795
530.90 0.7944
531.00 0.7939
531.10 0.7933
531.20 0.7927
531.30 0.7921
531.40 0.7916
531.50 0.791
531.60 0.7904
531.70 0.7898
531.80 0.7893
531.90 0.7887
532.00 0.7881
532.10 0.7875
532.20 0.787
532.30 0.7864
532.40 0.7858
532.50 0.7853
532.60 0.7847
532.70 0.7841
532.80 0.7836
532.90 0.783
533.00 0.7824
533.10 0.7819
533.20 0.7813
533.30 0.7807
533.40 0.7802
533.50 0.7796
533.60 0.779
533.70 0.7785
533.80 0.7779
533.90 0.7773
534.00 0.7768
534.10 0.7762
534.20 0.7757
534.30 0.7751
534.40 0.7745
534.50 0.774
534.60 0.7734
534.70 0.7729
534.80 0.7723
534.90 0.7717
535.00 0.7712
535.10 0.7706
535.20 0.7701
535.30 0.7695
535.40 0.769
535.50 0.7684
535.60 0.7679
535.70 0.7673
535.80 0.7667
535.90 0.7662
536.00 0.7656
536.10 0.7651
536.20 0.7645
536.30 0.764
536.40 0.7634
536.50 0.7629
536.60 0.7623
536.70 0.7618
536.80 0.7612
536.90 0.7607
537.00 0.7601
537.10 0.7596
537.20 0.7591
537.30 0.7585
537.40 0.758
537.50 0.7574
537.60 0.7569
537.70 0.7563
537.80 0.7558
537.90 0.7553
538.00 0.7547
538.10 0.7542
538.20 0.7536
538.30 0.7531
538.40 0.7525
538.50 0.752
538.60 0.7515
538.70 0.7509
538.80 0.7504
538.90 0.7498
539.00 0.7493
539.10 0.7488
539.20 0.7482
539.30 0.7477
539.40 0.7472
539.50 0.7466
539.60 0.7461
539.70 0.7456
539.80 0.745
539.90 0.7445
540.00 0.744
540.10 0.7434
540.20 0.7429
540.30 0.7424
540.40 0.7418
540.50 0.7413
540.60 0.7408
540.70 0.7403
540.80 0.7397
540.90 0.7392
541.00 0.7387
541.10 0.7381
541.20 0.7376
541.30 0.7371
541.40 0.7366
541.50 0.736
541.60 0.7355
541.70 0.735
541.80 0.7345
541.90 0.7339
542.00 0.7334
542.10 0.7329
542.20 0.7324
542.30 0.7318
542.40 0.7313
542.50 0.7308
542.60 0.7303
542.70 0.7298
542.80 0.7292
542.90 0.7287
543.00 0.7282
543.10 0.7277
543.20 0.7272
543.30 0.7267
543.40 0.7261
543.50 0.7256
543.60 0.7251
543.70 0.7246
543.80 0.7241
543.90 0.7236
544.00 0.7231
544.10 0.7225
544.20 0.722
544.30 0.7215
544.40 0.721
544.50 0.7205
544.60 0.72
544.70 0.7195
544.80 0.719
544.90 0.7184
545.00 0.7179
545.10 0.7174
545.20 0.7169
545.30 0.7164
545.40 0.7159
545.50 0.7154
545.60 0.7149
545.70 0.7144
545.80 0.7139
545.90 0.7134
546.00 0.7129
546.10 0.7124
546.20 0.7119
546.30 0.7114
546.40 0.7108
546.50 0.7103
546.60 0.7098
546.70 0.7093
546.80 0.7088
546.90 0.7083
547.00 0.7078
547.10 0.7073
547.20 0.7068
547.30 0.7063
547.40 0.7058
547.50 0.7053
547.60 0.7049
547.70 0.7044
547.80 0.7039
547.90 0.7034
548.00 0.7029
548.10 0.7024
548.20 0.7019
548.30 0.7014
548.40 0.7009
548.50 0.7004
548.60 0.6999
548.70 0.6994
548.80 0.6989
548.90 0.6984
549.00 0.6979
549.10 0.6974
549.20 0.6969
549.30 0.6965
549.40 0.696
549.50 0.6955
549.60 0.695
549.70 0.6945
549.80 0.694
549.90 0.6935
550.00 0.693
550.10 0.6925
550.20 0.6921
550.30 0.6916
550.40 0.6911
550.50 0.6906
550.60 0.6901
550.70 0.6896
550.80 0.6892
550.90 0.6887
551.00 0.6882
551.10 0.6877
551.20 0.6872
551.30 0.6867
551.40 0.6863
551.50 0.6858
551.60 0.6853
551.70 0.6848
551.80 0.6843
551.90 0.6839
552.00 0.6834
552.10 0.6829
552.20 0.6824
552.30 0.6819
552.40 0.6815
552.50 0.681
552.60 0.6805
552.70 0.68
552.80 0.6796
552.90 0.6791
553.00 0.6786
553.10 0.6781
553.20 0.6777
553.30 0.6772
553.40 0.6767
553.50 0.6762
553.60 0.6758
553.70 0.6753
553.80 0.6748
553.90 0.6744
554.00 0.6739
554.10 0.6734
554.20 0.6729
554.30 0.6725
554.40 0.672
554.50 0.6715
554.60 0.6711
554.70 0.6706
554.80 0.6701
554.90 0.6697
555.00 0.6692
555.10 0.6687
555.20 0.6683
555.30 0.6678
555.40 0.6673
555.50 0.6669
555.60 0.6664
555.70 0.666
555.80 0.6655
555.90 0.665
556.00 0.6646
556.10 0.6641
556.20 0.6636
556.30 0.6632
556.40 0.6627
556.50 0.6623
556.60 0.6618
556.70 0.6613
556.80 0.6609
556.90 0.6604
557.00 0.66
557.10 0.6595
557.20 0.659
557.30 0.6586
557.40 0.6581
557.50 0.6577
557.60 0.6572
557.70 0.6568
557.80 0.6563
557.90 0.6559
558.00 0.6554
558.10 0.6549
558.20 0.6545
558.30 0.654
558.40 0.6536
558.50 0.6531
558.60 0.6527
558.70 0.6522
558.80 0.6518
558.90 0.6513
559.00 0.6509
559.10 0.6504
559.20 0.65
559.30 0.6495
559.40 0.6491
559.50 0.6486
559.60 0.6482
559.70 0.6477
559.80 0.6473
559.90 0.6468
560.00 0.6464
560.10 0.6459
560.20 0.6455
560.30 0.6451
560.40 0.6446
560.50 0.6442
560.60 0.6437
560.70 0.6433
560.80 0.6428
560.90 0.6424
561.00 0.6419
561.10 0.6415
561.20 0.6411
561.30 0.6406
561.40 0.6402
561.50 0.6397
561.60 0.6393
561.70 0.6389
561.80 0.6384
561.90 0.638
562.00 0.6375
562.10 0.6371
562.20 0.6367
562.30 0.6362
562.40 0.6358
562.50 0.6354
562.60 0.6349
562.70 0.6345
562.80 0.634
562.90 0.6336
563.00 0.6332
563.10 0.6327
563.20 0.6323
563.30 0.6319
563.40 0.6314
563.50 0.631
563.60 0.6306
563.70 0.6301
563.80 0.6297
563.90 0.6293
564.00 0.6288
564.10 0.6284
564.20 0.628
564.30 0.6275
564.40 0.6271
564.50 0.6267
564.60 0.6263
564.70 0.6258
564.80 0.6254
564.90 0.625
565.00 0.6245
565.10 0.6241
565.20 0.6237
565.30 0.6233
565.40 0.6228
565.50 0.6224
565.60 0.622
565.70 0.6216
565.80 0.6211
565.90 0.6207
566.00 0.6203
566.10 0.6199
566.20 0.6194
566.30 0.619
566.40 0.6186
566.50 0.6182
566.60 0.6178
566.70 0.6173
566.80 0.6169
566.90 0.6165
567.00 0.6161
567.10 0.6156
567.20 0.6152
567.30 0.6148
567.40 0.6144
567.50 0.614
567.60 0.6136
567.70 0.6131
567.80 0.6127
567.90 0.6123
568.00 0.6119
568.10 0.6115
568.20 0.611
568.30 0.6106
568.40 0.6102
568.50 0.6098
568.60 0.6094
568.70 0.609
568.80 0.6086
568.90 0.6081
569.00 0.6077
569.10 0.6073
569.20 0.6069
569.30 0.6065
569.40 0.6061
569.50 0.6057
569.60 0.6053
569.70 0.6048
569.80 0.6044
569.90 0.604
570.00 0.6036
570.10 0.6032
570.20 0.6028
570.30 0.6024
570.40 0.602
570.50 0.6016
570.60 0.6012
570.70 0.6008
570.80 0.6004
570.90 0.5999
571.00 0.5995
571.10 0.5991
571.20 0.5987
571.30 0.5983
571.40 0.5979
571.50 0.5975
571.60 0.5971
571.70 0.5967
571.80 0.5963
571.90 0.5959
572.00 0.5955
572.10 0.5951
572.20 0.5947
572.30 0.5943
572.40 0.5939
572.50 0.5935
572.60 0.5931
572.70 0.5927
572.80 0.5923
572.90 0.5919
573.00 0.5915
573.10 0.5911
573.20 0.5907
573.30 0.5903
573.40 0.5899
573.50 0.5895
573.60 0.5891
573.70 0.5887
573.80 0.5883
573.90 0.5879
574.00 0.5875
574.10 0.5871
574.20 0.5867
574.30 0.5863
574.40 0.5859
574.50 0.5855
574.60 0.5851
574.70 0.5847
574.80 0.5843
574.90 0.584
575.00 0.5836
575.10 0.5832
575.20 0.5828
575.30 0.5824
575.40 0.582
575.50 0.5816
575.60 0.5812
575.70 0.5808
575.80 0.5804
575.90 0.58
576.00 0.5796
576.10 0.5793
576.20 0.5789
576.30 0.5785
576.40 0.5781
576.50 0.5777
576.60 0.5773
576.70 0.5769
576.80 0.5765
576.90 0.5762
577.00 0.5758
577.10 0.5754
577.20 0.575
577.30 0.5746
577.40 0.5742
577.50 0.5738
577.60 0.5735
577.70 0.5731
577.80 0.5727
577.90 0.5723
578.00 0.5719
578.10 0.5715
578.20 0.5712
578.30 0.5708
578.40 0.5704
578.50 0.57
578.60 0.5696
578.70 0.5693
578.80 0.5689
578.90 0.5685
579.00 0.5681
579.10 0.5677
579.20 0.5673
579.30 0.567
579.40 0.5666
579.50 0.5662
579.60 0.5658
579.70 0.5655
579.80 0.5651
579.90 0.5647
580.00 0.5643
580.10 0.564
580.20 0.5636
580.30 0.5632
580.40 0.5628
580.50 0.5624
580.60 0.5621
580.70 0.5617
580.80 0.5613
580.90 0.561
581.00 0.5606
581.10 0.5602
581.20 0.5598
581.30 0.5595
581.40 0.5591
581.50 0.5587
581.60 0.5583
581.70 0.558
581.80 0.5576
581.90 0.5572
582.00 0.5569
582.10 0.5565
582.20 0.5561
582.30 0.5557
582.40 0.5554
582.50 0.555
582.60 0.5546
582.70 0.5543
582.80 0.5539
582.90 0.5535
583.00 0.5532
583.10 0.5528
583.20 0.5524
583.30 0.5521
583.40 0.5517
583.50 0.5513
583.60 0.551
583.70 0.5506
583.80 0.5502
583.90 0.5499
584.00 0.5495
584.10 0.5491
584.20 0.5488
584.30 0.5484
584.40 0.5481
584.50 0.5477
584.60 0.5473
584.70 0.547
584.80 0.5466
584.90 0.5462
585.00 0.5459
585.10 0.5455
585.20 0.5452
585.30 0.5448
585.40 0.5444
585.50 0.5441
585.60 0.5437
585.70 0.5434
585.80 0.543
585.90 0.5426
586.00 0.5423
586.10 0.5419
586.20 0.5416
586.30 0.5412
586.40 0.5409
586.50 0.5405
586.60 0.5401
586.70 0.5398
586.80 0.5394
586.90 0.5391
587.00 0.5387
587.10 0.5384
587.20 0.538
587.30 0.5377
587.40 0.5373
587.50 0.5369
587.60 0.5366
587.70 0.5362
587.80 0.5359
587.90 0.5355
588.00 0.5352
588.10 0.5348
588.20 0.5345
588.30 0.5341
588.40 0.5338
588.50 0.5334
588.60 0.5331
588.70 0.5327
588.80 0.5324
588.90 0.532
589.00 0.5317
589.10 0.5313
589.20 0.531
589.30 0.5306
589.40 0.5303
589.50 0.5299
589.60 0.5296
589.70 0.5292
589.80 0.5289
589.90 0.5285
590.00 0.5282
590.10 0.5278
590.20 0.5275
590.30 0.5271
590.40 0.5268
590.50 0.5265
590.60 0.5261
590.70 0.5258
590.80 0.5254
590.90 0.5251
591.00 0.5247
591.10 0.5244
591.20 0.524
591.30 0.5237
591.40 0.5234
591.50 0.523
591.60 0.5227
591.70 0.5223
591.80 0.522
591.90 0.5217
592.00 0.5213
592.10 0.521
592.20 0.5206
592.30 0.5203
592.40 0.5199
592.50 0.5196
592.60 0.5193
592.70 0.5189
592.80 0.5186
592.90 0.5183
593.00 0.5179
593.10 0.5176
593.20 0.5172
593.30 0.5169
593.40 0.5166
593.50 0.5162
593.60 0.5159
593.70 0.5156
593.80 0.5152
593.90 0.5149
594.00 0.5145
594.10 0.5142
594.20 0.5139
594.30 0.5135
594.40 0.5132
594.50 0.5129
594.60 0.5125
594.70 0.5122
594.80 0.5119
594.90 0.5115
595.00 0.5112
595.10 0.5109
595.20 0.5105
595.30 0.5102
595.40 0.5099
595.50 0.5095
595.60 0.5092
595.70 0.5089
595.80 0.5086
595.90 0.5082
596.00 0.5079
596.10 0.5076
596.20 0.5072
596.30 0.5069
596.40 0.5066
596.50 0.5062
596.60 0.5059
596.70 0.5056
596.80 0.5053
596.90 0.5049
597.00 0.5046
597.10 0.5043
597.20 0.5039
597.30 0.5036
597.40 0.5033
597.50 0.503
597.60 0.5026
597.70 0.5023
597.80 0.502
597.90 0.5017
598.00 0.5013
598.10 0.501
598.20 0.5007
598.30 0.5004
598.40 0.5
598.50 0.4997
598.60 0.4994
598.70 0.4991
598.80 0.4988
598.90 0.4984
599.00 0.4981
599.10 0.4978
599.20 0.4975
599.30 0.4971
599.40 0.4968
599.50 0.4965
599.60 0.4962
599.70 0.4959
599.80 0.4955
599.90 0.4952
600.00 0.4949
600.10 0.4946
600.20 0.4943
600.30 0.4939
600.40 0.4936
600.50 0.4933
600.60 0.493
600.70 0.4927
600.80 0.4924
600.90 0.492
601.00 0.4917
601.10 0.4914
601.20 0.4911
601.30 0.4908
601.40 0.4904
601.50 0.4901
601.60 0.4898
601.70 0.4895
601.80 0.4892
601.90 0.4889
602.00 0.4886
602.10 0.4882
602.20 0.4879
602.30 0.4876
602.40 0.4873
602.50 0.487
602.60 0.4867
602.70 0.4864
602.80 0.4861
602.90 0.4857
603.00 0.4854
603.10 0.4851
603.20 0.4848
603.30 0.4845
603.40 0.4842
603.50 0.4839
603.60 0.4836
603.70 0.4832
603.80 0.4829
603.90 0.4826
604.00 0.4823
604.10 0.482
604.20 0.4817
604.30 0.4814
604.40 0.4811
604.50 0.4808
604.60 0.4805
604.70 0.4802
604.80 0.4799
604.90 0.4795
605.00 0.4792
605.10 0.4789
605.20 0.4786
605.30 0.4783
605.40 0.478
605.50 0.4777
605.60 0.4774
605.70 0.4771
605.80 0.4768
605.90 0.4765
606.00 0.4762
606.10 0.4759
606.20 0.4756
606.30 0.4753
606.40 0.475
606.50 0.4747
606.60 0.4744
606.70 0.4741
606.80 0.4738
606.90 0.4734
607.00 0.4731
607.10 0.4728
607.20 0.4725
607.30 0.4722
607.40 0.4719
607.50 0.4716
607.60 0.4713
607.70 0.471
607.80 0.4707
607.90 0.4704
608.00 0.4701
608.10 0.4698
608.20 0.4695
608.30 0.4692
608.40 0.4689
608.50 0.4686
608.60 0.4683
608.70 0.468
608.80 0.4677
608.90 0.4674
609.00 0.4672
609.10 0.4669
609.20 0.4666
609.30 0.4663
609.40 0.466
609.50 0.4657
609.60 0.4654
609.70 0.4651
609.80 0.4648
609.90 0.4645
610.00 0.4642
610.10 0.4639
610.20 0.4636
610.30 0.4633
610.40 0.463
610.50 0.4627
610.60 0.4624
610.70 0.4621
610.80 0.4618
610.90 0.4615
611.00 0.4613
611.10 0.461
611.20 0.4607
611.30 0.4604
611.40 0.4601
611.50 0.4598
611.60 0.4595
611.70 0.4592
611.80 0.4589
611.90 0.4586
612.00 0.4583
612.10 0.458
612.20 0.4578
612.30 0.4575
612.40 0.4572
612.50 0.4569
612.60 0.4566
612.70 0.4563
612.80 0.456
612.90 0.4557
613.00 0.4554
613.10 0.4552
613.20 0.4549
613.30 0.4546
613.40 0.4543
613.50 0.454
613.60 0.4537
613.70 0.4534
613.80 0.4531
613.90 0.4529
614.00 0.4526
614.10 0.4523
614.20 0.452
614.30 0.4517
614.40 0.4514
614.50 0.4511
614.60 0.4509
614.70 0.4506
614.80 0.4503
614.90 0.45
615.00 0.4497
615.10 0.4494
615.20 0.4492
615.30 0.4489
615.40 0.4486
615.50 0.4483
615.60 0.448
615.70 0.4477
615.80 0.4475
615.90 0.4472
616.00 0.4469
616.10 0.4466
616.20 0.4463
616.30 0.4461
616.40 0.4458
616.50 0.4455
616.60 0.4452
616.70 0.4449
616.80 0.4447
616.90 0.4444
617.00 0.4441
617.10 0.4438
617.20 0.4435
617.30 0.4433
617.40 0.443
617.50 0.4427
617.60 0.4424
617.70 0.4421
617.80 0.4419
617.90 0.4416
618.00 0.4413
618.10 0.441
618.20 0.4408
618.30 0.4405
618.40 0.4402
618.50 0.4399
618.60 0.4397
618.70 0.4394
618.80 0.4391
618.90 0.4388
619.00 0.4386
619.10 0.4383
619.20 0.438
619.30 0.4377
619.40 0.4375
619.50 0.4372
619.60 0.4369
619.70 0.4366
619.80 0.4364
619.90 0.4361
620.00 0.4358
620.10 0.4355
620.20 0.4353
620.30 0.435
620.40 0.4347
620.50 0.4345
620.60 0.4342
620.70 0.4339
620.80 0.4336
620.90 0.4334
621.00 0.4331
621.10 0.4328
621.20 0.4326
621.30 0.4323
621.40 0.432
621.50 0.4317
621.60 0.4315
621.70 0.4312
621.80 0.4309
621.90 0.4307
622.00 0.4304
622.10 0.4301
622.20 0.4299
622.30 0.4296
622.40 0.4293
622.50 0.4291
622.60 0.4288
622.70 0.4285
622.80 0.4283
622.90 0.428
623.00 0.4277
623.10 0.4275
623.20 0.4272
623.30 0.4269
623.40 0.4267
623.50 0.4264
623.60 0.4261
623.70 0.4259
623.80 0.4256
623.90 0.4253
624.00 0.4251
624.10 0.4248
624.20 0.4245
624.30 0.4243
624.40 0.424
624.50 0.4237
624.60 0.4235
624.70 0.4232
624.80 0.423
624.90 0.4227
625.00 0.4224
625.10 0.4222
625.20 0.4219
625.30 0.4216
625.40 0.4214
625.50 0.4211
625.60 0.4209
625.70 0.4206
625.80 0.4203
625.90 0.4201
626.00 0.4198
626.10 0.4196
626.20 0.4193
626.30 0.419
626.40 0.4188
626.50 0.4185
626.60 0.4183
626.70 0.418
626.80 0.4177
626.90 0.4175
627.00 0.4172
627.10 0.417
627.20 0.4167
627.30 0.4164
627.40 0.4162
627.50 0.4159
627.60 0.4157
627.70 0.4154
627.80 0.4152
627.90 0.4149
628.00 0.4146
628.10 0.4144
628.20 0.4141
628.30 0.4139
628.40 0.4136
628.50 0.4134
628.60 0.4131
628.70 0.4128
628.80 0.4126
628.90 0.4123
629.00 0.4121
629.10 0.4118
629.20 0.4116
629.30 0.4113
629.40 0.4111
629.50 0.4108
629.60 0.4106
629.70 0.4103
629.80 0.4101
629.90 0.4098
630.00 0.4095
630.10 0.4093
630.20 0.409
630.30 0.4088
630.40 0.4085
630.50 0.4083
630.60 0.408
630.70 0.4078
630.80 0.4075
630.90 0.4073
631.00 0.407
631.10 0.4068
631.20 0.4065
631.30 0.4063
631.40 0.406
631.50 0.4058
631.60 0.4055
631.70 0.4053
631.80 0.405
631.90 0.4048
632.00 0.4045
632.10 0.4043
632.20 0.404
632.30 0.4038
632.40 0.4035
632.50 0.4033
632.60 0.403
632.70 0.4028
632.80 0.4025
632.90 0.4023
633.00 0.402
633.10 0.4018
633.20 0.4015
633.30 0.4013
633.40 0.401
633.50 0.4008
633.60 0.4005
633.70 0.4003
633.80 0.4001
633.90 0.3998
634.00 0.3996
634.10 0.3993
634.20 0.3991
634.30 0.3988
634.40 0.3986
634.50 0.3983
634.60 0.3981
634.70 0.3978
634.80 0.3976
634.90 0.3974
635.00 0.3971
635.10 0.3969
635.20 0.3966
635.30 0.3964
635.40 0.3961
635.50 0.3959
635.60 0.3956
635.70 0.3954
635.80 0.3952
635.90 0.3949
636.00 0.3947
636.10 0.3944
636.20 0.3942
636.30 0.3939
636.40 0.3937
636.50 0.3935
636.60 0.3932
636.70 0.393
636.80 0.3927
636.90 0.3925
637.00 0.3922
637.10 0.392
637.20 0.3918
637.30 0.3915
637.40 0.3913
637.50 0.391
637.60 0.3908
637.70 0.3906
637.80 0.3903
637.90 0.3901
638.00 0.3898
638.10 0.3896
638.20 0.3894
638.30 0.3891
638.40 0.3889
638.50 0.3886
638.60 0.3884
638.70 0.3882
638.80 0.3879
638.90 0.3877
639.00 0.3874
639.10 0.3872
639.20 0.387
639.30 0.3867
639.40 0.3865
639.50 0.3862
639.60 0.386
639.70 0.3858
639.80 0.3855
639.90 0.3853
640.00 0.3851
640.10 0.3848
640.20 0.3846
640.30 0.3843
640.40 0.3841
640.50 0.3839
640.60 0.3836
640.70 0.3834
640.80 0.3832
640.90 0.3829
641.00 0.3827
641.10 0.3824
641.20 0.3822
641.30 0.382
641.40 0.3817
641.50 0.3815
641.60 0.3813
641.70 0.381
641.80 0.3808
641.90 0.3805
642.00 0.3803
642.10 0.3801
642.20 0.3798
642.30 0.3796
642.40 0.3794
642.50 0.3791
642.60 0.3789
642.70 0.3786
642.80 0.3784
642.90 0.3782
643.00 0.3779
643.10 0.3777
643.20 0.3775
643.30 0.3772
643.40 0.377
643.50 0.3767
643.60 0.3765
643.70 0.3763
643.80 0.376
643.90 0.3758
644.00 0.3756
644.10 0.3753
644.20 0.3751
644.30 0.3748
644.40 0.3746
644.50 0.3744
644.60 0.3741
644.70 0.3739
644.80 0.3737
644.90 0.3734
645.00 0.3732
645.10 0.3729
645.20 0.3727
645.30 0.3725
645.40 0.3722
645.50 0.372
645.60 0.3717
645.70 0.3715
645.80 0.3713
645.90 0.371
646.00 0.3708
646.10 0.3705
646.20 0.3703
646.30 0.37
646.40 0.3698
646.50 0.3696
646.60 0.3693
646.70 0.3691
646.80 0.3688
646.90 0.3686
647.00 0.3683
647.10 0.3681
647.20 0.3678
647.30 0.3676
647.40 0.3673
647.50 0.3671
647.60 0.3668
647.70 0.3666
647.80 0.3663
647.90 0.3661
648.00 0.3658
648.10 0.3655
648.20 0.3653
648.30 0.365
648.40 0.3648
648.50 0.3645
648.60 0.3642
648.70 0.364
648.80 0.3637
648.90 0.3634
649.00 0.3632
649.10 0.3629
649.20 0.3626
649.30 0.3624
649.40 0.3621
649.50 0.3618
649.60 0.3615
649.70 0.3612
649.80 0.3609
649.90 0.3606
650.00 0.3604
650.10 0.3601
650.20 0.3598
650.30 0.3595
650.40 0.3592
650.50 0.3588
650.60 0.3585
650.70 0.3582
650.80 0.3579
650.90 0.3575
651.00 0.3572
651.10 0.3569
651.20 0.3566
651.30 0.3562
651.40 0.3558
651.50 0.3554
651.60 0.3551
651.70 0.3547
651.80 0.3543
651.90 0.3539
652.00 0.3535
652.10 0.3531
652.20 0.3527
652.30 0.3523
652.40 0.3518
652.50 0.3513
652.60 0.3508
652.70 0.3504
652.80 0.3499
652.90 0.3494
653.00 0.3489
653.10 0.3484
653.20 0.3479
653.30 0.3474
653.40 0.3467
653.50 0.346
653.60 0.3453
653.70 0.3447
653.80 0.344
653.90 0.3433
654.00 0.3427
654.10 0.342
654.20 0.3413
654.30 0.3406
654.40 0.3398
654.50 0.3389
654.60 0.3381
654.70 0.3373
654.80 0.3364
654.90 0.3354
655.00 0.3345
655.10 0.3335
655.20 0.3325
655.30 0.3316
655.40 0.3305
655.50 0.3295
655.60 0.3284
655.70 0.3273
655.80 0.3261
655.90 0.3251
656.00 0.3244
656.10 0.324
656.20 0.3331
656.30 0.3457
656.40 0.327
656.50 0.3232
656.60 0.3235
656.70 0.3239
656.80 0.3246
656.90 0.3254
657.00 0.3261
657.10 0.3268
657.20 0.3274
657.30 0.3281
657.40 0.3286
657.50 0.3292
657.60 0.3298
657.70 0.3303
657.80 0.3309
657.90 0.3313
658.00 0.3318
658.10 0.3322
658.20 0.3327
658.30 0.3331
658.40 0.3333
658.50 0.3336
658.60 0.3338
658.70 0.3341
658.80 0.3344
658.90 0.3346
659.00 0.3349
659.10 0.3351
659.20 0.3354
659.30 0.3356
659.40 0.3357
659.50 0.3358
659.60 0.3358
659.70 0.3359
659.80 0.336
659.90 0.3361
660.00 0.3362
660.10 0.3362
660.20 0.3363
660.30 0.3364
660.40 0.3363
660.50 0.3363
660.60 0.3363
660.70 0.3362
660.80 0.3362
660.90 0.3362
661.00 0.3361
661.10 0.3361
661.20 0.3361
661.30 0.336
661.40 0.3359
661.50 0.3358
661.60 0.3358
661.70 0.3357
661.80 0.3356
661.90 0.3355
662.00 0.3354
662.10 0.3353
662.20 0.3352
662.30 0.3351
662.40 0.335
662.50 0.3348
662.60 0.3347
662.70 0.3346
662.80 0.3344
662.90 0.3343
663.00 0.3342
663.10 0.334
663.20 0.3339
663.30 0.3338
663.40 0.3336
663.50 0.3335
663.60 0.3333
663.70 0.3332
663.80 0.333
663.90 0.3329
664.00 0.3327
664.10 0.3326
664.20 0.3324
664.30 0.3323
664.40 0.3321
664.50 0.3319
664.60 0.3318
664.70 0.3316
664.80 0.3314
664.90 0.3313
665.00 0.3311
665.10 0.3309
665.20 0.3308
665.30 0.3306
665.40 0.3304
665.50 0.3303
665.60 0.3301
665.70 0.3299
665.80 0.3298
665.90 0.3296
666.00 0.3294
666.10 0.3292
666.20 0.3291
666.30 0.3289
666.40 0.3287
666.50 0.3285
666.60 0.3284
666.70 0.3282
666.80 0.328
666.90 0.3278
667.00 0.3277
667.10 0.3275
667.20 0.3273
667.30 0.3271
667.40 0.327
667.50 0.3268
667.60 0.3266
667.70 0.3264
667.80 0.3262
667.90 0.3261
668.00 0.3259
668.10 0.3257
668.20 0.3255
668.30 0.3254
668.40 0.3252
668.50 0.325
668.60 0.3248
668.70 0.3246
668.80 0.3245
668.90 0.3243
669.00 0.3241
669.10 0.3239
669.20 0.3237
669.30 0.3236
669.40 0.3234
669.50 0.3232
669.60 0.323
669.70 0.3228
669.80 0.3227
669.90 0.3225
670.00 0.3223
670.10 0.3221
670.20 0.3219
670.30 0.3218
670.40 0.3216
670.50 0.3214
670.60 0.3212
670.70 0.321
670.80 0.3209
670.90 0.3207
671.00 0.3205
671.10 0.3203
671.20 0.3201
671.30 0.32
671.40 0.3198
671.50 0.3196
671.60 0.3194
671.70 0.3192
671.80 0.319
671.90 0.3189
672.00 0.3187
672.10 0.3185
672.20 0.3183
672.30 0.3182
672.40 0.318
672.50 0.3178
672.60 0.3176
672.70 0.3174
672.80 0.3173
672.90 0.3171
673.00 0.3169
673.10 0.3167
673.20 0.3165
673.30 0.3164
673.40 0.3162
673.50 0.316
673.60 0.3158
673.70 0.3156
673.80 0.3155
673.90 0.3153
674.00 0.3151
674.10 0.3149
674.20 0.3147
674.30 0.3146
674.40 0.3144
674.50 0.3142
674.60 0.314
674.70 0.3138
674.80 0.3137
674.90 0.3135
675.00 0.3133
675.10 0.3131
675.20 0.313
675.30 0.3128
675.40 0.3126
675.50 0.3124
675.60 0.3122
675.70 0.3121
675.80 0.3119
675.90 0.3117
676.00 0.3115
676.10 0.3114
676.20 0.3112
676.30 0.311
676.40 0.3108
676.50 0.3107
676.60 0.3105
676.70 0.3103
676.80 0.3101
676.90 0.3099
677.00 0.3098
677.10 0.3096
677.20 0.3094
677.30 0.3092
677.40 0.3091
677.50 0.3089
677.60 0.3087
677.70 0.3085
677.80 0.3084
677.90 0.3082
678.00 0.308
678.10 0.3078
678.20 0.3077
678.30 0.3075
678.40 0.3073
678.50 0.3071
678.60 0.307
678.70 0.3068
678.80 0.3066
678.90 0.3064
679.00 0.3063
679.10 0.3061
679.20 0.3059
679.30 0.3057
679.40 0.3056
679.50 0.3054
679.60 0.3052
679.70 0.3051
679.80 0.3049
679.90 0.3047
680.00 0.3045
680.10 0.3044
680.20 0.3042
680.30 0.304
680.40 0.3038
680.50 0.3037
680.60 0.3035
680.70 0.3033
680.80 0.3032
680.90 0.303
681.00 0.3028
681.10 0.3026
681.20 0.3025
681.30 0.3023
681.40 0.3021
681.50 0.302
681.60 0.3018
681.70 0.3016
681.80 0.3014
681.90 0.3013
682.00 0.3011
682.10 0.3009
682.20 0.3008
682.30 0.3006
682.40 0.3004
682.50 0.3002
682.60 0.3001
682.70 0.2999
682.80 0.2997
682.90 0.2996
683.00 0.2994
683.10 0.2992
683.20 0.2991
683.30 0.2989
683.40 0.2987
683.50 0.2986
683.60 0.2984
683.70 0.2982
683.80 0.298
683.90 0.2979
684.00 0.2977
684.10 0.2975
684.20 0.2974
684.30 0.2972
684.40 0.297
684.50 0.2969
684.60 0.2967
684.70 0.2965
684.80 0.2964
684.90 0.2962
685.00 0.296
685.10 0.2959
685.20 0.2957
685.30 0.2955
685.40 0.2954
685.50 0.2952
685.60 0.295
685.70 0.2949
685.80 0.2947
685.90 0.2945
686.00 0.2944
686.10 0.2942
686.20 0.294
686.30 0.2939
686.40 0.2937
686.50 0.2935
686.60 0.2934
686.70 0.2932
686.80 0.293
686.90 0.2929
687.00 0.2927
687.10 0.2925
687.20 0.2924
687.30 0.2922
687.40 0.292
687.50 0.2919
687.60 0.2917
687.70 0.2916
687.80 0.2914
687.90 0.2912
688.00 0.2911
688.10 0.2909
688.20 0.2907
688.30 0.2906
688.40 0.2904
688.50 0.2902
688.60 0.2901
688.70 0.2899
688.80 0.2898
688.90 0.2896
689.00 0.2894
689.10 0.2893
689.20 0.2891
689.30 0.2889
689.40 0.2888
689.50 0.2886
689.60 0.2885
689.70 0.2883
689.80 0.2881
689.90 0.288
690.00 0.2878
690.10 0.2876
690.20 0.2875
690.30 0.2873
690.40 0.2872
690.50 0.287
690.60 0.2868
690.70 0.2867
690.80 0.2865
690.90 0.2864
691.00 0.2862
691.10 0.286
691.20 0.2859
691.30 0.2857
691.40 0.2856
691.50 0.2854
691.60 0.2852
691.70 0.2851
691.80 0.2849
691.90 0.2848
692.00 0.2846
692.10 0.2844
692.20 0.2843
692.30 0.2841
692.40 0.284
692.50 0.2838
692.60 0.2836
692.70 0.2835
692.80 0.2833
692.90 0.2832
693.00 0.283
693.10 0.2829
693.20 0.2827
693.30 0.2825
693.40 0.2824
693.50 0.2822
693.60 0.2821
693.70 0.2819
693.80 0.2817
693.90 0.2816
694.00 0.2814
694.10 0.2813
694.20 0.2811
694.30 0.281
694.40 0.2808
694.50 0.2806
694.60 0.2805
694.70 0.2803
694.80 0.2802
694.90 0.28
695.00 0.2799
695.10 0.2797
695.20 0.2795
695.30 0.2794
695.40 0.2792
695.50 0.2791
695.60 0.2789
695.70 0.2788
695.80 0.2786
695.90 0.2785
696.00 0.2783
696.10 0.2781
696.20 0.278
696.30 0.2778
696.40 0.2777
696.50 0.2775
696.60 0.2774
696.70 0.2772
696.80 0.2771
696.90 0.2769
697.00 0.2768
697.10 0.2766
697.20 0.2765
697.30 0.2763
697.40 0.2761
697.50 0.276
697.60 0.2758
697.70 0.2757
697.80 0.2755
697.90 0.2754
698.00 0.2752
698.10 0.2751
698.20 0.2749
698.30 0.2748
698.40 0.2746
698.50 0.2745
698.60 0.2743
698.70 0.2742
698.80 0.274
698.90 0.2738
699.00 0.2737
699.10 0.2735
699.20 0.2734
699.30 0.2732
699.40 0.2731
699.50 0.2729
699.60 0.2728
699.70 0.2726
699.80 0.2725
699.90 0.2723
700.00 0.2722
700.10 0.272
700.20 0.2719
700.30 0.2717
700.40 0.2716
700.50 0.2714
700.60 0.2713
700.70 0.2711
700.80 0.271
700.90 0.2708
701.00 0.2707
701.10 0.2705
701.20 0.2704
701.30 0.2702
701.40 0.2701
701.50 0.2699
701.60 0.2698
701.70 0.2696
701.80 0.2695
701.90 0.2693
702.00 0.2692
702.10 0.269
702.20 0.2689
702.30 0.2687
702.40 0.2686
702.50 0.2684
702.60 0.2683
702.70 0.2681
702.80 0.268
702.90 0.2679
703.00 0.2677
703.10 0.2676
703.20 0.2674
703.30 0.2673
703.40 0.2671
703.50 0.267
703.60 0.2668
703.70 0.2667
703.80 0.2665
703.90 0.2664
704.00 0.2662
704.10 0.2661
704.20 0.2659
704.30 0.2658
704.40 0.2656
704.50 0.2655
704.60 0.2653
704.70 0.2652
704.80 0.2651
704.90 0.2649
705.00 0.2648
705.10 0.2646
705.20 0.2645
705.30 0.2643
705.40 0.2642
705.50 0.264
705.60 0.2639
705.70 0.2637
705.80 0.2636
705.90 0.2635
706.00 0.2633
706.10 0.2632
706.20 0.263
706.30 0.2629
706.40 0.2627
706.50 0.2626
706.60 0.2624
706.70 0.2623
706.80 0.2622
706.90 0.262
707.00 0.2619
707.10 0.2617
707.20 0.2616
707.30 0.2614
707.40 0.2613
707.50 0.2612
707.60 0.261
707.70 0.2609
707.80 0.2607
707.90 0.2606
708.00 0.2604
708.10 0.2603
708.20 0.2601
708.30 0.26
708.40 0.2599
708.50 0.2597
708.60 0.2596
708.70 0.2594
708.80 0.2593
708.90 0.2592
709.00 0.259
709.10 0.2589
709.20 0.2587
709.30 0.2586
709.40 0.2584
709.50 0.2583
709.60 0.2582
709.70 0.258
709.80 0.2579
709.90 0.2577
710.00 0.2576
710.10 0.2574
710.20 0.2573
710.30 0.2572
710.40 0.257
710.50 0.2569
710.60 0.2567
710.70 0.2566
710.80 0.2565
710.90 0.2563
711.00 0.2562
711.10 0.2561
711.20 0.2559
711.30 0.2558
711.40 0.2556
711.50 0.2555
711.60 0.2554
711.70 0.2552
711.80 0.2551
711.90 0.2549
712.00 0.2548
712.10 0.2547
712.20 0.2545
712.30 0.2544
712.40 0.2542
712.50 0.2541
712.60 0.254
712.70 0.2538
712.80 0.2537
712.90 0.2536
713.00 0.2534
713.10 0.2533
713.20 0.2531
713.30 0.253
713.40 0.2529
713.50 0.2527
713.60 0.2526
713.70 0.2524
713.80 0.2523
713.90 0.2522
714.00 0.252
714.10 0.2519
714.20 0.2518
714.30 0.2516
714.40 0.2515
714.50 0.2513
714.60 0.2512
714.70 0.2511
714.80 0.2509
714.90 0.2508
715.00 0.2507
715.10 0.2505
715.20 0.2504
715.30 0.2503
715.40 0.2501
715.50 0.25
715.60 0.2498
715.70 0.2497
715.80 0.2496
715.90 0.2494
716.00 0.2493
716.10 0.2492
716.20 0.249
716.30 0.2489
716.40 0.2488
716.50 0.2486
716.60 0.2485
716.70 0.2484
716.80 0.2482
716.90 0.2481
717.00 0.248
717.10 0.2478
717.20 0.2477
717.30 0.2476
717.40 0.2474
717.50 0.2473
717.60 0.2472
717.70 0.247
717.80 0.2469
717.90 0.2468
718.00 0.2466
718.10 0.2465
718.20 0.2464
718.30 0.2462
718.40 0.2461
718.50 0.246
718.60 0.2458
718.70 0.2457
718.80 0.2456
718.90 0.2454
719.00 0.2453
719.10 0.2452
719.20 0.245
719.30 0.2449
719.40 0.2448
719.50 0.2446
719.60 0.2445
719.70 0.2444
719.80 0.2442
719.90 0.2441
720.00 0.244
720.10 0.2438
720.20 0.2437
720.30 0.2436
720.40 0.2434
720.50 0.2433
720.60 0.2432
720.70 0.2431
720.80 0.2429
720.90 0.2428
721.00 0.2427
721.10 0.2425
721.20 0.2424
721.30 0.2423
721.40 0.2421
721.50 0.242
721.60 0.2419
721.70 0.2417
721.80 0.2416
721.90 0.2415
722.00 0.2414
722.10 0.2412
722.20 0.2411
722.30 0.241
722.40 0.2408
722.50 0.2407
722.60 0.2406
722.70 0.2405
722.80 0.2403
722.90 0.2402
723.00 0.2401
723.10 0.2399
723.20 0.2398
723.30 0.2397
723.40 0.2395
723.50 0.2394
723.60 0.2393
723.70 0.2392
723.80 0.239
723.90 0.2389
724.00 0.2388
724.10 0.2386
724.20 0.2385
724.30 0.2384
724.40 0.2383
724.50 0.2381
724.60 0.238
724.70 0.2379
724.80 0.2377
724.90 0.2376
725.00 0.2375
725.10 0.2374
725.20 0.2372
725.30 0.2371
725.40 0.237
725.50 0.2369
725.60 0.2367
725.70 0.2366
725.80 0.2365
725.90 0.2364
726.00 0.2362
726.10 0.2361
726.20 0.236
726.30 0.2359
726.40 0.2357
726.50 0.2356
726.60 0.2355
726.70 0.2353
726.80 0.2352
726.90 0.2351
727.00 0.235
727.10 0.2348
727.20 0.2347
727.30 0.2346
727.40 0.2345
727.50 0.2343
727.60 0.2342
727.70 0.2341
727.80 0.234
727.90 0.2338
728.00 0.2337
728.10 0.2336
728.20 0.2335
728.30 0.2333
728.40 0.2332
728.50 0.2331
728.60 0.233
728.70 0.2328
728.80 0.2327
728.90 0.2326
729.00 0.2325
729.10 0.2323
729.20 0.2322
729.30 0.2321
729.40 0.232
729.50 0.2319
729.60 0.2317
729.70 0.2316
729.80 0.2315
729.90 0.2314
730.00 0.2312
730.10 0.2311
730.20 0.231
730.30 0.2309
730.40 0.2307
730.50 0.2306
730.60 0.2305
730.70 0.2304
730.80 0.2303
730.90 0.2301
731.00 0.23
731.10 0.2299
731.20 0.2298
731.30 0.2297
731.40 0.2295
731.50 0.2294
731.60 0.2293
731.70 0.2292
731.80 0.229
731.90 0.2289
732.00 0.2288
732.10 0.2287
732.20 0.2286
732.30 0.2284
732.40 0.2283
732.50 0.2282
732.60 0.2281
732.70 0.228
732.80 0.2278
732.90 0.2277
733.00 0.2276
733.10 0.2275
733.20 0.2274
733.30 0.2272
733.40 0.2271
733.50 0.227
733.60 0.2269
733.70 0.2268
733.80 0.2266
733.90 0.2265
734.00 0.2264
734.10 0.2263
734.20 0.2262
734.30 0.226
734.40 0.2259
734.50 0.2258
734.60 0.2257
734.70 0.2256
734.80 0.2254
734.90 0.2253
735.00 0.2252
735.10 0.2251
735.20 0.225
735.30 0.2248
735.40 0.2247
735.50 0.2246
735.60 0.2245
735.70 0.2244
735.80 0.2243
735.90 0.2241
736.00 0.224
736.10 0.2239
736.20 0.2238
736.30 0.2237
736.40 0.2235
736.50 0.2234
736.60 0.2233
736.70 0.2232
736.80 0.2231
736.90 0.223
737.00 0.2228
737.10 0.2227
737.20 0.2226
737.30 0.2225
737.40 0.2224
737.50 0.2222
737.60 0.2221
737.70 0.222
737.80 0.2219
737.90 0.2218
738.00 0.2217
738.10 0.2215
738.20 0.2214
738.30 0.2213
738.40 0.2212
738.50 0.2211
738.60 0.221
738.70 0.2208
738.80 0.2207
738.90 0.2206
739.00 0.2205
739.10 0.2204
739.20 0.2203
739.30 0.2201
739.40 0.22
739.50 0.2199
739.60 0.2198
739.70 0.2197
739.80 0.2196
739.90 0.2194
740.00 0.2193
740.10 0.2192
740.20 0.2191
740.30 0.219
740.40 0.2189
740.50 0.2188
740.60 0.2186
740.70 0.2185
740.80 0.2184
740.90 0.2183
741.00 0.2182
741.10 0.2181
741.20 0.218
741.30 0.2178
741.40 0.2177
741.50 0.2176
741.60 0.2175
741.70 0.2174
741.80 0.2173
741.90 0.2172
742.00 0.217
742.10 0.2169
742.20 0.2168
742.30 0.2167
742.40 0.2166
742.50 0.2165
742.60 0.2164
742.70 0.2163
742.80 0.2161
742.90 0.216
743.00 0.2159
743.10 0.2158
743.20 0.2157
743.30 0.2156
743.40 0.2155
743.50 0.2154
743.60 0.2152
743.70 0.2151
743.80 0.215
743.90 0.2149
744.00 0.2148
744.10 0.2147
744.20 0.2146
744.30 0.2145
744.40 0.2143
744.50 0.2142
744.60 0.2141
744.70 0.214
744.80 0.2139
744.90 0.2138
745.00 0.2137
745.10 0.2136
745.20 0.2135
745.30 0.2133
745.40 0.2132
745.50 0.2131
745.60 0.213
745.70 0.2129
745.80 0.2128
745.90 0.2127
746.00 0.2126
746.10 0.2125
746.20 0.2123
746.30 0.2122
746.40 0.2121
746.50 0.212
746.60 0.2119
746.70 0.2118
746.80 0.2117
746.90 0.2116
747.00 0.2115
747.10 0.2113
747.20 0.2112
747.30 0.2111
747.40 0.211
747.50 0.2109
747.60 0.2108
747.70 0.2107
747.80 0.2106
747.90 0.2105
748.00 0.2104
748.10 0.2102
748.20 0.2101
748.30 0.21
748.40 0.2099
748.50 0.2098
748.60 0.2097
748.70 0.2096
748.80 0.2095
748.90 0.2094
749.00 0.2093
749.10 0.2092
749.20 0.209
749.30 0.2089
749.40 0.2088
749.50 0.2087
749.60 0.2086
749.70 0.2085
749.80 0.2084
749.90 0.2083
750.00 0.2082
750.10 0.2081
750.20 0.208
750.30 0.2078
750.40 0.2077
750.50 0.2076
750.60 0.2075
750.70 0.2074
750.80 0.2073
750.90 0.2072
751.00 0.2071
751.10 0.207
751.20 0.2069
751.30 0.2068
751.40 0.2067
751.50 0.2066
751.60 0.2065
751.70 0.2064
751.80 0.2063
751.90 0.2061
752.00 0.206
752.10 0.2059
752.20 0.2058
752.30 0.2057
752.40 0.2056
752.50 0.2055
752.60 0.2054
752.70 0.2053
752.80 0.2052
752.90 0.2051
753.00 0.205
753.10 0.2049
753.20 0.2048
753.30 0.2047
753.40 0.2046
753.50 0.2045
753.60 0.2043
753.70 0.2042
753.80 0.2041
753.90 0.204
754.00 0.2039
754.10 0.2038
754.20 0.2037
754.30 0.2036
754.40 0.2035
754.50 0.2034
754.60 0.2033
754.70 0.2032
754.80 0.2031
754.90 0.203
755.00 0.2029
755.10 0.2028
755.20 0.2027
755.30 0.2026
755.40 0.2025
755.50 0.2024
755.60 0.2023
755.70 0.2022
755.80 0.202
755.90 0.2019
756.00 0.2018
756.10 0.2017
756.20 0.2016
756.30 0.2015
756.40 0.2014
756.50 0.2013
756.60 0.2012
756.70 0.2011
756.80 0.201
756.90 0.2009
757.00 0.2008
757.10 0.2007
757.20 0.2006
757.30 0.2005
757.40 0.2004
757.50 0.2003
757.60 0.2002
757.70 0.2001
757.80 0.2
757.90 0.1999
758.00 0.1998
758.10 0.1997
758.20 0.1996
758.30 0.1995
758.40 0.1994
758.50 0.1993
758.60 0.1992
758.70 0.199
758.80 0.1989
758.90 0.1988
759.00 0.1987
759.10 0.1986
759.20 0.1985
759.30 0.1984
759.40 0.1983
759.50 0.1982
759.60 0.1981
759.70 0.198
759.80 0.1979
759.90 0.1978
760.00 0.1977
760.10 0.1976
760.20 0.1975
760.30 0.1974
760.40 0.1973
760.50 0.1972
760.60 0.1971
760.70 0.197
760.80 0.1969
760.90 0.1968
761.00 0.1967
761.10 0.1966
761.20 0.1965
761.30 0.1964
761.40 0.1963
761.50 0.1962
761.60 0.1961
761.70 0.196
761.80 0.1959
761.90 0.1958
762.00 0.1957
762.10 0.1956
762.20 0.1955
762.30 0.1954
762.40 0.1953
762.50 0.1952
762.60 0.1951
762.70 0.195
762.80 0.1949
762.90 0.1948
763.00 0.1947
763.10 0.1946
763.20 0.1945
763.30 0.1944
763.40 0.1943
763.50 0.1942
763.60 0.1941
763.70 0.194
763.80 0.1939
763.90 0.1938
764.00 0.1937
764.10 0.1936
764.20 0.1935
764.30 0.1934
764.40 0.1933
764.50 0.1932
764.60 0.1932
764.70 0.1931
764.80 0.193
764.90 0.1929
765.00 0.1928
765.10 0.1927
765.20 0.1926
765.30 0.1925
765.40 0.1924
765.50 0.1923
765.60 0.1922
765.70 0.1921
765.80 0.192
765.90 0.1919
766.00 0.1918
766.10 0.1917
766.20 0.1916
766.30 0.1915
766.40 0.1914
766.50 0.1913
766.60 0.1912
766.70 0.1911
766.80 0.191
766.90 0.1909
767.00 0.1908
767.10 0.1907
767.20 0.1906
767.30 0.1905
767.40 0.1904
767.50 0.1903
767.60 0.1902
767.70 0.1901
767.80 0.19
767.90 0.1899
768.00 0.1898
768.10 0.1897
768.20 0.1896
768.30 0.1895
768.40 0.1895
768.50 0.1894
768.60 0.1893
768.70 0.1892
768.80 0.1891
768.90 0.189
769.00 0.1889
769.10 0.1888
769.20 0.1887
769.30 0.1886
769.40 0.1885
769.50 0.1884
769.60 0.1883
769.70 0.1882
769.80 0.1881
769.90 0.188
770.00 0.1879
770.10 0.1878
770.20 0.1877
770.30 0.1876
770.40 0.1875
770.50 0.1874
770.60 0.1873
770.70 0.1873
770.80 0.1872
770.90 0.1871
771.00 0.187
771.10 0.1869
771.20 0.1868
771.30 0.1867
771.40 0.1866
771.50 0.1865
771.60 0.1864
771.70 0.1863
771.80 0.1862
771.90 0.1861
772.00 0.186
772.10 0.1859
772.20 0.1859
772.30 0.1858
772.40 0.1857
772.50 0.1856
772.60 0.1855
772.70 0.1854
772.80 0.1853
772.90 0.1852
773.00 0.1851
773.10 0.185
773.20 0.1849
773.30 0.1848
773.40 0.1847
773.50 0.1846
773.60 0.1846
773.70 0.1845
773.80 0.1844
773.90 0.1843
774.00 0.1842
774.10 0.1841
774.20 0.184
774.30 0.1839
774.40 0.1838
774.50 0.1837
774.60 0.1836
774.70 0.1835
774.80 0.1834
774.90 0.1834
775.00 0.1833
775.10 0.1832
775.20 0.1831
775.30 0.183
775.40 0.1829
775.50 0.1828
775.60 0.1827
775.70 0.1826
775.80 0.1825
775.90 0.1824
776.00 0.1823
776.10 0.1823
776.20 0.1822
776.30 0.1821
776.40 0.182
776.50 0.1819
776.60 0.1818
776.70 0.1817
776.80 0.1816
776.90 0.1815
777.00 0.1814
777.10 0.1813
777.20 0.1812
777.30 0.1812
777.40 0.1811
777.50 0.181
777.60 0.1809
777.70 0.1808
777.80 0.1807
777.90 0.1806
778.00 0.1805
778.10 0.1804
778.20 0.1803
778.30 0.1802
778.40 0.1802
778.50 0.1801
778.60 0.18
778.70 0.1799
778.80 0.1798
778.90 0.1797
779.00 0.1796
779.10 0.1795
779.20 0.1794
779.30 0.1793
779.40 0.1793
779.50 0.1792
779.60 0.1791
779.70 0.179
779.80 0.1789
779.90 0.1788
780.00 0.1787
780.10 0.1786
780.20 0.1785
780.30 0.1784
780.40 0.1784
780.50 0.1783
780.60 0.1782
780.70 0.1781
780.80 0.178
780.90 0.1779
781.00 0.1778
781.10 0.1777
781.20 0.1777
781.30 0.1776
781.40 0.1775
781.50 0.1774
781.60 0.1773
781.70 0.1772
781.80 0.1771
781.90 0.177
782.00 0.177
782.10 0.1769
782.20 0.1768
782.30 0.1767
782.40 0.1766
782.50 0.1765
782.60 0.1764
782.70 0.1763
782.80 0.1763
782.90 0.1762
783.00 0.1761
783.10 0.176
783.20 0.1759
783.30 0.1758
783.40 0.1757
783.50 0.1756
783.60 0.1756
783.70 0.1755
783.80 0.1754
783.90 0.1753
784.00 0.1752
784.10 0.1751
784.20 0.175
784.30 0.1749
784.40 0.1749
784.50 0.1748
784.60 0.1747
784.70 0.1746
784.80 0.1745
784.90 0.1744
785.00 0.1743
785.10 0.1743
785.20 0.1742
785.30 0.1741
785.40 0.174
785.50 0.1739
785.60 0.1738
785.70 0.1737
785.80 0.1737
785.90 0.1736
786.00 0.1735
786.10 0.1734
786.20 0.1733
786.30 0.1732
786.40 0.1731
786.50 0.173
786.60 0.173
786.70 0.1729
786.80 0.1728
786.90 0.1727
787.00 0.1726
787.10 0.1725
787.20 0.1724
787.30 0.1724
787.40 0.1723
787.50 0.1722
787.60 0.1721
787.70 0.172
787.80 0.1719
787.90 0.1719
788.00 0.1718
788.10 0.1717
788.20 0.1716
788.30 0.1715
788.40 0.1714
788.50 0.1713
788.60 0.1713
788.70 0.1712
788.80 0.1711
788.90 0.171
789.00 0.1709
789.10 0.1708
789.20 0.1707
789.30 0.1707
789.40 0.1706
789.50 0.1705
789.60 0.1704
789.70 0.1703
789.80 0.1702
789.90 0.1702
790.00 0.1701
790.10 0.17
790.20 0.1699
790.30 0.1698
790.40 0.1697
790.50 0.1697
790.60 0.1696
790.70 0.1695
790.80 0.1694
790.90 0.1693
791.00 0.1692
791.10 0.1692
791.20 0.1691
791.30 0.169
791.40 0.1689
791.50 0.1688
791.60 0.1687
791.70 0.1687
791.80 0.1686
791.90 0.1685
792.00 0.1684
792.10 0.1683
792.20 0.1682
792.30 0.1682
792.40 0.1681
792.50 0.168
792.60 0.1679
792.70 0.1678
792.80 0.1678
792.90 0.1677
793.00 0.1676
793.10 0.1675
793.20 0.1674
793.30 0.1673
793.40 0.1673
793.50 0.1672
793.60 0.1671
793.70 0.167
793.80 0.1669
793.90 0.1669
794.00 0.1668
794.10 0.1667
794.20 0.1666
794.30 0.1665
794.40 0.1664
794.50 0.1664
794.60 0.1663
794.70 0.1662
794.80 0.1661
794.90 0.166
795.00 0.166
795.10 0.1659
795.20 0.1658
795.30 0.1657
795.40 0.1656
795.50 0.1656
795.60 0.1655
795.70 0.1654
795.80 0.1653
795.90 0.1652
796.00 0.1651
796.10 0.1651
796.20 0.165
796.30 0.1649
796.40 0.1648
796.50 0.1647
796.60 0.1647
796.70 0.1646
796.80 0.1645
796.90 0.1644
797.00 0.1643
797.10 0.1643
797.20 0.1642
797.30 0.1641
797.40 0.164
797.50 0.1639
797.60 0.1639
797.70 0.1638
797.80 0.1637
797.90 0.1636
798.00 0.1635
798.10 0.1635
798.20 0.1634
798.30 0.1633
798.40 0.1632
798.50 0.1631
798.60 0.1631
798.70 0.163
798.80 0.1629
798.90 0.1628
799.00 0.1627
799.10 0.1627
799.20 0.1626
799.30 0.1625
799.40 0.1624
799.50 0.1623
799.60 0.1623
799.70 0.1622
799.80 0.1621
799.90 0.162
800.00 0.1619
800.10 0.1619
800.20 0.1618
800.30 0.1617
800.40 0.1616
800.50 0.1616
800.60 0.1615
800.70 0.1614
800.80 0.1613
800.90 0.1612
801.00 0.1612
801.10 0.1611
801.20 0.161
801.30 0.1609
801.40 0.1608
801.50 0.1608
801.60 0.1607
801.70 0.1606
801.80 0.1605
801.90 0.1605
802.00 0.1604
802.10 0.1603
802.20 0.1602
802.30 0.1602
802.40 0.1601
802.50 0.16
802.60 0.1599
802.70 0.1598
802.80 0.1598
802.90 0.1597
803.00 0.1596
803.10 0.1595
803.20 0.1595
803.30 0.1594
803.40 0.1593
803.50 0.1592
803.60 0.1591
803.70 0.1591
803.80 0.159
803.90 0.1589
804.00 0.1588
804.10 0.1588
804.20 0.1587
804.30 0.1586
804.40 0.1585
804.50 0.1585
804.60 0.1584
804.70 0.1583
804.80 0.1582
804.90 0.1582
805.00 0.1581
805.10 0.158
805.20 0.1579
805.30 0.1578
805.40 0.1578
805.50 0.1577
805.60 0.1576
805.70 0.1575
805.80 0.1575
805.90 0.1574
806.00 0.1573
806.10 0.1572
806.20 0.1572
806.30 0.1571
806.40 0.157
806.50 0.1569
806.60 0.1569
806.70 0.1568
806.80 0.1567
806.90 0.1566
807.00 0.1566
807.10 0.1565
807.20 0.1564
807.30 0.1563
807.40 0.1563
807.50 0.1562
807.60 0.1561
807.70 0.156
807.80 0.1559
807.90 0.1559
808.00 0.1558
808.10 0.1557
808.20 0.1556
808.30 0.1556
808.40 0.1555
808.50 0.1554
808.60 0.1553
808.70 0.1553
808.80 0.1552
808.90 0.1551
809.00 0.155
809.10 0.155
809.20 0.1549
809.30 0.1548
809.40 0.1547
809.50 0.1547
809.60 0.1546
809.70 0.1545
809.80 0.1544
809.90 0.1544
810.00 0.1543
810.10 0.1542
810.20 0.1541
810.30 0.1541
810.40 0.154
810.50 0.1539
810.60 0.1539
810.70 0.1538
810.80 0.1537
810.90 0.1536
811.00 0.1536
811.10 0.1535
811.20 0.1534
811.30 0.1533
811.40 0.1533
811.50 0.1532
811.60 0.1531
811.70 0.153
811.80 0.153
811.90 0.1529
812.00 0.1528
812.10 0.1528
812.20 0.1527
812.30 0.1526
812.40 0.1525
812.50 0.1525
812.60 0.1524
812.70 0.1523
812.80 0.1522
812.90 0.1522
813.00 0.1521
813.10 0.152
813.20 0.152
813.30 0.1519
813.40 0.1518
813.50 0.1517
813.60 0.1517
813.70 0.1516
813.80 0.1515
813.90 0.1515
814.00 0.1514
814.10 0.1513
814.20 0.1512
814.30 0.1512
814.40 0.1511
814.50 0.151
814.60 0.1509
814.70 0.1509
814.80 0.1508
814.90 0.1507
815.00 0.1507
815.10 0.1506
815.20 0.1505
815.30 0.1504
815.40 0.1504
815.50 0.1503
815.60 0.1502
815.70 0.1502
815.80 0.1501
815.90 0.15
816.00 0.1499
816.10 0.1499
816.20 0.1498
816.30 0.1497
816.40 0.1497
816.50 0.1496
816.60 0.1495
816.70 0.1494
816.80 0.1494
816.90 0.1493
817.00 0.1492
817.10 0.1492
817.20 0.1491
817.30 0.149
817.40 0.1489
817.50 0.1489
817.60 0.1488
817.70 0.1487
817.80 0.1487
817.90 0.1486
818.00 0.1485
818.10 0.1484
818.20 0.1484
818.30 0.1483
818.40 0.1482
818.50 0.1482
818.60 0.1481
818.70 0.148
818.80 0.1479
818.90 0.1479
819.00 0.1478
819.10 0.1477
819.20 0.1477
819.30 0.1476
819.40 0.1475
819.50 0.1474
819.60 0.1474
819.70 0.1473
819.80 0.1472
819.90 0.1472
820.00 0.1471
820.10 0.147
820.20 0.147
820.30 0.1469
820.40 0.1468
820.50 0.1467
820.60 0.1467
820.70 0.1466
820.80 0.1465
820.90 0.1465
821.00 0.1464
821.10 0.1463
821.20 0.1463
821.30 0.1462
821.40 0.1461
821.50 0.1461
821.60 0.146
821.70 0.1459
821.80 0.1458
821.90 0.1458
822.00 0.1457
822.10 0.1456
822.20 0.1456
822.30 0.1455
822.40 0.1454
822.50 0.1454
822.60 0.1453
822.70 0.1452
822.80 0.1452
822.90 0.1451
823.00 0.145
823.10 0.145
823.20 0.1449
823.30 0.1448
823.40 0.1447
823.50 0.1447
823.60 0.1446
823.70 0.1445
823.80 0.1445
823.90 0.1444
824.00 0.1443
824.10 0.1443
824.20 0.1442
824.30 0.1441
824.40 0.1441
824.50 0.144
824.60 0.1439
824.70 0.1439
824.80 0.1438
824.90 0.1437
825.00 0.1437
825.10 0.1436
825.20 0.1435
825.30 0.1435
825.40 0.1434
825.50 0.1433
825.60 0.1433
825.70 0.1432
825.80 0.1431
825.90 0.143
826.00 0.143
826.10 0.1429
826.20 0.1428
826.30 0.1428
826.40 0.1427
826.50 0.1426
826.60 0.1426
826.70 0.1425
826.80 0.1424
826.90 0.1424
827.00 0.1423
827.10 0.1422
827.20 0.1422
827.30 0.1421
827.40 0.142
827.50 0.142
827.60 0.1419
827.70 0.1418
827.80 0.1418
827.90 0.1417
828.00 0.1416
828.10 0.1416
828.20 0.1415
828.30 0.1414
828.40 0.1414
828.50 0.1413
828.60 0.1412
828.70 0.1412
828.80 0.1411
828.90 0.141
829.00 0.141
829.10 0.1409
829.20 0.1408
829.30 0.1408
829.40 0.1407
829.50 0.1406
829.60 0.1406
829.70 0.1405
829.80 0.1404
829.90 0.1404
830.00 0.1403
830.10 0.1403
830.20 0.1402
830.30 0.1401
830.40 0.1401
830.50 0.14
830.60 0.1399
830.70 0.1399
830.80 0.1398
830.90 0.1397
831.00 0.1397
831.10 0.1396
831.20 0.1395
831.30 0.1395
831.40 0.1394
831.50 0.1393
831.60 0.1393
831.70 0.1392
831.80 0.1391
831.90 0.1391
832.00 0.139
832.10 0.1389
832.20 0.1389
832.30 0.1388
832.40 0.1387
832.50 0.1387
832.60 0.1386
832.70 0.1385
832.80 0.1385
832.90 0.1384
833.00 0.1384
833.10 0.1383
833.20 0.1382
833.30 0.1382
833.40 0.1381
833.50 0.138
833.60 0.138
833.70 0.1379
833.80 0.1378
833.90 0.1378
834.00 0.1377
834.10 0.1376
834.20 0.1376
834.30 0.1375
834.40 0.1375
834.50 0.1374
834.60 0.1373
834.70 0.1373
834.80 0.1372
834.90 0.1371
835.00 0.1371
835.10 0.137
835.20 0.1369
835.30 0.1369
835.40 0.1368
835.50 0.1367
835.60 0.1367
835.70 0.1366
835.80 0.1366
835.90 0.1365
836.00 0.1364
836.10 0.1364
836.20 0.1363
836.30 0.1362
836.40 0.1362
836.50 0.1361
836.60 0.136
836.70 0.136
836.80 0.1359
836.90 0.1359
837.00 0.1358
837.10 0.1357
837.20 0.1357
837.30 0.1356
837.40 0.1355
837.50 0.1355
837.60 0.1354
837.70 0.1354
837.80 0.1353
837.90 0.1352
838.00 0.1352
838.10 0.1351
838.20 0.135
838.30 0.135
838.40 0.1349
838.50 0.1348
838.60 0.1348
838.70 0.1347
838.80 0.1347
838.90 0.1346
839.00 0.1345
839.10 0.1345
839.20 0.1344
839.30 0.1343
839.40 0.1343
839.50 0.1342
839.60 0.1342
839.70 0.1341
839.80 0.134
839.90 0.134
840.00 0.1339
840.10 0.1339
840.20 0.1338
840.30 0.1337
840.40 0.1337
840.50 0.1336
840.60 0.1335
840.70 0.1335
840.80 0.1334
840.90 0.1334
841.00 0.1333
841.10 0.1332
841.20 0.1332
841.30 0.1331
841.40 0.133
841.50 0.133
841.60 0.1329
841.70 0.1329
841.80 0.1328
841.90 0.1327
842.00 0.1327
842.10 0.1326
842.20 0.1326
842.30 0.1325
842.40 0.1324
842.50 0.1324
842.60 0.1323
842.70 0.1322
842.80 0.1322
842.90 0.1321
843.00 0.1321
843.10 0.132
843.20 0.1319
843.30 0.1319
843.40 0.1318
843.50 0.1318
843.60 0.1317
843.70 0.1316
843.80 0.1316
843.90 0.1315
844.00 0.1315
844.10 0.1314
844.20 0.1313
844.30 0.1313
844.40 0.1312
844.50 0.1311
844.60 0.1311
844.70 0.131
844.80 0.131
844.90 0.1309
845.00 0.1308
845.10 0.1308
845.20 0.1307
845.30 0.1307
845.40 0.1306
845.50 0.1305
845.60 0.1305
845.70 0.1304
845.80 0.1304
845.90 0.1303
846.00 0.1302
846.10 0.1302
846.20 0.1301
846.30 0.1301
846.40 0.13
846.50 0.1299
846.60 0.1299
846.70 0.1298
846.80 0.1298
846.90 0.1297
847.00 0.1296
847.10 0.1296
847.20 0.1295
847.30 0.1295
847.40 0.1294
847.50 0.1293
847.60 0.1293
847.70 0.1292
847.80 0.1292
847.90 0.1291
848.00 0.129
848.10 0.129
848.20 0.1289
848.30 0.1289
848.40 0.1288
848.50 0.1288
848.60 0.1287
848.70 0.1286
848.80 0.1286
848.90 0.1285
849.00 0.1285
849.10 0.1284
849.20 0.1283
849.30 0.1283
849.40 0.1282
849.50 0.1282
849.60 0.1281
849.70 0.128
849.80 0.128
849.90 0.1279
850.00 0.1279
850.10 0.1278
850.20 0.1278
850.30 0.1277
850.40 0.1276
850.50 0.1276
850.60 0.1275
850.70 0.1275
850.80 0.1274
850.90 0.1273
851.00 0.1273
851.10 0.1272
851.20 0.1272
851.30 0.1271
851.40 0.127
851.50 0.127
851.60 0.1269
851.70 0.1269
851.80 0.1268
851.90 0.1268
852.00 0.1267
852.10 0.1266
852.20 0.1266
852.30 0.1265
852.40 0.1265
852.50 0.1264
852.60 0.1264
852.70 0.1263
852.80 0.1262
852.90 0.1262
853.00 0.1261
853.10 0.1261
853.20 0.126
853.30 0.1259
853.40 0.1259
853.50 0.1258
853.60 0.1258
853.70 0.1257
853.80 0.1257
853.90 0.1256
854.00 0.1255
854.10 0.1255
854.20 0.1254
854.30 0.1254
854.40 0.1253
854.50 0.1253
854.60 0.1252
854.70 0.1251
854.80 0.1251
854.90 0.125
855.00 0.125
855.10 0.1249
855.20 0.1249
855.30 0.1248
855.40 0.1247
855.50 0.1247
855.60 0.1246
855.70 0.1246
855.80 0.1245
855.90 0.1245
856.00 0.1244
856.10 0.1243
856.20 0.1243
856.30 0.1242
856.40 0.1242
856.50 0.1241
856.60 0.1241
856.70 0.124
856.80 0.124
856.90 0.1239
857.00 0.1238
857.10 0.1238
857.20 0.1237
857.30 0.1237
857.40 0.1236
857.50 0.1236
857.60 0.1235
857.70 0.1234
857.80 0.1234
857.90 0.1233
858.00 0.1233
858.10 0.1232
858.20 0.1232
858.30 0.1231
858.40 0.1231
858.50 0.123
858.60 0.1229
858.70 0.1229
858.80 0.1228
858.90 0.1228
859.00 0.1227
859.10 0.1227
859.20 0.1226
859.30 0.1226
859.40 0.1225
859.50 0.1224
859.60 0.1224
859.70 0.1223
859.80 0.1223
859.90 0.1222
860.00 0.1222
860.10 0.1221
860.20 0.1221
860.30 0.122
860.40 0.1219
860.50 0.1219
860.60 0.1218
860.70 0.1218
860.80 0.1217
860.90 0.1217
861.00 0.1216
861.10 0.1216
861.20 0.1215
861.30 0.1214
861.40 0.1214
861.50 0.1213
861.60 0.1213
861.70 0.1212
861.80 0.1212
861.90 0.1211
862.00 0.1211
862.10 0.121
862.20 0.121
862.30 0.1209
862.40 0.1208
862.50 0.1208
862.60 0.1207
862.70 0.1207
862.80 0.1206
862.90 0.1206
863.00 0.1205
863.10 0.1205
863.20 0.1204
863.30 0.1204
863.40 0.1203
863.50 0.1202
863.60 0.1202
863.70 0.1201
863.80 0.1201
863.90 0.12
864.00 0.12
864.10 0.1199
864.20 0.1199
864.30 0.1198
864.40 0.1198
864.50 0.1197
864.60 0.1197
864.70 0.1196
864.80 0.1195
864.90 0.1195
865.00 0.1194
865.10 0.1194
865.20 0.1193
865.30 0.1193
865.40 0.1192
865.50 0.1192
865.60 0.1191
865.70 0.1191
865.80 0.119
865.90 0.1189
866.00 0.1189
866.10 0.1188
866.20 0.1188
866.30 0.1187
866.40 0.1187
866.50 0.1186
866.60 0.1186
866.70 0.1185
866.80 0.1185
866.90 0.1184
867.00 0.1184
867.10 0.1183
867.20 0.1183
867.30 0.1182
867.40 0.1181
867.50 0.1181
867.60 0.118
867.70 0.118
867.80 0.1179
867.90 0.1179
868.00 0.1178
868.10 0.1178
868.20 0.1177
868.30 0.1177
868.40 0.1176
868.50 0.1176
868.60 0.1175
868.70 0.1175
868.80 0.1174
868.90 0.1174
869.00 0.1173
869.10 0.1173
869.20 0.1172
869.30 0.1171
869.40 0.1171
869.50 0.117
869.60 0.117
869.70 0.1169
869.80 0.1169
869.90 0.1168
870.00 0.1168
870.10 0.1167
870.20 0.1167
870.30 0.1166
870.40 0.1166
870.50 0.1165
870.60 0.1165
870.70 0.1164
870.80 0.1164
870.90 0.1163
871.00 0.1163
871.10 0.1162
871.20 0.1162
871.30 0.1161
871.40 0.116
871.50 0.116
871.60 0.1159
871.70 0.1159
871.80 0.1158
871.90 0.1158
872.00 0.1157
872.10 0.1157
872.20 0.1156
872.30 0.1156
872.40 0.1155
872.50 0.1155
872.60 0.1154
872.70 0.1154
872.80 0.1153
872.90 0.1153
873.00 0.1152
873.10 0.1152
873.20 0.1151
873.30 0.1151
873.40 0.115
873.50 0.115
873.60 0.1149
873.70 0.1149
873.80 0.1148
873.90 0.1148
874.00 0.1147
874.10 0.1147
874.20 0.1146
874.30 0.1146
874.40 0.1145
874.50 0.1145
874.60 0.1144
874.70 0.1143
874.80 0.1143
874.90 0.1142
875.00 0.1142
875.10 0.1141
875.20 0.1141
875.30 0.114
875.40 0.114
875.50 0.1139
875.60 0.1139
875.70 0.1138
875.80 0.1138
875.90 0.1137
876.00 0.1137
876.10 0.1136
876.20 0.1136
876.30 0.1135
876.40 0.1135
876.50 0.1134
876.60 0.1134
876.70 0.1133
876.80 0.1133
876.90 0.1132
877.00 0.1132
877.10 0.1131
877.20 0.1131
877.30 0.113
877.40 0.113
877.50 0.1129
877.60 0.1129
877.70 0.1128
877.80 0.1128
877.90 0.1127
878.00 0.1127
878.10 0.1126
878.20 0.1126
878.30 0.1125
878.40 0.1125
878.50 0.1124
878.60 0.1124
878.70 0.1123
878.80 0.1123
878.90 0.1122
879.00 0.1122
879.10 0.1121
879.20 0.1121
879.30 0.112
879.40 0.112
879.50 0.1119
879.60 0.1119
879.70 0.1118
879.80 0.1118
879.90 0.1117
880.00 0.1117
880.10 0.1116
880.20 0.1116
880.30 0.1115
880.40 0.1115
880.50 0.1114
880.60 0.1114
880.70 0.1113
880.80 0.1113
880.90 0.1112
881.00 0.1112
881.10 0.1111
881.20 0.1111
881.30 0.111
881.40 0.111
881.50 0.1109
881.60 0.1109
881.70 0.1108
881.80 0.1108
881.90 0.1107
882.00 0.1107
882.10 0.1107
882.20 0.1106
882.30 0.1106
882.40 0.1105
882.50 0.1105
882.60 0.1104
882.70 0.1104
882.80 0.1103
882.90 0.1103
883.00 0.1102
883.10 0.1102
883.20 0.1101
883.30 0.1101
883.40 0.11
883.50 0.11
883.60 0.1099
883.70 0.1099
883.80 0.1098
883.90 0.1098
884.00 0.1097
884.10 0.1097
884.20 0.1096
884.30 0.1096
884.40 0.1095
884.50 0.1095
884.60 0.1094
884.70 0.1094
884.80 0.1093
884.90 0.1093
885.00 0.1092
885.10 0.1092
885.20 0.1092
885.30 0.1091
885.40 0.1091
885.50 0.109
885.60 0.109
885.70 0.1089
885.80 0.1089
885.90 0.1088
886.00 0.1088
886.10 0.1087
886.20 0.1087
886.30 0.1086
886.40 0.1086
886.50 0.1085
886.60 0.1085
886.70 0.1084
886.80 0.1084
886.90 0.1083
887.00 0.1083
887.10 0.1082
887.20 0.1082
887.30 0.1081
887.40 0.1081
887.50 0.1081
887.60 0.108
887.70 0.108
887.80 0.1079
887.90 0.1079
888.00 0.1078
888.10 0.1078
888.20 0.1077
888.30 0.1077
888.40 0.1076
888.50 0.1076
888.60 0.1075
888.70 0.1075
888.80 0.1074
888.90 0.1074
889.00 0.1073
889.10 0.1073
889.20 0.1073
889.30 0.1072
889.40 0.1072
889.50 0.1071
889.60 0.1071
889.70 0.107
889.80 0.107
889.90 0.1069
890.00 0.1069
890.10 0.1068
890.20 0.1068
890.30 0.1067
890.40 0.1067
890.50 0.1066
890.60 0.1066
890.70 0.1065
890.80 0.1065
890.90 0.1065
891.00 0.1064
891.10 0.1064
891.20 0.1063
891.30 0.1063
891.40 0.1062
891.50 0.1062
891.60 0.1061
891.70 0.1061
891.80 0.106
891.90 0.106
892.00 0.1059
892.10 0.1059
892.20 0.1058
892.30 0.1058
892.40 0.1058
892.50 0.1057
892.60 0.1057
892.70 0.1056
892.80 0.1056
892.90 0.1055
893.00 0.1055
893.10 0.1054
893.20 0.1054
893.30 0.1053
893.40 0.1053
893.50 0.1053
893.60 0.1052
893.70 0.1052
893.80 0.1051
893.90 0.1051
894.00 0.105
894.10 0.105
894.20 0.1049
894.30 0.1049
894.40 0.1048
894.50 0.1048
894.60 0.1047
894.70 0.1047
894.80 0.1047
894.90 0.1046
895.00 0.1046
895.10 0.1045
895.20 0.1045
895.30 0.1044
895.40 0.1044
895.50 0.1043
895.60 0.1043
895.70 0.1042
895.80 0.1042
895.90 0.1042
896.00 0.1041
896.10 0.1041
896.20 0.104
896.30 0.104
896.40 0.1039
896.50 0.1039
896.60 0.1038
896.70 0.1038
896.80 0.1038
896.90 0.1037
897.00 0.1037
897.10 0.1036
897.20 0.1036
897.30 0.1035
897.40 0.1035
897.50 0.1034
897.60 0.1034
897.70 0.1033
897.80 0.1033
897.90 0.1033
898.00 0.1032
898.10 0.1032
898.20 0.1031
898.30 0.1031
898.40 0.103
898.50 0.103
898.60 0.103
898.70 0.1029
898.80 0.1029
898.90 0.1028
899.00 0.1028
899.10 0.1027
899.20 0.1027
899.30 0.1026
899.40 0.1026
899.50 0.1026
899.60 0.1025
899.70 0.1025
899.80 0.1024
899.90 0.1024
900.00 0.1023
900.10 0.1023
900.20 0.1022
900.30 0.1022
900.40 0.1022
900.50 0.1021
900.60 0.1021
900.70 0.102
900.80 0.102
900.90 0.1019
901.00 0.1019
901.10 0.1018
901.20 0.1018
901.30 0.1018
901.40 0.1017
901.50 0.1017
901.60 0.1016
901.70 0.1016
901.80 0.1015
901.90 0.1015
902.00 0.1015
902.10 0.1014
902.20 0.1014
902.30 0.1013
902.40 0.1013
902.50 0.1012
902.60 0.1012
902.70 0.1011
902.80 0.1011
902.90 0.1011
903.00 0.101
903.10 0.101
903.20 0.1009
903.30 0.1009
903.40 0.1008
903.50 0.1008
903.60 0.1008
903.70 0.1007
903.80 0.1007
903.90 0.1006
904.00 0.1006
904.10 0.1005
904.20 0.1005
904.30 0.1005
904.40 0.1004
904.50 0.1004
904.60 0.1003
904.70 0.1003
904.80 0.1002
904.90 0.1002
905.00 0.1001
905.10 0.1001
905.20 0.1001
905.30 0.1
905.40 0.09997
905.50 0.09993
905.60 0.09989
905.70 0.09984
905.80 0.0998
905.90 0.09976
906.00 0.09971
906.10 0.09967
906.20 0.09963
906.30 0.09958
906.40 0.09954
906.50 0.0995
906.60 0.09946
906.70 0.09941
906.80 0.09937
906.90 0.09933
907.00 0.09928
907.10 0.09924
907.20 0.0992
907.30 0.09916
907.40 0.09911
907.50 0.09907
907.60 0.09903
907.70 0.09899
907.80 0.09894
907.90 0.0989
908.00 0.09886
908.10 0.09882
908.20 0.09877
908.30 0.09873
908.40 0.09869
908.50 0.09865
908.60 0.09861
908.70 0.09856
908.80 0.09852
908.90 0.09848
909.00 0.09844
909.10 0.09839
909.20 0.09835
909.30 0.09831
909.40 0.09827
909.50 0.09823
909.60 0.09818
909.70 0.09814
909.80 0.0981
909.90 0.09806
910.00 0.09802
910.10 0.09797
910.20 0.09793
910.30 0.09789
910.40 0.09785
910.50 0.09781
910.60 0.09776
910.70 0.09772
910.80 0.09768
910.90 0.09764
911.00 0.0976
911.10 0.09755
911.20 0.09751
911.30 0.09747
911.40 0.09743
911.50 0.09739
911.60 0.09734
911.70 0.0973
911.80 0.09726
911.90 0.09722
912.00 0.09718
912.10 0.09714
912.20 0.0971
912.30 0.09705
912.40 0.09701
912.50 0.09697
912.60 0.09693
912.70 0.09689
912.80 0.09685
912.90 0.09681
913.00 0.09677
913.10 0.09672
913.20 0.09668
913.30 0.09664
913.40 0.0966
913.50 0.09656
913.60 0.09652
913.70 0.09648
913.80 0.09644
913.90 0.09639
914.00 0.09635
914.10 0.09631
914.20 0.09627
914.30 0.09623
914.40 0.09619
914.50 0.09615
914.60 0.09611
914.70 0.09607
914.80 0.09603
914.90 0.09598
915.00 0.09594
915.10 0.0959
915.20 0.09586
915.30 0.09582
915.40 0.09578
915.50 0.09574
915.60 0.0957
915.70 0.09566
915.80 0.09562
915.90 0.09558
916.00 0.09554
916.10 0.0955
916.20 0.09545
916.30 0.09541
916.40 0.09537
916.50 0.09533
916.60 0.09529
916.70 0.09525
916.80 0.09521
916.90 0.09517
917.00 0.09513
917.10 0.09509
917.20 0.09505
917.30 0.09501
917.40 0.09497
917.50 0.09493
917.60 0.09489
917.70 0.09485
917.80 0.09481
917.90 0.09477
918.00 0.09473
918.10 0.09469
918.20 0.09465
918.30 0.09461
918.40 0.09457
918.50 0.09453
918.60 0.09449
918.70 0.09445
918.80 0.09442
918.90 0.09438
919.00 0.09434
919.10 0.0943
919.20 0.09426
919.30 0.09422
919.40 0.09418
919.50 0.09414
919.60 0.0941
919.70 0.09406
919.80 0.09402
919.90 0.09398
920.00 0.09394
920.10 0.0939
920.20 0.09386
920.30 0.09382
920.40 0.09378
920.50 0.09375
920.60 0.09371
920.70 0.09367
920.80 0.09363
920.90 0.09359
921.00 0.09355
921.10 0.09351
921.20 0.09347
921.30 0.09343
921.40 0.09339
921.50 0.09335
921.60 0.09331
921.70 0.09328
921.80 0.09324
921.90 0.0932
922.00 0.09316
922.10 0.09312
922.20 0.09308
922.30 0.09304
922.40 0.093
922.50 0.09296
922.60 0.09292
922.70 0.09288
922.80 0.09284
922.90 0.0928
923.00 0.09276
923.10 0.09273
923.20 0.09269
923.30 0.09265
923.40 0.09261
923.50 0.09257
923.60 0.09253
923.70 0.09249
923.80 0.09245
923.90 0.09241
924.00 0.09237
924.10 0.09233
924.20 0.09229
924.30 0.09226
924.40 0.09222
924.50 0.09218
924.60 0.09214
924.70 0.0921
924.80 0.09206
924.90 0.09202
925.00 0.09198
925.10 0.09194
925.20 0.0919
925.30 0.09187
925.40 0.09183
925.50 0.09179
925.60 0.09175
925.70 0.09171
925.80 0.09167
925.90 0.09163
926.00 0.09159
926.10 0.09156
926.20 0.09152
926.30 0.09148
926.40 0.09144
926.50 0.0914
926.60 0.09136
926.70 0.09132
926.80 0.09128
926.90 0.09125
927.00 0.09121
927.10 0.09117
927.20 0.09113
927.30 0.09109
927.40 0.09105
927.50 0.09102
927.60 0.09098
927.70 0.09094
927.80 0.0909
927.90 0.09086
928.00 0.09083
928.10 0.09079
928.20 0.09075
928.30 0.09071
928.40 0.09067
928.50 0.09064
928.60 0.0906
928.70 0.09056
928.80 0.09052
928.90 0.09049
929.00 0.09045
929.10 0.09041
929.20 0.09037
929.30 0.09033
929.40 0.0903
929.50 0.09026
929.60 0.09022
929.70 0.09018
929.80 0.09015
929.90 0.09011
930.00 0.09007
930.10 0.09003
930.20 0.09
930.30 0.08996
930.40 0.08992
930.50 0.08988
930.60 0.08984
930.70 0.08981
930.80 0.08977
930.90 0.08973
931.00 0.08969
931.10 0.08966
931.20 0.08962
931.30 0.08958
931.40 0.08954
931.50 0.08951
931.60 0.08947
931.70 0.08943
931.80 0.08939
931.90 0.08936
932.00 0.08932
932.10 0.08928
932.20 0.08925
932.30 0.08921
932.40 0.08917
932.50 0.08913
932.60 0.0891
932.70 0.08906
932.80 0.08902
932.90 0.08899
933.00 0.08895
933.10 0.08891
933.20 0.08887
933.30 0.08884
933.40 0.0888
933.50 0.08876
933.60 0.08873
933.70 0.08869
933.80 0.08865
933.90 0.08862
934.00 0.08858
934.10 0.08854
934.20 0.0885
934.30 0.08847
934.40 0.08843
934.50 0.08839
934.60 0.08836
934.70 0.08832
934.80 0.08828
934.90 0.08825
935.00 0.08821
935.10 0.08817
935.20 0.08814
935.30 0.0881
935.40 0.08806
935.50 0.08803
935.60 0.08799
935.70 0.08795
935.80 0.08792
935.90 0.08788
936.00 0.08784
936.10 0.08781
936.20 0.08777
936.30 0.08773
936.40 0.0877
936.50 0.08766
936.60 0.08762
936.70 0.08759
936.80 0.08755
936.90 0.08751
937.00 0.08748
937.10 0.08744
937.20 0.0874
937.30 0.08737
937.40 0.08733
937.50 0.08729
937.60 0.08726
937.70 0.08722
937.80 0.08719
937.90 0.08715
938.00 0.08711
938.10 0.08708
938.20 0.08704
938.30 0.087
938.40 0.08697
938.50 0.08693
938.60 0.08689
938.70 0.08686
938.80 0.08682
938.90 0.08679
939.00 0.08675
939.10 0.08671
939.20 0.08668
939.30 0.08664
939.40 0.0866
939.50 0.08657
939.60 0.08653
939.70 0.0865
939.80 0.08646
939.90 0.08642
940.00 0.08639
940.10 0.08635
940.20 0.08631
940.30 0.08628
940.40 0.08624
940.50 0.08621
940.60 0.08617
940.70 0.08613
940.80 0.0861
940.90 0.08606
941.00 0.08603
941.10 0.08599
941.20 0.08595
941.30 0.08592
941.40 0.08588
941.50 0.08585
941.60 0.08581
941.70 0.08577
941.80 0.08574
941.90 0.0857
942.00 0.08567
942.10 0.08563
942.20 0.08559
942.30 0.08556
942.40 0.08552
942.50 0.08549
942.60 0.08545
942.70 0.08542
942.80 0.08538
942.90 0.08534
943.00 0.08531
943.10 0.08527
943.20 0.08524
943.30 0.0852
943.40 0.08516
943.50 0.08513
943.60 0.08509
943.70 0.08506
943.80 0.08502
943.90 0.08499
944.00 0.08495
944.10 0.08491
944.20 0.08488
944.30 0.08484
944.40 0.08481
944.50 0.08477
944.60 0.08474
944.70 0.0847
944.80 0.08467
944.90 0.08463
945.00 0.0846
945.10 0.08456
945.20 0.08452
945.30 0.08449
945.40 0.08445
945.50 0.08442
945.60 0.08438
945.70 0.08435
945.80 0.08431
945.90 0.08428
946.00 0.08424
946.10 0.08421
946.20 0.08417
946.30 0.08413
946.40 0.0841
946.50 0.08406
946.60 0.08403
946.70 0.08399
946.80 0.08396
946.90 0.08392
947.00 0.08389
947.10 0.08385
947.20 0.08382
947.30 0.08378
947.40 0.08375
947.50 0.08371
947.60 0.08368
947.70 0.08364
947.80 0.08361
947.90 0.08357
948.00 0.08354
948.10 0.0835
948.20 0.08347
948.30 0.08343
948.40 0.0834
948.50 0.08336
948.60 0.08333
948.70 0.08329
948.80 0.08326
948.90 0.08323
949.00 0.08319
949.10 0.08316
949.20 0.08312
949.30 0.08309
949.40 0.08305
949.50 0.08302
949.60 0.08298
949.70 0.08295
949.80 0.08291
949.90 0.08288
950.00 0.08285
950.10 0.08281
950.20 0.08278
950.30 0.08274
950.40 0.08271
950.50 0.08268
950.60 0.08264
950.70 0.08261
950.80 0.08257
950.90 0.08254
951.00 0.08251
951.10 0.08247
951.20 0.08244
951.30 0.0824
951.40 0.08237
951.50 0.08234
951.60 0.0823
951.70 0.08227
951.80 0.08224
951.90 0.0822
952.00 0.08217
952.10 0.08214
952.20 0.0821
952.30 0.08207
952.40 0.08204
952.50 0.082
952.60 0.08197
952.70 0.08194
952.80 0.08191
952.90 0.08187
953.00 0.08184
953.10 0.08181
953.20 0.08178
953.30 0.08175
953.40 0.08171
953.50 0.08168
953.60 0.08165
953.70 0.08162
953.80 0.08159
953.90 0.08156
954.00 0.08152
954.10 0.08149
954.20 0.08146
954.30 0.08143
954.40 0.0814
954.50 0.08137
954.60 0.08134
954.70 0.08131
954.80 0.08127
954.90 0.08123
955.00 0.0812
955.10 0.08116
955.20 0.08113
955.30 0.08109
955.40 0.08106
955.50 0.08102
955.60 0.08099
955.70 0.08095
955.80 0.08092
955.90 0.08089
956.00 0.08085
956.10 0.08082
956.20 0.08079
956.30 0.08075
956.40 0.08072
956.50 0.08068
956.60 0.08065
956.70 0.08062
956.80 0.08058
956.90 0.08055
957.00 0.08052
957.10 0.08048
957.20 0.08045
957.30 0.08042
957.40 0.08039
957.50 0.08035
957.60 0.08032
957.70 0.08029
957.80 0.08026
957.90 0.08022
958.00 0.08019
958.10 0.08016
958.20 0.08013
958.30 0.0801
958.40 0.08006
958.50 0.08003
958.60 0.08
958.70 0.07997
958.80 0.07993
958.90 0.0799
959.00 0.07987
959.10 0.07984
959.20 0.07981
959.30 0.07977
959.40 0.07974
959.50 0.07971
959.60 0.07968
959.70 0.07965
959.80 0.07962
959.90 0.07958
960.00 0.07955
960.10 0.07952
960.20 0.07949
960.30 0.07946
960.40 0.07943
960.50 0.07939
960.60 0.07936
960.70 0.07933
960.80 0.0793
960.90 0.07927
961.00 0.07924
961.10 0.07921
961.20 0.07917
961.30 0.07914
961.40 0.07911
961.50 0.07908
961.60 0.07905
961.70 0.07902
961.80 0.07899
961.90 0.07896
962.00 0.07892
962.10 0.07889
962.20 0.07886
962.30 0.07883
962.40 0.0788
962.50 0.07877
962.60 0.07874
962.70 0.07871
962.80 0.07868
962.90 0.07865
963.00 0.07861
963.10 0.07858
963.20 0.07855
963.30 0.07852
963.40 0.07849
963.50 0.07846
963.60 0.07843
963.70 0.0784
963.80 0.07837
963.90 0.07834
964.00 0.07831
964.10 0.07827
964.20 0.07824
964.30 0.07821
964.40 0.07818
964.50 0.07815
964.60 0.07812
964.70 0.07809
964.80 0.07806
964.90 0.07803
965.00 0.078
965.10 0.07797
965.20 0.07794
965.30 0.07791
965.40 0.07787
965.50 0.07784
965.60 0.07781
965.70 0.07778
965.80 0.07775
965.90 0.07772
966.00 0.07769
966.10 0.07766
966.20 0.07763
966.30 0.0776
966.40 0.07757
966.50 0.07754
966.60 0.07751
966.70 0.07748
966.80 0.07745
966.90 0.07742
967.00 0.07739
967.10 0.07735
967.20 0.07732
967.30 0.07729
967.40 0.07726
967.50 0.07723
967.60 0.0772
967.70 0.07717
967.80 0.07714
967.90 0.07711
968.00 0.07708
968.10 0.07705
968.20 0.07702
968.30 0.07699
968.40 0.07696
968.50 0.07693
968.60 0.0769
968.70 0.07687
968.80 0.07684
968.90 0.07681
969.00 0.07678
969.10 0.07675
969.20 0.07672
969.30 0.07669
969.40 0.07665
969.50 0.07662
969.60 0.07659
969.70 0.07656
969.80 0.07653
969.90 0.0765
970.00 0.07647
970.10 0.07644
970.20 0.07641
970.30 0.07638
970.40 0.07635
970.50 0.07632
970.60 0.07629
970.70 0.07626
970.80 0.07623
970.90 0.0762
971.00 0.07617
971.10 0.07614
971.20 0.07611
971.30 0.07608
971.40 0.07605
971.50 0.07602
971.60 0.07599
971.70 0.07596
971.80 0.07593
971.90 0.0759
972.00 0.07587
972.10 0.07584
972.20 0.07581
972.30 0.07578
972.40 0.07575
972.50 0.07572
972.60 0.07569
972.70 0.07566
972.80 0.07563
972.90 0.0756
973.00 0.07557
973.10 0.07554
973.20 0.07551
973.30 0.07548
973.40 0.07545
973.50 0.07542
973.60 0.07539
973.70 0.07536
973.80 0.07533
973.90 0.0753
974.00 0.07527
974.10 0.07524
974.20 0.07521
974.30 0.07518
974.40 0.07515
974.50 0.07512
974.60 0.07509
974.70 0.07506
974.80 0.07503
974.90 0.075
975.00 0.07497
975.10 0.07494
975.20 0.07491
975.30 0.07488
975.40 0.07485
975.50 0.07482
975.60 0.07479
975.70 0.07476
975.80 0.07473
975.90 0.0747
976.00 0.07467
976.10 0.07464
976.20 0.07461
976.30 0.07458
976.40 0.07455
976.50 0.07452
976.60 0.07449
976.70 0.07446
976.80 0.07443
976.90 0.0744
977.00 0.07437
977.10 0.07434
977.20 0.07432
977.30 0.07429
977.40 0.07426
977.50 0.07423
977.60 0.0742
977.70 0.07417
977.80 0.07414
977.90 0.07411
978.00 0.07408
978.10 0.07405
978.20 0.07402
978.30 0.07399
978.40 0.07396
978.50 0.07393
978.60 0.0739
978.70 0.07387
978.80 0.07384
978.90 0.07381
979.00 0.07378
979.10 0.07375
979.20 0.07372
979.30 0.07369
979.40 0.07366
979.50 0.07363
979.60 0.0736
979.70 0.07357
979.80 0.07354
979.90 0.07352
980.00 0.07349
980.10 0.07346
980.20 0.07343
980.30 0.0734
980.40 0.07337
980.50 0.07334
980.60 0.07331
980.70 0.07328
980.80 0.07325
980.90 0.07322
981.00 0.07319
981.10 0.07316
981.20 0.07313
981.30 0.0731
981.40 0.07307
981.50 0.07305
981.60 0.07302
981.70 0.07299
981.80 0.07296
981.90 0.07293
982.00 0.0729
982.10 0.07287
982.20 0.07284
982.30 0.07281
982.40 0.07278
982.50 0.07275
982.60 0.07272
982.70 0.07269
982.80 0.07266
982.90 0.07263
983.00 0.07261
983.10 0.07258
983.20 0.07255
983.30 0.07252
983.40 0.07249
983.50 0.07246
983.60 0.07243
983.70 0.0724
983.80 0.07237
983.90 0.07234
984.00 0.07231
984.10 0.07228
984.20 0.07225
984.30 0.07223
984.40 0.0722
984.50 0.07217
984.60 0.07214
984.70 0.07211
984.80 0.07208
984.90 0.07205
985.00 0.07202
985.10 0.07199
985.20 0.07196
985.30 0.07193
985.40 0.0719
985.50 0.07187
985.60 0.07185
985.70 0.07182
985.80 0.07179
985.90 0.07176
986.00 0.07173
986.10 0.0717
986.20 0.07167
986.30 0.07164
986.40 0.07161
986.50 0.07158
986.60 0.07155
986.70 0.07153
986.80 0.0715
986.90 0.07147
987.00 0.07144
987.10 0.07141
987.20 0.07138
987.30 0.07135
987.40 0.07132
987.50 0.07129
987.60 0.07126
987.70 0.07123
987.80 0.07121
987.90 0.07118
988.00 0.07115
988.10 0.07112
988.20 0.07109
988.30 0.07106
988.40 0.07103
988.50 0.071
988.60 0.07097
988.70 0.07094
988.80 0.07092
988.90 0.07089
989.00 0.07086
989.10 0.07083
989.20 0.0708
989.30 0.07077
989.40 0.07074
989.50 0.07071
989.60 0.07068
989.70 0.07065
989.80 0.07062
989.90 0.0706
990.00 0.07057
990.10 0.07054
990.20 0.07051
990.30 0.07048
990.40 0.07045
990.50 0.07042
990.60 0.07039
990.70 0.07036
990.80 0.07034
990.90 0.07031
991.00 0.07028
991.10 0.07025
991.20 0.07022
991.30 0.07019
991.40 0.07016
991.50 0.07013
991.60 0.0701
991.70 0.07007
991.80 0.07004
991.90 0.07002
992.00 0.06999
992.10 0.06996
992.20 0.06993
992.30 0.0699
992.40 0.06987
992.50 0.06984
992.60 0.06981
992.70 0.06978
992.80 0.06975
992.90 0.06973
993.00 0.0697
993.10 0.06967
993.20 0.06964
993.30 0.06961
993.40 0.06958
993.50 0.06955
993.60 0.06952
993.70 0.06949
993.80 0.06946
993.90 0.06943
994.00 0.06941
994.10 0.06938
994.20 0.06935
994.30 0.06932
994.40 0.06929
994.50 0.06926
994.60 0.06923
994.70 0.0692
994.80 0.06917
994.90 0.06914
995.00 0.06912
995.10 0.06909
995.20 0.06906
995.30 0.06903
995.40 0.069
995.50 0.06897
995.60 0.06894
995.70 0.06891
995.80 0.06888
995.90 0.06885
996.00 0.06883
996.10 0.0688
996.20 0.06877
996.30 0.06874
996.40 0.06871
996.50 0.06868
996.60 0.06865
996.70 0.06862
996.80 0.06859
996.90 0.06856
997.00 0.06854
997.10 0.06851
997.20 0.06848
997.30 0.06845
997.40 0.06842
997.50 0.06839
997.60 0.06836
997.70 0.06833
997.80 0.0683
997.90 0.06828
998.00 0.06825
998.10 0.06822
998.20 0.06819
998.30 0.06816
998.40 0.06813
998.50 0.0681
998.60 0.06807
998.70 0.06805
998.80 0.06802
998.90 0.06799
999.00 0.06796
999.10 0.06793
999.20 0.0679
999.30 0.06787
999.40 0.06784
999.50 0.06782
999.60 0.06779
999.70 0.06776
999.80 0.06773
999.90 0.0677
1000.00 0.06767
1000.10 0.06764
1000.20 0.06761
1000.30 0.06758
1000.40 0.06755
1000.50 0.06752
1000.60 0.06749
1000.70 0.06747
1000.80 0.06744
1000.90 0.06741
1001.00 0.06738
1001.10 0.06735
1001.20 0.06732
1001.30 0.06729
1001.40 0.06726
1001.50 0.06723
1001.60 0.0672
1001.70 0.06718
1001.80 0.06715
1001.90 0.06712
1002.00 0.0671
1002.10 0.06707
1002.20 0.06705
1002.30 0.06702
1002.40 0.067
1002.50 0.06697
1002.60 0.06695
1002.70 0.06692
1002.80 0.0669
1002.90 0.06687
1003.00 0.06685
1003.10 0.06682
1003.20 0.0668
1003.30 0.06678
1003.40 0.06676
1003.50 0.06673
1003.60 0.06671
1003.70 0.06669
1003.80 0.06667
1003.90 0.06665
1004.00 0.06663
1004.10 0.06661
1004.20 0.06659
1004.30 0.06657
1004.40 0.06655
1004.50 0.06654
1004.60 0.06652
1004.70 0.06649
1004.80 0.06647
1004.90 0.06644
1005.00 0.06642
1005.10 0.06639
1005.20 0.06636
1005.30 0.06633
1005.40 0.0663
1005.50 0.06627
1005.60 0.06624
1005.70 0.06621
1005.80 0.06617
1005.90 0.06614
1006.00 0.06611
1006.10 0.06608
1006.20 0.06605
1006.30 0.06602
1006.40 0.06599
1006.50 0.06596
1006.60 0.06593
1006.70 0.0659
1006.80 0.06587
1006.90 0.06585
1007.00 0.06582
1007.10 0.06579
1007.20 0.06576
1007.30 0.06574
1007.40 0.06571
1007.50 0.06569
1007.60 0.06566
1007.70 0.06564
1007.80 0.06561
1007.90 0.06559
1008.00 0.06556
1008.10 0.06554
1008.20 0.06551
1008.30 0.06549
1008.40 0.06547
1008.50 0.06544
1008.60 0.06542
1008.70 0.06539
1008.80 0.06537
1008.90 0.06534
1009.00 0.06532
1009.10 0.0653
1009.20 0.06527
1009.30 0.06525
1009.40 0.06522
1009.50 0.0652
1009.60 0.06518
1009.70 0.06515
1009.80 0.06513
1009.90 0.06511
1010.00 0.06508
1010.10 0.06506
1010.20 0.06504
1010.30 0.06501
1010.40 0.06499
1010.50 0.06497
1010.60 0.06495
1010.70 0.06492
1010.80 0.0649
1010.90 0.06488
1011.00 0.06485
1011.10 0.06483
1011.20 0.06481
1011.30 0.06478
1011.40 0.06476
1011.50 0.06474
1011.60 0.06472
1011.70 0.06469
1011.80 0.06467
1011.90 0.06465
1012.00 0.06462
1012.10 0.0646
1012.20 0.06458
1012.30 0.06456
1012.40 0.06453
1012.50 0.06451
1012.60 0.06449
1012.70 0.06446
1012.80 0.06444
1012.90 0.06442
1013.00 0.0644
1013.10 0.06437
1013.20 0.06435
1013.30 0.06433
1013.40 0.06431
1013.50 0.06428
1013.60 0.06426
1013.70 0.06424
1013.80 0.06421
1013.90 0.06419
1014.00 0.06417
1014.10 0.06415
1014.20 0.06412
1014.30 0.0641
1014.40 0.06408
1014.50 0.06406
1014.60 0.06403
1014.70 0.06401
1014.80 0.06399
1014.90 0.06396
1015.00 0.06394
1015.10 0.06392
1015.20 0.0639
1015.30 0.06387
1015.40 0.06385
1015.50 0.06383
1015.60 0.0638
1015.70 0.06378
1015.80 0.06376
1015.90 0.06374
1016.00 0.06371
1016.10 0.06369
1016.20 0.06367
1016.30 0.06364
1016.40 0.06362
1016.50 0.0636
1016.60 0.06358
1016.70 0.06355
1016.80 0.06353
1016.90 0.06351
1017.00 0.06348
1017.10 0.06346
1017.20 0.06344
1017.30 0.06342
1017.40 0.06339
1017.50 0.06337
1017.60 0.06335
1017.70 0.06332
1017.80 0.0633
1017.90 0.06328
1018.00 0.06326
1018.10 0.06323
1018.20 0.06321
1018.30 0.06319
1018.40 0.06316
1018.50 0.06314
1018.60 0.06312
1018.70 0.06309
1018.80 0.06307
1018.90 0.06305
1019.00 0.06303
1019.10 0.063
1019.20 0.06298
1019.30 0.06296
1019.40 0.06293
1019.50 0.06291
1019.60 0.06289
1019.70 0.06287
1019.80 0.06284
1019.90 0.06282
1020.00 0.0628
1020.10 0.06277
1020.20 0.06275
1020.30 0.06273
1020.40 0.0627
1020.50 0.06268
1020.60 0.06266
1020.70 0.06264
1020.80 0.06261
1020.90 0.06259
1021.00 0.06257
1021.10 0.06254
1021.20 0.06252
1021.30 0.0625
1021.40 0.06248
1021.50 0.06245
1021.60 0.06243
1021.70 0.06241
1021.80 0.06238
1021.90 0.06236
1022.00 0.06234
1022.10 0.06231
1022.20 0.06229
1022.30 0.06227
1022.40 0.06225
1022.50 0.06222
1022.60 0.0622
1022.70 0.06218
1022.80 0.06215
1022.90 0.06213
1023.00 0.06211
1023.10 0.06209
1023.20 0.06206
1023.30 0.06204
1023.40 0.06202
1023.50 0.06199
1023.60 0.06197
1023.70 0.06195
1023.80 0.06192
1023.90 0.0619
1024.00 0.06188
1024.10 0.06186
1024.20 0.06183
1024.30 0.06181
1024.40 0.06179
1024.50 0.06176
1024.60 0.06174
1024.70 0.06172
1024.80 0.0617
1024.90 0.06167
1025.00 0.06165
1025.10 0.06163
1025.20 0.0616
1025.30 0.06158
1025.40 0.06156
1025.50 0.06154
1025.60 0.06151
1025.70 0.06149
1025.80 0.06147
1025.90 0.06144
1026.00 0.06142
1026.10 0.0614
1026.20 0.06138
1026.30 0.06135
1026.40 0.06133
1026.50 0.06131
1026.60 0.06128
1026.70 0.06126
1026.80 0.06124
1026.90 0.06122
1027.00 0.06119
1027.10 0.06117
1027.20 0.06115
1027.30 0.06113
1027.40 0.0611
1027.50 0.06108
1027.60 0.06106
1027.70 0.06103
1027.80 0.06101
1027.90 0.06099
1028.00 0.06097
1028.10 0.06094
1028.20 0.06092
1028.30 0.0609
1028.40 0.06088
1028.50 0.06085
1028.60 0.06083
1028.70 0.06081
1028.80 0.06078
1028.90 0.06076
1029.00 0.06074
1029.10 0.06072
1029.20 0.06069
1029.30 0.06067
1029.40 0.06065
1029.50 0.06063
1029.60 0.0606
1029.70 0.06058
1029.80 0.06056
1029.90 0.06054
1030.00 0.06051
1030.10 0.06049
1030.20 0.06047
1030.30 0.06044
1030.40 0.06042
1030.50 0.0604
1030.60 0.06038
1030.70 0.06035
1030.80 0.06033
1030.90 0.06031
1031.00 0.06029
1031.10 0.06026
1031.20 0.06024
1031.30 0.06022
1031.40 0.0602
1031.50 0.06017
1031.60 0.06015
1031.70 0.06013
1031.80 0.06011
1031.90 0.06008
1032.00 0.06006
1032.10 0.06004
1032.20 0.06002
1032.30 0.06
1032.40 0.05997
1032.50 0.05995
1032.60 0.05993
1032.70 0.05991
1032.80 0.05988
1032.90 0.05986
1033.00 0.05984
1033.10 0.05982
1033.20 0.05979
1033.30 0.05977
1033.40 0.05975
1033.50 0.05973
1033.60 0.0597
1033.70 0.05968
1033.80 0.05966
1033.90 0.05964
1034.00 0.05961
1034.10 0.05959
1034.20 0.05957
1034.30 0.05955
1034.40 0.05953
1034.50 0.0595
1034.60 0.05948
1034.70 0.05946
1034.80 0.05944
1034.90 0.05941
1035.00 0.05939
1035.10 0.05937
1035.20 0.05935
1035.30 0.05933
1035.40 0.0593
1035.50 0.05928
1035.60 0.05926
1035.70 0.05924
1035.80 0.05921
1035.90 0.05919
1036.00 0.05917
1036.10 0.05915
1036.20 0.05913
1036.30 0.0591
1036.40 0.05908
1036.50 0.05906
1036.60 0.05904
1036.70 0.05902
1036.80 0.05899
1036.90 0.05897
1037.00 0.05895
1037.10 0.05893
1037.20 0.05891
1037.30 0.05888
1037.40 0.05886
1037.50 0.05884
1037.60 0.05882
1037.70 0.0588
1037.80 0.05877
1037.90 0.05875
1038.00 0.05873
1038.10 0.05871
1038.20 0.05869
1038.30 0.05866
1038.40 0.05864
1038.50 0.05862
1038.60 0.0586
1038.70 0.05858
1038.80 0.05855
1038.90 0.05853
1039.00 0.05851
1039.10 0.05849
1039.20 0.05847
1039.30 0.05844
1039.40 0.05842
1039.50 0.0584
1039.60 0.05838
1039.70 0.05836
1039.80 0.05834
1039.90 0.05831
1040.00 0.05829
1040.10 0.05827
1040.20 0.05825
1040.30 0.05823
1040.40 0.0582
1040.50 0.05818
1040.60 0.05816
1040.70 0.05814
1040.80 0.05812
1040.90 0.0581
1041.00 0.05807
1041.10 0.05805
1041.20 0.05803
1041.30 0.05801
1041.40 0.05799
1041.50 0.05797
1041.60 0.05794
1041.70 0.05792
1041.80 0.0579
1041.90 0.05788
1042.00 0.05786
1042.10 0.05784
1042.20 0.05781
1042.30 0.05779
1042.40 0.05777
1042.50 0.05775
1042.60 0.05773
1042.70 0.05771
1042.80 0.05768
1042.90 0.05766
1043.00 0.05764
1043.10 0.05762
1043.20 0.0576
1043.30 0.05758
1043.40 0.05756
1043.50 0.05753
1043.60 0.05751
1043.70 0.05749
1043.80 0.05747
1043.90 0.05745
1044.00 0.05743
1044.10 0.0574
1044.20 0.05738
1044.30 0.05736
1044.40 0.05734
1044.50 0.05732
1044.60 0.0573
1044.70 0.05728
1044.80 0.05726
1044.90 0.05723
1045.00 0.05721
1045.10 0.05719
1045.20 0.05717
1045.30 0.05715
1045.40 0.05713
1045.50 0.05711
1045.60 0.05708
1045.70 0.05706
1045.80 0.05704
1045.90 0.05702
1046.00 0.057
1046.10 0.05698
1046.20 0.05696
1046.30 0.05694
1046.40 0.05691
1046.50 0.05689
1046.60 0.05687
1046.70 0.05685
1046.80 0.05683
1046.90 0.05681
1047.00 0.05679
1047.10 0.05677
1047.20 0.05674
1047.30 0.05672
1047.40 0.0567
1047.50 0.05668
1047.60 0.05666
1047.70 0.05664
1047.80 0.05662
1047.90 0.0566
1048.00 0.05658
1048.10 0.05655
1048.20 0.05653
1048.30 0.05651
1048.40 0.05649
1048.50 0.05647
1048.60 0.05645
1048.70 0.05643
1048.80 0.05641
1048.90 0.05639
1049.00 0.05636
1049.10 0.05634
1049.20 0.05632
1049.30 0.0563
1049.40 0.05628
1049.50 0.05626
1049.60 0.05624
1049.70 0.05622
1049.80 0.0562
1049.90 0.05618
1050.00 0.05616
1050.10 0.05613
1050.20 0.05611
1050.30 0.05609
1050.40 0.05607
1050.50 0.05605
1050.60 0.05603
1050.70 0.05601
1050.80 0.05599
1050.90 0.05597
1051.00 0.05595
1051.10 0.05593
1051.20 0.0559
1051.30 0.05588
1051.40 0.05586
1051.50 0.05584
1051.60 0.05582
1051.70 0.0558
1051.80 0.05578
1051.90 0.05576
1052.00 0.05574
1052.10 0.05572
1052.20 0.0557
1052.30 0.05568
1052.40 0.05565
1052.50 0.05563
1052.60 0.05561
1052.70 0.05559
1052.80 0.05557
1052.90 0.05555
1053.00 0.05553
1053.10 0.05551
1053.20 0.05549
1053.30 0.05547
1053.40 0.05545
1053.50 0.05543
1053.60 0.05541
1053.70 0.05539
1053.80 0.05537
1053.90 0.05535
1054.00 0.05532
1054.10 0.0553
1054.20 0.05528
1054.30 0.05526
1054.40 0.05524
1054.50 0.05522
1054.60 0.0552
1054.70 0.05518
1054.80 0.05516
1054.90 0.05514
1055.00 0.05512
1055.10 0.0551
1055.20 0.05508
1055.30 0.05506
1055.40 0.05504
1055.50 0.05502
1055.60 0.055
1055.70 0.05498
1055.80 0.05496
1055.90 0.05493
1056.00 0.05491
1056.10 0.05489
1056.20 0.05487
1056.30 0.05485
1056.40 0.05483
1056.50 0.05481
1056.60 0.05479
1056.70 0.05477
1056.80 0.05475
1056.90 0.05473
1057.00 0.05471
1057.10 0.05469
1057.20 0.05467
1057.30 0.05465
1057.40 0.05463
1057.50 0.05461
1057.60 0.05459
1057.70 0.05457
1057.80 0.05455
1057.90 0.05453
1058.00 0.05451
1058.10 0.05449
1058.20 0.05447
1058.30 0.05445
1058.40 0.05443
1058.50 0.05441
1058.60 0.05439
1058.70 0.05437
1058.80 0.05435
1058.90 0.05433
1059.00 0.05431
1059.10 0.05429
1059.20 0.05426
1059.30 0.05424
1059.40 0.05422
1059.50 0.0542
1059.60 0.05418
1059.70 0.05416
1059.80 0.05414
1059.90 0.05412
1060.00 0.0541
1060.10 0.05408
1060.20 0.05406
1060.30 0.05404
1060.40 0.05402
1060.50 0.054
1060.60 0.05398
1060.70 0.05396
1060.80 0.05394
1060.90 0.05392
1061.00 0.0539
1061.10 0.05388
1061.20 0.05386
1061.30 0.05384
1061.40 0.05382
1061.50 0.0538
1061.60 0.05378
1061.70 0.05376
1061.80 0.05374
1061.90 0.05372
1062.00 0.0537
1062.10 0.05368
1062.20 0.05366
1062.30 0.05364
1062.40 0.05362
1062.50 0.0536
1062.60 0.05358
1062.70 0.05356
1062.80 0.05354
1062.90 0.05352
1063.00 0.0535
1063.10 0.05348
1063.20 0.05346
1063.30 0.05344
1063.40 0.05342
1063.50 0.0534
1063.60 0.05338
1063.70 0.05336
1063.80 0.05334
1063.90 0.05332
1064.00 0.0533
1064.10 0.05328
1064.20 0.05326
1064.30 0.05325
1064.40 0.05323
1064.50 0.05321
1064.60 0.05319
1064.70 0.05317
1064.80 0.05315
1064.90 0.05313
1065.00 0.05311
1065.10 0.05309
1065.20 0.05307
1065.30 0.05305
1065.40 0.05303
1065.50 0.05301
1065.60 0.05299
1065.70 0.05297
1065.80 0.05295
1065.90 0.05293
1066.00 0.05291
1066.10 0.05289
1066.20 0.05287
1066.30 0.05285
1066.40 0.05283
1066.50 0.05281
1066.60 0.05279
1066.70 0.05277
1066.80 0.05275
1066.90 0.05273
1067.00 0.05271
1067.10 0.05269
1067.20 0.05267
1067.30 0.05265
1067.40 0.05263
1067.50 0.05261
1067.60 0.05259
1067.70 0.05257
1067.80 0.05255
1067.90 0.05254
1068.00 0.05252
1068.10 0.0525
1068.20 0.05248
1068.30 0.05246
1068.40 0.05244
1068.50 0.05242
1068.60 0.0524
1068.70 0.05238
1068.80 0.05236
1068.90 0.05234
1069.00 0.05232
1069.10 0.0523
1069.20 0.05228
1069.30 0.05226
1069.40 0.05224
1069.50 0.05222
1069.60 0.0522
1069.70 0.05218
1069.80 0.05216
1069.90 0.05214
1070.00 0.05212
1070.10 0.0521
1070.20 0.05208
1070.30 0.05206
1070.40 0.05205
1070.50 0.05203
1070.60 0.05201
1070.70 0.05199
1070.80 0.05197
1070.90 0.05195
1071.00 0.05193
1071.10 0.05191
1071.20 0.05189
1071.30 0.05187
1071.40 0.05185
1071.50 0.05183
1071.60 0.05181
1071.70 0.05179
1071.80 0.05177
1071.90 0.05175
1072.00 0.05173
1072.10 0.05171
1072.20 0.05169
1072.30 0.05168
1072.40 0.05166
1072.50 0.05164
1072.60 0.05162
1072.70 0.0516
1072.80 0.05158
1072.90 0.05156
1073.00 0.05154
1073.10 0.05152
1073.20 0.0515
1073.30 0.05148
1073.40 0.05146
1073.50 0.05144
1073.60 0.05142
1073.70 0.0514
1073.80 0.05138
1073.90 0.05136
1074.00 0.05134
1074.10 0.05132
1074.20 0.0513
1074.30 0.05128
1074.40 0.05127
1074.50 0.05125
1074.60 0.05123
1074.70 0.05121
1074.80 0.05119
1074.90 0.05117
1075.00 0.05115
1075.10 0.05113
1075.20 0.05111
1075.30 0.05109
1075.40 0.05107
1075.50 0.05105
1075.60 0.05103
1075.70 0.05101
1075.80 0.05099
1075.90 0.05097
1076.00 0.05095
1076.10 0.05093
1076.20 0.05091
1076.30 0.05089
1076.40 0.05088
1076.50 0.05086
1076.60 0.05084
1076.70 0.05082
1076.80 0.0508
1076.90 0.05078
1077.00 0.05076
1077.10 0.05074
1077.20 0.05072
1077.30 0.0507
1077.40 0.05068
1077.50 0.05066
1077.60 0.05064
1077.70 0.05062
1077.80 0.0506
1077.90 0.05058
1078.00 0.05056
1078.10 0.05054
1078.20 0.05052
1078.30 0.0505
1078.40 0.05048
1078.50 0.05046
1078.60 0.05044
1078.70 0.05042
1078.80 0.0504
1078.90 0.05039
1079.00 0.05037
1079.10 0.05035
1079.20 0.05033
1079.30 0.05031
1079.40 0.05029
1079.50 0.05027
1079.60 0.05025
1079.70 0.05023
1079.80 0.05021
1079.90 0.05019
1080.00 0.05017
1080.10 0.05015
1080.20 0.05013
1080.30 0.05011
1080.40 0.05009
1080.50 0.05007
1080.60 0.05005
1080.70 0.05003
1080.80 0.05001
1080.90 0.04999
1081.00 0.04997
1081.10 0.04995
1081.20 0.04993
1081.30 0.04991
1081.40 0.04989
1081.50 0.04987
1081.60 0.04985
1081.70 0.04983
1081.80 0.04981
1081.90 0.04979
1082.00 0.04977
1082.10 0.04975
1082.20 0.04973
1082.30 0.04971
1082.40 0.04969
1082.50 0.04967
1082.60 0.04965
1082.70 0.04963
1082.80 0.04961
1082.90 0.04959
1083.00 0.04957
1083.10 0.04955
1083.20 0.04953
1083.30 0.04951
1083.40 0.04949
1083.50 0.04947
1083.60 0.04945
1083.70 0.04943
1083.80 0.04941
1083.90 0.04939
1084.00 0.04936
1084.10 0.04934
1084.20 0.04932
1084.30 0.0493
1084.40 0.04928
1084.50 0.04926
1084.60 0.04924
1084.70 0.04922
1084.80 0.0492
1084.90 0.04918
1085.00 0.04916
1085.10 0.04914
1085.20 0.04912
1085.30 0.0491
1085.40 0.04908
1085.50 0.04906
1085.60 0.04904
1085.70 0.04902
1085.80 0.049
1085.90 0.04897
1086.00 0.04895
1086.10 0.04893
1086.20 0.04891
1086.30 0.04889
1086.40 0.04887
1086.50 0.04885
1086.60 0.04883
1086.70 0.04881
1086.80 0.04879
1086.90 0.04877
1087.00 0.04875
1087.10 0.04873
1087.20 0.04871
1087.30 0.04869
1087.40 0.04867
1087.50 0.04865
1087.60 0.04863
1087.70 0.0486
1087.80 0.04858
1087.90 0.04856
1088.00 0.04854
1088.10 0.04852
1088.20 0.0485
1088.30 0.04848
1088.40 0.04846
1088.50 0.04844
1088.60 0.04842
1088.70 0.0484
1088.80 0.04838
1088.90 0.04836
1089.00 0.04834
1089.10 0.04832
1089.20 0.0483
1089.30 0.04828
1089.40 0.04826
1089.50 0.04824
1089.60 0.04823
1089.70 0.04821
1089.80 0.04819
1089.90 0.04817
1090.00 0.04815
1090.10 0.04813
1090.20 0.04811
1090.30 0.04809
1090.40 0.04807
1090.50 0.04805
1090.60 0.04803
1090.70 0.04802
1090.80 0.048
1090.90 0.04798
1091.00 0.04796
1091.10 0.04795
1091.20 0.04793
1091.30 0.04791
1091.40 0.0479
1091.50 0.04788
1091.60 0.04786
1091.70 0.04785
1091.80 0.04783
1091.90 0.04781
1092.00 0.0478
1092.10 0.04778
1092.20 0.04777
1092.30 0.04775
1092.40 0.04774
1092.50 0.04773
1092.60 0.04771
1092.70 0.0477
1092.80 0.04769
1092.90 0.04768
1093.00 0.04766
1093.10 0.04765
1093.20 0.04765
1093.30 0.04764
1093.40 0.04763
1093.50 0.04764
1093.60 0.04765
1093.70 0.04766
1093.80 0.04766
1093.90 0.04765
1094.00 0.0476
1094.10 0.04756
1094.20 0.04751
1094.30 0.04747
1094.40 0.04745
1094.50 0.04743
1094.60 0.0474
1094.70 0.04738
1094.80 0.04735
1094.90 0.04733
1095.00 0.04731
1095.10 0.04729
1095.20 0.04727
1095.30 0.04725
1095.40 0.04724
1095.50 0.04722
1095.60 0.0472
1095.70 0.04718
1095.80 0.04716
1095.90 0.04714
1096.00 0.04712
1096.10 0.04711
1096.20 0.04709
1096.30 0.04707
1096.40 0.04705
1096.50 0.04703
1096.60 0.04702
1096.70 0.047
1096.80 0.04699
1096.90 0.04697
1097.00 0.04695
1097.10 0.04694
1097.20 0.04692
1097.30 0.04691
1097.40 0.04689
1097.50 0.04688
1097.60 0.04687
1097.70 0.04685
1097.80 0.04684
1097.90 0.04682
1098.00 0.04681
1098.10 0.04679
1098.20 0.04678
1098.30 0.04676
1098.40 0.04675
1098.50 0.04673
1098.60 0.04672
1098.70 0.04671
1098.80 0.04669
1098.90 0.04668
1099.00 0.04667
1099.10 0.04665
1099.20 0.04664
1099.30 0.04663
1099.40 0.04661
1099.50 0.0466
1099.60 0.04659
1099.70 0.04657
1099.80 0.04656
1099.90 0.04654
1100.00 0.04653
1100.10 0.04652
1100.20 0.0465
1100.30 0.04649
1100.40 0.04648
1100.50 0.04646
1100.60 0.04645
1100.70 0.04644
1100.80 0.04642
1100.90 0.04641
1101.00 0.0464
1101.10 0.04638
1101.20 0.04637
1101.30 0.04636
1101.40 0.04634
1101.50 0.04633
1101.60 0.04631
1101.70 0.0463
1101.80 0.04629
1101.90 0.04627
1102.00 0.04626
1102.10 0.04625
1102.20 0.04623
1102.30 0.04622
1102.40 0.04621
1102.50 0.04619
1102.60 0.04618
1102.70 0.04616
1102.80 0.04615
1102.90 0.04614
1103.00 0.04612
1103.10 0.04611
1103.20 0.0461
1103.30 0.04608
1103.40 0.04607
1103.50 0.04605
1103.60 0.04604
1103.70 0.04603
1103.80 0.04601
1103.90 0.046
1104.00 0.04598
1104.10 0.04597
1104.20 0.04596
1104.30 0.04594
1104.40 0.04593
1104.50 0.04591
1104.60 0.0459
1104.70 0.04589
1104.80 0.04587
1104.90 0.04586
1105.00 0.04584
1105.10 0.04583
1105.20 0.04582
1105.30 0.0458
1105.40 0.04579
1105.50 0.04577
1105.60 0.04576
1105.70 0.04575
1105.80 0.04573
1105.90 0.04572
1106.00 0.0457
1106.10 0.04569
1106.20 0.04567
1106.30 0.04566
1106.40 0.04564
1106.50 0.04563
1106.60 0.04562
1106.70 0.0456
1106.80 0.04559
1106.90 0.04557
1107.00 0.04556
1107.10 0.04554
1107.20 0.04553
1107.30 0.04551
1107.40 0.0455
1107.50 0.04549
1107.60 0.04547
1107.70 0.04546
1107.80 0.04544
1107.90 0.04543
1108.00 0.04541
1108.10 0.0454
1108.20 0.04538
1108.30 0.04537
1108.40 0.04535
1108.50 0.04534
1108.60 0.04532
1108.70 0.04531
1108.80 0.04529
1108.90 0.04528
1109.00 0.04526
1109.10 0.04525
1109.20 0.04524
1109.30 0.04522
1109.40 0.04521
1109.50 0.04519
1109.60 0.04518
1109.70 0.04516
1109.80 0.04515
1109.90 0.04513
1110.00 0.04512
1110.10 0.0451
1110.20 0.04509
1110.30 0.04507
1110.40 0.04506
1110.50 0.04504
1110.60 0.04503
1110.70 0.04501
1110.80 0.045
1110.90 0.04498
1111.00 0.04497
1111.10 0.04495
1111.20 0.04494
1111.30 0.04492
1111.40 0.04491
1111.50 0.04489
1111.60 0.04488
1111.70 0.04486
1111.80 0.04485
1111.90 0.04483
1112.00 0.04482
1112.10 0.0448
1112.20 0.04479
1112.30 0.04477
1112.40 0.04476
1112.50 0.04474
1112.60 0.04473
1112.70 0.04471
1112.80 0.0447
1112.90 0.04468
1113.00 0.04467
1113.10 0.04465
1113.20 0.04464
1113.30 0.04463
1113.40 0.04461
1113.50 0.0446
1113.60 0.04458
1113.70 0.04456
1113.80 0.04455
1113.90 0.04453
1114.00 0.04452
1114.10 0.0445
1114.20 0.04449
1114.30 0.04447
1114.40 0.04446
1114.50 0.04444
1114.60 0.04443
1114.70 0.04441
1114.80 0.0444
1114.90 0.04438
1115.00 0.04437
1115.10 0.04435
1115.20 0.04434
1115.30 0.04432
1115.40 0.04431
1115.50 0.04429
1115.60 0.04428
1115.70 0.04426
1115.80 0.04425
1115.90 0.04423
1116.00 0.04422
1116.10 0.0442
1116.20 0.04419
1116.30 0.04417
1116.40 0.04416
1116.50 0.04414
1116.60 0.04413
1116.70 0.04411
1116.80 0.0441
1116.90 0.04408
1117.00 0.04407
1117.10 0.04405
1117.20 0.04404
1117.30 0.04402
1117.40 0.04401
1117.50 0.04399
1117.60 0.04398
1117.70 0.04396
1117.80 0.04395
1117.90 0.04393
1118.00 0.04392
1118.10 0.0439
1118.20 0.04389
1118.30 0.04387
1118.40 0.04386
1118.50 0.04384
1118.60 0.04383
1118.70 0.04381
1118.80 0.0438
1118.90 0.04378
1119.00 0.04377
1119.10 0.04375
1119.20 0.04374
1119.30 0.04372
1119.40 0.04371
1119.50 0.04369
1119.60 0.04368
1119.70 0.04366
1119.80 0.04365
1119.90 0.04363
1120.00 0.04362
1120.10 0.0436
1120.20 0.04359
1120.30 0.04357
1120.40 0.04356
1120.50 0.04354
1120.60 0.04353
1120.70 0.04351
1120.80 0.0435
1120.90 0.04349
1121.00 0.04347
1121.10 0.04346
1121.20 0.04344
1121.30 0.04343
1121.40 0.04341
1121.50 0.0434
1121.60 0.04338
1121.70 0.04337
1121.80 0.04335
1121.90 0.04334
1122.00 0.04332
1122.10 0.04331
1122.20 0.04329
1122.30 0.04328
1122.40 0.04326
1122.50 0.04325
1122.60 0.04323
1122.70 0.04322
1122.80 0.0432
1122.90 0.04319
1123.00 0.04317
1123.10 0.04316
1123.20 0.04314
1123.30 0.04313
1123.40 0.04311
1123.50 0.0431
1123.60 0.04308
1123.70 0.04307
1123.80 0.04305
1123.90 0.04304
1124.00 0.04302
1124.10 0.04301
1124.20 0.043
1124.30 0.04298
1124.40 0.04297
1124.50 0.04295
1124.60 0.04294
1124.70 0.04292
1124.80 0.04291
1124.90 0.04289
1125.00 0.04288
1125.10 0.04286
1125.20 0.04285
1125.30 0.04283
1125.40 0.04282
1125.50 0.0428
1125.60 0.04279
1125.70 0.04277
1125.80 0.04276
1125.90 0.04274
1126.00 0.04273
1126.10 0.04272
1126.20 0.0427
1126.30 0.04269
1126.40 0.04267
1126.50 0.04266
1126.60 0.04264
1126.70 0.04263
1126.80 0.04261
1126.90 0.0426
1127.00 0.04258
1127.10 0.04257
1127.20 0.04255
1127.30 0.04254
1127.40 0.04252
1127.50 0.04251
1127.60 0.0425
1127.70 0.04248
1127.80 0.04247
1127.90 0.04245
1128.00 0.04244
1128.10 0.04242
1128.20 0.04241
1128.30 0.04239
1128.40 0.04238
1128.50 0.04236
1128.60 0.04235
1128.70 0.04234
1128.80 0.04232
1128.90 0.04231
1129.00 0.04229
1129.10 0.04228
1129.20 0.04226
1129.30 0.04225
1129.40 0.04223
1129.50 0.04222
1129.60 0.0422
1129.70 0.04219
1129.80 0.04218
1129.90 0.04216
1130.00 0.04215
1130.10 0.04213
1130.20 0.04212
1130.30 0.0421
1130.40 0.04209
1130.50 0.04207
1130.60 0.04206
1130.70 0.04204
1130.80 0.04203
1130.90 0.04202
1131.00 0.042
1131.10 0.04199
1131.20 0.04197
1131.30 0.04196
1131.40 0.04194
1131.50 0.04193
1131.60 0.04191
1131.70 0.0419
1131.80 0.04189
1131.90 0.04187
1132.00 0.04186
1132.10 0.04184
1132.20 0.04183
1132.30 0.04181
1132.40 0.0418
1132.50 0.04179
1132.60 0.04177
1132.70 0.04176
1132.80 0.04174
1132.90 0.04173
1133.00 0.04171
1133.10 0.0417
1133.20 0.04169
1133.30 0.04167
1133.40 0.04166
1133.50 0.04164
1133.60 0.04163
1133.70 0.04161
1133.80 0.0416
1133.90 0.04159
1134.00 0.04157
1134.10 0.04156
1134.20 0.04154
1134.30 0.04153
1134.40 0.04151
1134.50 0.0415
1134.60 0.04149
1134.70 0.04147
1134.80 0.04146
1134.90 0.04144
1135.00 0.04143
1135.10 0.04141
1135.20 0.0414
1135.30 0.04139
1135.40 0.04137
1135.50 0.04136
1135.60 0.04134
1135.70 0.04133
1135.80 0.04131
1135.90 0.0413
1136.00 0.04129
1136.10 0.04127
1136.20 0.04126
1136.30 0.04124
1136.40 0.04123
1136.50 0.04122
1136.60 0.0412
1136.70 0.04119
1136.80 0.04117
1136.90 0.04116
1137.00 0.04114
1137.10 0.04113
1137.20 0.04112
1137.30 0.0411
1137.40 0.04109
1137.50 0.04107
1137.60 0.04106
1137.70 0.04105
1137.80 0.04103
1137.90 0.04102
1138.00 0.041
1138.10 0.04099
1138.20 0.04098
1138.30 0.04096
1138.40 0.04095
1138.50 0.04093
1138.60 0.04092
1138.70 0.04091
1138.80 0.04089
1138.90 0.04088
1139.00 0.04086
1139.10 0.04085
1139.20 0.04084
1139.30 0.04082
1139.40 0.04081
1139.50 0.04079
1139.60 0.04078
1139.70 0.04077
1139.80 0.04075
1139.90 0.04074
1140.00 0.04072
1140.10 0.04071
1140.20 0.0407
1140.30 0.04068
1140.40 0.04067
1140.50 0.04065
1140.60 0.04064
1140.70 0.04063
1140.80 0.04061
1140.90 0.0406
1141.00 0.04059
1141.10 0.04057
1141.20 0.04056
1141.30 0.04054
1141.40 0.04053
1141.50 0.04052
1141.60 0.0405
1141.70 0.04049
1141.80 0.04047
1141.90 0.04046
1142.00 0.04045
1142.10 0.04043
1142.20 0.04042
1142.30 0.0404
1142.40 0.04039
1142.50 0.04038
1142.60 0.04036
1142.70 0.04035
1142.80 0.04034
1142.90 0.04032
1143.00 0.04031
1143.10 0.04029
1143.20 0.04028
1143.30 0.04027
1143.40 0.04025
1143.50 0.04024
1143.60 0.04023
1143.70 0.04021
1143.80 0.0402
1143.90 0.04019
1144.00 0.04017
1144.10 0.04016
1144.20 0.04014
1144.30 0.04013
1144.40 0.04012
1144.50 0.0401
1144.60 0.04009
1144.70 0.04008
1144.80 0.04006
1144.90 0.04005
1145.00 0.04003
1145.10 0.04002
1145.20 0.04001
1145.30 0.03999
1145.40 0.03998
1145.50 0.03997
1145.60 0.03995
1145.70 0.03994
1145.80 0.03993
1145.90 0.03991
1146.00 0.0399
1146.10 0.03988
1146.20 0.03987
1146.30 0.03986
1146.40 0.03984
1146.50 0.03983
1146.60 0.03982
1146.70 0.0398
1146.80 0.03979
1146.90 0.03978
1147.00 0.03976
1147.10 0.03975
1147.20 0.03974
1147.30 0.03972
1147.40 0.03971
1147.50 0.03969
1147.60 0.03968
1147.70 0.03967
1147.80 0.03965
1147.90 0.03964
1148.00 0.03963
1148.10 0.03961
1148.20 0.0396
1148.30 0.03959
1148.40 0.03957
1148.50 0.03956
1148.60 0.03955
1148.70 0.03953
1148.80 0.03952
1148.90 0.03951
1149.00 0.03949
1149.10 0.03948
1149.20 0.03947
1149.30 0.03945
1149.40 0.03944
1149.50 0.03943
1149.60 0.03941
1149.70 0.0394
1149.80 0.03939
1149.90 0.03937
1150.00 0.03936
1150.10 0.03935
1150.20 0.03933
1150.30 0.03932
1150.40 0.03931
1150.50 0.03929
1150.60 0.03928
1150.70 0.03927
1150.80 0.03925
1150.90 0.03924
1151.00 0.03923
1151.10 0.03921
1151.20 0.0392
1151.30 0.03919
1151.40 0.03917
1151.50 0.03916
1151.60 0.03915
1151.70 0.03913
1151.80 0.03912
1151.90 0.03911
1152.00 0.03909
1152.10 0.03908
1152.20 0.03907
1152.30 0.03905
1152.40 0.03904
1152.50 0.03903
1152.60 0.03901
1152.70 0.039
1152.80 0.03899
1152.90 0.03897
1153.00 0.03896
1153.10 0.03895
1153.20 0.03893
1153.30 0.03892
1153.40 0.03891
1153.50 0.03889
1153.60 0.03888
1153.70 0.03887
1153.80 0.03885
1153.90 0.03884
1154.00 0.03883
1154.10 0.03881
1154.20 0.0388
1154.30 0.03879
1154.40 0.03878
1154.50 0.03876
1154.60 0.03875
1154.70 0.03874
1154.80 0.03872
1154.90 0.03871
1155.00 0.0387
1155.10 0.03868
1155.20 0.03867
1155.30 0.03866
1155.40 0.03864
1155.50 0.03863
1155.60 0.03862
1155.70 0.03861
1155.80 0.03859
1155.90 0.03858
1156.00 0.03857
1156.10 0.03855
1156.20 0.03854
1156.30 0.03853
1156.40 0.03851
1156.50 0.0385
1156.60 0.03849
1156.70 0.03847
1156.80 0.03846
1156.90 0.03845
1157.00 0.03844
1157.10 0.03842
1157.20 0.03841
1157.30 0.0384
1157.40 0.03838
1157.50 0.03837
1157.60 0.03836
1157.70 0.03834
1157.80 0.03833
1157.90 0.03832
1158.00 0.03831
1158.10 0.03829
1158.20 0.03828
1158.30 0.03827
1158.40 0.03825
1158.50 0.03824
1158.60 0.03823
1158.70 0.03822
1158.80 0.0382
1158.90 0.03819
1159.00 0.03818
1159.10 0.03816
1159.20 0.03815
1159.30 0.03814
1159.40 0.03813
1159.50 0.03811
1159.60 0.0381
1159.70 0.03809
1159.80 0.03807
1159.90 0.03806
1160.00 0.03805
1160.10 0.03804
1160.20 0.03802
1160.30 0.03801
1160.40 0.038
1160.50 0.03798
1160.60 0.03797
1160.70 0.03796
1160.80 0.03795
1160.90 0.03793
1161.00 0.03792
1161.10 0.03791
1161.20 0.03789
1161.30 0.03788
1161.40 0.03787
1161.50 0.03786
1161.60 0.03784
1161.70 0.03783
1161.80 0.03782
1161.90 0.03781
1162.00 0.03779
1162.10 0.03778
1162.20 0.03777
1162.30 0.03775
1162.40 0.03774
1162.50 0.03773
1162.60 0.03772
1162.70 0.0377
1162.80 0.03769
1162.90 0.03768
1163.00 0.03767
1163.10 0.03765
1163.20 0.03764
1163.30 0.03763
1163.40 0.03762
1163.50 0.0376
1163.60 0.03759
1163.70 0.03758
1163.80 0.03756
1163.90 0.03755
1164.00 0.03754
1164.10 0.03753
1164.20 0.03751
1164.30 0.0375
1164.40 0.03749
1164.50 0.03748
1164.60 0.03746
1164.70 0.03745
1164.80 0.03744
1164.90 0.03743
1165.00 0.03741
1165.10 0.0374
1165.20 0.03739
1165.30 0.03738
1165.40 0.03736
1165.50 0.03735
1165.60 0.03734
1165.70 0.03733
1165.80 0.03731
1165.90 0.0373
1166.00 0.03729
1166.10 0.03728
1166.20 0.03726
1166.30 0.03725
1166.40 0.03724
1166.50 0.03723
1166.60 0.03721
1166.70 0.0372
1166.80 0.03719
1166.90 0.03718
1167.00 0.03716
1167.10 0.03715
1167.20 0.03714
1167.30 0.03713
1167.40 0.03711
1167.50 0.0371
1167.60 0.03709
1167.70 0.03708
1167.80 0.03706
1167.90 0.03705
1168.00 0.03704
1168.10 0.03703
1168.20 0.03701
1168.30 0.037
1168.40 0.03699
1168.50 0.03698
1168.60 0.03696
1168.70 0.03695
1168.80 0.03694
1168.90 0.03693
1169.00 0.03692
1169.10 0.0369
1169.20 0.03689
1169.30 0.03688
1169.40 0.03687
1169.50 0.03685
1169.60 0.03684
1169.70 0.03683
1169.80 0.03682
1169.90 0.0368
1170.00 0.03679
1170.10 0.03678
1170.20 0.03677
1170.30 0.03676
1170.40 0.03674
1170.50 0.03673
1170.60 0.03672
1170.70 0.03671
1170.80 0.03669
1170.90 0.03668
1171.00 0.03667
1171.10 0.03666
1171.20 0.03664
1171.30 0.03663
1171.40 0.03662
1171.50 0.03661
1171.60 0.0366
1171.70 0.03658
1171.80 0.03657
1171.90 0.03656
1172.00 0.03655
1172.10 0.03653
1172.20 0.03652
1172.30 0.03651
1172.40 0.0365
1172.50 0.03649
1172.60 0.03647
1172.70 0.03646
1172.80 0.03645
1172.90 0.03644
1173.00 0.03642
1173.10 0.03641
1173.20 0.0364
1173.30 0.03639
1173.40 0.03638
1173.50 0.03636
1173.60 0.03635
1173.70 0.03634
1173.80 0.03633
1173.90 0.03632
1174.00 0.0363
1174.10 0.03629
1174.20 0.03628
1174.30 0.03627
1174.40 0.03626
1174.50 0.03624
1174.60 0.03623
1174.70 0.03622
1174.80 0.03621
1174.90 0.0362
1175.00 0.03618
1175.10 0.03617
1175.20 0.03616
1175.30 0.03615
1175.40 0.03613
1175.50 0.03612
1175.60 0.03611
1175.70 0.0361
1175.80 0.03609
1175.90 0.03607
1176.00 0.03606
1176.10 0.03605
1176.20 0.03604
1176.30 0.03603
1176.40 0.03601
1176.50 0.036
1176.60 0.03599
1176.70 0.03598
1176.80 0.03597
1176.90 0.03595
1177.00 0.03594
1177.10 0.03593
1177.20 0.03592
1177.30 0.03591
1177.40 0.03589
1177.50 0.03588
1177.60 0.03587
1177.70 0.03586
1177.80 0.03585
1177.90 0.03584
1178.00 0.03582
1178.10 0.03581
1178.20 0.0358
1178.30 0.03579
1178.40 0.03578
1178.50 0.03576
1178.60 0.03575
1178.70 0.03574
1178.80 0.03573
1178.90 0.03572
1179.00 0.0357
1179.10 0.03569
1179.20 0.03568
1179.30 0.03567
1179.40 0.03566
1179.50 0.03565
1179.60 0.03563
1179.70 0.03562
1179.80 0.03561
1179.90 0.0356
1180.00 0.03559
1180.10 0.03557
1180.20 0.03556
1180.30 0.03555
1180.40 0.03554
1180.50 0.03553
1180.60 0.03552
1180.70 0.0355
1180.80 0.03549
1180.90 0.03548
1181.00 0.03547
1181.10 0.03546
1181.20 0.03545
1181.30 0.03543
1181.40 0.03542
1181.50 0.03541
1181.60 0.0354
1181.70 0.03539
1181.80 0.03537
1181.90 0.03536
1182.00 0.03535
1182.10 0.03534
1182.20 0.03533
1182.30 0.03532
1182.40 0.0353
1182.50 0.03529
1182.60 0.03528
1182.70 0.03527
1182.80 0.03526
1182.90 0.03525
1183.00 0.03523
1183.10 0.03522
1183.20 0.03521
1183.30 0.0352
1183.40 0.03519
1183.50 0.03518
1183.60 0.03516
1183.70 0.03515
1183.80 0.03514
1183.90 0.03513
1184.00 0.03512
1184.10 0.03511
1184.20 0.0351
1184.30 0.03508
1184.40 0.03507
1184.50 0.03506
1184.60 0.03505
1184.70 0.03504
1184.80 0.03503
1184.90 0.03501
1185.00 0.035
1185.10 0.03499
1185.20 0.03498
1185.30 0.03497
1185.40 0.03496
1185.50 0.03494
1185.60 0.03493
1185.70 0.03492
1185.80 0.03491
1185.90 0.0349
1186.00 0.03489
1186.10 0.03488
1186.20 0.03486
1186.30 0.03485
1186.40 0.03484
1186.50 0.03483
1186.60 0.03482
1186.70 0.03481
1186.80 0.03479
1186.90 0.03478
1187.00 0.03477
1187.10 0.03476
1187.20 0.03475
1187.30 0.03474
1187.40 0.03473
1187.50 0.03471
1187.60 0.0347
1187.70 0.03469
1187.80 0.03468
1187.90 0.03467
1188.00 0.03466
1188.10 0.03465
1188.20 0.03463
1188.30 0.03462
1188.40 0.03461
1188.50 0.0346
1188.60 0.03459
1188.70 0.03458
1188.80 0.03457
1188.90 0.03455
1189.00 0.03454
1189.10 0.03453
1189.20 0.03452
1189.30 0.03451
1189.40 0.0345
1189.50 0.03449
1189.60 0.03448
1189.70 0.03446
1189.80 0.03445
1189.90 0.03444
1190.00 0.03443
1190.10 0.03442
1190.20 0.03441
1190.30 0.0344
1190.40 0.03438
1190.50 0.03437
1190.60 0.03436
1190.70 0.03435
1190.80 0.03434
1190.90 0.03433
1191.00 0.03432
1191.10 0.03431
1191.20 0.03429
1191.30 0.03428
1191.40 0.03427
1191.50 0.03426
1191.60 0.03425
1191.70 0.03424
1191.80 0.03423
1191.90 0.03422
1192.00 0.0342
1192.10 0.03419
1192.20 0.03418
1192.30 0.03417
1192.40 0.03416
1192.50 0.03415
1192.60 0.03414
1192.70 0.03413
1192.80 0.03411
1192.90 0.0341
1193.00 0.03409
1193.10 0.03408
1193.20 0.03407
1193.30 0.03406
1193.40 0.03405
1193.50 0.03404
1193.60 0.03403
1193.70 0.03401
1193.80 0.034
1193.90 0.03399
1194.00 0.03398
1194.10 0.03397
1194.20 0.03396
1194.30 0.03395
1194.40 0.03394
1194.50 0.03392
1194.60 0.03391
1194.70 0.0339
1194.80 0.03389
1194.90 0.03388
1195.00 0.03387
1195.10 0.03386
1195.20 0.03385
1195.30 0.03384
1195.40 0.03382
1195.50 0.03381
1195.60 0.0338
1195.70 0.03379
1195.80 0.03378
1195.90 0.03377
1196.00 0.03376
1196.10 0.03375
1196.20 0.03374
1196.30 0.03373
1196.40 0.03371
1196.50 0.0337
1196.60 0.03369
1196.70 0.03368
1196.80 0.03367
1196.90 0.03366
1197.00 0.03365
1197.10 0.03364
1197.20 0.03363
1197.30 0.03361
1197.40 0.0336
1197.50 0.03359
1197.60 0.03358
1197.70 0.03357
1197.80 0.03356
1197.90 0.03355
1198.00 0.03354
1198.10 0.03353
1198.20 0.03352
1198.30 0.03351
1198.40 0.03349
1198.50 0.03348
1198.60 0.03347
1198.70 0.03346
1198.80 0.03345
1198.90 0.03344
1199.00 0.03343
1199.10 0.03342
1199.20 0.03341
1199.30 0.0334
1199.40 0.03339
1199.50 0.03337
1199.60 0.03336
1199.70 0.03335
1199.80 0.03334
1199.90 0.03333
1200.00 0
