# Version 2.1 - nm, norm@500 to 1, cut digits, bergeron_55000_65.dat_55000
# Wavelength(nm)  Flambda(ergs/cm^s/s/nm)
300.00 6.288
300.10 6.28
300.20 6.272
300.30 6.265
300.40 6.257
300.50 6.25
300.60 6.242
300.70 6.235
300.80 6.227
300.90 6.219
301.00 6.212
301.10 6.204
301.20 6.197
301.30 6.189
301.40 6.182
301.50 6.175
301.60 6.167
301.70 6.16
301.80 6.152
301.90 6.145
302.00 6.137
302.10 6.13
302.20 6.123
302.30 6.115
302.40 6.108
302.50 6.101
302.60 6.093
302.70 6.086
302.80 6.079
302.90 6.071
303.00 6.064
303.10 6.057
303.20 6.049
303.30 6.042
303.40 6.035
303.50 6.028
303.60 6.02
303.70 6.013
303.80 6.006
303.90 5.999
304.00 5.992
304.10 5.984
304.20 5.977
304.30 5.97
304.40 5.963
304.50 5.956
304.60 5.949
304.70 5.942
304.80 5.935
304.90 5.927
305.00 5.92
305.10 5.913
305.20 5.906
305.30 5.899
305.40 5.892
305.50 5.885
305.60 5.878
305.70 5.871
305.80 5.864
305.90 5.857
306.00 5.85
306.10 5.843
306.20 5.836
306.30 5.829
306.40 5.822
306.50 5.815
306.60 5.808
306.70 5.802
306.80 5.795
306.90 5.788
307.00 5.781
307.10 5.774
307.20 5.767
307.30 5.76
307.40 5.754
307.50 5.747
307.60 5.74
307.70 5.733
307.80 5.726
307.90 5.72
308.00 5.713
308.10 5.706
308.20 5.699
308.30 5.693
308.40 5.686
308.50 5.679
308.60 5.672
308.70 5.666
308.80 5.659
308.90 5.652
309.00 5.646
309.10 5.639
309.20 5.632
309.30 5.626
309.40 5.619
309.50 5.612
309.60 5.606
309.70 5.599
309.80 5.593
309.90 5.586
310.00 5.58
310.10 5.573
310.20 5.566
310.30 5.56
310.40 5.553
310.50 5.547
310.60 5.54
310.70 5.534
310.80 5.527
310.90 5.521
311.00 5.514
311.10 5.508
311.20 5.501
311.30 5.495
311.40 5.489
311.50 5.482
311.60 5.476
311.70 5.469
311.80 5.463
311.90 5.456
312.00 5.45
312.10 5.444
312.20 5.437
312.30 5.431
312.40 5.425
312.50 5.418
312.60 5.412
312.70 5.406
312.80 5.399
312.90 5.393
313.00 5.387
313.10 5.38
313.20 5.374
313.30 5.368
313.40 5.362
313.50 5.355
313.60 5.349
313.70 5.343
313.80 5.337
313.90 5.331
314.00 5.324
314.10 5.318
314.20 5.312
314.30 5.306
314.40 5.3
314.50 5.294
314.60 5.287
314.70 5.281
314.80 5.275
314.90 5.269
315.00 5.263
315.10 5.257
315.20 5.251
315.30 5.245
315.40 5.239
315.50 5.233
315.60 5.226
315.70 5.22
315.80 5.214
315.90 5.208
316.00 5.202
316.10 5.196
316.20 5.19
316.30 5.184
316.40 5.178
316.50 5.172
316.60 5.166
316.70 5.16
316.80 5.154
316.90 5.149
317.00 5.143
317.10 5.137
317.20 5.131
317.30 5.125
317.40 5.119
317.50 5.113
317.60 5.107
317.70 5.101
317.80 5.095
317.90 5.09
318.00 5.084
318.10 5.078
318.20 5.072
318.30 5.066
318.40 5.06
318.50 5.055
318.60 5.049
318.70 5.043
318.80 5.037
318.90 5.031
319.00 5.026
319.10 5.02
319.20 5.014
319.30 5.008
319.40 5.003
319.50 4.997
319.60 4.991
319.70 4.986
319.80 4.98
319.90 4.974
320.00 4.968
320.10 4.963
320.20 4.957
320.30 4.952
320.40 4.946
320.50 4.94
320.60 4.935
320.70 4.929
320.80 4.923
320.90 4.918
321.00 4.912
321.10 4.907
321.20 4.901
321.30 4.895
321.40 4.89
321.50 4.884
321.60 4.879
321.70 4.873
321.80 4.868
321.90 4.862
322.00 4.857
322.10 4.851
322.20 4.846
322.30 4.84
322.40 4.835
322.50 4.829
322.60 4.824
322.70 4.818
322.80 4.813
322.90 4.807
323.00 4.802
323.10 4.796
323.20 4.791
323.30 4.785
323.40 4.78
323.50 4.775
323.60 4.769
323.70 4.764
323.80 4.758
323.90 4.753
324.00 4.748
324.10 4.742
324.20 4.737
324.30 4.732
324.40 4.726
324.50 4.721
324.60 4.716
324.70 4.71
324.80 4.705
324.90 4.7
325.00 4.694
325.10 4.689
325.20 4.684
325.30 4.679
325.40 4.673
325.50 4.668
325.60 4.663
325.70 4.658
325.80 4.652
325.90 4.647
326.00 4.642
326.10 4.637
326.20 4.632
326.30 4.626
326.40 4.621
326.50 4.616
326.60 4.611
326.70 4.606
326.80 4.6
326.90 4.595
327.00 4.59
327.10 4.585
327.20 4.58
327.30 4.575
327.40 4.57
327.50 4.565
327.60 4.559
327.70 4.554
327.80 4.549
327.90 4.544
328.00 4.539
328.10 4.534
328.20 4.529
328.30 4.524
328.40 4.519
328.50 4.514
328.60 4.509
328.70 4.504
328.80 4.499
328.90 4.494
329.00 4.489
329.10 4.484
329.20 4.479
329.30 4.474
329.40 4.469
329.50 4.464
329.60 4.459
329.70 4.454
329.80 4.449
329.90 4.444
330.00 4.439
330.10 4.434
330.20 4.429
330.30 4.424
330.40 4.42
330.50 4.415
330.60 4.41
330.70 4.405
330.80 4.4
330.90 4.395
331.00 4.39
331.10 4.385
331.20 4.381
331.30 4.376
331.40 4.371
331.50 4.366
331.60 4.361
331.70 4.356
331.80 4.352
331.90 4.347
332.00 4.342
332.10 4.337
332.20 4.332
332.30 4.328
332.40 4.323
332.50 4.318
332.60 4.313
332.70 4.309
332.80 4.304
332.90 4.299
333.00 4.294
333.10 4.29
333.20 4.285
333.30 4.28
333.40 4.275
333.50 4.271
333.60 4.266
333.70 4.261
333.80 4.257
333.90 4.252
334.00 4.247
334.10 4.243
334.20 4.238
334.30 4.233
334.40 4.229
334.50 4.224
334.60 4.219
334.70 4.215
334.80 4.21
334.90 4.206
335.00 4.201
335.10 4.196
335.20 4.192
335.30 4.187
335.40 4.183
335.50 4.178
335.60 4.173
335.70 4.169
335.80 4.164
335.90 4.16
336.00 4.155
336.10 4.151
336.20 4.146
336.30 4.142
336.40 4.137
336.50 4.133
336.60 4.128
336.70 4.124
336.80 4.119
336.90 4.115
337.00 4.11
337.10 4.106
337.20 4.101
337.30 4.097
337.40 4.092
337.50 4.088
337.60 4.083
337.70 4.079
337.80 4.075
337.90 4.07
338.00 4.066
338.10 4.061
338.20 4.057
338.30 4.052
338.40 4.048
338.50 4.044
338.60 4.039
338.70 4.035
338.80 4.031
338.90 4.026
339.00 4.022
339.10 4.018
339.20 4.013
339.30 4.009
339.40 4.004
339.50 4
339.60 3.996
339.70 3.991
339.80 3.987
339.90 3.983
340.00 3.979
340.10 3.974
340.20 3.97
340.30 3.966
340.40 3.961
340.50 3.957
340.60 3.953
340.70 3.949
340.80 3.944
340.90 3.94
341.00 3.936
341.10 3.932
341.20 3.927
341.30 3.923
341.40 3.919
341.50 3.915
341.60 3.911
341.70 3.906
341.80 3.902
341.90 3.898
342.00 3.894
342.10 3.89
342.20 3.885
342.30 3.881
342.40 3.877
342.50 3.873
342.60 3.869
342.70 3.865
342.80 3.86
342.90 3.856
343.00 3.852
343.10 3.848
343.20 3.844
343.30 3.84
343.40 3.836
343.50 3.832
343.60 3.828
343.70 3.823
343.80 3.819
343.90 3.815
344.00 3.811
344.10 3.807
344.20 3.803
344.30 3.799
344.40 3.795
344.50 3.791
344.60 3.787
344.70 3.783
344.80 3.779
344.90 3.775
345.00 3.771
345.10 3.767
345.20 3.763
345.30 3.759
345.40 3.755
345.50 3.751
345.60 3.747
345.70 3.743
345.80 3.739
345.90 3.735
346.00 3.731
346.10 3.727
346.20 3.723
346.30 3.719
346.40 3.715
346.50 3.711
346.60 3.707
346.70 3.703
346.80 3.699
346.90 3.695
347.00 3.691
347.10 3.688
347.20 3.684
347.30 3.68
347.40 3.676
347.50 3.672
347.60 3.668
347.70 3.664
347.80 3.66
347.90 3.656
348.00 3.653
348.10 3.649
348.20 3.645
348.30 3.641
348.40 3.637
348.50 3.633
348.60 3.629
348.70 3.626
348.80 3.622
348.90 3.618
349.00 3.614
349.10 3.61
349.20 3.607
349.30 3.603
349.40 3.599
349.50 3.595
349.60 3.591
349.70 3.588
349.80 3.584
349.90 3.58
350.00 3.576
350.10 3.573
350.20 3.569
350.30 3.565
350.40 3.561
350.50 3.558
350.60 3.554
350.70 3.55
350.80 3.546
350.90 3.543
351.00 3.539
351.10 3.535
351.20 3.532
351.30 3.528
351.40 3.524
351.50 3.52
351.60 3.517
351.70 3.513
351.80 3.509
351.90 3.506
352.00 3.502
352.10 3.498
352.20 3.495
352.30 3.491
352.40 3.487
352.50 3.484
352.60 3.48
352.70 3.477
352.80 3.473
352.90 3.469
353.00 3.466
353.10 3.462
353.20 3.458
353.30 3.455
353.40 3.451
353.50 3.448
353.60 3.444
353.70 3.44
353.80 3.437
353.90 3.433
354.00 3.43
354.10 3.426
354.20 3.423
354.30 3.419
354.40 3.416
354.50 3.412
354.60 3.408
354.70 3.405
354.80 3.401
354.90 3.398
355.00 3.394
355.10 3.391
355.20 3.387
355.30 3.384
355.40 3.38
355.50 3.377
355.60 3.373
355.70 3.37
355.80 3.366
355.90 3.363
356.00 3.359
356.10 3.356
356.20 3.352
356.30 3.349
356.40 3.345
356.50 3.342
356.60 3.339
356.70 3.335
356.80 3.332
356.90 3.328
357.00 3.325
357.10 3.321
357.20 3.318
357.30 3.315
357.40 3.311
357.50 3.308
357.60 3.304
357.70 3.301
357.80 3.297
357.90 3.294
358.00 3.291
358.10 3.287
358.20 3.284
358.30 3.281
358.40 3.277
358.50 3.274
358.60 3.27
358.70 3.267
358.80 3.264
358.90 3.26
359.00 3.257
359.10 3.254
359.20 3.25
359.30 3.247
359.40 3.244
359.50 3.24
359.60 3.237
359.70 3.234
359.80 3.23
359.90 3.227
360.00 3.224
360.10 3.22
360.20 3.217
360.30 3.214
360.40 3.211
360.50 3.207
360.60 3.204
360.70 3.201
360.80 3.197
360.90 3.194
361.00 3.191
361.10 3.188
361.20 3.184
361.30 3.181
361.40 3.178
361.50 3.175
361.60 3.171
361.70 3.168
361.80 3.165
361.90 3.162
362.00 3.159
362.10 3.155
362.20 3.152
362.30 3.149
362.40 3.146
362.50 3.142
362.60 3.139
362.70 3.136
362.80 3.133
362.90 3.13
363.00 3.127
363.10 3.123
363.20 3.12
363.30 3.117
363.40 3.114
363.50 3.111
363.60 3.108
363.70 3.104
363.80 3.101
363.90 3.098
364.00 3.095
364.10 3.092
364.20 3.089
364.30 3.086
364.40 3.082
364.50 3.079
364.60 3.076
364.70 3.073
364.80 3.07
364.90 3.067
365.00 3.064
365.10 3.061
365.20 3.058
365.30 3.055
365.40 3.051
365.50 3.048
365.60 3.045
365.70 3.042
365.80 3.039
365.90 3.036
366.00 3.033
366.10 3.03
366.20 3.027
366.30 3.023
366.40 3.02
366.50 3.017
366.60 3.014
366.70 3.011
366.80 3.008
366.90 3.004
367.00 3.001
367.10 2.998
367.20 2.995
367.30 2.992
367.40 2.989
367.50 2.986
367.60 2.982
367.70 2.979
367.80 2.976
367.90 2.973
368.00 2.97
368.10 2.967
368.20 2.964
368.30 2.961
368.40 2.958
368.50 2.954
368.60 2.951
368.70 2.948
368.80 2.945
368.90 2.942
369.00 2.939
369.10 2.936
369.20 2.933
369.30 2.93
369.40 2.927
369.50 2.924
369.60 2.921
369.70 2.918
369.80 2.915
369.90 2.912
370.00 2.909
370.10 2.906
370.20 2.903
370.30 2.9
370.40 2.897
370.50 2.894
370.60 2.891
370.70 2.888
370.80 2.885
370.90 2.882
371.00 2.879
371.10 2.876
371.20 2.873
371.30 2.87
371.40 2.867
371.50 2.864
371.60 2.862
371.70 2.859
371.80 2.856
371.90 2.853
372.00 2.85
372.10 2.847
372.20 2.844
372.30 2.842
372.40 2.839
372.50 2.836
372.60 2.834
372.70 2.831
372.80 2.828
372.90 2.826
373.00 2.823
373.10 2.82
373.20 2.818
373.30 2.815
373.40 2.812
373.50 2.81
373.60 2.807
373.70 2.804
373.80 2.802
373.90 2.799
374.00 2.796
374.10 2.794
374.20 2.791
374.30 2.789
374.40 2.786
374.50 2.784
374.60 2.782
374.70 2.779
374.80 2.777
374.90 2.774
375.00 2.772
375.10 2.769
375.20 2.767
375.30 2.764
375.40 2.762
375.50 2.759
375.60 2.757
375.70 2.755
375.80 2.752
375.90 2.75
376.00 2.747
376.10 2.744
376.20 2.741
376.30 2.738
376.40 2.734
376.50 2.731
376.60 2.728
376.70 2.725
376.80 2.721
376.90 2.718
377.00 2.715
377.10 2.714
377.20 2.712
377.30 2.711
377.40 2.71
377.50 2.709
377.60 2.707
377.70 2.706
377.80 2.705
377.90 2.704
378.00 2.703
378.10 2.699
378.20 2.696
378.30 2.693
378.40 2.689
378.50 2.686
378.60 2.683
378.70 2.679
378.80 2.676
378.90 2.673
379.00 2.67
379.10 2.666
379.20 2.662
379.30 2.658
379.40 2.654
379.50 2.65
379.60 2.646
379.70 2.643
379.80 2.639
379.90 2.635
380.00 2.631
380.10 2.632
380.20 2.633
380.30 2.634
380.40 2.635
380.50 2.635
380.60 2.636
380.70 2.637
380.80 2.638
380.90 2.639
381.00 2.64
381.10 2.638
381.20 2.637
381.30 2.635
381.40 2.633
381.50 2.632
381.60 2.629
381.70 2.625
381.80 2.622
381.90 2.617
382.00 2.613
382.10 2.607
382.20 2.602
382.30 2.593
382.40 2.585
382.50 2.576
382.60 2.568
382.70 2.56
382.80 2.551
382.90 2.543
383.00 2.534
383.10 2.526
383.20 2.518
383.30 2.507
383.40 2.497
383.50 2.489
383.60 2.488
383.70 2.493
383.80 2.5
383.90 2.507
384.00 2.513
384.10 2.519
384.20 2.525
384.30 2.531
384.40 2.536
384.50 2.54
384.60 2.545
384.70 2.548
384.80 2.551
384.90 2.554
385.00 2.556
385.10 2.558
385.20 2.56
385.30 2.561
385.40 2.561
385.50 2.561
385.60 2.561
385.70 2.56
385.80 2.559
385.90 2.558
386.00 2.556
386.10 2.554
386.20 2.551
386.30 2.548
386.40 2.545
386.50 2.541
386.60 2.536
386.70 2.532
386.80 2.526
386.90 2.52
387.00 2.514
387.10 2.507
387.20 2.5
387.30 2.491
387.40 2.483
387.50 2.473
387.60 2.463
387.70 2.452
387.80 2.44
387.90 2.428
388.00 2.415
388.10 2.401
388.20 2.386
388.30 2.37
388.40 2.354
388.50 2.337
388.60 2.319
388.70 2.302
388.80 2.289
388.90 2.28
389.00 2.284
389.10 2.293
389.20 2.306
389.30 2.319
389.40 2.332
389.50 2.345
389.60 2.356
389.70 2.367
389.80 2.378
389.90 2.387
390.00 2.395
390.10 2.403
390.20 2.41
390.30 2.417
390.40 2.422
390.50 2.427
390.60 2.432
390.70 2.436
390.80 2.44
390.90 2.443
391.00 2.445
391.10 2.447
391.20 2.449
391.30 2.451
391.40 2.452
391.50 2.453
391.60 2.453
391.70 2.453
391.80 2.453
391.90 2.453
392.00 2.452
392.10 2.452
392.20 2.451
392.30 2.45
392.40 2.448
392.50 2.447
392.60 2.445
392.70 2.443
392.80 2.441
392.90 2.439
393.00 2.437
393.10 2.434
393.20 2.432
393.30 2.429
393.40 2.426
393.50 2.423
393.60 2.419
393.70 2.416
393.80 2.412
393.90 2.408
394.00 2.403
394.10 2.399
394.20 2.394
394.30 2.389
394.40 2.383
394.50 2.377
394.60 2.371
394.70 2.364
394.80 2.357
394.90 2.35
395.00 2.342
395.10 2.333
395.20 2.324
395.30 2.314
395.40 2.303
395.50 2.292
395.60 2.279
395.70 2.266
395.80 2.252
395.90 2.237
396.00 2.22
396.10 2.203
396.20 2.184
396.30 2.165
396.40 2.144
396.50 2.122
396.60 2.099
396.70 2.074
396.80 2.048
396.90 2.022
397.00 1.996
397.10 2.016
397.20 2.037
397.30 2.06
397.40 2.081
397.50 2.1
397.60 2.119
397.70 2.136
397.80 2.152
397.90 2.167
398.00 2.18
398.10 2.192
398.20 2.203
398.30 2.213
398.40 2.222
398.50 2.231
398.60 2.238
398.70 2.244
398.80 2.25
398.90 2.255
399.00 2.26
399.10 2.264
399.20 2.267
399.30 2.27
399.40 2.273
399.50 2.275
399.60 2.277
399.70 2.279
399.80 2.28
399.90 2.281
400.00 2.281
400.10 2.282
400.20 2.282
400.30 2.282
400.40 2.282
400.50 2.282
400.60 2.281
400.70 2.281
400.80 2.28
400.90 2.279
401.00 2.278
401.10 2.277
401.20 2.276
401.30 2.275
401.40 2.274
401.50 2.272
401.60 2.271
401.70 2.27
401.80 2.268
401.90 2.267
402.00 2.265
402.10 2.263
402.20 2.262
402.30 2.26
402.40 2.258
402.50 2.256
402.60 2.255
402.70 2.253
402.80 2.251
402.90 2.249
403.00 2.247
403.10 2.245
403.20 2.243
403.30 2.241
403.40 2.239
403.50 2.237
403.60 2.235
403.70 2.233
403.80 2.231
403.90 2.229
404.00 2.227
404.10 2.224
404.20 2.222
404.30 2.22
404.40 2.218
404.50 2.215
404.60 2.213
404.70 2.211
404.80 2.208
404.90 2.206
405.00 2.203
405.10 2.201
405.20 2.198
405.30 2.196
405.40 2.193
405.50 2.191
405.60 2.188
405.70 2.185
405.80 2.182
405.90 2.179
406.00 2.176
406.10 2.173
406.20 2.17
406.30 2.167
406.40 2.163
406.50 2.16
406.60 2.156
406.70 2.153
406.80 2.149
406.90 2.145
407.00 2.141
407.10 2.136
407.20 2.132
407.30 2.127
407.40 2.122
407.50 2.116
407.60 2.111
407.70 2.105
407.80 2.098
407.90 2.091
408.00 2.084
408.10 2.077
408.20 2.068
408.30 2.059
408.40 2.05
408.50 2.039
408.60 2.028
408.70 2.016
408.80 2.003
408.90 1.989
409.00 1.974
409.10 1.958
409.20 1.941
409.30 1.922
409.40 1.902
409.50 1.88
409.60 1.857
409.70 1.832
409.80 1.805
409.90 1.777
410.00 1.742
410.10 1.717
410.20 1.701
410.30 1.727
410.40 1.754
410.50 1.783
410.60 1.807
410.70 1.829
410.80 1.85
410.90 1.868
411.00 1.886
411.10 1.902
411.20 1.916
411.30 1.929
411.40 1.941
411.50 1.951
411.60 1.961
411.70 1.97
411.80 1.977
411.90 1.984
412.00 1.99
412.10 1.995
412.20 2
412.30 2.004
412.40 2.008
412.50 2.011
412.60 2.013
412.70 2.016
412.80 2.017
412.90 2.019
413.00 2.02
413.10 2.021
413.20 2.022
413.30 2.023
413.40 2.023
413.50 2.023
413.60 2.023
413.70 2.023
413.80 2.023
413.90 2.022
414.00 2.022
414.10 2.021
414.20 2.021
414.30 2.02
414.40 2.019
414.50 2.018
414.60 2.017
414.70 2.016
414.80 2.015
414.90 2.014
415.00 2.013
415.10 2.012
415.20 2.01
415.30 2.009
415.40 2.008
415.50 2.006
415.60 2.005
415.70 2.004
415.80 2.002
415.90 2.001
416.00 1.999
416.10 1.998
416.20 1.996
416.30 1.995
416.40 1.993
416.50 1.992
416.60 1.99
416.70 1.988
416.80 1.987
416.90 1.985
417.00 1.984
417.10 1.982
417.20 1.98
417.30 1.979
417.40 1.977
417.50 1.976
417.60 1.974
417.70 1.972
417.80 1.971
417.90 1.969
418.00 1.967
418.10 1.966
418.20 1.964
418.30 1.962
418.40 1.961
418.50 1.959
418.60 1.957
418.70 1.956
418.80 1.954
418.90 1.952
419.00 1.951
419.10 1.949
419.20 1.947
419.30 1.945
419.40 1.944
419.50 1.942
419.60 1.94
419.70 1.939
419.80 1.937
419.90 1.935
420.00 1.934
420.10 1.932
420.20 1.93
420.30 1.929
420.40 1.927
420.50 1.925
420.60 1.923
420.70 1.922
420.80 1.92
420.90 1.918
421.00 1.917
421.10 1.915
421.20 1.913
421.30 1.912
421.40 1.91
421.50 1.908
421.60 1.906
421.70 1.905
421.80 1.903
421.90 1.901
422.00 1.9
422.10 1.898
422.20 1.896
422.30 1.895
422.40 1.893
422.50 1.891
422.60 1.889
422.70 1.888
422.80 1.886
422.90 1.884
423.00 1.883
423.10 1.881
423.20 1.879
423.30 1.878
423.40 1.876
423.50 1.874
423.60 1.873
423.70 1.871
423.80 1.869
423.90 1.867
424.00 1.866
424.10 1.864
424.20 1.862
424.30 1.861
424.40 1.859
424.50 1.857
424.60 1.856
424.70 1.854
424.80 1.852
424.90 1.85
425.00 1.849
425.10 1.847
425.20 1.845
425.30 1.844
425.40 1.842
425.50 1.84
425.60 1.839
425.70 1.837
425.80 1.835
425.90 1.833
426.00 1.832
426.10 1.83
426.20 1.828
426.30 1.826
426.40 1.825
426.50 1.823
426.60 1.821
426.70 1.82
426.80 1.818
426.90 1.816
427.00 1.814
427.10 1.812
427.20 1.811
427.30 1.809
427.40 1.807
427.50 1.805
427.60 1.804
427.70 1.802
427.80 1.8
427.90 1.798
428.00 1.796
428.10 1.794
428.20 1.792
428.30 1.791
428.40 1.789
428.50 1.787
428.60 1.785
428.70 1.783
428.80 1.781
428.90 1.779
429.00 1.777
429.10 1.775
429.20 1.773
429.30 1.771
429.40 1.768
429.50 1.766
429.60 1.764
429.70 1.762
429.80 1.759
429.90 1.757
430.00 1.755
430.10 1.752
430.20 1.75
430.30 1.747
430.40 1.744
430.50 1.741
430.60 1.738
430.70 1.735
430.80 1.732
430.90 1.729
431.00 1.725
431.10 1.722
431.20 1.718
431.30 1.714
431.40 1.71
431.50 1.705
431.60 1.7
431.70 1.695
431.80 1.69
431.90 1.684
432.00 1.678
432.10 1.671
432.20 1.664
432.30 1.656
432.40 1.648
432.50 1.638
432.60 1.628
432.70 1.618
432.80 1.606
432.90 1.593
433.00 1.579
433.10 1.564
433.20 1.548
433.30 1.531
433.40 1.511
433.50 1.49
433.60 1.468
433.70 1.443
433.80 1.414
433.90 1.38
434.00 1.342
434.10 1.342
434.20 1.38
434.30 1.41
434.40 1.437
434.50 1.459
434.60 1.479
434.70 1.497
434.80 1.513
434.90 1.528
435.00 1.541
435.10 1.553
435.20 1.564
435.30 1.574
435.40 1.583
435.50 1.59
435.60 1.597
435.70 1.603
435.80 1.609
435.90 1.614
436.00 1.618
436.10 1.621
436.20 1.625
436.30 1.627
436.40 1.63
436.50 1.632
436.60 1.633
436.70 1.635
436.80 1.636
436.90 1.637
437.00 1.638
437.10 1.638
437.20 1.639
437.30 1.639
437.40 1.639
437.50 1.639
437.60 1.639
437.70 1.639
437.80 1.638
437.90 1.638
438.00 1.637
438.10 1.637
438.20 1.636
438.30 1.635
438.40 1.635
438.50 1.634
438.60 1.633
438.70 1.632
438.80 1.631
438.90 1.631
439.00 1.63
439.10 1.629
439.20 1.628
439.30 1.627
439.40 1.626
439.50 1.625
439.60 1.623
439.70 1.622
439.80 1.621
439.90 1.62
440.00 1.619
440.10 1.618
440.20 1.617
440.30 1.616
440.40 1.614
440.50 1.613
440.60 1.612
440.70 1.611
440.80 1.61
440.90 1.608
441.00 1.607
441.10 1.606
441.20 1.605
441.30 1.603
441.40 1.602
441.50 1.601
441.60 1.6
441.70 1.598
441.80 1.597
441.90 1.596
442.00 1.594
442.10 1.593
442.20 1.592
442.30 1.591
442.40 1.589
442.50 1.588
442.60 1.587
442.70 1.585
442.80 1.584
442.90 1.583
443.00 1.582
443.10 1.58
443.20 1.579
443.30 1.578
443.40 1.576
443.50 1.575
443.60 1.574
443.70 1.573
443.80 1.571
443.90 1.57
444.00 1.569
444.10 1.567
444.20 1.566
444.30 1.565
444.40 1.563
444.50 1.562
444.60 1.561
444.70 1.56
444.80 1.558
444.90 1.557
445.00 1.556
445.10 1.554
445.20 1.553
445.30 1.552
445.40 1.551
445.50 1.549
445.60 1.548
445.70 1.547
445.80 1.545
445.90 1.544
446.00 1.543
446.10 1.541
446.20 1.54
446.30 1.539
446.40 1.538
446.50 1.536
446.60 1.535
446.70 1.534
446.80 1.532
446.90 1.531
447.00 1.53
447.10 1.529
447.20 1.527
447.30 1.526
447.40 1.525
447.50 1.524
447.60 1.522
447.70 1.521
447.80 1.52
447.90 1.518
448.00 1.517
448.10 1.516
448.20 1.515
448.30 1.513
448.40 1.512
448.50 1.511
448.60 1.51
448.70 1.508
448.80 1.507
448.90 1.506
449.00 1.504
449.10 1.503
449.20 1.502
449.30 1.501
449.40 1.499
449.50 1.498
449.60 1.497
449.70 1.496
449.80 1.494
449.90 1.493
450.00 1.492
450.10 1.491
450.20 1.489
450.30 1.488
450.40 1.487
450.50 1.486
450.60 1.484
450.70 1.483
450.80 1.482
450.90 1.481
451.00 1.48
451.10 1.478
451.20 1.477
451.30 1.476
451.40 1.475
451.50 1.473
451.60 1.472
451.70 1.471
451.80 1.47
451.90 1.468
452.00 1.467
452.10 1.466
452.20 1.465
452.30 1.464
452.40 1.462
452.50 1.461
452.60 1.46
452.70 1.459
452.80 1.457
452.90 1.456
453.00 1.455
453.10 1.454
453.20 1.453
453.30 1.451
453.40 1.45
453.50 1.449
453.60 1.448
453.70 1.447
453.80 1.445
453.90 1.444
454.00 1.443
454.10 1.442
454.20 1.441
454.30 1.439
454.40 1.438
454.50 1.437
454.60 1.436
454.70 1.435
454.80 1.433
454.90 1.432
455.00 1.431
455.10 1.43
455.20 1.429
455.30 1.427
455.40 1.426
455.50 1.425
455.60 1.424
455.70 1.423
455.80 1.421
455.90 1.42
456.00 1.419
456.10 1.418
456.20 1.417
456.30 1.416
456.40 1.414
456.50 1.413
456.60 1.412
456.70 1.411
456.80 1.41
456.90 1.409
457.00 1.407
457.10 1.406
457.20 1.405
457.30 1.404
457.40 1.403
457.50 1.402
457.60 1.4
457.70 1.399
457.80 1.398
457.90 1.397
458.00 1.396
458.10 1.395
458.20 1.393
458.30 1.392
458.40 1.391
458.50 1.39
458.60 1.389
458.70 1.388
458.80 1.387
458.90 1.385
459.00 1.384
459.10 1.383
459.20 1.382
459.30 1.381
459.40 1.38
459.50 1.379
459.60 1.377
459.70 1.376
459.80 1.375
459.90 1.374
460.00 1.373
460.10 1.372
460.20 1.371
460.30 1.37
460.40 1.368
460.50 1.367
460.60 1.366
460.70 1.365
460.80 1.364
460.90 1.363
461.00 1.362
461.10 1.361
461.20 1.359
461.30 1.358
461.40 1.357
461.50 1.356
461.60 1.355
461.70 1.354
461.80 1.353
461.90 1.352
462.00 1.35
462.10 1.349
462.20 1.348
462.30 1.347
462.40 1.346
462.50 1.345
462.60 1.344
462.70 1.343
462.80 1.342
462.90 1.341
463.00 1.339
463.10 1.338
463.20 1.337
463.30 1.336
463.40 1.335
463.50 1.334
463.60 1.333
463.70 1.332
463.80 1.331
463.90 1.33
464.00 1.329
464.10 1.327
464.20 1.326
464.30 1.325
464.40 1.324
464.50 1.323
464.60 1.322
464.70 1.321
464.80 1.32
464.90 1.319
465.00 1.318
465.10 1.317
465.20 1.316
465.30 1.314
465.40 1.313
465.50 1.312
465.60 1.311
465.70 1.31
465.80 1.309
465.90 1.308
466.00 1.307
466.10 1.306
466.20 1.305
466.30 1.304
466.40 1.303
466.50 1.302
466.60 1.301
466.70 1.3
466.80 1.298
466.90 1.297
467.00 1.296
467.10 1.295
467.20 1.294
467.30 1.293
467.40 1.292
467.50 1.291
467.60 1.29
467.70 1.289
467.80 1.288
467.90 1.287
468.00 1.286
468.10 1.285
468.20 1.284
468.30 1.283
468.40 1.282
468.50 1.281
468.60 1.28
468.70 1.279
468.80 1.277
468.90 1.276
469.00 1.275
469.10 1.274
469.20 1.273
469.30 1.272
469.40 1.271
469.50 1.27
469.60 1.269
469.70 1.268
469.80 1.267
469.90 1.266
470.00 1.265
470.10 1.264
470.20 1.263
470.30 1.262
470.40 1.261
470.50 1.26
470.60 1.259
470.70 1.258
470.80 1.257
470.90 1.256
471.00 1.255
471.10 1.254
471.20 1.253
471.30 1.252
471.40 1.251
471.50 1.25
471.60 1.249
471.70 1.248
471.80 1.247
471.90 1.246
472.00 1.245
472.10 1.244
472.20 1.243
472.30 1.242
472.40 1.241
472.50 1.24
472.60 1.239
472.70 1.238
472.80 1.237
472.90 1.236
473.00 1.235
473.10 1.234
473.20 1.233
473.30 1.232
473.40 1.231
473.50 1.23
473.60 1.229
473.70 1.228
473.80 1.227
473.90 1.226
474.00 1.225
474.10 1.224
474.20 1.223
474.30 1.222
474.40 1.221
474.50 1.22
474.60 1.219
474.70 1.218
474.80 1.217
474.90 1.216
475.00 1.215
475.10 1.214
475.20 1.213
475.30 1.212
475.40 1.211
475.50 1.21
475.60 1.209
475.70 1.208
475.80 1.207
475.90 1.206
476.00 1.205
476.10 1.204
476.20 1.203
476.30 1.202
476.40 1.201
476.50 1.2
476.60 1.199
476.70 1.198
476.80 1.197
476.90 1.196
477.00 1.195
477.10 1.194
477.20 1.193
477.30 1.192
477.40 1.191
477.50 1.19
477.60 1.189
477.70 1.188
477.80 1.187
477.90 1.186
478.00 1.185
478.10 1.184
478.20 1.183
478.30 1.181
478.40 1.18
478.50 1.179
478.60 1.178
478.70 1.177
478.80 1.176
478.90 1.175
479.00 1.174
479.10 1.173
479.20 1.172
479.30 1.171
479.40 1.17
479.50 1.169
479.60 1.168
479.70 1.167
479.80 1.166
479.90 1.165
480.00 1.164
480.10 1.163
480.20 1.161
480.30 1.16
480.40 1.159
480.50 1.158
480.60 1.157
480.70 1.156
480.80 1.154
480.90 1.153
481.00 1.152
481.10 1.151
481.20 1.15
481.30 1.148
481.40 1.147
481.50 1.146
481.60 1.144
481.70 1.143
481.80 1.142
481.90 1.14
482.00 1.139
482.10 1.137
482.20 1.136
482.30 1.134
482.40 1.132
482.50 1.13
482.60 1.129
482.70 1.127
482.80 1.125
482.90 1.123
483.00 1.121
483.10 1.12
483.20 1.117
483.30 1.114
483.40 1.111
483.50 1.108
483.60 1.105
483.70 1.102
483.80 1.099
483.90 1.096
484.00 1.093
484.10 1.09
484.20 1.086
484.30 1.081
484.40 1.076
484.50 1.072
484.60 1.067
484.70 1.06
484.80 1.053
484.90 1.046
485.00 1.039
485.10 1.031
485.20 1.023
485.30 1.013
485.40 1.002
485.50 0.9908
485.60 0.9779
485.70 0.9642
485.80 0.9467
485.90 0.9273
486.00 0.8979
486.10 0.8556
486.20 0.8652
486.30 0.9085
486.40 0.9299
486.50 0.9481
486.60 0.9622
486.70 0.9745
486.80 0.985
486.90 0.9947
487.00 1.003
487.10 1.011
487.20 1.018
487.30 1.023
487.40 1.029
487.50 1.034
487.60 1.04
487.70 1.044
487.80 1.047
487.90 1.05
488.00 1.053
488.10 1.056
488.20 1.058
488.30 1.059
488.40 1.06
488.50 1.061
488.60 1.062
488.70 1.064
488.80 1.065
488.90 1.066
489.00 1.067
489.10 1.068
489.20 1.069
489.30 1.069
489.40 1.069
489.50 1.069
489.60 1.069
489.70 1.069
489.80 1.069
489.90 1.069
490.00 1.069
490.10 1.069
490.20 1.069
490.30 1.068
490.40 1.068
490.50 1.067
490.60 1.067
490.70 1.066
490.80 1.066
490.90 1.066
491.00 1.065
491.10 1.065
491.20 1.064
491.30 1.064
491.40 1.063
491.50 1.062
491.60 1.062
491.70 1.061
491.80 1.061
491.90 1.06
492.00 1.059
492.10 1.059
492.20 1.058
492.30 1.057
492.40 1.057
492.50 1.056
492.60 1.055
492.70 1.055
492.80 1.054
492.90 1.053
493.00 1.053
493.10 1.052
493.20 1.051
493.30 1.05
493.40 1.05
493.50 1.049
493.60 1.048
493.70 1.048
493.80 1.047
493.90 1.046
494.00 1.045
494.10 1.045
494.20 1.044
494.30 1.043
494.40 1.042
494.50 1.042
494.60 1.041
494.70 1.04
494.80 1.039
494.90 1.039
495.00 1.038
495.10 1.037
495.20 1.036
495.30 1.036
495.40 1.035
495.50 1.034
495.60 1.033
495.70 1.033
495.80 1.032
495.90 1.031
496.00 1.03
496.10 1.03
496.20 1.029
496.30 1.028
496.40 1.027
496.50 1.027
496.60 1.026
496.70 1.025
496.80 1.024
496.90 1.023
497.00 1.023
497.10 1.022
497.20 1.021
497.30 1.02
497.40 1.02
497.50 1.019
497.60 1.018
497.70 1.017
497.80 1.017
497.90 1.016
498.00 1.015
498.10 1.014
498.20 1.014
498.30 1.013
498.40 1.012
498.50 1.011
498.60 1.011
498.70 1.01
498.80 1.009
498.90 1.008
499.00 1.008
499.10 1.007
499.20 1.006
499.30 1.005
499.40 1.005
499.50 1.004
499.60 1.003
499.70 1.002
499.80 1.002
499.90 1.001
500.00 1
500.10 0.9992
500.20 0.9985
500.30 0.9977
500.40 0.997
500.50 0.9962
500.60 0.9955
500.70 0.9947
500.80 0.994
500.90 0.9933
501.00 0.9925
501.10 0.9918
501.20 0.991
501.30 0.9903
501.40 0.9895
501.50 0.9888
501.60 0.988
501.70 0.9873
501.80 0.9865
501.90 0.9858
502.00 0.9851
502.10 0.9843
502.20 0.9836
502.30 0.9828
502.40 0.9821
502.50 0.9814
502.60 0.9806
502.70 0.9799
502.80 0.9792
502.90 0.9784
503.00 0.9777
503.10 0.9769
503.20 0.9762
503.30 0.9755
503.40 0.9747
503.50 0.974
503.60 0.9733
503.70 0.9726
503.80 0.9718
503.90 0.9711
504.00 0.9704
504.10 0.9696
504.20 0.9689
504.30 0.9682
504.40 0.9674
504.50 0.9667
504.60 0.966
504.70 0.9653
504.80 0.9645
504.90 0.9638
505.00 0.9631
505.10 0.9624
505.20 0.9617
505.30 0.9609
505.40 0.9602
505.50 0.9595
505.60 0.9588
505.70 0.9581
505.80 0.9573
505.90 0.9566
506.00 0.9559
506.10 0.9552
506.20 0.9545
506.30 0.9538
506.40 0.953
506.50 0.9523
506.60 0.9516
506.70 0.9509
506.80 0.9502
506.90 0.9495
507.00 0.9488
507.10 0.9481
507.20 0.9474
507.30 0.9466
507.40 0.9459
507.50 0.9452
507.60 0.9445
507.70 0.9438
507.80 0.9431
507.90 0.9424
508.00 0.9417
508.10 0.941
508.20 0.9403
508.30 0.9396
508.40 0.9389
508.50 0.9382
508.60 0.9375
508.70 0.9368
508.80 0.9361
508.90 0.9354
509.00 0.9347
509.10 0.934
509.20 0.9333
509.30 0.9326
509.40 0.9319
509.50 0.9312
509.60 0.9305
509.70 0.9298
509.80 0.9291
509.90 0.9284
510.00 0.9277
510.10 0.9271
510.20 0.9264
510.30 0.9257
510.40 0.925
510.50 0.9243
510.60 0.9236
510.70 0.9229
510.80 0.9222
510.90 0.9215
511.00 0.9209
511.10 0.9202
511.20 0.9195
511.30 0.9188
511.40 0.9181
511.50 0.9174
511.60 0.9168
511.70 0.9161
511.80 0.9154
511.90 0.9147
512.00 0.914
512.10 0.9134
512.20 0.9127
512.30 0.912
512.40 0.9113
512.50 0.9107
512.60 0.91
512.70 0.9093
512.80 0.9086
512.90 0.908
513.00 0.9073
513.10 0.9066
513.20 0.9059
513.30 0.9053
513.40 0.9046
513.50 0.9039
513.60 0.9033
513.70 0.9026
513.80 0.9019
513.90 0.9013
514.00 0.9006
514.10 0.8999
514.20 0.8993
514.30 0.8986
514.40 0.8979
514.50 0.8973
514.60 0.8966
514.70 0.8959
514.80 0.8953
514.90 0.8946
515.00 0.894
515.10 0.8933
515.20 0.8926
515.30 0.892
515.40 0.8913
515.50 0.8907
515.60 0.89
515.70 0.8893
515.80 0.8887
515.90 0.888
516.00 0.8874
516.10 0.8867
516.20 0.8861
516.30 0.8854
516.40 0.8848
516.50 0.8841
516.60 0.8835
516.70 0.8828
516.80 0.8822
516.90 0.8815
517.00 0.8809
517.10 0.8802
517.20 0.8796
517.30 0.8789
517.40 0.8783
517.50 0.8776
517.60 0.877
517.70 0.8763
517.80 0.8757
517.90 0.8751
518.00 0.8744
518.10 0.8738
518.20 0.8731
518.30 0.8725
518.40 0.8718
518.50 0.8712
518.60 0.8706
518.70 0.8699
518.80 0.8693
518.90 0.8686
519.00 0.868
519.10 0.8674
519.20 0.8667
519.30 0.8661
519.40 0.8655
519.50 0.8648
519.60 0.8642
519.70 0.8636
519.80 0.8629
519.90 0.8623
520.00 0.8617
520.10 0.861
520.20 0.8604
520.30 0.8598
520.40 0.8592
520.50 0.8585
520.60 0.8579
520.70 0.8573
520.80 0.8566
520.90 0.856
521.00 0.8554
521.10 0.8548
521.20 0.8541
521.30 0.8535
521.40 0.8529
521.50 0.8523
521.60 0.8516
521.70 0.851
521.80 0.8504
521.90 0.8498
522.00 0.8492
522.10 0.8485
522.20 0.8479
522.30 0.8473
522.40 0.8467
522.50 0.8461
522.60 0.8455
522.70 0.8448
522.80 0.8442
522.90 0.8436
523.00 0.843
523.10 0.8424
523.20 0.8418
523.30 0.8412
523.40 0.8405
523.50 0.8399
523.60 0.8393
523.70 0.8387
523.80 0.8381
523.90 0.8375
524.00 0.8369
524.10 0.8363
524.20 0.8357
524.30 0.8351
524.40 0.8345
524.50 0.8339
524.60 0.8332
524.70 0.8326
524.80 0.832
524.90 0.8314
525.00 0.8308
525.10 0.8302
525.20 0.8296
525.30 0.829
525.40 0.8284
525.50 0.8278
525.60 0.8272
525.70 0.8266
525.80 0.826
525.90 0.8254
526.00 0.8248
526.10 0.8242
526.20 0.8236
526.30 0.823
526.40 0.8224
526.50 0.8218
526.60 0.8213
526.70 0.8207
526.80 0.8201
526.90 0.8195
527.00 0.8189
527.10 0.8183
527.20 0.8177
527.30 0.8171
527.40 0.8165
527.50 0.8159
527.60 0.8153
527.70 0.8147
527.80 0.8142
527.90 0.8136
528.00 0.813
528.10 0.8124
528.20 0.8118
528.30 0.8112
528.40 0.8106
528.50 0.8101
528.60 0.8095
528.70 0.8089
528.80 0.8083
528.90 0.8077
529.00 0.8071
529.10 0.8066
529.20 0.806
529.30 0.8054
529.40 0.8048
529.50 0.8042
529.60 0.8037
529.70 0.8031
529.80 0.8025
529.90 0.8019
530.00 0.8014
530.10 0.8008
530.20 0.8002
530.30 0.7996
530.40 0.7991
530.50 0.7985
530.60 0.7979
530.70 0.7973
530.80 0.7968
530.90 0.7962
531.00 0.7956
531.10 0.795
531.20 0.7945
531.30 0.7939
531.40 0.7933
531.50 0.7928
531.60 0.7922
531.70 0.7916
531.80 0.7911
531.90 0.7905
532.00 0.7899
532.10 0.7894
532.20 0.7888
532.30 0.7882
532.40 0.7877
532.50 0.7871
532.60 0.7865
532.70 0.786
532.80 0.7854
532.90 0.7849
533.00 0.7843
533.10 0.7837
533.20 0.7832
533.30 0.7826
533.40 0.7821
533.50 0.7815
533.60 0.7809
533.70 0.7804
533.80 0.7798
533.90 0.7793
534.00 0.7787
534.10 0.7782
534.20 0.7776
534.30 0.777
534.40 0.7765
534.50 0.7759
534.60 0.7754
534.70 0.7748
534.80 0.7743
534.90 0.7737
535.00 0.7732
535.10 0.7726
535.20 0.7721
535.30 0.7715
535.40 0.771
535.50 0.7704
535.60 0.7699
535.70 0.7693
535.80 0.7688
535.90 0.7682
536.00 0.7677
536.10 0.7671
536.20 0.7666
536.30 0.7661
536.40 0.7655
536.50 0.765
536.60 0.7644
536.70 0.7639
536.80 0.7633
536.90 0.7628
537.00 0.7623
537.10 0.7617
537.20 0.7612
537.30 0.7606
537.40 0.7601
537.50 0.7596
537.60 0.759
537.70 0.7585
537.80 0.7579
537.90 0.7574
538.00 0.7569
538.10 0.7563
538.20 0.7558
538.30 0.7553
538.40 0.7547
538.50 0.7542
538.60 0.7537
538.70 0.7531
538.80 0.7526
538.90 0.7521
539.00 0.7515
539.10 0.751
539.20 0.7505
539.30 0.7499
539.40 0.7494
539.50 0.7489
539.60 0.7483
539.70 0.7478
539.80 0.7473
539.90 0.7468
540.00 0.7462
540.10 0.7457
540.20 0.7452
540.30 0.7446
540.40 0.7441
540.50 0.7436
540.60 0.7431
540.70 0.7425
540.80 0.742
540.90 0.7415
541.00 0.741
541.10 0.7405
541.20 0.7399
541.30 0.7394
541.40 0.7389
541.50 0.7384
541.60 0.7379
541.70 0.7373
541.80 0.7368
541.90 0.7363
542.00 0.7358
542.10 0.7353
542.20 0.7347
542.30 0.7342
542.40 0.7337
542.50 0.7332
542.60 0.7327
542.70 0.7322
542.80 0.7316
542.90 0.7311
543.00 0.7306
543.10 0.7301
543.20 0.7296
543.30 0.7291
543.40 0.7286
543.50 0.7281
543.60 0.7275
543.70 0.727
543.80 0.7265
543.90 0.726
544.00 0.7255
544.10 0.725
544.20 0.7245
544.30 0.724
544.40 0.7235
544.50 0.723
544.60 0.7225
544.70 0.722
544.80 0.7214
544.90 0.7209
545.00 0.7204
545.10 0.7199
545.20 0.7194
545.30 0.7189
545.40 0.7184
545.50 0.7179
545.60 0.7174
545.70 0.7169
545.80 0.7164
545.90 0.7159
546.00 0.7154
546.10 0.7149
546.20 0.7144
546.30 0.7139
546.40 0.7134
546.50 0.7129
546.60 0.7124
546.70 0.7119
546.80 0.7114
546.90 0.7109
547.00 0.7104
547.10 0.7099
547.20 0.7094
547.30 0.709
547.40 0.7085
547.50 0.708
547.60 0.7075
547.70 0.707
547.80 0.7065
547.90 0.706
548.00 0.7055
548.10 0.705
548.20 0.7045
548.30 0.704
548.40 0.7035
548.50 0.7031
548.60 0.7026
548.70 0.7021
548.80 0.7016
548.90 0.7011
549.00 0.7006
549.10 0.7001
549.20 0.6996
549.30 0.6992
549.40 0.6987
549.50 0.6982
549.60 0.6977
549.70 0.6972
549.80 0.6967
549.90 0.6962
550.00 0.6958
550.10 0.6953
550.20 0.6948
550.30 0.6943
550.40 0.6938
550.50 0.6934
550.60 0.6929
550.70 0.6924
550.80 0.6919
550.90 0.6914
551.00 0.691
551.10 0.6905
551.20 0.69
551.30 0.6895
551.40 0.689
551.50 0.6886
551.60 0.6881
551.70 0.6876
551.80 0.6871
551.90 0.6867
552.00 0.6862
552.10 0.6857
552.20 0.6852
552.30 0.6848
552.40 0.6843
552.50 0.6838
552.60 0.6833
552.70 0.6829
552.80 0.6824
552.90 0.6819
553.00 0.6815
553.10 0.681
553.20 0.6805
553.30 0.6801
553.40 0.6796
553.50 0.6791
553.60 0.6786
553.70 0.6782
553.80 0.6777
553.90 0.6772
554.00 0.6768
554.10 0.6763
554.20 0.6758
554.30 0.6754
554.40 0.6749
554.50 0.6744
554.60 0.674
554.70 0.6735
554.80 0.6731
554.90 0.6726
555.00 0.6721
555.10 0.6717
555.20 0.6712
555.30 0.6707
555.40 0.6703
555.50 0.6698
555.60 0.6694
555.70 0.6689
555.80 0.6684
555.90 0.668
556.00 0.6675
556.10 0.6671
556.20 0.6666
556.30 0.6662
556.40 0.6657
556.50 0.6652
556.60 0.6648
556.70 0.6643
556.80 0.6639
556.90 0.6634
557.00 0.663
557.10 0.6625
557.20 0.6621
557.30 0.6616
557.40 0.6611
557.50 0.6607
557.60 0.6602
557.70 0.6598
557.80 0.6593
557.90 0.6589
558.00 0.6584
558.10 0.658
558.20 0.6575
558.30 0.6571
558.40 0.6566
558.50 0.6562
558.60 0.6557
558.70 0.6553
558.80 0.6548
558.90 0.6544
559.00 0.6539
559.10 0.6535
559.20 0.6531
559.30 0.6526
559.40 0.6522
559.50 0.6517
559.60 0.6513
559.70 0.6508
559.80 0.6504
559.90 0.6499
560.00 0.6495
560.10 0.6491
560.20 0.6486
560.30 0.6482
560.40 0.6477
560.50 0.6473
560.60 0.6468
560.70 0.6464
560.80 0.646
560.90 0.6455
561.00 0.6451
561.10 0.6446
561.20 0.6442
561.30 0.6438
561.40 0.6433
561.50 0.6429
561.60 0.6425
561.70 0.642
561.80 0.6416
561.90 0.6411
562.00 0.6407
562.10 0.6403
562.20 0.6398
562.30 0.6394
562.40 0.639
562.50 0.6385
562.60 0.6381
562.70 0.6377
562.80 0.6372
562.90 0.6368
563.00 0.6364
563.10 0.6359
563.20 0.6355
563.30 0.6351
563.40 0.6347
563.50 0.6342
563.60 0.6338
563.70 0.6334
563.80 0.6329
563.90 0.6325
564.00 0.6321
564.10 0.6316
564.20 0.6312
564.30 0.6308
564.40 0.6304
564.50 0.6299
564.60 0.6295
564.70 0.6291
564.80 0.6287
564.90 0.6282
565.00 0.6278
565.10 0.6274
565.20 0.627
565.30 0.6265
565.40 0.6261
565.50 0.6257
565.60 0.6253
565.70 0.6249
565.80 0.6244
565.90 0.624
566.00 0.6236
566.10 0.6232
566.20 0.6227
566.30 0.6223
566.40 0.6219
566.50 0.6215
566.60 0.6211
566.70 0.6206
566.80 0.6202
566.90 0.6198
567.00 0.6194
567.10 0.619
567.20 0.6186
567.30 0.6181
567.40 0.6177
567.50 0.6173
567.60 0.6169
567.70 0.6165
567.80 0.6161
567.90 0.6157
568.00 0.6152
568.10 0.6148
568.20 0.6144
568.30 0.614
568.40 0.6136
568.50 0.6132
568.60 0.6128
568.70 0.6123
568.80 0.6119
568.90 0.6115
569.00 0.6111
569.10 0.6107
569.20 0.6103
569.30 0.6099
569.40 0.6095
569.50 0.6091
569.60 0.6087
569.70 0.6082
569.80 0.6078
569.90 0.6074
570.00 0.607
570.10 0.6066
570.20 0.6062
570.30 0.6058
570.40 0.6054
570.50 0.605
570.60 0.6046
570.70 0.6042
570.80 0.6038
570.90 0.6034
571.00 0.603
571.10 0.6026
571.20 0.6022
571.30 0.6018
571.40 0.6014
571.50 0.601
571.60 0.6006
571.70 0.6002
571.80 0.5998
571.90 0.5994
572.00 0.599
572.10 0.5986
572.20 0.5982
572.30 0.5978
572.40 0.5974
572.50 0.597
572.60 0.5966
572.70 0.5962
572.80 0.5958
572.90 0.5954
573.00 0.595
573.10 0.5946
573.20 0.5942
573.30 0.5938
573.40 0.5934
573.50 0.593
573.60 0.5926
573.70 0.5922
573.80 0.5918
573.90 0.5914
574.00 0.591
574.10 0.5906
574.20 0.5902
574.30 0.5898
574.40 0.5894
574.50 0.5891
574.60 0.5887
574.70 0.5883
574.80 0.5879
574.90 0.5875
575.00 0.5871
575.10 0.5867
575.20 0.5863
575.30 0.5859
575.40 0.5855
575.50 0.5851
575.60 0.5848
575.70 0.5844
575.80 0.584
575.90 0.5836
576.00 0.5832
576.10 0.5828
576.20 0.5824
576.30 0.582
576.40 0.5817
576.50 0.5813
576.60 0.5809
576.70 0.5805
576.80 0.5801
576.90 0.5797
577.00 0.5794
577.10 0.579
577.20 0.5786
577.30 0.5782
577.40 0.5778
577.50 0.5774
577.60 0.5771
577.70 0.5767
577.80 0.5763
577.90 0.5759
578.00 0.5755
578.10 0.5751
578.20 0.5748
578.30 0.5744
578.40 0.574
578.50 0.5736
578.60 0.5732
578.70 0.5729
578.80 0.5725
578.90 0.5721
579.00 0.5717
579.10 0.5714
579.20 0.571
579.30 0.5706
579.40 0.5702
579.50 0.5699
579.60 0.5695
579.70 0.5691
579.80 0.5687
579.90 0.5684
580.00 0.568
580.10 0.5676
580.20 0.5672
580.30 0.5669
580.40 0.5665
580.50 0.5661
580.60 0.5657
580.70 0.5654
580.80 0.565
580.90 0.5646
581.00 0.5642
581.10 0.5639
581.20 0.5635
581.30 0.5631
581.40 0.5628
581.50 0.5624
581.60 0.562
581.70 0.5617
581.80 0.5613
581.90 0.5609
582.00 0.5605
582.10 0.5602
582.20 0.5598
582.30 0.5594
582.40 0.5591
582.50 0.5587
582.60 0.5583
582.70 0.558
582.80 0.5576
582.90 0.5572
583.00 0.5569
583.10 0.5565
583.20 0.5561
583.30 0.5558
583.40 0.5554
583.50 0.5551
583.60 0.5547
583.70 0.5543
583.80 0.554
583.90 0.5536
584.00 0.5532
584.10 0.5529
584.20 0.5525
584.30 0.5522
584.40 0.5518
584.50 0.5514
584.60 0.5511
584.70 0.5507
584.80 0.5503
584.90 0.55
585.00 0.5496
585.10 0.5493
585.20 0.5489
585.30 0.5486
585.40 0.5482
585.50 0.5478
585.60 0.5475
585.70 0.5471
585.80 0.5468
585.90 0.5464
586.00 0.5461
586.10 0.5457
586.20 0.5453
586.30 0.545
586.40 0.5446
586.50 0.5443
586.60 0.5439
586.70 0.5436
586.80 0.5432
586.90 0.5429
587.00 0.5425
587.10 0.5421
587.20 0.5418
587.30 0.5414
587.40 0.5411
587.50 0.5407
587.60 0.5404
587.70 0.54
587.80 0.5397
587.90 0.5393
588.00 0.539
588.10 0.5386
588.20 0.5383
588.30 0.5379
588.40 0.5376
588.50 0.5372
588.60 0.5369
588.70 0.5365
588.80 0.5362
588.90 0.5358
589.00 0.5355
589.10 0.5351
589.20 0.5348
589.30 0.5344
589.40 0.5341
589.50 0.5337
589.60 0.5334
589.70 0.5331
589.80 0.5327
589.90 0.5324
590.00 0.532
590.10 0.5317
590.20 0.5313
590.30 0.531
590.40 0.5306
590.50 0.5303
590.60 0.53
590.70 0.5296
590.80 0.5293
590.90 0.5289
591.00 0.5286
591.10 0.5282
591.20 0.5279
591.30 0.5276
591.40 0.5272
591.50 0.5269
591.60 0.5265
591.70 0.5262
591.80 0.5259
591.90 0.5255
592.00 0.5252
592.10 0.5248
592.20 0.5245
592.30 0.5242
592.40 0.5238
592.50 0.5235
592.60 0.5231
592.70 0.5228
592.80 0.5225
592.90 0.5221
593.00 0.5218
593.10 0.5215
593.20 0.5211
593.30 0.5208
593.40 0.5204
593.50 0.5201
593.60 0.5198
593.70 0.5194
593.80 0.5191
593.90 0.5188
594.00 0.5184
594.10 0.5181
594.20 0.5178
594.30 0.5174
594.40 0.5171
594.50 0.5168
594.60 0.5164
594.70 0.5161
594.80 0.5158
594.90 0.5154
595.00 0.5151
595.10 0.5148
595.20 0.5145
595.30 0.5141
595.40 0.5138
595.50 0.5135
595.60 0.5131
595.70 0.5128
595.80 0.5125
595.90 0.5121
596.00 0.5118
596.10 0.5115
596.20 0.5112
596.30 0.5108
596.40 0.5105
596.50 0.5102
596.60 0.5098
596.70 0.5095
596.80 0.5092
596.90 0.5089
597.00 0.5085
597.10 0.5082
597.20 0.5079
597.30 0.5076
597.40 0.5072
597.50 0.5069
597.60 0.5066
597.70 0.5063
597.80 0.5059
597.90 0.5056
598.00 0.5053
598.10 0.505
598.20 0.5046
598.30 0.5043
598.40 0.504
598.50 0.5037
598.60 0.5034
598.70 0.503
598.80 0.5027
598.90 0.5024
599.00 0.5021
599.10 0.5017
599.20 0.5014
599.30 0.5011
599.40 0.5008
599.50 0.5005
599.60 0.5001
599.70 0.4998
599.80 0.4995
599.90 0.4992
600.00 0.4989
600.10 0.4986
600.20 0.4982
600.30 0.4979
600.40 0.4976
600.50 0.4973
600.60 0.497
600.70 0.4966
600.80 0.4963
600.90 0.496
601.00 0.4957
601.10 0.4954
601.20 0.4951
601.30 0.4948
601.40 0.4944
601.50 0.4941
601.60 0.4938
601.70 0.4935
601.80 0.4932
601.90 0.4929
602.00 0.4926
602.10 0.4922
602.20 0.4919
602.30 0.4916
602.40 0.4913
602.50 0.491
602.60 0.4907
602.70 0.4904
602.80 0.4901
602.90 0.4897
603.00 0.4894
603.10 0.4891
603.20 0.4888
603.30 0.4885
603.40 0.4882
603.50 0.4879
603.60 0.4876
603.70 0.4873
603.80 0.487
603.90 0.4866
604.00 0.4863
604.10 0.486
604.20 0.4857
604.30 0.4854
604.40 0.4851
604.50 0.4848
604.60 0.4845
604.70 0.4842
604.80 0.4839
604.90 0.4836
605.00 0.4833
605.10 0.483
605.20 0.4827
605.30 0.4823
605.40 0.482
605.50 0.4817
605.60 0.4814
605.70 0.4811
605.80 0.4808
605.90 0.4805
606.00 0.4802
606.10 0.4799
606.20 0.4796
606.30 0.4793
606.40 0.479
606.50 0.4787
606.60 0.4784
606.70 0.4781
606.80 0.4778
606.90 0.4775
607.00 0.4772
607.10 0.4769
607.20 0.4766
607.30 0.4763
607.40 0.476
607.50 0.4757
607.60 0.4754
607.70 0.4751
607.80 0.4748
607.90 0.4745
608.00 0.4742
608.10 0.4739
608.20 0.4736
608.30 0.4733
608.40 0.473
608.50 0.4727
608.60 0.4724
608.70 0.4721
608.80 0.4718
608.90 0.4715
609.00 0.4712
609.10 0.4709
609.20 0.4706
609.30 0.4703
609.40 0.47
609.50 0.4697
609.60 0.4694
609.70 0.4692
609.80 0.4689
609.90 0.4686
610.00 0.4683
610.10 0.468
610.20 0.4677
610.30 0.4674
610.40 0.4671
610.50 0.4668
610.60 0.4665
610.70 0.4662
610.80 0.4659
610.90 0.4656
611.00 0.4653
611.10 0.465
611.20 0.4648
611.30 0.4645
611.40 0.4642
611.50 0.4639
611.60 0.4636
611.70 0.4633
611.80 0.463
611.90 0.4627
612.00 0.4624
612.10 0.4621
612.20 0.4619
612.30 0.4616
612.40 0.4613
612.50 0.461
612.60 0.4607
612.70 0.4604
612.80 0.4601
612.90 0.4598
613.00 0.4595
613.10 0.4593
613.20 0.459
613.30 0.4587
613.40 0.4584
613.50 0.4581
613.60 0.4578
613.70 0.4575
613.80 0.4573
613.90 0.457
614.00 0.4567
614.10 0.4564
614.20 0.4561
614.30 0.4558
614.40 0.4555
614.50 0.4553
614.60 0.455
614.70 0.4547
614.80 0.4544
614.90 0.4541
615.00 0.4538
615.10 0.4536
615.20 0.4533
615.30 0.453
615.40 0.4527
615.50 0.4524
615.60 0.4522
615.70 0.4519
615.80 0.4516
615.90 0.4513
616.00 0.451
616.10 0.4507
616.20 0.4505
616.30 0.4502
616.40 0.4499
616.50 0.4496
616.60 0.4493
616.70 0.4491
616.80 0.4488
616.90 0.4485
617.00 0.4482
617.10 0.448
617.20 0.4477
617.30 0.4474
617.40 0.4471
617.50 0.4468
617.60 0.4466
617.70 0.4463
617.80 0.446
617.90 0.4457
618.00 0.4455
618.10 0.4452
618.20 0.4449
618.30 0.4446
618.40 0.4444
618.50 0.4441
618.60 0.4438
618.70 0.4435
618.80 0.4433
618.90 0.443
619.00 0.4427
619.10 0.4424
619.20 0.4422
619.30 0.4419
619.40 0.4416
619.50 0.4413
619.60 0.4411
619.70 0.4408
619.80 0.4405
619.90 0.4402
620.00 0.44
620.10 0.4397
620.20 0.4394
620.30 0.4392
620.40 0.4389
620.50 0.4386
620.60 0.4383
620.70 0.4381
620.80 0.4378
620.90 0.4375
621.00 0.4373
621.10 0.437
621.20 0.4367
621.30 0.4365
621.40 0.4362
621.50 0.4359
621.60 0.4356
621.70 0.4354
621.80 0.4351
621.90 0.4348
622.00 0.4346
622.10 0.4343
622.20 0.434
622.30 0.4338
622.40 0.4335
622.50 0.4332
622.60 0.433
622.70 0.4327
622.80 0.4324
622.90 0.4322
623.00 0.4319
623.10 0.4316
623.20 0.4314
623.30 0.4311
623.40 0.4308
623.50 0.4306
623.60 0.4303
623.70 0.43
623.80 0.4298
623.90 0.4295
624.00 0.4293
624.10 0.429
624.20 0.4287
624.30 0.4285
624.40 0.4282
624.50 0.4279
624.60 0.4277
624.70 0.4274
624.80 0.4271
624.90 0.4269
625.00 0.4266
625.10 0.4264
625.20 0.4261
625.30 0.4258
625.40 0.4256
625.50 0.4253
625.60 0.4251
625.70 0.4248
625.80 0.4245
625.90 0.4243
626.00 0.424
626.10 0.4238
626.20 0.4235
626.30 0.4232
626.40 0.423
626.50 0.4227
626.60 0.4225
626.70 0.4222
626.80 0.4219
626.90 0.4217
627.00 0.4214
627.10 0.4212
627.20 0.4209
627.30 0.4207
627.40 0.4204
627.50 0.4201
627.60 0.4199
627.70 0.4196
627.80 0.4194
627.90 0.4191
628.00 0.4189
628.10 0.4186
628.20 0.4183
628.30 0.4181
628.40 0.4178
628.50 0.4176
628.60 0.4173
628.70 0.4171
628.80 0.4168
628.90 0.4166
629.00 0.4163
629.10 0.4161
629.20 0.4158
629.30 0.4155
629.40 0.4153
629.50 0.415
629.60 0.4148
629.70 0.4145
629.80 0.4143
629.90 0.414
630.00 0.4138
630.10 0.4135
630.20 0.4133
630.30 0.413
630.40 0.4128
630.50 0.4125
630.60 0.4123
630.70 0.412
630.80 0.4118
630.90 0.4115
631.00 0.4113
631.10 0.411
631.20 0.4108
631.30 0.4105
631.40 0.4103
631.50 0.41
631.60 0.4098
631.70 0.4095
631.80 0.4093
631.90 0.409
632.00 0.4088
632.10 0.4085
632.20 0.4083
632.30 0.408
632.40 0.4078
632.50 0.4075
632.60 0.4073
632.70 0.407
632.80 0.4068
632.90 0.4065
633.00 0.4063
633.10 0.406
633.20 0.4058
633.30 0.4055
633.40 0.4053
633.50 0.4051
633.60 0.4048
633.70 0.4046
633.80 0.4043
633.90 0.4041
634.00 0.4038
634.10 0.4036
634.20 0.4033
634.30 0.4031
634.40 0.4029
634.50 0.4026
634.60 0.4024
634.70 0.4021
634.80 0.4019
634.90 0.4016
635.00 0.4014
635.10 0.4011
635.20 0.4009
635.30 0.4007
635.40 0.4004
635.50 0.4002
635.60 0.3999
635.70 0.3997
635.80 0.3994
635.90 0.3992
636.00 0.399
636.10 0.3987
636.20 0.3985
636.30 0.3982
636.40 0.398
636.50 0.3978
636.60 0.3975
636.70 0.3973
636.80 0.397
636.90 0.3968
637.00 0.3966
637.10 0.3963
637.20 0.3961
637.30 0.3958
637.40 0.3956
637.50 0.3954
637.60 0.3951
637.70 0.3949
637.80 0.3946
637.90 0.3944
638.00 0.3942
638.10 0.3939
638.20 0.3937
638.30 0.3935
638.40 0.3932
638.50 0.393
638.60 0.3927
638.70 0.3925
638.80 0.3923
638.90 0.392
639.00 0.3918
639.10 0.3916
639.20 0.3913
639.30 0.3911
639.40 0.3908
639.50 0.3906
639.60 0.3904
639.70 0.3901
639.80 0.3899
639.90 0.3897
640.00 0.3894
640.10 0.3892
640.20 0.389
640.30 0.3887
640.40 0.3885
640.50 0.3883
640.60 0.388
640.70 0.3878
640.80 0.3876
640.90 0.3873
641.00 0.3871
641.10 0.3869
641.20 0.3866
641.30 0.3864
641.40 0.3861
641.50 0.3859
641.60 0.3857
641.70 0.3854
641.80 0.3852
641.90 0.385
642.00 0.3847
642.10 0.3845
642.20 0.3843
642.30 0.3841
642.40 0.3838
642.50 0.3836
642.60 0.3834
642.70 0.3831
642.80 0.3829
642.90 0.3827
643.00 0.3824
643.10 0.3822
643.20 0.382
643.30 0.3817
643.40 0.3815
643.50 0.3813
643.60 0.381
643.70 0.3808
643.80 0.3806
643.90 0.3803
644.00 0.3801
644.10 0.3799
644.20 0.3796
644.30 0.3794
644.40 0.3792
644.50 0.379
644.60 0.3787
644.70 0.3785
644.80 0.3783
644.90 0.378
645.00 0.3778
645.10 0.3776
645.20 0.3773
645.30 0.3771
645.40 0.3769
645.50 0.3766
645.60 0.3764
645.70 0.3762
645.80 0.376
645.90 0.3757
646.00 0.3755
646.10 0.3753
646.20 0.375
646.30 0.3748
646.40 0.3746
646.50 0.3743
646.60 0.3741
646.70 0.3739
646.80 0.3736
646.90 0.3734
647.00 0.3732
647.10 0.3729
647.20 0.3727
647.30 0.3725
647.40 0.3722
647.50 0.372
647.60 0.3718
647.70 0.3715
647.80 0.3713
647.90 0.3711
648.00 0.3708
648.10 0.3706
648.20 0.3704
648.30 0.3701
648.40 0.3699
648.50 0.3696
648.60 0.3694
648.70 0.3692
648.80 0.3689
648.90 0.3687
649.00 0.3684
649.10 0.3682
649.20 0.3679
649.30 0.3677
649.40 0.3675
649.50 0.3672
649.60 0.367
649.70 0.3667
649.80 0.3664
649.90 0.3662
650.00 0.3659
650.10 0.3657
650.20 0.3654
650.30 0.3652
650.40 0.3649
650.50 0.3646
650.60 0.3644
650.70 0.3641
650.80 0.3638
650.90 0.3635
651.00 0.3633
651.10 0.363
651.20 0.3627
651.30 0.3624
651.40 0.3621
651.50 0.3618
651.60 0.3615
651.70 0.3612
651.80 0.3608
651.90 0.3605
652.00 0.3602
652.10 0.3599
652.20 0.3596
652.30 0.3592
652.40 0.3588
652.50 0.3583
652.60 0.3579
652.70 0.3575
652.80 0.3571
652.90 0.3566
653.00 0.3562
653.10 0.3558
653.20 0.3553
653.30 0.3549
653.40 0.3541
653.50 0.3534
653.60 0.3527
653.70 0.352
653.80 0.3513
653.90 0.3506
654.00 0.3499
654.10 0.3492
654.20 0.3485
654.30 0.3476
654.40 0.3464
654.50 0.3453
654.60 0.3441
654.70 0.3429
654.80 0.3415
654.90 0.3397
655.00 0.3379
655.10 0.336
655.20 0.3342
655.30 0.3322
655.40 0.3297
655.50 0.327
655.60 0.3239
655.70 0.3205
655.80 0.3162
655.90 0.3112
656.00 0.3029
656.10 0.2933
656.20 0.2705
656.30 0.2768
656.40 0.2787
656.50 0.2968
656.60 0.3049
656.70 0.3121
656.80 0.316
656.90 0.3197
657.00 0.3224
657.10 0.3251
657.20 0.3272
657.30 0.3292
657.40 0.3307
657.50 0.3321
657.60 0.3335
657.70 0.3349
657.80 0.3363
657.90 0.337
658.00 0.3378
658.10 0.3386
658.20 0.3394
658.30 0.3401
658.40 0.3404
658.50 0.3406
658.60 0.3409
658.70 0.3412
658.80 0.3415
658.90 0.3418
659.00 0.3421
659.10 0.3424
659.20 0.3427
659.30 0.3429
659.40 0.3429
659.50 0.3429
659.60 0.3429
659.70 0.3429
659.80 0.343
659.90 0.343
660.00 0.343
660.10 0.343
660.20 0.343
660.30 0.343
660.40 0.3429
660.50 0.3428
660.60 0.3427
660.70 0.3426
660.80 0.3425
660.90 0.3424
661.00 0.3423
661.10 0.3422
661.20 0.3421
661.30 0.342
661.40 0.3418
661.50 0.3417
661.60 0.3415
661.70 0.3414
661.80 0.3413
661.90 0.3411
662.00 0.341
662.10 0.3408
662.20 0.3407
662.30 0.3405
662.40 0.3404
662.50 0.3402
662.60 0.34
662.70 0.3399
662.80 0.3397
662.90 0.3395
663.00 0.3394
663.10 0.3392
663.20 0.339
663.30 0.3389
663.40 0.3387
663.50 0.3385
663.60 0.3383
663.70 0.3382
663.80 0.338
663.90 0.3378
664.00 0.3376
664.10 0.3375
664.20 0.3373
664.30 0.3371
664.40 0.3369
664.50 0.3367
664.60 0.3366
664.70 0.3364
664.80 0.3362
664.90 0.336
665.00 0.3358
665.10 0.3357
665.20 0.3355
665.30 0.3353
665.40 0.3351
665.50 0.3349
665.60 0.3347
665.70 0.3346
665.80 0.3344
665.90 0.3342
666.00 0.334
666.10 0.3338
666.20 0.3336
666.30 0.3335
666.40 0.3333
666.50 0.3331
666.60 0.3329
666.70 0.3327
666.80 0.3325
666.90 0.3323
667.00 0.3322
667.10 0.332
667.20 0.3318
667.30 0.3316
667.40 0.3314
667.50 0.3312
667.60 0.3311
667.70 0.3309
667.80 0.3307
667.90 0.3305
668.00 0.3303
668.10 0.3301
668.20 0.3299
668.30 0.3298
668.40 0.3296
668.50 0.3294
668.60 0.3292
668.70 0.329
668.80 0.3288
668.90 0.3286
669.00 0.3285
669.10 0.3283
669.20 0.3281
669.30 0.3279
669.40 0.3277
669.50 0.3275
669.60 0.3273
669.70 0.3272
669.80 0.327
669.90 0.3268
670.00 0.3266
670.10 0.3264
670.20 0.3262
670.30 0.3261
670.40 0.3259
670.50 0.3257
670.60 0.3255
670.70 0.3253
670.80 0.3251
670.90 0.3249
671.00 0.3248
671.10 0.3246
671.20 0.3244
671.30 0.3242
671.40 0.324
671.50 0.3238
671.60 0.3237
671.70 0.3235
671.80 0.3233
671.90 0.3231
672.00 0.3229
672.10 0.3227
672.20 0.3226
672.30 0.3224
672.40 0.3222
672.50 0.322
672.60 0.3218
672.70 0.3216
672.80 0.3215
672.90 0.3213
673.00 0.3211
673.10 0.3209
673.20 0.3207
673.30 0.3206
673.40 0.3204
673.50 0.3202
673.60 0.32
673.70 0.3198
673.80 0.3196
673.90 0.3195
674.00 0.3193
674.10 0.3191
674.20 0.3189
674.30 0.3187
674.40 0.3186
674.50 0.3184
674.60 0.3182
674.70 0.318
674.80 0.3178
674.90 0.3177
675.00 0.3175
675.10 0.3173
675.20 0.3171
675.30 0.3169
675.40 0.3168
675.50 0.3166
675.60 0.3164
675.70 0.3162
675.80 0.316
675.90 0.3159
676.00 0.3157
676.10 0.3155
676.20 0.3153
676.30 0.3152
676.40 0.315
676.50 0.3148
676.60 0.3146
676.70 0.3144
676.80 0.3143
676.90 0.3141
677.00 0.3139
677.10 0.3137
677.20 0.3136
677.30 0.3134
677.40 0.3132
677.50 0.313
677.60 0.3128
677.70 0.3127
677.80 0.3125
677.90 0.3123
678.00 0.3121
678.10 0.312
678.20 0.3118
678.30 0.3116
678.40 0.3114
678.50 0.3113
678.60 0.3111
678.70 0.3109
678.80 0.3107
678.90 0.3106
679.00 0.3104
679.10 0.3102
679.20 0.31
679.30 0.3099
679.40 0.3097
679.50 0.3095
679.60 0.3093
679.70 0.3092
679.80 0.309
679.90 0.3088
680.00 0.3086
680.10 0.3085
680.20 0.3083
680.30 0.3081
680.40 0.3079
680.50 0.3078
680.60 0.3076
680.70 0.3074
680.80 0.3072
680.90 0.3071
681.00 0.3069
681.10 0.3067
681.20 0.3066
681.30 0.3064
681.40 0.3062
681.50 0.306
681.60 0.3059
681.70 0.3057
681.80 0.3055
681.90 0.3053
682.00 0.3052
682.10 0.305
682.20 0.3048
682.30 0.3047
682.40 0.3045
682.50 0.3043
682.60 0.3041
682.70 0.304
682.80 0.3038
682.90 0.3036
683.00 0.3035
683.10 0.3033
683.20 0.3031
683.30 0.303
683.40 0.3028
683.50 0.3026
683.60 0.3024
683.70 0.3023
683.80 0.3021
683.90 0.3019
684.00 0.3018
684.10 0.3016
684.20 0.3014
684.30 0.3013
684.40 0.3011
684.50 0.3009
684.60 0.3007
684.70 0.3006
684.80 0.3004
684.90 0.3002
685.00 0.3001
685.10 0.2999
685.20 0.2997
685.30 0.2996
685.40 0.2994
685.50 0.2992
685.60 0.2991
685.70 0.2989
685.80 0.2987
685.90 0.2986
686.00 0.2984
686.10 0.2982
686.20 0.2981
686.30 0.2979
686.40 0.2977
686.50 0.2976
686.60 0.2974
686.70 0.2972
686.80 0.2971
686.90 0.2969
687.00 0.2967
687.10 0.2966
687.20 0.2964
687.30 0.2962
687.40 0.2961
687.50 0.2959
687.60 0.2957
687.70 0.2956
687.80 0.2954
687.90 0.2952
688.00 0.2951
688.10 0.2949
688.20 0.2948
688.30 0.2946
688.40 0.2944
688.50 0.2943
688.60 0.2941
688.70 0.2939
688.80 0.2938
688.90 0.2936
689.00 0.2934
689.10 0.2933
689.20 0.2931
689.30 0.2929
689.40 0.2928
689.50 0.2926
689.60 0.2925
689.70 0.2923
689.80 0.2921
689.90 0.292
690.00 0.2918
690.10 0.2917
690.20 0.2915
690.30 0.2913
690.40 0.2912
690.50 0.291
690.60 0.2908
690.70 0.2907
690.80 0.2905
690.90 0.2904
691.00 0.2902
691.10 0.29
691.20 0.2899
691.30 0.2897
691.40 0.2896
691.50 0.2894
691.60 0.2892
691.70 0.2891
691.80 0.2889
691.90 0.2888
692.00 0.2886
692.10 0.2884
692.20 0.2883
692.30 0.2881
692.40 0.288
692.50 0.2878
692.60 0.2876
692.70 0.2875
692.80 0.2873
692.90 0.2872
693.00 0.287
693.10 0.2868
693.20 0.2867
693.30 0.2865
693.40 0.2864
693.50 0.2862
693.60 0.286
693.70 0.2859
693.80 0.2857
693.90 0.2856
694.00 0.2854
694.10 0.2852
694.20 0.2851
694.30 0.2849
694.40 0.2848
694.50 0.2846
694.60 0.2845
694.70 0.2843
694.80 0.2841
694.90 0.284
695.00 0.2838
695.10 0.2837
695.20 0.2835
695.30 0.2834
695.40 0.2832
695.50 0.283
695.60 0.2829
695.70 0.2827
695.80 0.2826
695.90 0.2824
696.00 0.2823
696.10 0.2821
696.20 0.282
696.30 0.2818
696.40 0.2816
696.50 0.2815
696.60 0.2813
696.70 0.2812
696.80 0.281
696.90 0.2809
697.00 0.2807
697.10 0.2806
697.20 0.2804
697.30 0.2802
697.40 0.2801
697.50 0.2799
697.60 0.2798
697.70 0.2796
697.80 0.2795
697.90 0.2793
698.00 0.2792
698.10 0.279
698.20 0.2789
698.30 0.2787
698.40 0.2786
698.50 0.2784
698.60 0.2782
698.70 0.2781
698.80 0.2779
698.90 0.2778
699.00 0.2776
699.10 0.2775
699.20 0.2773
699.30 0.2772
699.40 0.277
699.50 0.2769
699.60 0.2767
699.70 0.2766
699.80 0.2764
699.90 0.2763
700.00 0.2761
700.10 0.276
700.20 0.2758
700.30 0.2757
700.40 0.2755
700.50 0.2754
700.60 0.2752
700.70 0.2751
700.80 0.2749
700.90 0.2748
701.00 0.2746
701.10 0.2745
701.20 0.2743
701.30 0.2742
701.40 0.274
701.50 0.2739
701.60 0.2737
701.70 0.2736
701.80 0.2734
701.90 0.2733
702.00 0.2731
702.10 0.273
702.20 0.2728
702.30 0.2727
702.40 0.2725
702.50 0.2724
702.60 0.2722
702.70 0.2721
702.80 0.2719
702.90 0.2718
703.00 0.2716
703.10 0.2715
703.20 0.2713
703.30 0.2712
703.40 0.271
703.50 0.2709
703.60 0.2707
703.70 0.2706
703.80 0.2704
703.90 0.2703
704.00 0.2701
704.10 0.27
704.20 0.2698
704.30 0.2697
704.40 0.2695
704.50 0.2694
704.60 0.2692
704.70 0.2691
704.80 0.2689
704.90 0.2688
705.00 0.2687
705.10 0.2685
705.20 0.2684
705.30 0.2682
705.40 0.2681
705.50 0.2679
705.60 0.2678
705.70 0.2676
705.80 0.2675
705.90 0.2673
706.00 0.2672
706.10 0.2671
706.20 0.2669
706.30 0.2668
706.40 0.2666
706.50 0.2665
706.60 0.2663
706.70 0.2662
706.80 0.266
706.90 0.2659
707.00 0.2657
707.10 0.2656
707.20 0.2655
707.30 0.2653
707.40 0.2652
707.50 0.265
707.60 0.2649
707.70 0.2647
707.80 0.2646
707.90 0.2645
708.00 0.2643
708.10 0.2642
708.20 0.264
708.30 0.2639
708.40 0.2637
708.50 0.2636
708.60 0.2634
708.70 0.2633
708.80 0.2632
708.90 0.263
709.00 0.2629
709.10 0.2627
709.20 0.2626
709.30 0.2624
709.40 0.2623
709.50 0.2622
709.60 0.262
709.70 0.2619
709.80 0.2617
709.90 0.2616
710.00 0.2614
710.10 0.2613
710.20 0.2612
710.30 0.261
710.40 0.2609
710.50 0.2607
710.60 0.2606
710.70 0.2605
710.80 0.2603
710.90 0.2602
711.00 0.26
711.10 0.2599
711.20 0.2598
711.30 0.2596
711.40 0.2595
711.50 0.2593
711.60 0.2592
711.70 0.2591
711.80 0.2589
711.90 0.2588
712.00 0.2586
712.10 0.2585
712.20 0.2584
712.30 0.2582
712.40 0.2581
712.50 0.2579
712.60 0.2578
712.70 0.2577
712.80 0.2575
712.90 0.2574
713.00 0.2572
713.10 0.2571
713.20 0.257
713.30 0.2568
713.40 0.2567
713.50 0.2566
713.60 0.2564
713.70 0.2563
713.80 0.2561
713.90 0.256
714.00 0.2559
714.10 0.2557
714.20 0.2556
714.30 0.2554
714.40 0.2553
714.50 0.2552
714.60 0.255
714.70 0.2549
714.80 0.2548
714.90 0.2546
715.00 0.2545
715.10 0.2543
715.20 0.2542
715.30 0.2541
715.40 0.2539
715.50 0.2538
715.60 0.2537
715.70 0.2535
715.80 0.2534
715.90 0.2533
716.00 0.2531
716.10 0.253
716.20 0.2528
716.30 0.2527
716.40 0.2526
716.50 0.2524
716.60 0.2523
716.70 0.2522
716.80 0.252
716.90 0.2519
717.00 0.2518
717.10 0.2516
717.20 0.2515
717.30 0.2514
717.40 0.2512
717.50 0.2511
717.60 0.251
717.70 0.2508
717.80 0.2507
717.90 0.2506
718.00 0.2504
718.10 0.2503
718.20 0.2502
718.30 0.25
718.40 0.2499
718.50 0.2497
718.60 0.2496
718.70 0.2495
718.80 0.2493
718.90 0.2492
719.00 0.2491
719.10 0.2489
719.20 0.2488
719.30 0.2487
719.40 0.2485
719.50 0.2484
719.60 0.2483
719.70 0.2481
719.80 0.248
719.90 0.2479
720.00 0.2477
720.10 0.2476
720.20 0.2475
720.30 0.2474
720.40 0.2472
720.50 0.2471
720.60 0.247
720.70 0.2468
720.80 0.2467
720.90 0.2466
721.00 0.2464
721.10 0.2463
721.20 0.2462
721.30 0.246
721.40 0.2459
721.50 0.2458
721.60 0.2456
721.70 0.2455
721.80 0.2454
721.90 0.2453
722.00 0.2451
722.10 0.245
722.20 0.2449
722.30 0.2447
722.40 0.2446
722.50 0.2445
722.60 0.2443
722.70 0.2442
722.80 0.2441
722.90 0.2439
723.00 0.2438
723.10 0.2437
723.20 0.2436
723.30 0.2434
723.40 0.2433
723.50 0.2432
723.60 0.243
723.70 0.2429
723.80 0.2428
723.90 0.2427
724.00 0.2425
724.10 0.2424
724.20 0.2423
724.30 0.2421
724.40 0.242
724.50 0.2419
724.60 0.2417
724.70 0.2416
724.80 0.2415
724.90 0.2414
725.00 0.2412
725.10 0.2411
725.20 0.241
725.30 0.2409
725.40 0.2407
725.50 0.2406
725.60 0.2405
725.70 0.2403
725.80 0.2402
725.90 0.2401
726.00 0.24
726.10 0.2398
726.20 0.2397
726.30 0.2396
726.40 0.2395
726.50 0.2393
726.60 0.2392
726.70 0.2391
726.80 0.2389
726.90 0.2388
727.00 0.2387
727.10 0.2386
727.20 0.2384
727.30 0.2383
727.40 0.2382
727.50 0.2381
727.60 0.2379
727.70 0.2378
727.80 0.2377
727.90 0.2376
728.00 0.2374
728.10 0.2373
728.20 0.2372
728.30 0.2371
728.40 0.2369
728.50 0.2368
728.60 0.2367
728.70 0.2366
728.80 0.2364
728.90 0.2363
729.00 0.2362
729.10 0.2361
729.20 0.2359
729.30 0.2358
729.40 0.2357
729.50 0.2356
729.60 0.2354
729.70 0.2353
729.80 0.2352
729.90 0.2351
730.00 0.2349
730.10 0.2348
730.20 0.2347
730.30 0.2346
730.40 0.2344
730.50 0.2343
730.60 0.2342
730.70 0.2341
730.80 0.234
730.90 0.2338
731.00 0.2337
731.10 0.2336
731.20 0.2335
731.30 0.2333
731.40 0.2332
731.50 0.2331
731.60 0.233
731.70 0.2329
731.80 0.2327
731.90 0.2326
732.00 0.2325
732.10 0.2324
732.20 0.2322
732.30 0.2321
732.40 0.232
732.50 0.2319
732.60 0.2318
732.70 0.2316
732.80 0.2315
732.90 0.2314
733.00 0.2313
733.10 0.2312
733.20 0.231
733.30 0.2309
733.40 0.2308
733.50 0.2307
733.60 0.2305
733.70 0.2304
733.80 0.2303
733.90 0.2302
734.00 0.2301
734.10 0.2299
734.20 0.2298
734.30 0.2297
734.40 0.2296
734.50 0.2295
734.60 0.2293
734.70 0.2292
734.80 0.2291
734.90 0.229
735.00 0.2289
735.10 0.2287
735.20 0.2286
735.30 0.2285
735.40 0.2284
735.50 0.2283
735.60 0.2281
735.70 0.228
735.80 0.2279
735.90 0.2278
736.00 0.2277
736.10 0.2275
736.20 0.2274
736.30 0.2273
736.40 0.2272
736.50 0.2271
736.60 0.227
736.70 0.2268
736.80 0.2267
736.90 0.2266
737.00 0.2265
737.10 0.2264
737.20 0.2262
737.30 0.2261
737.40 0.226
737.50 0.2259
737.60 0.2258
737.70 0.2256
737.80 0.2255
737.90 0.2254
738.00 0.2253
738.10 0.2252
738.20 0.2251
738.30 0.2249
738.40 0.2248
738.50 0.2247
738.60 0.2246
738.70 0.2245
738.80 0.2243
738.90 0.2242
739.00 0.2241
739.10 0.224
739.20 0.2239
739.30 0.2238
739.40 0.2236
739.50 0.2235
739.60 0.2234
739.70 0.2233
739.80 0.2232
739.90 0.2231
740.00 0.2229
740.10 0.2228
740.20 0.2227
740.30 0.2226
740.40 0.2225
740.50 0.2224
740.60 0.2223
740.70 0.2221
740.80 0.222
740.90 0.2219
741.00 0.2218
741.10 0.2217
741.20 0.2216
741.30 0.2214
741.40 0.2213
741.50 0.2212
741.60 0.2211
741.70 0.221
741.80 0.2209
741.90 0.2208
742.00 0.2207
742.10 0.2205
742.20 0.2204
742.30 0.2203
742.40 0.2202
742.50 0.2201
742.60 0.22
742.70 0.2199
742.80 0.2197
742.90 0.2196
743.00 0.2195
743.10 0.2194
743.20 0.2193
743.30 0.2192
743.40 0.2191
743.50 0.2189
743.60 0.2188
743.70 0.2187
743.80 0.2186
743.90 0.2185
744.00 0.2184
744.10 0.2183
744.20 0.2182
744.30 0.218
744.40 0.2179
744.50 0.2178
744.60 0.2177
744.70 0.2176
744.80 0.2175
744.90 0.2174
745.00 0.2173
745.10 0.2171
745.20 0.217
745.30 0.2169
745.40 0.2168
745.50 0.2167
745.60 0.2166
745.70 0.2165
745.80 0.2164
745.90 0.2162
746.00 0.2161
746.10 0.216
746.20 0.2159
746.30 0.2158
746.40 0.2157
746.50 0.2156
746.60 0.2155
746.70 0.2154
746.80 0.2152
746.90 0.2151
747.00 0.215
747.10 0.2149
747.20 0.2148
747.30 0.2147
747.40 0.2146
747.50 0.2145
747.60 0.2144
747.70 0.2142
747.80 0.2141
747.90 0.214
748.00 0.2139
748.10 0.2138
748.20 0.2137
748.30 0.2136
748.40 0.2135
748.50 0.2134
748.60 0.2132
748.70 0.2131
748.80 0.213
748.90 0.2129
749.00 0.2128
749.10 0.2127
749.20 0.2126
749.30 0.2125
749.40 0.2124
749.50 0.2123
749.60 0.2121
749.70 0.212
749.80 0.2119
749.90 0.2118
750.00 0.2117
750.10 0.2116
750.20 0.2115
750.30 0.2114
750.40 0.2113
750.50 0.2112
750.60 0.2111
750.70 0.2109
750.80 0.2108
750.90 0.2107
751.00 0.2106
751.10 0.2105
751.20 0.2104
751.30 0.2103
751.40 0.2102
751.50 0.2101
751.60 0.21
751.70 0.2099
751.80 0.2098
751.90 0.2097
752.00 0.2096
752.10 0.2094
752.20 0.2093
752.30 0.2092
752.40 0.2091
752.50 0.209
752.60 0.2089
752.70 0.2088
752.80 0.2087
752.90 0.2086
753.00 0.2085
753.10 0.2084
753.20 0.2083
753.30 0.2082
753.40 0.2081
753.50 0.208
753.60 0.2079
753.70 0.2077
753.80 0.2076
753.90 0.2075
754.00 0.2074
754.10 0.2073
754.20 0.2072
754.30 0.2071
754.40 0.207
754.50 0.2069
754.60 0.2068
754.70 0.2067
754.80 0.2066
754.90 0.2065
755.00 0.2064
755.10 0.2063
755.20 0.2062
755.30 0.2061
755.40 0.206
755.50 0.2058
755.60 0.2057
755.70 0.2056
755.80 0.2055
755.90 0.2054
756.00 0.2053
756.10 0.2052
756.20 0.2051
756.30 0.205
756.40 0.2049
756.50 0.2048
756.60 0.2047
756.70 0.2046
756.80 0.2045
756.90 0.2044
757.00 0.2043
757.10 0.2042
757.20 0.2041
757.30 0.204
757.40 0.2039
757.50 0.2038
757.60 0.2037
757.70 0.2035
757.80 0.2034
757.90 0.2033
758.00 0.2032
758.10 0.2031
758.20 0.203
758.30 0.2029
758.40 0.2028
758.50 0.2027
758.60 0.2026
758.70 0.2025
758.80 0.2024
758.90 0.2023
759.00 0.2022
759.10 0.2021
759.20 0.202
759.30 0.2019
759.40 0.2018
759.50 0.2017
759.60 0.2016
759.70 0.2015
759.80 0.2014
759.90 0.2013
760.00 0.2012
760.10 0.2011
760.20 0.201
760.30 0.2009
760.40 0.2008
760.50 0.2007
760.60 0.2006
760.70 0.2005
760.80 0.2004
760.90 0.2003
761.00 0.2002
761.10 0.2001
761.20 0.2
761.30 0.1999
761.40 0.1998
761.50 0.1997
761.60 0.1996
761.70 0.1995
761.80 0.1994
761.90 0.1993
762.00 0.1992
762.10 0.1991
762.20 0.199
762.30 0.1989
762.40 0.1988
762.50 0.1987
762.60 0.1986
762.70 0.1985
762.80 0.1984
762.90 0.1983
763.00 0.1982
763.10 0.1981
763.20 0.198
763.30 0.1979
763.40 0.1978
763.50 0.1977
763.60 0.1976
763.70 0.1975
763.80 0.1974
763.90 0.1973
764.00 0.1972
764.10 0.1971
764.20 0.197
764.30 0.1969
764.40 0.1968
764.50 0.1967
764.60 0.1966
764.70 0.1965
764.80 0.1964
764.90 0.1963
765.00 0.1962
765.10 0.1961
765.20 0.196
765.30 0.1959
765.40 0.1958
765.50 0.1957
765.60 0.1956
765.70 0.1955
765.80 0.1954
765.90 0.1953
766.00 0.1952
766.10 0.1951
766.20 0.195
766.30 0.1949
766.40 0.1948
766.50 0.1947
766.60 0.1946
766.70 0.1945
766.80 0.1944
766.90 0.1943
767.00 0.1942
767.10 0.1941
767.20 0.194
767.30 0.1939
767.40 0.1938
767.50 0.1937
767.60 0.1936
767.70 0.1935
767.80 0.1934
767.90 0.1933
768.00 0.1932
768.10 0.1931
768.20 0.193
768.30 0.1929
768.40 0.1928
768.50 0.1927
768.60 0.1926
768.70 0.1925
768.80 0.1924
768.90 0.1923
769.00 0.1922
769.10 0.1922
769.20 0.1921
769.30 0.192
769.40 0.1919
769.50 0.1918
769.60 0.1917
769.70 0.1916
769.80 0.1915
769.90 0.1914
770.00 0.1913
770.10 0.1912
770.20 0.1911
770.30 0.191
770.40 0.1909
770.50 0.1908
770.60 0.1907
770.70 0.1906
770.80 0.1905
770.90 0.1904
771.00 0.1903
771.10 0.1902
771.20 0.1901
771.30 0.19
771.40 0.19
771.50 0.1899
771.60 0.1898
771.70 0.1897
771.80 0.1896
771.90 0.1895
772.00 0.1894
772.10 0.1893
772.20 0.1892
772.30 0.1891
772.40 0.189
772.50 0.1889
772.60 0.1888
772.70 0.1887
772.80 0.1886
772.90 0.1885
773.00 0.1884
773.10 0.1884
773.20 0.1883
773.30 0.1882
773.40 0.1881
773.50 0.188
773.60 0.1879
773.70 0.1878
773.80 0.1877
773.90 0.1876
774.00 0.1875
774.10 0.1874
774.20 0.1873
774.30 0.1872
774.40 0.1871
774.50 0.187
774.60 0.187
774.70 0.1869
774.80 0.1868
774.90 0.1867
775.00 0.1866
775.10 0.1865
775.20 0.1864
775.30 0.1863
775.40 0.1862
775.50 0.1861
775.60 0.186
775.70 0.1859
775.80 0.1858
775.90 0.1857
776.00 0.1857
776.10 0.1856
776.20 0.1855
776.30 0.1854
776.40 0.1853
776.50 0.1852
776.60 0.1851
776.70 0.185
776.80 0.1849
776.90 0.1848
777.00 0.1847
777.10 0.1846
777.20 0.1846
777.30 0.1845
777.40 0.1844
777.50 0.1843
777.60 0.1842
777.70 0.1841
777.80 0.184
777.90 0.1839
778.00 0.1838
778.10 0.1837
778.20 0.1836
778.30 0.1835
778.40 0.1835
778.50 0.1834
778.60 0.1833
778.70 0.1832
778.80 0.1831
778.90 0.183
779.00 0.1829
779.10 0.1828
779.20 0.1827
779.30 0.1826
779.40 0.1825
779.50 0.1824
779.60 0.1824
779.70 0.1823
779.80 0.1822
779.90 0.1821
780.00 0.182
780.10 0.1819
780.20 0.1818
780.30 0.1817
780.40 0.1816
780.50 0.1815
780.60 0.1815
780.70 0.1814
780.80 0.1813
780.90 0.1812
781.00 0.1811
781.10 0.181
781.20 0.1809
781.30 0.1808
781.40 0.1807
781.50 0.1807
781.60 0.1806
781.70 0.1805
781.80 0.1804
781.90 0.1803
782.00 0.1802
782.10 0.1801
782.20 0.18
782.30 0.18
782.40 0.1799
782.50 0.1798
782.60 0.1797
782.70 0.1796
782.80 0.1795
782.90 0.1794
783.00 0.1793
783.10 0.1792
783.20 0.1792
783.30 0.1791
783.40 0.179
783.50 0.1789
783.60 0.1788
783.70 0.1787
783.80 0.1786
783.90 0.1785
784.00 0.1785
784.10 0.1784
784.20 0.1783
784.30 0.1782
784.40 0.1781
784.50 0.178
784.60 0.1779
784.70 0.1778
784.80 0.1778
784.90 0.1777
785.00 0.1776
785.10 0.1775
785.20 0.1774
785.30 0.1773
785.40 0.1772
785.50 0.1771
785.60 0.1771
785.70 0.177
785.80 0.1769
785.90 0.1768
786.00 0.1767
786.10 0.1766
786.20 0.1765
786.30 0.1764
786.40 0.1764
786.50 0.1763
786.60 0.1762
786.70 0.1761
786.80 0.176
786.90 0.1759
787.00 0.1758
787.10 0.1758
787.20 0.1757
787.30 0.1756
787.40 0.1755
787.50 0.1754
787.60 0.1753
787.70 0.1752
787.80 0.1752
787.90 0.1751
788.00 0.175
788.10 0.1749
788.20 0.1748
788.30 0.1747
788.40 0.1746
788.50 0.1745
788.60 0.1745
788.70 0.1744
788.80 0.1743
788.90 0.1742
789.00 0.1741
789.10 0.174
789.20 0.1739
789.30 0.1739
789.40 0.1738
789.50 0.1737
789.60 0.1736
789.70 0.1735
789.80 0.1734
789.90 0.1733
790.00 0.1733
790.10 0.1732
790.20 0.1731
790.30 0.173
790.40 0.1729
790.50 0.1728
790.60 0.1728
790.70 0.1727
790.80 0.1726
790.90 0.1725
791.00 0.1724
791.10 0.1723
791.20 0.1723
791.30 0.1722
791.40 0.1721
791.50 0.172
791.60 0.1719
791.70 0.1718
791.80 0.1718
791.90 0.1717
792.00 0.1716
792.10 0.1715
792.20 0.1714
792.30 0.1713
792.40 0.1713
792.50 0.1712
792.60 0.1711
792.70 0.171
792.80 0.1709
792.90 0.1708
793.00 0.1708
793.10 0.1707
793.20 0.1706
793.30 0.1705
793.40 0.1704
793.50 0.1703
793.60 0.1703
793.70 0.1702
793.80 0.1701
793.90 0.17
794.00 0.1699
794.10 0.1699
794.20 0.1698
794.30 0.1697
794.40 0.1696
794.50 0.1695
794.60 0.1694
794.70 0.1694
794.80 0.1693
794.90 0.1692
795.00 0.1691
795.10 0.169
795.20 0.169
795.30 0.1689
795.40 0.1688
795.50 0.1687
795.60 0.1686
795.70 0.1685
795.80 0.1685
795.90 0.1684
796.00 0.1683
796.10 0.1682
796.20 0.1681
796.30 0.168
796.40 0.168
796.50 0.1679
796.60 0.1678
796.70 0.1677
796.80 0.1676
796.90 0.1676
797.00 0.1675
797.10 0.1674
797.20 0.1673
797.30 0.1672
797.40 0.1672
797.50 0.1671
797.60 0.167
797.70 0.1669
797.80 0.1668
797.90 0.1667
798.00 0.1667
798.10 0.1666
798.20 0.1665
798.30 0.1664
798.40 0.1663
798.50 0.1663
798.60 0.1662
798.70 0.1661
798.80 0.166
798.90 0.1659
799.00 0.1659
799.10 0.1658
799.20 0.1657
799.30 0.1656
799.40 0.1655
799.50 0.1655
799.60 0.1654
799.70 0.1653
799.80 0.1652
799.90 0.1651
800.00 0.1651
800.10 0.165
800.20 0.1649
800.30 0.1648
800.40 0.1647
800.50 0.1647
800.60 0.1646
800.70 0.1645
800.80 0.1644
800.90 0.1643
801.00 0.1643
801.10 0.1642
801.20 0.1641
801.30 0.164
801.40 0.164
801.50 0.1639
801.60 0.1638
801.70 0.1637
801.80 0.1636
801.90 0.1636
802.00 0.1635
802.10 0.1634
802.20 0.1633
802.30 0.1632
802.40 0.1632
802.50 0.1631
802.60 0.163
802.70 0.1629
802.80 0.1629
802.90 0.1628
803.00 0.1627
803.10 0.1626
803.20 0.1625
803.30 0.1625
803.40 0.1624
803.50 0.1623
803.60 0.1622
803.70 0.1622
803.80 0.1621
803.90 0.162
804.00 0.1619
804.10 0.1618
804.20 0.1618
804.30 0.1617
804.40 0.1616
804.50 0.1615
804.60 0.1615
804.70 0.1614
804.80 0.1613
804.90 0.1612
805.00 0.1611
805.10 0.1611
805.20 0.161
805.30 0.1609
805.40 0.1608
805.50 0.1608
805.60 0.1607
805.70 0.1606
805.80 0.1605
805.90 0.1605
806.00 0.1604
806.10 0.1603
806.20 0.1602
806.30 0.1601
806.40 0.1601
806.50 0.16
806.60 0.1599
806.70 0.1598
806.80 0.1598
806.90 0.1597
807.00 0.1596
807.10 0.1595
807.20 0.1595
807.30 0.1594
807.40 0.1593
807.50 0.1592
807.60 0.1591
807.70 0.1591
807.80 0.159
807.90 0.1589
808.00 0.1588
808.10 0.1588
808.20 0.1587
808.30 0.1586
808.40 0.1585
808.50 0.1585
808.60 0.1584
808.70 0.1583
808.80 0.1582
808.90 0.1582
809.00 0.1581
809.10 0.158
809.20 0.1579
809.30 0.1579
809.40 0.1578
809.50 0.1577
809.60 0.1576
809.70 0.1576
809.80 0.1575
809.90 0.1574
810.00 0.1573
810.10 0.1573
810.20 0.1572
810.30 0.1571
810.40 0.157
810.50 0.157
810.60 0.1569
810.70 0.1568
810.80 0.1567
810.90 0.1567
811.00 0.1566
811.10 0.1565
811.20 0.1564
811.30 0.1564
811.40 0.1563
811.50 0.1562
811.60 0.1561
811.70 0.1561
811.80 0.156
811.90 0.1559
812.00 0.1558
812.10 0.1558
812.20 0.1557
812.30 0.1556
812.40 0.1555
812.50 0.1555
812.60 0.1554
812.70 0.1553
812.80 0.1553
812.90 0.1552
813.00 0.1551
813.10 0.155
813.20 0.155
813.30 0.1549
813.40 0.1548
813.50 0.1547
813.60 0.1547
813.70 0.1546
813.80 0.1545
813.90 0.1544
814.00 0.1544
814.10 0.1543
814.20 0.1542
814.30 0.1542
814.40 0.1541
814.50 0.154
814.60 0.1539
814.70 0.1539
814.80 0.1538
814.90 0.1537
815.00 0.1536
815.10 0.1536
815.20 0.1535
815.30 0.1534
815.40 0.1534
815.50 0.1533
815.60 0.1532
815.70 0.1531
815.80 0.1531
815.90 0.153
816.00 0.1529
816.10 0.1528
816.20 0.1528
816.30 0.1527
816.40 0.1526
816.50 0.1526
816.60 0.1525
816.70 0.1524
816.80 0.1523
816.90 0.1523
817.00 0.1522
817.10 0.1521
817.20 0.1521
817.30 0.152
817.40 0.1519
817.50 0.1518
817.60 0.1518
817.70 0.1517
817.80 0.1516
817.90 0.1515
818.00 0.1515
818.10 0.1514
818.20 0.1513
818.30 0.1513
818.40 0.1512
818.50 0.1511
818.60 0.151
818.70 0.151
818.80 0.1509
818.90 0.1508
819.00 0.1508
819.10 0.1507
819.20 0.1506
819.30 0.1505
819.40 0.1505
819.50 0.1504
819.60 0.1503
819.70 0.1503
819.80 0.1502
819.90 0.1501
820.00 0.15
820.10 0.15
820.20 0.1499
820.30 0.1498
820.40 0.1498
820.50 0.1497
820.60 0.1496
820.70 0.1496
820.80 0.1495
820.90 0.1494
821.00 0.1493
821.10 0.1493
821.20 0.1492
821.30 0.1491
821.40 0.1491
821.50 0.149
821.60 0.1489
821.70 0.1488
821.80 0.1488
821.90 0.1487
822.00 0.1486
822.10 0.1486
822.20 0.1485
822.30 0.1484
822.40 0.1484
822.50 0.1483
822.60 0.1482
822.70 0.1482
822.80 0.1481
822.90 0.148
823.00 0.1479
823.10 0.1479
823.20 0.1478
823.30 0.1477
823.40 0.1477
823.50 0.1476
823.60 0.1475
823.70 0.1475
823.80 0.1474
823.90 0.1473
824.00 0.1473
824.10 0.1472
824.20 0.1471
824.30 0.147
824.40 0.147
824.50 0.1469
824.60 0.1468
824.70 0.1468
824.80 0.1467
824.90 0.1466
825.00 0.1466
825.10 0.1465
825.20 0.1464
825.30 0.1464
825.40 0.1463
825.50 0.1462
825.60 0.1462
825.70 0.1461
825.80 0.146
825.90 0.1459
826.00 0.1459
826.10 0.1458
826.20 0.1457
826.30 0.1457
826.40 0.1456
826.50 0.1455
826.60 0.1455
826.70 0.1454
826.80 0.1453
826.90 0.1453
827.00 0.1452
827.10 0.1451
827.20 0.1451
827.30 0.145
827.40 0.1449
827.50 0.1449
827.60 0.1448
827.70 0.1447
827.80 0.1447
827.90 0.1446
828.00 0.1445
828.10 0.1445
828.20 0.1444
828.30 0.1443
828.40 0.1443
828.50 0.1442
828.60 0.1441
828.70 0.1441
828.80 0.144
828.90 0.1439
829.00 0.1438
829.10 0.1438
829.20 0.1437
829.30 0.1436
829.40 0.1436
829.50 0.1435
829.60 0.1434
829.70 0.1434
829.80 0.1433
829.90 0.1432
830.00 0.1432
830.10 0.1431
830.20 0.143
830.30 0.143
830.40 0.1429
830.50 0.1428
830.60 0.1428
830.70 0.1427
830.80 0.1426
830.90 0.1426
831.00 0.1425
831.10 0.1424
831.20 0.1424
831.30 0.1423
831.40 0.1422
831.50 0.1422
831.60 0.1421
831.70 0.142
831.80 0.142
831.90 0.1419
832.00 0.1418
832.10 0.1418
832.20 0.1417
832.30 0.1417
832.40 0.1416
832.50 0.1415
832.60 0.1415
832.70 0.1414
832.80 0.1413
832.90 0.1413
833.00 0.1412
833.10 0.1411
833.20 0.1411
833.30 0.141
833.40 0.1409
833.50 0.1409
833.60 0.1408
833.70 0.1407
833.80 0.1407
833.90 0.1406
834.00 0.1405
834.10 0.1405
834.20 0.1404
834.30 0.1403
834.40 0.1403
834.50 0.1402
834.60 0.1401
834.70 0.1401
834.80 0.14
834.90 0.1399
835.00 0.1399
835.10 0.1398
835.20 0.1398
835.30 0.1397
835.40 0.1396
835.50 0.1396
835.60 0.1395
835.70 0.1394
835.80 0.1394
835.90 0.1393
836.00 0.1392
836.10 0.1392
836.20 0.1391
836.30 0.139
836.40 0.139
836.50 0.1389
836.60 0.1388
836.70 0.1388
836.80 0.1387
836.90 0.1386
837.00 0.1386
837.10 0.1385
837.20 0.1385
837.30 0.1384
837.40 0.1383
837.50 0.1383
837.60 0.1382
837.70 0.1381
837.80 0.1381
837.90 0.138
838.00 0.1379
838.10 0.1379
838.20 0.1378
838.30 0.1378
838.40 0.1377
838.50 0.1376
838.60 0.1376
838.70 0.1375
838.80 0.1374
838.90 0.1374
839.00 0.1373
839.10 0.1372
839.20 0.1372
839.30 0.1371
839.40 0.1371
839.50 0.137
839.60 0.1369
839.70 0.1369
839.80 0.1368
839.90 0.1367
840.00 0.1367
840.10 0.1366
840.20 0.1366
840.30 0.1365
840.40 0.1364
840.50 0.1364
840.60 0.1363
840.70 0.1362
840.80 0.1362
840.90 0.1361
841.00 0.136
841.10 0.136
841.20 0.1359
841.30 0.1359
841.40 0.1358
841.50 0.1357
841.60 0.1357
841.70 0.1356
841.80 0.1355
841.90 0.1355
842.00 0.1354
842.10 0.1354
842.20 0.1353
842.30 0.1352
842.40 0.1352
842.50 0.1351
842.60 0.135
842.70 0.135
842.80 0.1349
842.90 0.1349
843.00 0.1348
843.10 0.1347
843.20 0.1347
843.30 0.1346
843.40 0.1346
843.50 0.1345
843.60 0.1344
843.70 0.1344
843.80 0.1343
843.90 0.1342
844.00 0.1342
844.10 0.1341
844.20 0.1341
844.30 0.134
844.40 0.1339
844.50 0.1339
844.60 0.1338
844.70 0.1338
844.80 0.1337
844.90 0.1336
845.00 0.1336
845.10 0.1335
845.20 0.1334
845.30 0.1334
845.40 0.1333
845.50 0.1333
845.60 0.1332
845.70 0.1331
845.80 0.1331
845.90 0.133
846.00 0.133
846.10 0.1329
846.20 0.1328
846.30 0.1328
846.40 0.1327
846.50 0.1326
846.60 0.1326
846.70 0.1325
846.80 0.1325
846.90 0.1324
847.00 0.1323
847.10 0.1323
847.20 0.1322
847.30 0.1322
847.40 0.1321
847.50 0.132
847.60 0.132
847.70 0.1319
847.80 0.1319
847.90 0.1318
848.00 0.1317
848.10 0.1317
848.20 0.1316
848.30 0.1316
848.40 0.1315
848.50 0.1314
848.60 0.1314
848.70 0.1313
848.80 0.1313
848.90 0.1312
849.00 0.1311
849.10 0.1311
849.20 0.131
849.30 0.131
849.40 0.1309
849.50 0.1308
849.60 0.1308
849.70 0.1307
849.80 0.1307
849.90 0.1306
850.00 0.1305
850.10 0.1305
850.20 0.1304
850.30 0.1304
850.40 0.1303
850.50 0.1302
850.60 0.1302
850.70 0.1301
850.80 0.1301
850.90 0.13
851.00 0.13
851.10 0.1299
851.20 0.1298
851.30 0.1298
851.40 0.1297
851.50 0.1297
851.60 0.1296
851.70 0.1295
851.80 0.1295
851.90 0.1294
852.00 0.1294
852.10 0.1293
852.20 0.1292
852.30 0.1292
852.40 0.1291
852.50 0.1291
852.60 0.129
852.70 0.1289
852.80 0.1289
852.90 0.1288
853.00 0.1288
853.10 0.1287
853.20 0.1287
853.30 0.1286
853.40 0.1285
853.50 0.1285
853.60 0.1284
853.70 0.1284
853.80 0.1283
853.90 0.1283
854.00 0.1282
854.10 0.1281
854.20 0.1281
854.30 0.128
854.40 0.128
854.50 0.1279
854.60 0.1278
854.70 0.1278
854.80 0.1277
854.90 0.1277
855.00 0.1276
855.10 0.1276
855.20 0.1275
855.30 0.1274
855.40 0.1274
855.50 0.1273
855.60 0.1273
855.70 0.1272
855.80 0.1272
855.90 0.1271
856.00 0.127
856.10 0.127
856.20 0.1269
856.30 0.1269
856.40 0.1268
856.50 0.1268
856.60 0.1267
856.70 0.1266
856.80 0.1266
856.90 0.1265
857.00 0.1265
857.10 0.1264
857.20 0.1264
857.30 0.1263
857.40 0.1262
857.50 0.1262
857.60 0.1261
857.70 0.1261
857.80 0.126
857.90 0.126
858.00 0.1259
858.10 0.1258
858.20 0.1258
858.30 0.1257
858.40 0.1257
858.50 0.1256
858.60 0.1256
858.70 0.1255
858.80 0.1254
858.90 0.1254
859.00 0.1253
859.10 0.1253
859.20 0.1252
859.30 0.1252
859.40 0.1251
859.50 0.1251
859.60 0.125
859.70 0.1249
859.80 0.1249
859.90 0.1248
860.00 0.1248
860.10 0.1247
860.20 0.1247
860.30 0.1246
860.40 0.1246
860.50 0.1245
860.60 0.1244
860.70 0.1244
860.80 0.1243
860.90 0.1243
861.00 0.1242
861.10 0.1242
861.20 0.1241
861.30 0.124
861.40 0.124
861.50 0.1239
861.60 0.1239
861.70 0.1238
861.80 0.1238
861.90 0.1237
862.00 0.1237
862.10 0.1236
862.20 0.1236
862.30 0.1235
862.40 0.1234
862.50 0.1234
862.60 0.1233
862.70 0.1233
862.80 0.1232
862.90 0.1232
863.00 0.1231
863.10 0.1231
863.20 0.123
863.30 0.123
863.40 0.1229
863.50 0.1228
863.60 0.1228
863.70 0.1227
863.80 0.1227
863.90 0.1226
864.00 0.1226
864.10 0.1225
864.20 0.1225
864.30 0.1224
864.40 0.1224
864.50 0.1223
864.60 0.1222
864.70 0.1222
864.80 0.1221
864.90 0.1221
865.00 0.122
865.10 0.122
865.20 0.1219
865.30 0.1219
865.40 0.1218
865.50 0.1218
865.60 0.1217
865.70 0.1216
865.80 0.1216
865.90 0.1215
866.00 0.1215
866.10 0.1214
866.20 0.1214
866.30 0.1213
866.40 0.1213
866.50 0.1212
866.60 0.1212
866.70 0.1211
866.80 0.1211
866.90 0.121
867.00 0.1209
867.10 0.1209
867.20 0.1208
867.30 0.1208
867.40 0.1207
867.50 0.1207
867.60 0.1206
867.70 0.1206
867.80 0.1205
867.90 0.1205
868.00 0.1204
868.10 0.1204
868.20 0.1203
868.30 0.1203
868.40 0.1202
868.50 0.1201
868.60 0.1201
868.70 0.12
868.80 0.12
868.90 0.1199
869.00 0.1199
869.10 0.1198
869.20 0.1198
869.30 0.1197
869.40 0.1197
869.50 0.1196
869.60 0.1196
869.70 0.1195
869.80 0.1195
869.90 0.1194
870.00 0.1194
870.10 0.1193
870.20 0.1192
870.30 0.1192
870.40 0.1191
870.50 0.1191
870.60 0.119
870.70 0.119
870.80 0.1189
870.90 0.1189
871.00 0.1188
871.10 0.1188
871.20 0.1187
871.30 0.1187
871.40 0.1186
871.50 0.1186
871.60 0.1185
871.70 0.1185
871.80 0.1184
871.90 0.1183
872.00 0.1183
872.10 0.1182
872.20 0.1182
872.30 0.1181
872.40 0.1181
872.50 0.118
872.60 0.118
872.70 0.1179
872.80 0.1179
872.90 0.1178
873.00 0.1178
873.10 0.1177
873.20 0.1177
873.30 0.1176
873.40 0.1176
873.50 0.1175
873.60 0.1175
873.70 0.1174
873.80 0.1174
873.90 0.1173
874.00 0.1173
874.10 0.1172
874.20 0.1172
874.30 0.1171
874.40 0.1171
874.50 0.117
874.60 0.117
874.70 0.1169
874.80 0.1169
874.90 0.1168
875.00 0.1168
875.10 0.1167
875.20 0.1167
875.30 0.1166
875.40 0.1165
875.50 0.1165
875.60 0.1164
875.70 0.1164
875.80 0.1163
875.90 0.1163
876.00 0.1162
876.10 0.1162
876.20 0.1161
876.30 0.1161
876.40 0.116
876.50 0.116
876.60 0.1159
876.70 0.1159
876.80 0.1158
876.90 0.1158
877.00 0.1157
877.10 0.1157
877.20 0.1156
877.30 0.1156
877.40 0.1155
877.50 0.1155
877.60 0.1154
877.70 0.1154
877.80 0.1153
877.90 0.1153
878.00 0.1152
878.10 0.1152
878.20 0.1151
878.30 0.1151
878.40 0.115
878.50 0.115
878.60 0.1149
878.70 0.1149
878.80 0.1148
878.90 0.1148
879.00 0.1147
879.10 0.1147
879.20 0.1146
879.30 0.1146
879.40 0.1145
879.50 0.1145
879.60 0.1144
879.70 0.1144
879.80 0.1143
879.90 0.1143
880.00 0.1142
880.10 0.1142
880.20 0.1141
880.30 0.1141
880.40 0.114
880.50 0.114
880.60 0.1139
880.70 0.1139
880.80 0.1138
880.90 0.1138
881.00 0.1137
881.10 0.1137
881.20 0.1136
881.30 0.1136
881.40 0.1135
881.50 0.1135
881.60 0.1134
881.70 0.1134
881.80 0.1133
881.90 0.1133
882.00 0.1132
882.10 0.1132
882.20 0.1131
882.30 0.1131
882.40 0.113
882.50 0.113
882.60 0.1129
882.70 0.1129
882.80 0.1128
882.90 0.1128
883.00 0.1127
883.10 0.1127
883.20 0.1126
883.30 0.1126
883.40 0.1125
883.50 0.1125
883.60 0.1124
883.70 0.1124
883.80 0.1123
883.90 0.1123
884.00 0.1122
884.10 0.1122
884.20 0.1121
884.30 0.1121
884.40 0.112
884.50 0.112
884.60 0.1119
884.70 0.1119
884.80 0.1118
884.90 0.1118
885.00 0.1117
885.10 0.1117
885.20 0.1116
885.30 0.1116
885.40 0.1115
885.50 0.1115
885.60 0.1114
885.70 0.1114
885.80 0.1113
885.90 0.1113
886.00 0.1112
886.10 0.1112
886.20 0.1111
886.30 0.1111
886.40 0.1111
886.50 0.111
886.60 0.111
886.70 0.1109
886.80 0.1109
886.90 0.1108
887.00 0.1108
887.10 0.1107
887.20 0.1107
887.30 0.1106
887.40 0.1106
887.50 0.1105
887.60 0.1105
887.70 0.1104
887.80 0.1104
887.90 0.1103
888.00 0.1103
888.10 0.1103
888.20 0.1102
888.30 0.1102
888.40 0.1101
888.50 0.1101
888.60 0.11
888.70 0.11
888.80 0.1099
888.90 0.1099
889.00 0.1098
889.10 0.1098
889.20 0.1098
889.30 0.1097
889.40 0.1097
889.50 0.1096
889.60 0.1096
889.70 0.1095
889.80 0.1095
889.90 0.1094
890.00 0.1094
890.10 0.1093
890.20 0.1093
890.30 0.1093
890.40 0.1092
890.50 0.1092
890.60 0.1091
890.70 0.1091
890.80 0.109
890.90 0.109
891.00 0.1089
891.10 0.1089
891.20 0.1089
891.30 0.1088
891.40 0.1088
891.50 0.1087
891.60 0.1087
891.70 0.1086
891.80 0.1086
891.90 0.1085
892.00 0.1085
892.10 0.1084
892.20 0.1084
892.30 0.1083
892.40 0.1083
892.50 0.1082
892.60 0.1082
892.70 0.1082
892.80 0.1081
892.90 0.1081
893.00 0.108
893.10 0.108
893.20 0.1079
893.30 0.1079
893.40 0.1078
893.50 0.1078
893.60 0.1077
893.70 0.1077
893.80 0.1076
893.90 0.1076
894.00 0.1075
894.10 0.1075
894.20 0.1074
894.30 0.1074
894.40 0.1073
894.50 0.1073
894.60 0.1072
894.70 0.1072
894.80 0.1071
894.90 0.1071
895.00 0.107
895.10 0.107
895.20 0.1069
895.30 0.1069
895.40 0.1068
895.50 0.1068
895.60 0.1067
895.70 0.1067
895.80 0.1066
895.90 0.1066
896.00 0.1065
896.10 0.1065
896.20 0.1064
896.30 0.1064
896.40 0.1064
896.50 0.1063
896.60 0.1063
896.70 0.1062
896.80 0.1062
896.90 0.1061
897.00 0.1061
897.10 0.106
897.20 0.106
897.30 0.1059
897.40 0.1059
897.50 0.1058
897.60 0.1058
897.70 0.1057
897.80 0.1057
897.90 0.1056
898.00 0.1056
898.10 0.1055
898.20 0.1055
898.30 0.1054
898.40 0.1054
898.50 0.1053
898.60 0.1053
898.70 0.1052
898.80 0.1052
898.90 0.1051
899.00 0.1051
899.10 0.105
899.20 0.105
899.30 0.1049
899.40 0.1049
899.50 0.1048
899.60 0.1048
899.70 0.1047
899.80 0.1047
899.90 0.1046
900.00 0.1046
900.10 0.1045
900.20 0.1045
900.30 0.1044
900.40 0.1044
900.50 0.1043
900.60 0.1043
900.70 0.1042
900.80 0.1042
900.90 0.1041
901.00 0.1041
901.10 0.104
901.20 0.104
901.30 0.1039
901.40 0.1039
901.50 0.1038
901.60 0.1038
901.70 0.1037
901.80 0.1037
901.90 0.1036
902.00 0.1036
902.10 0.1035
902.20 0.1035
902.30 0.1035
902.40 0.1034
902.50 0.1034
902.60 0.1034
902.70 0.1033
902.80 0.1033
902.90 0.1033
903.00 0.1032
903.10 0.1032
903.20 0.1031
903.30 0.1031
903.40 0.1031
903.50 0.103
903.60 0.103
903.70 0.103
903.80 0.1029
903.90 0.1029
904.00 0.1029
904.10 0.1028
904.20 0.1028
904.30 0.1027
904.40 0.1027
904.50 0.1027
904.60 0.1026
904.70 0.1026
904.80 0.1026
904.90 0.1025
905.00 0.1025
905.10 0.1025
905.20 0.1024
905.30 0.1024
905.40 0.1023
905.50 0.1023
905.60 0.1023
905.70 0.1022
905.80 0.1022
905.90 0.1022
906.00 0.1021
906.10 0.1021
906.20 0.1021
906.30 0.102
906.40 0.102
906.50 0.1019
906.60 0.1019
906.70 0.1019
906.80 0.1018
906.90 0.1018
907.00 0.1018
907.10 0.1017
907.20 0.1017
907.30 0.1016
907.40 0.1016
907.50 0.1016
907.60 0.1015
907.70 0.1015
907.80 0.1014
907.90 0.1014
908.00 0.1014
908.10 0.1013
908.20 0.1013
908.30 0.1012
908.40 0.1012
908.50 0.1012
908.60 0.1011
908.70 0.1011
908.80 0.101
908.90 0.101
909.00 0.101
909.10 0.1009
909.20 0.1009
909.30 0.1008
909.40 0.1008
909.50 0.1008
909.60 0.1007
909.70 0.1007
909.80 0.1006
909.90 0.1006
910.00 0.1006
910.10 0.1005
910.20 0.1005
910.30 0.1004
910.40 0.1004
910.50 0.1004
910.60 0.1003
910.70 0.1003
910.80 0.1002
910.90 0.1002
911.00 0.1002
911.10 0.1001
911.20 0.1001
911.30 0.1
911.40 0.09999
911.50 0.09995
911.60 0.09991
911.70 0.09987
911.80 0.09983
911.90 0.09979
912.00 0.09975
912.10 0.09971
912.20 0.09966
912.30 0.09961
912.40 0.09957
912.50 0.09952
912.60 0.09947
912.70 0.09942
912.80 0.09938
912.90 0.09933
913.00 0.09928
913.10 0.09924
913.20 0.09919
913.30 0.09914
913.40 0.0991
913.50 0.09905
913.60 0.099
913.70 0.09896
913.80 0.09891
913.90 0.09886
914.00 0.09882
914.10 0.09877
914.20 0.09872
914.30 0.09868
914.40 0.09863
914.50 0.09859
914.60 0.09854
914.70 0.09849
914.80 0.09845
914.90 0.0984
915.00 0.09835
915.10 0.09831
915.20 0.09826
915.30 0.09821
915.40 0.09817
915.50 0.09812
915.60 0.09807
915.70 0.09803
915.80 0.09798
915.90 0.09794
916.00 0.09789
916.10 0.09784
916.20 0.0978
916.30 0.09775
916.40 0.09771
916.50 0.09766
916.60 0.09761
916.70 0.09757
916.80 0.09752
916.90 0.09747
917.00 0.09743
917.10 0.09737
917.20 0.09732
917.30 0.09726
917.40 0.09721
917.50 0.09715
917.60 0.0971
917.70 0.09704
917.80 0.09699
917.90 0.09693
918.00 0.09688
918.10 0.09682
918.20 0.09677
918.30 0.09671
918.40 0.09666
918.50 0.09661
918.60 0.09655
918.70 0.0965
918.80 0.09644
918.90 0.09639
919.00 0.09633
919.10 0.09628
919.20 0.09622
919.30 0.09617
919.40 0.09611
919.50 0.09606
919.60 0.09601
919.70 0.09595
919.80 0.0959
919.90 0.09584
920.00 0.09579
920.10 0.09573
920.20 0.09568
920.30 0.09562
920.40 0.09557
920.50 0.09552
920.60 0.09546
920.70 0.09541
920.80 0.09535
920.90 0.0953
921.00 0.09524
921.10 0.09519
921.20 0.09514
921.30 0.09508
921.40 0.09503
921.50 0.09497
921.60 0.09492
921.70 0.09487
921.80 0.09481
921.90 0.09476
922.00 0.0947
922.10 0.09468
922.20 0.09465
922.30 0.09462
922.40 0.09459
922.50 0.09456
922.60 0.09453
922.70 0.0945
922.80 0.09447
922.90 0.09444
923.00 0.09442
923.10 0.09439
923.20 0.09436
923.30 0.09433
923.40 0.0943
923.50 0.09427
923.60 0.09424
923.70 0.09421
923.80 0.09419
923.90 0.09416
924.00 0.09413
924.10 0.0941
924.20 0.09407
924.30 0.09404
924.40 0.09401
924.50 0.09398
924.60 0.09396
924.70 0.09393
924.80 0.0939
924.90 0.09387
925.00 0.09384
925.10 0.09381
925.20 0.09378
925.30 0.09376
925.40 0.09373
925.50 0.0937
925.60 0.09367
925.70 0.09364
925.80 0.09361
925.90 0.09358
926.00 0.09356
926.10 0.09353
926.20 0.0935
926.30 0.09347
926.40 0.09344
926.50 0.09341
926.60 0.09339
926.70 0.09336
926.80 0.09333
926.90 0.0933
927.00 0.09327
927.10 0.09324
927.20 0.09321
927.30 0.09318
927.40 0.09315
927.50 0.09312
927.60 0.09309
927.70 0.09306
927.80 0.09304
927.90 0.09301
928.00 0.09298
928.10 0.09295
928.20 0.09292
928.30 0.09289
928.40 0.09286
928.50 0.09283
928.60 0.0928
928.70 0.09277
928.80 0.09274
928.90 0.09271
929.00 0.09268
929.10 0.09265
929.20 0.09262
929.30 0.09259
929.40 0.09256
929.50 0.09253
929.60 0.0925
929.70 0.09248
929.80 0.09245
929.90 0.09242
930.00 0.09239
930.10 0.09236
930.20 0.09233
930.30 0.0923
930.40 0.09227
930.50 0.09224
930.60 0.09221
930.70 0.09218
930.80 0.09215
930.90 0.09212
931.00 0.09209
931.10 0.09207
931.20 0.09204
931.30 0.09201
931.40 0.09198
931.50 0.09195
931.60 0.09192
931.70 0.09189
931.80 0.09186
931.90 0.09183
932.00 0.0918
932.10 0.09177
932.20 0.09173
932.30 0.0917
932.40 0.09167
932.50 0.09163
932.60 0.0916
932.70 0.09156
932.80 0.09153
932.90 0.09149
933.00 0.09146
933.10 0.09143
933.20 0.09139
933.30 0.09136
933.40 0.09132
933.50 0.09129
933.60 0.09125
933.70 0.09122
933.80 0.09119
933.90 0.09115
934.00 0.09112
934.10 0.09108
934.20 0.09105
934.30 0.09102
934.40 0.09098
934.50 0.09094
934.60 0.09091
934.70 0.09087
934.80 0.09084
934.90 0.0908
935.00 0.09076
935.10 0.09073
935.20 0.09069
935.30 0.09066
935.40 0.09062
935.50 0.09058
935.60 0.09055
935.70 0.09051
935.80 0.09048
935.90 0.09044
936.00 0.09041
936.10 0.09037
936.20 0.09033
936.30 0.0903
936.40 0.09026
936.50 0.09023
936.60 0.09019
936.70 0.09015
936.80 0.09012
936.90 0.09008
937.00 0.09005
937.10 0.09001
937.20 0.08997
937.30 0.08994
937.40 0.0899
937.50 0.08986
937.60 0.08983
937.70 0.08979
937.80 0.08975
937.90 0.08972
938.00 0.08968
938.10 0.08964
938.20 0.08961
938.30 0.08957
938.40 0.08953
938.50 0.0895
938.60 0.08946
938.70 0.08942
938.80 0.08938
938.90 0.08935
939.00 0.08931
939.10 0.08927
939.20 0.08923
939.30 0.0892
939.40 0.08916
939.50 0.08912
939.60 0.08908
939.70 0.08905
939.80 0.08901
939.90 0.08897
940.00 0.08893
940.10 0.0889
940.20 0.08886
940.30 0.08882
940.40 0.08878
940.50 0.08875
940.60 0.08871
940.70 0.08867
940.80 0.08863
940.90 0.08859
941.00 0.08855
941.10 0.08852
941.20 0.08848
941.30 0.08844
941.40 0.0884
941.50 0.08836
941.60 0.08832
941.70 0.08829
941.80 0.08825
941.90 0.08821
942.00 0.08817
942.10 0.08813
942.20 0.08809
942.30 0.08806
942.40 0.08802
942.50 0.08798
942.60 0.08794
942.70 0.0879
942.80 0.08786
942.90 0.08782
943.00 0.08778
943.10 0.08774
943.20 0.0877
943.30 0.08766
943.40 0.08762
943.50 0.08758
943.60 0.08754
943.70 0.0875
943.80 0.08746
943.90 0.08742
944.00 0.08738
944.10 0.08734
944.20 0.0873
944.30 0.08726
944.40 0.08722
944.50 0.08718
944.60 0.08714
944.70 0.0871
944.80 0.08706
944.90 0.08701
945.00 0.08697
945.10 0.08693
945.20 0.08689
945.30 0.08685
945.40 0.08681
945.50 0.08676
945.60 0.08672
945.70 0.08668
945.80 0.08663
945.90 0.08659
946.00 0.08655
946.10 0.0865
946.20 0.08646
946.30 0.08642
946.40 0.08637
946.50 0.08633
946.60 0.08629
946.70 0.08624
946.80 0.0862
946.90 0.08616
947.00 0.08611
947.10 0.08607
947.20 0.08602
947.30 0.08598
947.40 0.08593
947.50 0.08588
947.60 0.08583
947.70 0.08578
947.80 0.08573
947.90 0.08568
948.00 0.08564
948.10 0.08559
948.20 0.08554
948.30 0.08549
948.40 0.08544
948.50 0.08539
948.60 0.08534
948.70 0.0853
948.80 0.08525
948.90 0.0852
949.00 0.08515
949.10 0.0851
949.20 0.08505
949.30 0.08501
949.40 0.08495
949.50 0.08489
949.60 0.08484
949.70 0.08478
949.80 0.08472
949.90 0.08467
950.00 0.08461
950.10 0.08456
950.20 0.0845
950.30 0.08444
950.40 0.08439
950.50 0.08433
950.60 0.08428
950.70 0.08422
950.80 0.08416
950.90 0.08411
951.00 0.08405
951.10 0.084
951.20 0.08394
951.30 0.08389
951.40 0.08382
951.50 0.08376
951.60 0.0837
951.70 0.08364
951.80 0.08358
951.90 0.08351
952.00 0.08345
952.10 0.08339
952.20 0.08332
952.30 0.08326
952.40 0.0832
952.50 0.08313
952.60 0.08307
952.70 0.083
952.80 0.08294
952.90 0.08288
953.00 0.08282
953.10 0.08275
953.20 0.08269
953.30 0.08263
953.40 0.08257
953.50 0.0825
953.60 0.08245
953.70 0.08239
953.80 0.08234
953.90 0.08228
954.00 0.08224
954.10 0.08219
954.20 0.08216
954.30 0.08213
954.40 0.08211
954.50 0.08209
954.60 0.08206
954.70 0.08203
954.80 0.08199
954.90 0.08195
955.00 0.08191
955.10 0.08187
955.20 0.08185
955.30 0.08184
955.40 0.08183
955.50 0.08182
955.60 0.0818
955.70 0.08179
955.80 0.08178
955.90 0.08178
956.00 0.08177
956.10 0.08177
956.20 0.08177
956.30 0.08176
956.40 0.08176
956.50 0.08176
956.60 0.08176
956.70 0.08175
956.80 0.08175
956.90 0.08175
957.00 0.08174
957.10 0.08174
957.20 0.08174
957.30 0.08173
957.40 0.08172
957.50 0.08171
957.60 0.0817
957.70 0.0817
957.80 0.08169
957.90 0.08168
958.00 0.08167
958.10 0.08166
958.20 0.08165
958.30 0.08164
958.40 0.08163
958.50 0.08162
958.60 0.08161
958.70 0.08161
958.80 0.0816
958.90 0.08159
959.00 0.08158
959.10 0.08157
959.20 0.08156
959.30 0.08155
959.40 0.08153
959.50 0.08152
959.60 0.0815
959.70 0.08148
959.80 0.08146
959.90 0.08145
960.00 0.08143
960.10 0.08141
960.20 0.08139
960.30 0.08137
960.40 0.08136
960.50 0.08134
960.60 0.08132
960.70 0.0813
960.80 0.08129
960.90 0.08127
961.00 0.08125
961.10 0.08123
961.20 0.08122
961.30 0.0812
961.40 0.08118
961.50 0.08115
961.60 0.08113
961.70 0.08111
961.80 0.08109
961.90 0.08107
962.00 0.08104
962.10 0.08102
962.20 0.081
962.30 0.08097
962.40 0.08095
962.50 0.08092
962.60 0.0809
962.70 0.08087
962.80 0.08085
962.90 0.08083
963.00 0.0808
963.10 0.08078
963.20 0.08075
963.30 0.08073
963.40 0.0807
963.50 0.08068
963.60 0.08065
963.70 0.08062
963.80 0.0806
963.90 0.08057
964.00 0.08055
964.10 0.08052
964.20 0.08049
964.30 0.08047
964.40 0.08044
964.50 0.08041
964.60 0.08038
964.70 0.08035
964.80 0.08033
964.90 0.0803
965.00 0.08027
965.10 0.08024
965.20 0.08022
965.30 0.08019
965.40 0.08016
965.50 0.08013
965.60 0.0801
965.70 0.08008
965.80 0.08005
965.90 0.08002
966.00 0.07999
966.10 0.07996
966.20 0.07994
966.30 0.07991
966.40 0.07988
966.50 0.07985
966.60 0.07982
966.70 0.07979
966.80 0.07976
966.90 0.07973
967.00 0.07971
967.10 0.07968
967.20 0.07965
967.30 0.07962
967.40 0.07959
967.50 0.07956
967.60 0.07953
967.70 0.0795
967.80 0.07947
967.90 0.07944
968.00 0.07941
968.10 0.07938
968.20 0.07935
968.30 0.07932
968.40 0.07929
968.50 0.07926
968.60 0.07923
968.70 0.0792
968.80 0.07917
968.90 0.07914
969.00 0.07911
969.10 0.07908
969.20 0.07905
969.30 0.07902
969.40 0.07899
969.50 0.07896
969.60 0.07893
969.70 0.0789
969.80 0.07887
969.90 0.07884
970.00 0.07881
970.10 0.07878
970.20 0.07875
970.30 0.07872
970.40 0.07869
970.50 0.07866
970.60 0.07863
970.70 0.0786
970.80 0.07857
970.90 0.07854
971.00 0.07851
971.10 0.07848
971.20 0.07845
971.30 0.07842
971.40 0.07839
971.50 0.07836
971.60 0.07833
971.70 0.0783
971.80 0.07827
971.90 0.07824
972.00 0.07821
972.10 0.07818
972.20 0.07815
972.30 0.07812
972.40 0.07809
972.50 0.07806
972.60 0.07803
972.70 0.078
972.80 0.07797
972.90 0.07793
973.00 0.0779
973.10 0.07787
973.20 0.07784
973.30 0.07781
973.40 0.07778
973.50 0.07775
973.60 0.07772
973.70 0.07769
973.80 0.07766
973.90 0.07763
974.00 0.0776
974.10 0.07757
974.20 0.07754
974.30 0.07751
974.40 0.07748
974.50 0.07745
974.60 0.07742
974.70 0.07739
974.80 0.07736
974.90 0.07733
975.00 0.0773
975.10 0.07727
975.20 0.07724
975.30 0.07721
975.40 0.07718
975.50 0.07714
975.60 0.07711
975.70 0.07708
975.80 0.07705
975.90 0.07702
976.00 0.07699
976.10 0.07696
976.20 0.07693
976.30 0.0769
976.40 0.07687
976.50 0.07684
976.60 0.07681
976.70 0.07678
976.80 0.07675
976.90 0.07672
977.00 0.07669
977.10 0.07666
977.20 0.07663
977.30 0.0766
977.40 0.07657
977.50 0.07654
977.60 0.07651
977.70 0.07648
977.80 0.07645
977.90 0.07642
978.00 0.07639
978.10 0.07636
978.20 0.07633
978.30 0.0763
978.40 0.07627
978.50 0.07624
978.60 0.07621
978.70 0.07618
978.80 0.07615
978.90 0.07612
979.00 0.07609
979.10 0.07606
979.20 0.07603
979.30 0.07599
979.40 0.07596
979.50 0.07593
979.60 0.0759
979.70 0.07587
979.80 0.07584
979.90 0.07581
980.00 0.07578
980.10 0.07575
980.20 0.07572
980.30 0.07569
980.40 0.07566
980.50 0.07563
980.60 0.0756
980.70 0.07557
980.80 0.07554
980.90 0.07551
981.00 0.07548
981.10 0.07545
981.20 0.07542
981.30 0.07539
981.40 0.07536
981.50 0.07533
981.60 0.0753
981.70 0.07527
981.80 0.07525
981.90 0.07522
982.00 0.07519
982.10 0.07516
982.20 0.07513
982.30 0.0751
982.40 0.07507
982.50 0.07504
982.60 0.07501
982.70 0.07498
982.80 0.07495
982.90 0.07492
983.00 0.07489
983.10 0.07486
983.20 0.07483
983.30 0.0748
983.40 0.07477
983.50 0.07474
983.60 0.07471
983.70 0.07468
983.80 0.07465
983.90 0.07462
984.00 0.07459
984.10 0.07456
984.20 0.07453
984.30 0.0745
984.40 0.07447
984.50 0.07444
984.60 0.07441
984.70 0.07438
984.80 0.07435
984.90 0.07432
985.00 0.07429
985.10 0.07426
985.20 0.07423
985.30 0.0742
985.40 0.07417
985.50 0.07414
985.60 0.07411
985.70 0.07408
985.80 0.07405
985.90 0.07402
986.00 0.07399
986.10 0.07396
986.20 0.07393
986.30 0.0739
986.40 0.07387
986.50 0.07384
986.60 0.07381
986.70 0.07378
986.80 0.07375
986.90 0.07372
987.00 0.07369
987.10 0.07366
987.20 0.07363
987.30 0.0736
987.40 0.07357
987.50 0.07354
987.60 0.07351
987.70 0.07348
987.80 0.07345
987.90 0.07342
988.00 0.07339
988.10 0.07336
988.20 0.07333
988.30 0.0733
988.40 0.07328
988.50 0.07325
988.60 0.07322
988.70 0.07319
988.80 0.07316
988.90 0.07313
989.00 0.0731
989.10 0.07307
989.20 0.07303
989.30 0.073
989.40 0.07297
989.50 0.07294
989.60 0.07291
989.70 0.07288
989.80 0.07285
989.90 0.07282
990.00 0.07279
990.10 0.07276
990.20 0.07273
990.30 0.0727
990.40 0.07267
990.50 0.07264
990.60 0.07261
990.70 0.07258
990.80 0.07255
990.90 0.07252
991.00 0.07249
991.10 0.07246
991.20 0.07243
991.30 0.0724
991.40 0.07237
991.50 0.07234
991.60 0.07231
991.70 0.07228
991.80 0.07225
991.90 0.07222
992.00 0.07219
992.10 0.07216
992.20 0.07213
992.30 0.07209
992.40 0.07206
992.50 0.07203
992.60 0.072
992.70 0.07197
992.80 0.07194
992.90 0.07191
993.00 0.07187
993.10 0.07184
993.20 0.07181
993.30 0.07178
993.40 0.07175
993.50 0.07172
993.60 0.07168
993.70 0.07165
993.80 0.07162
993.90 0.07159
994.00 0.07156
994.10 0.07152
994.20 0.07149
994.30 0.07146
994.40 0.07143
994.50 0.0714
994.60 0.07137
994.70 0.07133
994.80 0.0713
994.90 0.07127
995.00 0.07123
995.10 0.0712
995.20 0.07117
995.30 0.07113
995.40 0.0711
995.50 0.07107
995.60 0.07103
995.70 0.071
995.80 0.07096
995.90 0.07093
996.00 0.07089
996.10 0.07086
996.20 0.07082
996.30 0.07079
996.40 0.07075
996.50 0.07071
996.60 0.07068
996.70 0.07064
996.80 0.07061
996.90 0.07057
997.00 0.07054
997.10 0.0705
997.20 0.07046
997.30 0.07042
997.40 0.07039
997.50 0.07035
997.60 0.07031
997.70 0.07027
997.80 0.07023
997.90 0.07018
998.00 0.07014
998.10 0.0701
998.20 0.07006
998.30 0.07001
998.40 0.06997
998.50 0.06993
998.60 0.06989
998.70 0.06984
998.80 0.0698
998.90 0.06976
999.00 0.06972
999.10 0.06967
999.20 0.06963
999.30 0.06959
999.40 0.06955
999.50 0.0695
999.60 0.06946
999.70 0.06941
999.80 0.06936
999.90 0.0693
1000.00 0.06925
1000.10 0.06919
1000.20 0.06914
1000.30 0.06908
1000.40 0.06903
1000.50 0.06897
1000.60 0.06892
1000.70 0.06886
1000.80 0.06881
1000.90 0.06875
1001.00 0.0687
1001.10 0.06865
1001.20 0.06859
1001.30 0.06854
1001.40 0.06848
1001.50 0.06843
1001.60 0.06837
1001.70 0.06831
1001.80 0.06825
1001.90 0.06819
1002.00 0.06812
1002.10 0.06805
1002.20 0.06798
1002.30 0.06791
1002.40 0.06784
1002.50 0.06777
1002.60 0.0677
1002.70 0.06763
1002.80 0.06756
1002.90 0.06749
1003.00 0.06742
1003.10 0.06735
1003.20 0.06728
1003.30 0.06721
1003.40 0.06713
1003.50 0.06706
1003.60 0.06698
1003.70 0.06691
1003.80 0.06684
1003.90 0.06677
1004.00 0.06671
1004.10 0.06665
1004.20 0.06659
1004.30 0.06655
1004.40 0.06651
1004.50 0.0665
1004.60 0.06653
1004.70 0.0666
1004.80 0.0667
1004.90 0.06671
1005.00 0.06671
1005.10 0.06662
1005.20 0.06651
1005.30 0.06639
1005.40 0.06628
1005.50 0.06625
1005.60 0.06626
1005.70 0.06626
1005.80 0.06626
1005.90 0.06627
1006.00 0.06627
1006.10 0.06628
1006.20 0.06629
1006.30 0.06632
1006.40 0.06634
1006.50 0.06636
1006.60 0.06638
1006.70 0.06641
1006.80 0.06643
1006.90 0.06645
1007.00 0.06647
1007.10 0.06649
1007.20 0.06651
1007.30 0.06653
1007.40 0.06655
1007.50 0.06656
1007.60 0.06658
1007.70 0.06659
1007.80 0.0666
1007.90 0.0666
1008.00 0.06661
1008.10 0.06661
1008.20 0.06662
1008.30 0.06662
1008.40 0.06663
1008.50 0.06664
1008.60 0.06664
1008.70 0.06665
1008.80 0.06665
1008.90 0.06666
1009.00 0.06666
1009.10 0.06667
1009.20 0.06667
1009.30 0.06668
1009.40 0.06669
1009.50 0.06669
1009.60 0.0667
1009.70 0.06669
1009.80 0.06668
1009.90 0.06668
1010.00 0.06667
1010.10 0.06666
1010.20 0.06665
1010.30 0.06664
1010.40 0.06663
1010.50 0.06663
1010.60 0.06662
1010.70 0.06661
1010.80 0.0666
1010.90 0.06659
1011.00 0.06658
1011.10 0.06658
1011.20 0.06657
1011.30 0.06656
1011.40 0.06655
1011.50 0.06654
1011.60 0.06653
1011.70 0.06652
1011.80 0.06651
1011.90 0.06649
1012.00 0.06648
1012.10 0.06646
1012.20 0.06645
1012.30 0.06643
1012.40 0.06641
1012.50 0.0664
1012.60 0.06638
1012.70 0.06636
1012.80 0.06635
1012.90 0.06633
1013.00 0.06631
1013.10 0.0663
1013.20 0.06628
1013.30 0.06626
1013.40 0.06625
1013.50 0.06623
1013.60 0.06621
1013.70 0.06619
1013.80 0.06618
1013.90 0.06616
1014.00 0.06614
1014.10 0.06612
1014.20 0.0661
1014.30 0.06608
1014.40 0.06606
1014.50 0.06604
1014.60 0.06602
1014.70 0.066
1014.80 0.06598
1014.90 0.06596
1015.00 0.06593
1015.10 0.06591
1015.20 0.06589
1015.30 0.06587
1015.40 0.06585
1015.50 0.06583
1015.60 0.06581
1015.70 0.06579
1015.80 0.06576
1015.90 0.06574
1016.00 0.06572
1016.10 0.0657
1016.20 0.06568
1016.30 0.06566
1016.40 0.06564
1016.50 0.06562
1016.60 0.06559
1016.70 0.06557
1016.80 0.06555
1016.90 0.06553
1017.00 0.06551
1017.10 0.06548
1017.20 0.06546
1017.30 0.06544
1017.40 0.06541
1017.50 0.06539
1017.60 0.06537
1017.70 0.06535
1017.80 0.06532
1017.90 0.0653
1018.00 0.06528
1018.10 0.06525
1018.20 0.06523
1018.30 0.06521
1018.40 0.06519
1018.50 0.06516
1018.60 0.06514
1018.70 0.06512
1018.80 0.06509
1018.90 0.06507
1019.00 0.06505
1019.10 0.06502
1019.20 0.065
1019.30 0.06498
1019.40 0.06495
1019.50 0.06493
1019.60 0.06491
1019.70 0.06488
1019.80 0.06486
1019.90 0.06484
1020.00 0.06481
1020.10 0.06479
1020.20 0.06477
1020.30 0.06474
1020.40 0.06472
1020.50 0.0647
1020.60 0.06467
1020.70 0.06465
1020.80 0.06463
1020.90 0.0646
1021.00 0.06458
1021.10 0.06456
1021.20 0.06453
1021.30 0.06451
1021.40 0.06449
1021.50 0.06446
1021.60 0.06444
1021.70 0.06442
1021.80 0.06439
1021.90 0.06437
1022.00 0.06434
1022.10 0.06432
1022.20 0.0643
1022.30 0.06427
1022.40 0.06425
1022.50 0.06423
1022.60 0.0642
1022.70 0.06418
1022.80 0.06415
1022.90 0.06413
1023.00 0.06411
1023.10 0.06408
1023.20 0.06406
1023.30 0.06404
1023.40 0.06401
1023.50 0.06399
1023.60 0.06397
1023.70 0.06394
1023.80 0.06392
1023.90 0.06389
1024.00 0.06387
1024.10 0.06385
1024.20 0.06382
1024.30 0.0638
1024.40 0.06378
1024.50 0.06375
1024.60 0.06373
1024.70 0.06371
1024.80 0.06368
1024.90 0.06366
1025.00 0.06363
1025.10 0.06361
1025.20 0.06359
1025.30 0.06356
1025.40 0.06354
1025.50 0.06352
1025.60 0.06349
1025.70 0.06347
1025.80 0.06345
1025.90 0.06342
1026.00 0.0634
1026.10 0.06337
1026.20 0.06335
1026.30 0.06333
1026.40 0.0633
1026.50 0.06328
1026.60 0.06326
1026.70 0.06323
1026.80 0.06321
1026.90 0.06319
1027.00 0.06316
1027.10 0.06314
1027.20 0.06312
1027.30 0.06309
1027.40 0.06307
1027.50 0.06304
1027.60 0.06302
1027.70 0.063
1027.80 0.06297
1027.90 0.06295
1028.00 0.06293
1028.10 0.0629
1028.20 0.06288
1028.30 0.06286
1028.40 0.06283
1028.50 0.06281
1028.60 0.06279
1028.70 0.06276
1028.80 0.06274
1028.90 0.06272
1029.00 0.06269
1029.10 0.06267
1029.20 0.06265
1029.30 0.06262
1029.40 0.0626
1029.50 0.06258
1029.60 0.06255
1029.70 0.06253
1029.80 0.06251
1029.90 0.06248
1030.00 0.06246
1030.10 0.06244
1030.20 0.06241
1030.30 0.06239
1030.40 0.06237
1030.50 0.06234
1030.60 0.06232
1030.70 0.0623
1030.80 0.06227
1030.90 0.06225
1031.00 0.06223
1031.10 0.0622
1031.20 0.06218
1031.30 0.06216
1031.40 0.06213
1031.50 0.06211
1031.60 0.06209
1031.70 0.06206
1031.80 0.06204
1031.90 0.06202
1032.00 0.06199
1032.10 0.06197
1032.20 0.06195
1032.30 0.06192
1032.40 0.0619
1032.50 0.06188
1032.60 0.06185
1032.70 0.06183
1032.80 0.06181
1032.90 0.06178
1033.00 0.06176
1033.10 0.06174
1033.20 0.06172
1033.30 0.06169
1033.40 0.06167
1033.50 0.06165
1033.60 0.06162
1033.70 0.0616
1033.80 0.06158
1033.90 0.06155
1034.00 0.06153
1034.10 0.06151
1034.20 0.06149
1034.30 0.06146
1034.40 0.06144
1034.50 0.06142
1034.60 0.06139
1034.70 0.06137
1034.80 0.06135
1034.90 0.06132
1035.00 0.0613
1035.10 0.06128
1035.20 0.06126
1035.30 0.06123
1035.40 0.06121
1035.50 0.06119
1035.60 0.06116
1035.70 0.06114
1035.80 0.06112
1035.90 0.0611
1036.00 0.06107
1036.10 0.06105
1036.20 0.06103
1036.30 0.061
1036.40 0.06098
1036.50 0.06096
1036.60 0.06094
1036.70 0.06091
1036.80 0.06089
1036.90 0.06087
1037.00 0.06084
1037.10 0.06082
1037.20 0.0608
1037.30 0.06078
1037.40 0.06075
1037.50 0.06073
1037.60 0.06071
1037.70 0.06069
1037.80 0.06066
1037.90 0.06064
1038.00 0.06062
1038.10 0.0606
1038.20 0.06057
1038.30 0.06055
1038.40 0.06053
1038.50 0.06051
1038.60 0.06048
1038.70 0.06046
1038.80 0.06044
1038.90 0.06042
1039.00 0.06039
1039.10 0.06037
1039.20 0.06035
1039.30 0.06033
1039.40 0.0603
1039.50 0.06028
1039.60 0.06026
1039.70 0.06024
1039.80 0.06021
1039.90 0.06019
1040.00 0.06017
1040.10 0.06015
1040.20 0.06012
1040.30 0.0601
1040.40 0.06008
1040.50 0.06006
1040.60 0.06003
1040.70 0.06001
1040.80 0.05999
1040.90 0.05997
1041.00 0.05994
1041.10 0.05992
1041.20 0.0599
1041.30 0.05988
1041.40 0.05985
1041.50 0.05983
1041.60 0.05981
1041.70 0.05979
1041.80 0.05977
1041.90 0.05974
1042.00 0.05972
1042.10 0.0597
1042.20 0.05968
1042.30 0.05965
1042.40 0.05963
1042.50 0.05961
1042.60 0.05959
1042.70 0.05957
1042.80 0.05954
1042.90 0.05952
1043.00 0.0595
1043.10 0.05948
1043.20 0.05945
1043.30 0.05943
1043.40 0.05941
1043.50 0.05939
1043.60 0.05937
1043.70 0.05934
1043.80 0.05932
1043.90 0.0593
1044.00 0.05928
1044.10 0.05926
1044.20 0.05923
1044.30 0.05921
1044.40 0.05919
1044.50 0.05917
1044.60 0.05915
1044.70 0.05912
1044.80 0.0591
1044.90 0.05908
1045.00 0.05906
1045.10 0.05904
1045.20 0.05901
1045.30 0.05899
1045.40 0.05897
1045.50 0.05895
1045.60 0.05893
1045.70 0.0589
1045.80 0.05888
1045.90 0.05886
1046.00 0.05884
1046.10 0.05882
1046.20 0.0588
1046.30 0.05877
1046.40 0.05875
1046.50 0.05873
1046.60 0.05871
1046.70 0.05869
1046.80 0.05866
1046.90 0.05864
1047.00 0.05862
1047.10 0.0586
1047.20 0.05858
1047.30 0.05856
1047.40 0.05853
1047.50 0.05851
1047.60 0.05849
1047.70 0.05847
1047.80 0.05845
1047.90 0.05843
1048.00 0.0584
1048.10 0.05838
1048.20 0.05836
1048.30 0.05834
1048.40 0.05832
1048.50 0.0583
1048.60 0.05827
1048.70 0.05825
1048.80 0.05823
1048.90 0.05821
1049.00 0.05819
1049.10 0.05817
1049.20 0.05814
1049.30 0.05812
1049.40 0.0581
1049.50 0.05808
1049.60 0.05806
1049.70 0.05804
1049.80 0.05802
1049.90 0.05799
1050.00 0.05797
1050.10 0.05795
1050.20 0.05793
1050.30 0.05791
1050.40 0.05789
1050.50 0.05787
1050.60 0.05784
1050.70 0.05782
1050.80 0.0578
1050.90 0.05778
1051.00 0.05776
1051.10 0.05774
1051.20 0.05772
1051.30 0.05769
1051.40 0.05767
1051.50 0.05765
1051.60 0.05763
1051.70 0.05761
1051.80 0.05759
1051.90 0.05757
1052.00 0.05754
1052.10 0.05752
1052.20 0.0575
1052.30 0.05748
1052.40 0.05746
1052.50 0.05744
1052.60 0.05742
1052.70 0.0574
1052.80 0.05737
1052.90 0.05735
1053.00 0.05733
1053.10 0.05731
1053.20 0.05729
1053.30 0.05727
1053.40 0.05725
1053.50 0.05723
1053.60 0.05721
1053.70 0.05718
1053.80 0.05716
1053.90 0.05714
1054.00 0.05712
1054.10 0.0571
1054.20 0.05708
1054.30 0.05706
1054.40 0.05704
1054.50 0.05702
1054.60 0.05699
1054.70 0.05697
1054.80 0.05695
1054.90 0.05693
1055.00 0.05691
1055.10 0.05689
1055.20 0.05687
1055.30 0.05685
1055.40 0.05683
1055.50 0.05681
1055.60 0.05678
1055.70 0.05676
1055.80 0.05674
1055.90 0.05672
1056.00 0.0567
1056.10 0.05668
1056.20 0.05666
1056.30 0.05664
1056.40 0.05662
1056.50 0.0566
1056.60 0.05658
1056.70 0.05655
1056.80 0.05653
1056.90 0.05651
1057.00 0.05649
1057.10 0.05647
1057.20 0.05645
1057.30 0.05643
1057.40 0.05641
1057.50 0.05639
1057.60 0.05637
1057.70 0.05635
1057.80 0.05633
1057.90 0.05631
1058.00 0.05628
1058.10 0.05626
1058.20 0.05624
1058.30 0.05622
1058.40 0.0562
1058.50 0.05618
1058.60 0.05616
1058.70 0.05614
1058.80 0.05612
1058.90 0.0561
1059.00 0.05608
1059.10 0.05606
1059.20 0.05604
1059.30 0.05602
1059.40 0.056
1059.50 0.05597
1059.60 0.05595
1059.70 0.05593
1059.80 0.05591
1059.90 0.05589
1060.00 0.05587
1060.10 0.05585
1060.20 0.05583
1060.30 0.05581
1060.40 0.05579
1060.50 0.05577
1060.60 0.05575
1060.70 0.05573
1060.80 0.05571
1060.90 0.05569
1061.00 0.05567
1061.10 0.05565
1061.20 0.05563
1061.30 0.0556
1061.40 0.05558
1061.50 0.05556
1061.60 0.05554
1061.70 0.05552
1061.80 0.0555
1061.90 0.05548
1062.00 0.05546
1062.10 0.05544
1062.20 0.05542
1062.30 0.0554
1062.40 0.05538
1062.50 0.05536
1062.60 0.05534
1062.70 0.05532
1062.80 0.0553
1062.90 0.05528
1063.00 0.05526
1063.10 0.05524
1063.20 0.05522
1063.30 0.0552
1063.40 0.05518
1063.50 0.05516
1063.60 0.05514
1063.70 0.05512
1063.80 0.0551
1063.90 0.05508
1064.00 0.05506
1064.10 0.05504
1064.20 0.05501
1064.30 0.05499
1064.40 0.05497
1064.50 0.05495
1064.60 0.05493
1064.70 0.05491
1064.80 0.05489
1064.90 0.05487
1065.00 0.05485
1065.10 0.05483
1065.20 0.05481
1065.30 0.05479
1065.40 0.05477
1065.50 0.05475
1065.60 0.05473
1065.70 0.05471
1065.80 0.05469
1065.90 0.05467
1066.00 0.05465
1066.10 0.05463
1066.20 0.05461
1066.30 0.05459
1066.40 0.05457
1066.50 0.05455
1066.60 0.05453
1066.70 0.05451
1066.80 0.05449
1066.90 0.05447
1067.00 0.05445
1067.10 0.05443
1067.20 0.05441
1067.30 0.05439
1067.40 0.05437
1067.50 0.05435
1067.60 0.05433
1067.70 0.05431
1067.80 0.05429
1067.90 0.05427
1068.00 0.05425
1068.10 0.05423
1068.20 0.05421
1068.30 0.05419
1068.40 0.05417
1068.50 0.05415
1068.60 0.05413
1068.70 0.05411
1068.80 0.05409
1068.90 0.05407
1069.00 0.05405
1069.10 0.05403
1069.20 0.05401
1069.30 0.05399
1069.40 0.05397
1069.50 0.05395
1069.60 0.05393
1069.70 0.05391
1069.80 0.05389
1069.90 0.05387
1070.00 0.05385
1070.10 0.05383
1070.20 0.05381
1070.30 0.05379
1070.40 0.05377
1070.50 0.05375
1070.60 0.05373
1070.70 0.05372
1070.80 0.0537
1070.90 0.05368
1071.00 0.05366
1071.10 0.05364
1071.20 0.05362
1071.30 0.0536
1071.40 0.05358
1071.50 0.05356
1071.60 0.05354
1071.70 0.05352
1071.80 0.0535
1071.90 0.05348
1072.00 0.05346
1072.10 0.05344
1072.20 0.05342
1072.30 0.0534
1072.40 0.05338
1072.50 0.05336
1072.60 0.05334
1072.70 0.05332
1072.80 0.0533
1072.90 0.05328
1073.00 0.05326
1073.10 0.05324
1073.20 0.05322
1073.30 0.0532
1073.40 0.05318
1073.50 0.05316
1073.60 0.05314
1073.70 0.05312
1073.80 0.0531
1073.90 0.05308
1074.00 0.05306
1074.10 0.05304
1074.20 0.05302
1074.30 0.053
1074.40 0.05298
1074.50 0.05297
1074.60 0.05295
1074.70 0.05293
1074.80 0.05291
1074.90 0.05289
1075.00 0.05287
1075.10 0.05285
1075.20 0.05283
1075.30 0.05281
1075.40 0.05279
1075.50 0.05277
1075.60 0.05275
1075.70 0.05273
1075.80 0.05271
1075.90 0.05269
1076.00 0.05267
1076.10 0.05265
1076.20 0.05263
1076.30 0.05261
1076.40 0.05259
1076.50 0.05257
1076.60 0.05255
1076.70 0.05253
1076.80 0.05251
1076.90 0.05249
1077.00 0.05247
1077.10 0.05245
1077.20 0.05243
1077.30 0.05241
1077.40 0.05239
1077.50 0.05238
1077.60 0.05236
1077.70 0.05234
1077.80 0.05232
1077.90 0.0523
1078.00 0.05228
1078.10 0.05226
1078.20 0.05224
1078.30 0.05222
1078.40 0.0522
1078.50 0.05218
1078.60 0.05216
1078.70 0.05214
1078.80 0.05212
1078.90 0.0521
1079.00 0.05208
1079.10 0.05206
1079.20 0.05204
1079.30 0.05202
1079.40 0.052
1079.50 0.05198
1079.60 0.05196
1079.70 0.05194
1079.80 0.05192
1079.90 0.0519
1080.00 0.05188
1080.10 0.05185
1080.20 0.05183
1080.30 0.05181
1080.40 0.05179
1080.50 0.05177
1080.60 0.05175
1080.70 0.05173
1080.80 0.05171
1080.90 0.05169
1081.00 0.05167
1081.10 0.05165
1081.20 0.05163
1081.30 0.05161
1081.40 0.05159
1081.50 0.05157
1081.60 0.05155
1081.70 0.05153
1081.80 0.05151
1081.90 0.05149
1082.00 0.05147
1082.10 0.05145
1082.20 0.05142
1082.30 0.0514
1082.40 0.05138
1082.50 0.05136
1082.60 0.05134
1082.70 0.05132
1082.80 0.0513
1082.90 0.05127
1083.00 0.05125
1083.10 0.05123
1083.20 0.05121
1083.30 0.05119
1083.40 0.05117
1083.50 0.05115
1083.60 0.05112
1083.70 0.0511
1083.80 0.05108
1083.90 0.05106
1084.00 0.05103
1084.10 0.05101
1084.20 0.05099
1084.30 0.05097
1084.40 0.05094
1084.50 0.05092
1084.60 0.0509
1084.70 0.05087
1084.80 0.05085
1084.90 0.05082
1085.00 0.0508
1085.10 0.05077
1085.20 0.05075
1085.30 0.05072
1085.40 0.0507
1085.50 0.05067
1085.60 0.05065
1085.70 0.05063
1085.80 0.0506
1085.90 0.05058
1086.00 0.05055
1086.10 0.05053
1086.20 0.0505
1086.30 0.05048
1086.40 0.05045
1086.50 0.05043
1086.60 0.0504
1086.70 0.05037
1086.80 0.05035
1086.90 0.05032
1087.00 0.05029
1087.10 0.05026
1087.20 0.05023
1087.30 0.0502
1087.40 0.05016
1087.50 0.05013
1087.60 0.0501
1087.70 0.05007
1087.80 0.05004
1087.90 0.05001
1088.00 0.04998
1088.10 0.04995
1088.20 0.04991
1088.30 0.04988
1088.40 0.04985
1088.50 0.04982
1088.60 0.04978
1088.70 0.04973
1088.80 0.04969
1088.90 0.04965
1089.00 0.04961
1089.10 0.04957
1089.20 0.04953
1089.30 0.04948
1089.40 0.04944
1089.50 0.0494
1089.60 0.04936
1089.70 0.04932
1089.80 0.04928
1089.90 0.04924
1090.00 0.04919
1090.10 0.04915
1090.20 0.04911
1090.30 0.04907
1090.40 0.04903
1090.50 0.04898
1090.60 0.04893
1090.70 0.04887
1090.80 0.04881
1090.90 0.04876
1091.00 0.0487
1091.10 0.04864
1091.20 0.04859
1091.30 0.04853
1091.40 0.04847
1091.50 0.04842
1091.60 0.04836
1091.70 0.0483
1091.80 0.04825
1091.90 0.04819
1092.00 0.04813
1092.10 0.04807
1092.20 0.04801
1092.30 0.04795
1092.40 0.04789
1092.50 0.04783
1092.60 0.04776
1092.70 0.04771
1092.80 0.04766
1092.90 0.04761
1093.00 0.04756
1093.10 0.04753
1093.20 0.04751
1093.30 0.0475
1093.40 0.04752
1093.50 0.04757
1093.60 0.04768
1093.70 0.04778
1093.80 0.04784
1093.90 0.04784
1094.00 0.04771
1094.10 0.04757
1094.20 0.04744
1094.30 0.04735
1094.40 0.04735
1094.50 0.04735
1094.60 0.04735
1094.70 0.04735
1094.80 0.04735
1094.90 0.04735
1095.00 0.04736
1095.10 0.04739
1095.20 0.04741
1095.30 0.04744
1095.40 0.04747
1095.50 0.04749
1095.60 0.04752
1095.70 0.04754
1095.80 0.04757
1095.90 0.0476
1096.00 0.04762
1096.10 0.04765
1096.20 0.04768
1096.30 0.0477
1096.40 0.04773
1096.50 0.04775
1096.60 0.04777
1096.70 0.04779
1096.80 0.04781
1096.90 0.04783
1097.00 0.04785
1097.10 0.04786
1097.20 0.04787
1097.30 0.04788
1097.40 0.04788
1097.50 0.04789
1097.60 0.0479
1097.70 0.04791
1097.80 0.04792
1097.90 0.04793
1098.00 0.04794
1098.10 0.04795
1098.20 0.04796
1098.30 0.04797
1098.40 0.04798
1098.50 0.04798
1098.60 0.04798
1098.70 0.04798
1098.80 0.04798
1098.90 0.04798
1099.00 0.04797
1099.10 0.04797
1099.20 0.04797
1099.30 0.04797
1099.40 0.04797
1099.50 0.04796
1099.60 0.04796
1099.70 0.04796
1099.80 0.04796
1099.90 0.04795
1100.00 0.04795
1100.10 0.04795
1100.20 0.04795
1100.30 0.04795
1100.40 0.04794
1100.50 0.04794
1100.60 0.04793
1100.70 0.04792
1100.80 0.04791
1100.90 0.0479
1101.00 0.04789
1101.10 0.04789
1101.20 0.04788
1101.30 0.04787
1101.40 0.04786
1101.50 0.04785
1101.60 0.04784
1101.70 0.04783
1101.80 0.04782
1101.90 0.04781
1102.00 0.0478
1102.10 0.04779
1102.20 0.04778
1102.30 0.04777
1102.40 0.04776
1102.50 0.04775
1102.60 0.04774
1102.70 0.04772
1102.80 0.04771
1102.90 0.0477
1103.00 0.04769
1103.10 0.04767
1103.20 0.04766
1103.30 0.04765
1103.40 0.04764
1103.50 0.04763
1103.60 0.04761
1103.70 0.0476
1103.80 0.04758
1103.90 0.04757
1104.00 0.04756
1104.10 0.04754
1104.20 0.04753
1104.30 0.04751
1104.40 0.0475
1104.50 0.04749
1104.60 0.04747
1104.70 0.04746
1104.80 0.04745
1104.90 0.04743
1105.00 0.04742
1105.10 0.0474
1105.20 0.04739
1105.30 0.04738
1105.40 0.04736
1105.50 0.04735
1105.60 0.04733
1105.70 0.04732
1105.80 0.0473
1105.90 0.04729
1106.00 0.04727
1106.10 0.04726
1106.20 0.04725
1106.30 0.04723
1106.40 0.04722
1106.50 0.0472
1106.60 0.04719
1106.70 0.04717
1106.80 0.04716
1106.90 0.04714
1107.00 0.04713
1107.10 0.04711
1107.20 0.0471
1107.30 0.04708
1107.40 0.04707
1107.50 0.04705
1107.60 0.04704
1107.70 0.04702
1107.80 0.047
1107.90 0.04699
1108.00 0.04697
1108.10 0.04696
1108.20 0.04694
1108.30 0.04693
1108.40 0.04691
1108.50 0.0469
1108.60 0.04688
1108.70 0.04687
1108.80 0.04685
1108.90 0.04683
1109.00 0.04682
1109.10 0.0468
1109.20 0.04679
1109.30 0.04677
1109.40 0.04676
1109.50 0.04674
1109.60 0.04673
1109.70 0.04671
1109.80 0.0467
1109.90 0.04668
1110.00 0.04666
1110.10 0.04665
1110.20 0.04663
1110.30 0.04662
1110.40 0.0466
1110.50 0.04659
1110.60 0.04657
1110.70 0.04655
1110.80 0.04654
1110.90 0.04652
1111.00 0.04651
1111.10 0.04649
1111.20 0.04648
1111.30 0.04646
1111.40 0.04644
1111.50 0.04643
1111.60 0.04641
1111.70 0.0464
1111.80 0.04638
1111.90 0.04637
1112.00 0.04635
1112.10 0.04633
1112.20 0.04632
1112.30 0.0463
1112.40 0.04629
1112.50 0.04627
1112.60 0.04626
1112.70 0.04624
1112.80 0.04622
1112.90 0.04621
1113.00 0.04619
1113.10 0.04618
1113.20 0.04616
1113.30 0.04615
1113.40 0.04613
1113.50 0.04611
1113.60 0.0461
1113.70 0.04608
1113.80 0.04607
1113.90 0.04605
1114.00 0.04604
1114.10 0.04602
1114.20 0.046
1114.30 0.04599
1114.40 0.04597
1114.50 0.04596
1114.60 0.04594
1114.70 0.04593
1114.80 0.04591
1114.90 0.04589
1115.00 0.04588
1115.10 0.04586
1115.20 0.04585
1115.30 0.04583
1115.40 0.04582
1115.50 0.0458
1115.60 0.04578
1115.70 0.04577
1115.80 0.04575
1115.90 0.04574
1116.00 0.04572
1116.10 0.04571
1116.20 0.04569
1116.30 0.04567
1116.40 0.04566
1116.50 0.04564
1116.60 0.04563
1116.70 0.04561
1116.80 0.0456
1116.90 0.04558
1117.00 0.04556
1117.10 0.04555
1117.20 0.04553
1117.30 0.04552
1117.40 0.0455
1117.50 0.04549
1117.60 0.04547
1117.70 0.04545
1117.80 0.04544
1117.90 0.04542
1118.00 0.04541
1118.10 0.04539
1118.20 0.04538
1118.30 0.04536
1118.40 0.04535
1118.50 0.04533
1118.60 0.04531
1118.70 0.0453
1118.80 0.04528
1118.90 0.04527
1119.00 0.04525
1119.10 0.04524
1119.20 0.04522
1119.30 0.04521
1119.40 0.04519
1119.50 0.04517
1119.60 0.04516
1119.70 0.04514
1119.80 0.04513
1119.90 0.04511
1120.00 0.0451
1120.10 0.04508
1120.20 0.04507
1120.30 0.04505
1120.40 0.04503
1120.50 0.04502
1120.60 0.045
1120.70 0.04499
1120.80 0.04497
1120.90 0.04496
1121.00 0.04494
1121.10 0.04493
1121.20 0.04491
1121.30 0.04489
1121.40 0.04488
1121.50 0.04486
1121.60 0.04485
1121.70 0.04483
1121.80 0.04482
1121.90 0.0448
1122.00 0.04479
1122.10 0.04477
1122.20 0.04476
1122.30 0.04474
1122.40 0.04473
1122.50 0.04471
1122.60 0.04469
1122.70 0.04468
1122.80 0.04466
1122.90 0.04465
1123.00 0.04463
1123.10 0.04462
1123.20 0.0446
1123.30 0.04459
1123.40 0.04457
1123.50 0.04456
1123.60 0.04454
1123.70 0.04453
1123.80 0.04451
1123.90 0.04449
1124.00 0.04448
1124.10 0.04446
1124.20 0.04445
1124.30 0.04443
1124.40 0.04442
1124.50 0.0444
1124.60 0.04439
1124.70 0.04437
1124.80 0.04436
1124.90 0.04434
1125.00 0.04433
1125.10 0.04431
1125.20 0.0443
1125.30 0.04428
1125.40 0.04427
1125.50 0.04425
1125.60 0.04423
1125.70 0.04422
1125.80 0.0442
1125.90 0.04419
1126.00 0.04417
1126.10 0.04416
1126.20 0.04414
1126.30 0.04413
1126.40 0.04411
1126.50 0.0441
1126.60 0.04408
1126.70 0.04407
1126.80 0.04405
1126.90 0.04404
1127.00 0.04402
1127.10 0.04401
1127.20 0.04399
1127.30 0.04398
1127.40 0.04396
1127.50 0.04395
1127.60 0.04393
1127.70 0.04392
1127.80 0.0439
1127.90 0.04389
1128.00 0.04387
1128.10 0.04386
1128.20 0.04384
1128.30 0.04383
1128.40 0.04381
1128.50 0.0438
1128.60 0.04378
1128.70 0.04377
1128.80 0.04375
1128.90 0.04374
1129.00 0.04372
1129.10 0.04371
1129.20 0.04369
1129.30 0.04368
1129.40 0.04366
1129.50 0.04365
1129.60 0.04363
1129.70 0.04362
1129.80 0.0436
1129.90 0.04359
1130.00 0.04357
1130.10 0.04356
1130.20 0.04354
1130.30 0.04353
1130.40 0.04351
1130.50 0.0435
1130.60 0.04348
1130.70 0.04347
1130.80 0.04345
1130.90 0.04344
1131.00 0.04342
1131.10 0.04341
1131.20 0.04339
1131.30 0.04338
1131.40 0.04336
1131.50 0.04335
1131.60 0.04333
1131.70 0.04332
1131.80 0.0433
1131.90 0.04329
1132.00 0.04327
1132.10 0.04326
1132.20 0.04324
1132.30 0.04323
1132.40 0.04321
1132.50 0.0432
1132.60 0.04318
1132.70 0.04317
1132.80 0.04315
1132.90 0.04314
1133.00 0.04312
1133.10 0.04311
1133.20 0.04309
1133.30 0.04308
1133.40 0.04307
1133.50 0.04305
1133.60 0.04304
1133.70 0.04302
1133.80 0.04301
1133.90 0.04299
1134.00 0.04298
1134.10 0.04296
1134.20 0.04295
1134.30 0.04293
1134.40 0.04292
1134.50 0.0429
1134.60 0.04289
1134.70 0.04287
1134.80 0.04286
1134.90 0.04284
1135.00 0.04283
1135.10 0.04282
1135.20 0.0428
1135.30 0.04279
1135.40 0.04277
1135.50 0.04276
1135.60 0.04274
1135.70 0.04273
1135.80 0.04271
1135.90 0.0427
1136.00 0.04268
1136.10 0.04267
1136.20 0.04265
1136.30 0.04264
1136.40 0.04262
1136.50 0.04261
1136.60 0.0426
1136.70 0.04258
1136.80 0.04257
1136.90 0.04255
1137.00 0.04254
1137.10 0.04252
1137.20 0.04251
1137.30 0.04249
1137.40 0.04248
1137.50 0.04246
1137.60 0.04245
1137.70 0.04244
1137.80 0.04242
1137.90 0.04241
1138.00 0.04239
1138.10 0.04238
1138.20 0.04236
1138.30 0.04235
1138.40 0.04233
1138.50 0.04232
1138.60 0.04231
1138.70 0.04229
1138.80 0.04228
1138.90 0.04226
1139.00 0.04225
1139.10 0.04223
1139.20 0.04222
1139.30 0.0422
1139.40 0.04219
1139.50 0.04218
1139.60 0.04216
1139.70 0.04215
1139.80 0.04213
1139.90 0.04212
1140.00 0.0421
1140.10 0.04209
1140.20 0.04208
1140.30 0.04206
1140.40 0.04205
1140.50 0.04203
1140.60 0.04202
1140.70 0.042
1140.80 0.04199
1140.90 0.04197
1141.00 0.04196
1141.10 0.04195
1141.20 0.04193
1141.30 0.04192
1141.40 0.0419
1141.50 0.04189
1141.60 0.04187
1141.70 0.04186
1141.80 0.04185
1141.90 0.04183
1142.00 0.04182
1142.10 0.0418
1142.20 0.04179
1142.30 0.04178
1142.40 0.04176
1142.50 0.04175
1142.60 0.04173
1142.70 0.04172
1142.80 0.0417
1142.90 0.04169
1143.00 0.04168
1143.10 0.04166
1143.20 0.04165
1143.30 0.04163
1143.40 0.04162
1143.50 0.04161
1143.60 0.04159
1143.70 0.04158
1143.80 0.04156
1143.90 0.04155
1144.00 0.04153
1144.10 0.04152
1144.20 0.04151
1144.30 0.04149
1144.40 0.04148
1144.50 0.04146
1144.60 0.04145
1144.70 0.04144
1144.80 0.04142
1144.90 0.04141
1145.00 0.04139
1145.10 0.04138
1145.20 0.04137
1145.30 0.04135
1145.40 0.04134
1145.50 0.04132
1145.60 0.04131
1145.70 0.0413
1145.80 0.04128
1145.90 0.04127
1146.00 0.04125
1146.10 0.04124
1146.20 0.04122
1146.30 0.04121
1146.40 0.0412
1146.50 0.04118
1146.60 0.04117
1146.70 0.04115
1146.80 0.04114
1146.90 0.04113
1147.00 0.04111
1147.10 0.0411
1147.20 0.04109
1147.30 0.04107
1147.40 0.04106
1147.50 0.04104
1147.60 0.04103
1147.70 0.04102
1147.80 0.041
1147.90 0.04099
1148.00 0.04097
1148.10 0.04096
1148.20 0.04095
1148.30 0.04093
1148.40 0.04092
1148.50 0.0409
1148.60 0.04089
1148.70 0.04088
1148.80 0.04086
1148.90 0.04085
1149.00 0.04084
1149.10 0.04082
1149.20 0.04081
1149.30 0.04079
1149.40 0.04078
1149.50 0.04077
1149.60 0.04075
1149.70 0.04074
1149.80 0.04073
1149.90 0.04071
1150.00 0.0407
1150.10 0.04068
1150.20 0.04067
1150.30 0.04066
1150.40 0.04064
1150.50 0.04063
1150.60 0.04061
1150.70 0.0406
1150.80 0.04059
1150.90 0.04057
1151.00 0.04056
1151.10 0.04055
1151.20 0.04053
1151.30 0.04052
1151.40 0.04051
1151.50 0.04049
1151.60 0.04048
1151.70 0.04046
1151.80 0.04045
1151.90 0.04044
1152.00 0.04042
1152.10 0.04041
1152.20 0.0404
1152.30 0.04038
1152.40 0.04037
1152.50 0.04035
1152.60 0.04034
1152.70 0.04033
1152.80 0.04031
1152.90 0.0403
1153.00 0.04029
1153.10 0.04027
1153.20 0.04026
1153.30 0.04025
1153.40 0.04023
1153.50 0.04022
1153.60 0.04021
1153.70 0.04019
1153.80 0.04018
1153.90 0.04016
1154.00 0.04015
1154.10 0.04014
1154.20 0.04012
1154.30 0.04011
1154.40 0.0401
1154.50 0.04008
1154.60 0.04007
1154.70 0.04006
1154.80 0.04004
1154.90 0.04003
1155.00 0.04002
1155.10 0.04
1155.20 0.03999
1155.30 0.03998
1155.40 0.03996
1155.50 0.03995
1155.60 0.03993
1155.70 0.03992
1155.80 0.03991
1155.90 0.03989
1156.00 0.03988
1156.10 0.03987
1156.20 0.03985
1156.30 0.03984
1156.40 0.03983
1156.50 0.03981
1156.60 0.0398
1156.70 0.03979
1156.80 0.03977
1156.90 0.03976
1157.00 0.03975
1157.10 0.03973
1157.20 0.03972
1157.30 0.03971
1157.40 0.03969
1157.50 0.03968
1157.60 0.03967
1157.70 0.03965
1157.80 0.03964
1157.90 0.03963
1158.00 0.03961
1158.10 0.0396
1158.20 0.03959
1158.30 0.03957
1158.40 0.03956
1158.50 0.03955
1158.60 0.03953
1158.70 0.03952
1158.80 0.03951
1158.90 0.03949
1159.00 0.03948
1159.10 0.03947
1159.20 0.03945
1159.30 0.03944
1159.40 0.03943
1159.50 0.03941
1159.60 0.0394
1159.70 0.03939
1159.80 0.03938
1159.90 0.03936
1160.00 0.03935
1160.10 0.03934
1160.20 0.03932
1160.30 0.03931
1160.40 0.0393
1160.50 0.03928
1160.60 0.03927
1160.70 0.03926
1160.80 0.03924
1160.90 0.03923
1161.00 0.03922
1161.10 0.0392
1161.20 0.03919
1161.30 0.03918
1161.40 0.03916
1161.50 0.03915
1161.60 0.03914
1161.70 0.03912
1161.80 0.03911
1161.90 0.0391
1162.00 0.03909
1162.10 0.03907
1162.20 0.03906
1162.30 0.03905
1162.40 0.03903
1162.50 0.03902
1162.60 0.03901
1162.70 0.03899
1162.80 0.03898
1162.90 0.03897
1163.00 0.03895
1163.10 0.03894
1163.20 0.03893
1163.30 0.03892
1163.40 0.0389
1163.50 0.03889
1163.60 0.03888
1163.70 0.03886
1163.80 0.03885
1163.90 0.03884
1164.00 0.03882
1164.10 0.03881
1164.20 0.0388
1164.30 0.03879
1164.40 0.03877
1164.50 0.03876
1164.60 0.03875
1164.70 0.03873
1164.80 0.03872
1164.90 0.03871
1165.00 0.0387
1165.10 0.03868
1165.20 0.03867
1165.30 0.03866
1165.40 0.03864
1165.50 0.03863
1165.60 0.03862
1165.70 0.0386
1165.80 0.03859
1165.90 0.03858
1166.00 0.03857
1166.10 0.03855
1166.20 0.03854
1166.30 0.03853
1166.40 0.03851
1166.50 0.0385
1166.60 0.03849
1166.70 0.03848
1166.80 0.03846
1166.90 0.03845
1167.00 0.03844
1167.10 0.03842
1167.20 0.03841
1167.30 0.0384
1167.40 0.03839
1167.50 0.03837
1167.60 0.03836
1167.70 0.03835
1167.80 0.03833
1167.90 0.03832
1168.00 0.03831
1168.10 0.0383
1168.20 0.03828
1168.30 0.03827
1168.40 0.03826
1168.50 0.03825
1168.60 0.03823
1168.70 0.03822
1168.80 0.03821
1168.90 0.03819
1169.00 0.03818
1169.10 0.03817
1169.20 0.03816
1169.30 0.03814
1169.40 0.03813
1169.50 0.03812
1169.60 0.03811
1169.70 0.03809
1169.80 0.03808
1169.90 0.03807
1170.00 0.03806
1170.10 0.03804
1170.20 0.03803
1170.30 0.03802
1170.40 0.038
1170.50 0.03799
1170.60 0.03798
1170.70 0.03797
1170.80 0.03795
1170.90 0.03794
1171.00 0.03793
1171.10 0.03792
1171.20 0.0379
1171.30 0.03789
1171.40 0.03788
1171.50 0.03787
1171.60 0.03785
1171.70 0.03784
1171.80 0.03783
1171.90 0.03782
1172.00 0.0378
1172.10 0.03779
1172.20 0.03778
1172.30 0.03776
1172.40 0.03775
1172.50 0.03774
1172.60 0.03773
1172.70 0.03771
1172.80 0.0377
1172.90 0.03769
1173.00 0.03768
1173.10 0.03766
1173.20 0.03765
1173.30 0.03764
1173.40 0.03763
1173.50 0.03762
1173.60 0.0376
1173.70 0.03759
1173.80 0.03758
1173.90 0.03757
1174.00 0.03755
1174.10 0.03754
1174.20 0.03753
1174.30 0.03752
1174.40 0.0375
1174.50 0.03749
1174.60 0.03748
1174.70 0.03747
1174.80 0.03745
1174.90 0.03744
1175.00 0.03743
1175.10 0.03742
1175.20 0.0374
1175.30 0.03739
1175.40 0.03738
1175.50 0.03737
1175.60 0.03735
1175.70 0.03734
1175.80 0.03733
1175.90 0.03732
1176.00 0.0373
1176.10 0.03729
1176.20 0.03728
1176.30 0.03727
1176.40 0.03726
1176.50 0.03724
1176.60 0.03723
1176.70 0.03722
1176.80 0.03721
1176.90 0.03719
1177.00 0.03718
1177.10 0.03717
1177.20 0.03716
1177.30 0.03714
1177.40 0.03713
1177.50 0.03712
1177.60 0.03711
1177.70 0.0371
1177.80 0.03708
1177.90 0.03707
1178.00 0.03706
1178.10 0.03705
1178.20 0.03703
1178.30 0.03702
1178.40 0.03701
1178.50 0.037
1178.60 0.03699
1178.70 0.03697
1178.80 0.03696
1178.90 0.03695
1179.00 0.03694
1179.10 0.03692
1179.20 0.03691
1179.30 0.0369
1179.40 0.03689
1179.50 0.03688
1179.60 0.03686
1179.70 0.03685
1179.80 0.03684
1179.90 0.03683
1180.00 0.03681
1180.10 0.0368
1180.20 0.03679
1180.30 0.03678
1180.40 0.03677
1180.50 0.03675
1180.60 0.03674
1180.70 0.03673
1180.80 0.03672
1180.90 0.03671
1181.00 0.03669
1181.10 0.03668
1181.20 0.03667
1181.30 0.03666
1181.40 0.03664
1181.50 0.03663
1181.60 0.03662
1181.70 0.03661
1181.80 0.0366
1181.90 0.03658
1182.00 0.03657
1182.10 0.03656
1182.20 0.03655
1182.30 0.03654
1182.40 0.03652
1182.50 0.03651
1182.60 0.0365
1182.70 0.03649
1182.80 0.03648
1182.90 0.03646
1183.00 0.03645
1183.10 0.03644
1183.20 0.03643
1183.30 0.03642
1183.40 0.0364
1183.50 0.03639
1183.60 0.03638
1183.70 0.03637
1183.80 0.03636
1183.90 0.03634
1184.00 0.03633
1184.10 0.03632
1184.20 0.03631
1184.30 0.0363
1184.40 0.03628
1184.50 0.03627
1184.60 0.03626
1184.70 0.03625
1184.80 0.03624
1184.90 0.03622
1185.00 0.03621
1185.10 0.0362
1185.20 0.03619
1185.30 0.03618
1185.40 0.03617
1185.50 0.03615
1185.60 0.03614
1185.70 0.03613
1185.80 0.03612
1185.90 0.03611
1186.00 0.03609
1186.10 0.03608
1186.20 0.03607
1186.30 0.03606
1186.40 0.03605
1186.50 0.03603
1186.60 0.03602
1186.70 0.03601
1186.80 0.036
1186.90 0.03599
1187.00 0.03598
1187.10 0.03596
1187.20 0.03595
1187.30 0.03594
1187.40 0.03593
1187.50 0.03592
1187.60 0.0359
1187.70 0.03589
1187.80 0.03588
1187.90 0.03587
1188.00 0.03586
1188.10 0.03585
1188.20 0.03583
1188.30 0.03582
1188.40 0.03581
1188.50 0.0358
1188.60 0.03579
1188.70 0.03578
1188.80 0.03576
1188.90 0.03575
1189.00 0.03574
1189.10 0.03573
1189.20 0.03572
1189.30 0.03571
1189.40 0.03569
1189.50 0.03568
1189.60 0.03567
1189.70 0.03566
1189.80 0.03565
1189.90 0.03564
1190.00 0.03562
1190.10 0.03561
1190.20 0.0356
1190.30 0.03559
1190.40 0.03558
1190.50 0.03557
1190.60 0.03555
1190.70 0.03554
1190.80 0.03553
1190.90 0.03552
1191.00 0.03551
1191.10 0.0355
1191.20 0.03548
1191.30 0.03547
1191.40 0.03546
1191.50 0.03545
1191.60 0.03544
1191.70 0.03543
1191.80 0.03541
1191.90 0.0354
1192.00 0.03539
1192.10 0.03538
1192.20 0.03537
1192.30 0.03536
1192.40 0.03534
1192.50 0.03533
1192.60 0.03532
1192.70 0.03531
1192.80 0.0353
1192.90 0.03529
1193.00 0.03528
1193.10 0.03526
1193.20 0.03525
1193.30 0.03524
1193.40 0.03523
1193.50 0.03522
1193.60 0.03521
1193.70 0.0352
1193.80 0.03518
1193.90 0.03517
1194.00 0.03516
1194.10 0.03515
1194.20 0.03514
1194.30 0.03513
1194.40 0.03512
1194.50 0.0351
1194.60 0.03509
1194.70 0.03508
1194.80 0.03507
1194.90 0.03506
1195.00 0.03505
1195.10 0.03504
1195.20 0.03502
1195.30 0.03501
1195.40 0.035
1195.50 0.03499
1195.60 0.03498
1195.70 0.03497
1195.80 0.03496
1195.90 0.03494
1196.00 0.03493
1196.10 0.03492
1196.20 0.03491
1196.30 0.0349
1196.40 0.03489
1196.50 0.03488
1196.60 0.03486
1196.70 0.03485
1196.80 0.03484
1196.90 0.03483
1197.00 0.03482
1197.10 0.03481
1197.20 0.0348
1197.30 0.03478
1197.40 0.03477
1197.50 0.03476
1197.60 0.03475
1197.70 0.03474
1197.80 0.03473
1197.90 0.03472
1198.00 0.03471
1198.10 0.03469
1198.20 0.03468
1198.30 0.03467
1198.40 0.03466
1198.50 0.03465
1198.60 0.03464
1198.70 0.03463
1198.80 0.03462
1198.90 0.0346
1199.00 0.03459
1199.10 0.03458
1199.20 0.03457
1199.30 0.03456
1199.40 0.03455
1199.50 0.03454
1199.60 0.03453
1199.70 0.03451
1199.80 0.0345
1199.90 0.03449
1200.00 0
