# Version 2.1 - nm, norm@500 to 1, cut digits, bergeron_2000_70.dat_2000
# Wavelength(nm)  Flambda(ergs/cm^s/s/nm)
300.00 0.02125
300.10 0.02133
300.20 0.02142
300.30 0.02151
300.40 0.02159
300.50 0.02168
300.60 0.02177
300.70 0.02186
300.80 0.02195
300.90 0.02203
301.00 0.02212
301.10 0.02221
301.20 0.02229
301.30 0.02238
301.40 0.02247
301.50 0.02255
301.60 0.02264
301.70 0.02273
301.80 0.02281
301.90 0.0229
302.00 0.02299
302.10 0.02308
302.20 0.02317
302.30 0.02327
302.40 0.02336
302.50 0.02345
302.60 0.02355
302.70 0.02364
302.80 0.02373
302.90 0.02382
303.00 0.02392
303.10 0.02401
303.20 0.0241
303.30 0.02419
303.40 0.02429
303.50 0.02438
303.60 0.02447
303.70 0.02456
303.80 0.02465
303.90 0.02475
304.00 0.02484
304.10 0.02494
304.20 0.02504
304.30 0.02513
304.40 0.02523
304.50 0.02533
304.60 0.02543
304.70 0.02553
304.80 0.02563
304.90 0.02573
305.00 0.02582
305.10 0.02592
305.20 0.02602
305.30 0.02612
305.40 0.02622
305.50 0.02631
305.60 0.02641
305.70 0.02651
305.80 0.0266
305.90 0.0267
306.00 0.0268
306.10 0.02691
306.20 0.02701
306.30 0.02711
306.40 0.02722
306.50 0.02732
306.60 0.02743
306.70 0.02753
306.80 0.02763
306.90 0.02774
307.00 0.02784
307.10 0.02795
307.20 0.02805
307.30 0.02815
307.40 0.02826
307.50 0.02836
307.60 0.02846
307.70 0.02857
307.80 0.02867
307.90 0.02877
308.00 0.02888
308.10 0.02899
308.20 0.0291
308.30 0.02921
308.40 0.02932
308.50 0.02943
308.60 0.02954
308.70 0.02965
308.80 0.02976
308.90 0.02987
309.00 0.02998
309.10 0.03009
309.20 0.0302
309.30 0.03031
309.40 0.03042
309.50 0.03052
309.60 0.03063
309.70 0.03074
309.80 0.03085
309.90 0.03096
310.00 0.03107
310.10 0.03119
310.20 0.0313
310.30 0.03142
310.40 0.03154
310.50 0.03166
310.60 0.03177
310.70 0.03189
310.80 0.03201
310.90 0.03212
311.00 0.03224
311.10 0.03235
311.20 0.03247
311.30 0.03259
311.40 0.0327
311.50 0.03282
311.60 0.03293
311.70 0.03305
311.80 0.03316
311.90 0.03328
312.00 0.03339
312.10 0.03351
312.20 0.03363
312.30 0.03375
312.40 0.03387
312.50 0.03399
312.60 0.03412
312.70 0.03424
312.80 0.03436
312.90 0.03449
313.00 0.03461
313.10 0.03473
313.20 0.03486
313.30 0.03498
313.40 0.0351
313.50 0.03522
313.60 0.03534
313.70 0.03547
313.80 0.03559
313.90 0.03571
314.00 0.03584
314.10 0.03596
314.20 0.03609
314.30 0.03622
314.40 0.03635
314.50 0.03648
314.60 0.03661
314.70 0.03674
314.80 0.03687
314.90 0.037
315.00 0.03713
315.10 0.03725
315.20 0.03738
315.30 0.03751
315.40 0.03764
315.50 0.03777
315.60 0.03789
315.70 0.03802
315.80 0.03815
315.90 0.03828
316.00 0.03841
316.10 0.03854
316.20 0.03868
316.30 0.03881
316.40 0.03895
316.50 0.03909
316.60 0.03922
316.70 0.03936
316.80 0.0395
316.90 0.03963
317.00 0.03977
317.10 0.0399
317.20 0.04004
317.30 0.04017
317.40 0.04031
317.50 0.04044
317.60 0.04058
317.70 0.04071
317.80 0.04084
317.90 0.04098
318.00 0.04112
318.10 0.04126
318.20 0.0414
318.30 0.04154
318.40 0.04169
318.50 0.04183
318.60 0.04197
318.70 0.04212
318.80 0.04226
318.90 0.0424
319.00 0.04255
319.10 0.04269
319.20 0.04283
319.30 0.04297
319.40 0.04311
319.50 0.04325
319.60 0.0434
319.70 0.04354
319.80 0.04368
319.90 0.04382
320.00 0.04397
320.10 0.04411
320.20 0.04426
320.30 0.04441
320.40 0.04456
320.50 0.04471
320.60 0.04486
320.70 0.04501
320.80 0.04516
320.90 0.04531
321.00 0.04546
321.10 0.04561
321.20 0.04576
321.30 0.04591
321.40 0.04606
321.50 0.04621
321.60 0.04636
321.70 0.0465
321.80 0.04665
321.90 0.0468
322.00 0.04695
322.10 0.04711
322.20 0.04726
322.30 0.04742
322.40 0.04758
322.50 0.04774
322.60 0.0479
322.70 0.04805
322.80 0.04821
322.90 0.04837
323.00 0.04852
323.10 0.04868
323.20 0.04884
323.30 0.04899
323.40 0.04915
323.50 0.04931
323.60 0.04946
323.70 0.04962
323.80 0.04977
323.90 0.04993
324.00 0.05008
324.10 0.05025
324.20 0.05041
324.30 0.05058
324.40 0.05074
324.50 0.05091
324.60 0.05107
324.70 0.05124
324.80 0.0514
324.90 0.05157
325.00 0.05173
325.10 0.0519
325.20 0.05206
325.30 0.05222
325.40 0.05239
325.50 0.05255
325.60 0.05271
325.70 0.05287
325.80 0.05304
325.90 0.0532
326.00 0.05337
326.10 0.05354
326.20 0.05371
326.30 0.05388
326.40 0.05406
326.50 0.05423
326.60 0.0544
326.70 0.05457
326.80 0.05475
326.90 0.05492
327.00 0.05509
327.10 0.05526
327.20 0.05543
327.30 0.0556
327.40 0.05578
327.50 0.05595
327.60 0.05612
327.70 0.05629
327.80 0.05646
327.90 0.05663
328.00 0.05681
328.10 0.05698
328.20 0.05716
328.30 0.05734
328.40 0.05752
328.50 0.0577
328.60 0.05788
328.70 0.05806
328.80 0.05824
328.90 0.05842
329.00 0.0586
329.10 0.05878
329.20 0.05896
329.30 0.05914
329.40 0.05932
329.50 0.0595
329.60 0.05967
329.70 0.05985
329.80 0.06003
329.90 0.06021
330.00 0.06038
330.10 0.06057
330.20 0.06076
330.30 0.06095
330.40 0.06114
330.50 0.06133
330.60 0.06152
330.70 0.06171
330.80 0.0619
330.90 0.06208
331.00 0.06227
331.10 0.06246
331.20 0.06265
331.30 0.06283
331.40 0.06302
331.50 0.06321
331.60 0.06339
331.70 0.06358
331.80 0.06376
331.90 0.06395
332.00 0.06413
332.10 0.06433
332.20 0.06453
332.30 0.06473
332.40 0.06492
332.50 0.06512
332.60 0.06532
332.70 0.06551
332.80 0.06571
332.90 0.0659
333.00 0.0661
333.10 0.0663
333.20 0.06649
333.30 0.06669
333.40 0.06688
333.50 0.06707
333.60 0.06727
333.70 0.06746
333.80 0.06766
333.90 0.06785
334.00 0.06804
334.10 0.06825
334.20 0.06845
334.30 0.06866
334.40 0.06887
334.50 0.06907
334.60 0.06928
334.70 0.06948
334.80 0.06968
334.90 0.06989
335.00 0.07009
335.10 0.0703
335.20 0.0705
335.30 0.0707
335.40 0.07091
335.50 0.07111
335.60 0.07131
335.70 0.07151
335.80 0.07171
335.90 0.07192
336.00 0.07212
336.10 0.07233
336.20 0.07255
336.30 0.07276
336.40 0.07297
336.50 0.07319
336.60 0.0734
336.70 0.07361
336.80 0.07383
336.90 0.07404
337.00 0.07425
337.10 0.07446
337.20 0.07467
337.30 0.07489
337.40 0.0751
337.50 0.07531
337.60 0.07552
337.70 0.07573
337.80 0.07594
337.90 0.07615
338.00 0.07636
338.10 0.07658
338.20 0.07681
338.30 0.07703
338.40 0.07725
338.50 0.07747
338.60 0.07769
338.70 0.07792
338.80 0.07814
338.90 0.07836
339.00 0.07858
339.10 0.0788
339.20 0.07902
339.30 0.07924
339.40 0.07946
339.50 0.07968
339.60 0.0799
339.70 0.08012
339.80 0.08033
339.90 0.08055
340.00 0.08077
340.10 0.081
340.20 0.08123
340.30 0.08147
340.40 0.0817
340.50 0.08193
340.60 0.08216
340.70 0.08239
340.80 0.08262
340.90 0.08285
341.00 0.08308
341.10 0.08331
341.20 0.08354
341.30 0.08376
341.40 0.08399
341.50 0.08422
341.60 0.08445
341.70 0.08468
341.80 0.0849
341.90 0.08513
342.00 0.08536
342.10 0.0856
342.20 0.08584
342.30 0.08608
342.40 0.08632
342.50 0.08656
342.60 0.0868
342.70 0.08704
342.80 0.08727
342.90 0.08751
343.00 0.08775
343.10 0.08799
343.20 0.08823
343.30 0.08846
343.40 0.0887
343.50 0.08894
343.60 0.08917
343.70 0.08941
343.80 0.08965
343.90 0.08988
344.00 0.09012
344.10 0.09037
344.20 0.09062
344.30 0.09087
344.40 0.09112
344.50 0.09136
344.60 0.09161
344.70 0.09186
344.80 0.09211
344.90 0.09236
345.00 0.0926
345.10 0.09285
345.20 0.0931
345.30 0.09334
345.40 0.09359
345.50 0.09383
345.60 0.09408
345.70 0.09432
345.80 0.09457
345.90 0.09481
346.00 0.09506
346.10 0.09532
346.20 0.09558
346.30 0.09583
346.40 0.09609
346.50 0.09635
346.60 0.09661
346.70 0.09686
346.80 0.09712
346.90 0.09738
347.00 0.09763
347.10 0.09789
347.20 0.09815
347.30 0.0984
347.40 0.09866
347.50 0.09891
347.60 0.09916
347.70 0.09942
347.80 0.09967
347.90 0.09992
348.00 0.1002
348.10 0.1004
348.20 0.1007
348.30 0.101
348.40 0.1012
348.50 0.1015
348.60 0.1018
348.70 0.102
348.80 0.1023
348.90 0.1026
349.00 0.1028
349.10 0.1031
349.20 0.1034
349.30 0.1036
349.40 0.1039
349.50 0.1042
349.60 0.1044
349.70 0.1047
349.80 0.105
349.90 0.1052
350.00 0.1055
350.10 0.1058
350.20 0.106
350.30 0.1063
350.40 0.1066
350.50 0.1069
350.60 0.1071
350.70 0.1074
350.80 0.1077
350.90 0.108
351.00 0.1082
351.10 0.1085
351.20 0.1088
351.30 0.1091
351.40 0.1093
351.50 0.1096
351.60 0.1099
351.70 0.1102
351.80 0.1104
351.90 0.1107
352.00 0.111
352.10 0.1113
352.20 0.1115
352.30 0.1118
352.40 0.1121
352.50 0.1124
352.60 0.1127
352.70 0.113
352.80 0.1133
352.90 0.1135
353.00 0.1138
353.10 0.1141
353.20 0.1144
353.30 0.1147
353.40 0.115
353.50 0.1152
353.60 0.1155
353.70 0.1158
353.80 0.1161
353.90 0.1164
354.00 0.1166
354.10 0.1169
354.20 0.1172
354.30 0.1175
354.40 0.1178
354.50 0.1181
354.60 0.1184
354.70 0.1187
354.80 0.119
354.90 0.1193
355.00 0.1196
355.10 0.1199
355.20 0.1202
355.30 0.1205
355.40 0.1208
355.50 0.1211
355.60 0.1213
355.70 0.1216
355.80 0.1219
355.90 0.1222
356.00 0.1225
356.10 0.1228
356.20 0.1231
356.30 0.1234
356.40 0.1237
356.50 0.124
356.60 0.1243
356.70 0.1246
356.80 0.1249
356.90 0.1252
357.00 0.1255
357.10 0.1259
357.20 0.1262
357.30 0.1265
357.40 0.1268
357.50 0.1271
357.60 0.1274
357.70 0.1277
357.80 0.128
357.90 0.1283
358.00 0.1286
358.10 0.1289
358.20 0.1292
358.30 0.1295
358.40 0.1298
358.50 0.1301
358.60 0.1304
358.70 0.1308
358.80 0.1311
358.90 0.1314
359.00 0.1317
359.10 0.132
359.20 0.1323
359.30 0.1326
359.40 0.1329
359.50 0.1333
359.60 0.1336
359.70 0.1339
359.80 0.1342
359.90 0.1345
360.00 0.1348
360.10 0.1351
360.20 0.1355
360.30 0.1358
360.40 0.1361
360.50 0.1364
360.60 0.1367
360.70 0.1371
360.80 0.1374
360.90 0.1377
361.00 0.138
361.10 0.1384
361.20 0.1387
361.30 0.139
361.40 0.1393
361.50 0.1396
361.60 0.14
361.70 0.1403
361.80 0.1406
361.90 0.1409
362.00 0.1412
362.10 0.1416
362.20 0.1419
362.30 0.1422
362.40 0.1426
362.50 0.1429
362.60 0.1432
362.70 0.1435
362.80 0.1439
362.90 0.1442
363.00 0.1445
363.10 0.1449
363.20 0.1452
363.30 0.1455
363.40 0.1459
363.50 0.1462
363.60 0.1466
363.70 0.1469
363.80 0.1472
363.90 0.1476
364.00 0.1479
364.10 0.1482
364.20 0.1486
364.30 0.1489
364.40 0.1492
364.50 0.1496
364.60 0.1499
364.70 0.1502
364.80 0.1506
364.90 0.1509
365.00 0.1513
365.10 0.1516
365.20 0.152
365.30 0.1523
365.40 0.1527
365.50 0.153
365.60 0.1533
365.70 0.1537
365.80 0.154
365.90 0.1544
366.00 0.1547
366.10 0.1551
366.20 0.1554
366.30 0.1558
366.40 0.1561
366.50 0.1565
366.60 0.1568
366.70 0.1572
366.80 0.1575
366.90 0.1579
367.00 0.1582
367.10 0.1586
367.20 0.1589
367.30 0.1593
367.40 0.1596
367.50 0.16
367.60 0.1603
367.70 0.1607
367.80 0.161
367.90 0.1614
368.00 0.1617
368.10 0.1621
368.20 0.1624
368.30 0.1628
368.40 0.1632
368.50 0.1635
368.60 0.1639
368.70 0.1643
368.80 0.1646
368.90 0.165
369.00 0.1653
369.10 0.1657
369.20 0.1661
369.30 0.1664
369.40 0.1668
369.50 0.1672
369.60 0.1675
369.70 0.1679
369.80 0.1682
369.90 0.1686
370.00 0.1689
370.10 0.1693
370.20 0.1697
370.30 0.1701
370.40 0.1704
370.50 0.1708
370.60 0.1712
370.70 0.1716
370.80 0.1719
370.90 0.1723
371.00 0.1727
371.10 0.173
371.20 0.1734
371.30 0.1738
371.40 0.1741
371.50 0.1745
371.60 0.1749
371.70 0.1753
371.80 0.1756
371.90 0.176
372.00 0.1764
372.10 0.1767
372.20 0.1771
372.30 0.1775
372.40 0.1779
372.50 0.1783
372.60 0.1787
372.70 0.179
372.80 0.1794
372.90 0.1798
373.00 0.1802
373.10 0.1806
373.20 0.1809
373.30 0.1813
373.40 0.1817
373.50 0.1821
373.60 0.1825
373.70 0.1828
373.80 0.1832
373.90 0.1836
374.00 0.184
374.10 0.1844
374.20 0.1848
374.30 0.1851
374.40 0.1855
374.50 0.1859
374.60 0.1863
374.70 0.1867
374.80 0.1871
374.90 0.1875
375.00 0.1879
375.10 0.1883
375.20 0.1887
375.30 0.1891
375.40 0.1895
375.50 0.1898
375.60 0.1902
375.70 0.1906
375.80 0.191
375.90 0.1914
376.00 0.1918
376.10 0.1922
376.20 0.1926
376.30 0.193
376.40 0.1934
376.50 0.1938
376.60 0.1942
376.70 0.1946
376.80 0.195
376.90 0.1954
377.00 0.1958
377.10 0.1962
377.20 0.1966
377.30 0.197
377.40 0.1974
377.50 0.1978
377.60 0.1982
377.70 0.1986
377.80 0.199
377.90 0.1994
378.00 0.1998
378.10 0.2002
378.20 0.2006
378.30 0.201
378.40 0.2014
378.50 0.2018
378.60 0.2022
378.70 0.2027
378.80 0.2031
378.90 0.2035
379.00 0.2039
379.10 0.2043
379.20 0.2047
379.30 0.2051
379.40 0.2055
379.50 0.2059
379.60 0.2064
379.70 0.2068
379.80 0.2072
379.90 0.2076
380.00 0.208
380.10 0.2084
380.20 0.2088
380.30 0.2093
380.40 0.2097
380.50 0.2101
380.60 0.2105
380.70 0.2109
380.80 0.2114
380.90 0.2118
381.00 0.2122
381.10 0.2126
381.20 0.213
381.30 0.2135
381.40 0.2139
381.50 0.2143
381.60 0.2147
381.70 0.2151
381.80 0.2156
381.90 0.216
382.00 0.2164
382.10 0.2168
382.20 0.2173
382.30 0.2177
382.40 0.2181
382.50 0.2186
382.60 0.219
382.70 0.2194
382.80 0.2199
382.90 0.2203
383.00 0.2207
383.10 0.2211
383.20 0.2216
383.30 0.222
383.40 0.2224
383.50 0.2229
383.60 0.2233
383.70 0.2237
383.80 0.2242
383.90 0.2246
384.00 0.225
384.10 0.2255
384.20 0.2259
384.30 0.2263
384.40 0.2268
384.50 0.2272
384.60 0.2276
384.70 0.2281
384.80 0.2285
384.90 0.229
385.00 0.2294
385.10 0.2298
385.20 0.2303
385.30 0.2307
385.40 0.2312
385.50 0.2316
385.60 0.2321
385.70 0.2325
385.80 0.2329
385.90 0.2334
386.00 0.2338
386.10 0.2343
386.20 0.2347
386.30 0.2352
386.40 0.2356
386.50 0.2361
386.60 0.2365
386.70 0.237
386.80 0.2374
386.90 0.2379
387.00 0.2383
387.10 0.2388
387.20 0.2392
387.30 0.2397
387.40 0.2401
387.50 0.2406
387.60 0.241
387.70 0.2415
387.80 0.2419
387.90 0.2424
388.00 0.2428
388.10 0.2433
388.20 0.2437
388.30 0.2442
388.40 0.2447
388.50 0.2451
388.60 0.2456
388.70 0.246
388.80 0.2465
388.90 0.2469
389.00 0.2474
389.10 0.2479
389.20 0.2483
389.30 0.2488
389.40 0.2492
389.50 0.2497
389.60 0.2502
389.70 0.2506
389.80 0.2511
389.90 0.2516
390.00 0.252
390.10 0.2525
390.20 0.253
390.30 0.2534
390.40 0.2539
390.50 0.2544
390.60 0.2548
390.70 0.2553
390.80 0.2558
390.90 0.2562
391.00 0.2567
391.10 0.2572
391.20 0.2576
391.30 0.2581
391.40 0.2586
391.50 0.2591
391.60 0.2595
391.70 0.26
391.80 0.2605
391.90 0.261
392.00 0.2614
392.10 0.2619
392.20 0.2624
392.30 0.2628
392.40 0.2633
392.50 0.2638
392.60 0.2643
392.70 0.2648
392.80 0.2652
392.90 0.2657
393.00 0.2662
393.10 0.2667
393.20 0.2672
393.30 0.2676
393.40 0.2681
393.50 0.2686
393.60 0.2691
393.70 0.2696
393.80 0.2701
393.90 0.2705
394.00 0.271
394.10 0.2715
394.20 0.272
394.30 0.2725
394.40 0.273
394.50 0.2734
394.60 0.2739
394.70 0.2744
394.80 0.2749
394.90 0.2754
395.00 0.2759
395.10 0.2764
395.20 0.2769
395.30 0.2774
395.40 0.2778
395.50 0.2783
395.60 0.2788
395.70 0.2793
395.80 0.2798
395.90 0.2803
396.00 0.2808
396.10 0.2813
396.20 0.2818
396.30 0.2823
396.40 0.2828
396.50 0.2833
396.60 0.2838
396.70 0.2843
396.80 0.2848
396.90 0.2853
397.00 0.2858
397.10 0.2863
397.20 0.2868
397.30 0.2873
397.40 0.2878
397.50 0.2883
397.60 0.2888
397.70 0.2893
397.80 0.2898
397.90 0.2903
398.00 0.2908
398.10 0.2913
398.20 0.2918
398.30 0.2923
398.40 0.2928
398.50 0.2933
398.60 0.2938
398.70 0.2943
398.80 0.2948
398.90 0.2953
399.00 0.2958
399.10 0.2963
399.20 0.2969
399.30 0.2974
399.40 0.2979
399.50 0.2984
399.60 0.2989
399.70 0.2994
399.80 0.2999
399.90 0.3004
400.00 0.301
400.10 0.3015
400.20 0.302
400.30 0.3025
400.40 0.303
400.50 0.3035
400.60 0.304
400.70 0.3046
400.80 0.3051
400.90 0.3056
401.00 0.3061
401.10 0.3066
401.20 0.3071
401.30 0.3077
401.40 0.3082
401.50 0.3087
401.60 0.3092
401.70 0.3097
401.80 0.3103
401.90 0.3108
402.00 0.3113
402.10 0.3118
402.20 0.3124
402.30 0.3129
402.40 0.3134
402.50 0.3139
402.60 0.3144
402.70 0.315
402.80 0.3155
402.90 0.316
403.00 0.3166
403.10 0.3171
403.20 0.3176
403.30 0.3182
403.40 0.3187
403.50 0.3192
403.60 0.3197
403.70 0.3203
403.80 0.3208
403.90 0.3213
404.00 0.3219
404.10 0.3224
404.20 0.3229
404.30 0.3235
404.40 0.324
404.50 0.3245
404.60 0.3251
404.70 0.3256
404.80 0.3261
404.90 0.3267
405.00 0.3272
405.10 0.3277
405.20 0.3283
405.30 0.3288
405.40 0.3294
405.50 0.3299
405.60 0.3304
405.70 0.331
405.80 0.3315
405.90 0.3321
406.00 0.3326
406.10 0.3331
406.20 0.3337
406.30 0.3342
406.40 0.3348
406.50 0.3353
406.60 0.3359
406.70 0.3364
406.80 0.3369
406.90 0.3375
407.00 0.338
407.10 0.3386
407.20 0.3391
407.30 0.3397
407.40 0.3402
407.50 0.3408
407.60 0.3413
407.70 0.3419
407.80 0.3424
407.90 0.343
408.00 0.3435
408.10 0.3441
408.20 0.3446
408.30 0.3452
408.40 0.3457
408.50 0.3463
408.60 0.3468
408.70 0.3474
408.80 0.3479
408.90 0.3485
409.00 0.349
409.10 0.3496
409.20 0.3502
409.30 0.3507
409.40 0.3513
409.50 0.3518
409.60 0.3524
409.70 0.353
409.80 0.3535
409.90 0.3541
410.00 0.3546
410.10 0.3552
410.20 0.3557
410.30 0.3563
410.40 0.3569
410.50 0.3574
410.60 0.358
410.70 0.3586
410.80 0.3591
410.90 0.3597
411.00 0.3602
411.10 0.3608
411.20 0.3614
411.30 0.3619
411.40 0.3625
411.50 0.3631
411.60 0.3636
411.70 0.3642
411.80 0.3648
411.90 0.3653
412.00 0.3659
412.10 0.3665
412.20 0.3671
412.30 0.3676
412.40 0.3682
412.50 0.3688
412.60 0.3693
412.70 0.3699
412.80 0.3705
412.90 0.3711
413.00 0.3716
413.10 0.3722
413.20 0.3728
413.30 0.3733
413.40 0.3739
413.50 0.3745
413.60 0.3751
413.70 0.3756
413.80 0.3762
413.90 0.3768
414.00 0.3774
414.10 0.378
414.20 0.3785
414.30 0.3791
414.40 0.3797
414.50 0.3803
414.60 0.3809
414.70 0.3814
414.80 0.382
414.90 0.3826
415.00 0.3832
415.10 0.3838
415.20 0.3843
415.30 0.3849
415.40 0.3855
415.50 0.3861
415.60 0.3867
415.70 0.3873
415.80 0.3879
415.90 0.3884
416.00 0.389
416.10 0.3896
416.20 0.3902
416.30 0.3908
416.40 0.3914
416.50 0.392
416.60 0.3926
416.70 0.3931
416.80 0.3937
416.90 0.3943
417.00 0.3949
417.10 0.3955
417.20 0.3961
417.30 0.3967
417.40 0.3973
417.50 0.3979
417.60 0.3985
417.70 0.3991
417.80 0.3997
417.90 0.4002
418.00 0.4008
418.10 0.4014
418.20 0.402
418.30 0.4026
418.40 0.4032
418.50 0.4038
418.60 0.4044
418.70 0.405
418.80 0.4056
418.90 0.4062
419.00 0.4068
419.10 0.4074
419.20 0.408
419.30 0.4086
419.40 0.4092
419.50 0.4098
419.60 0.4104
419.70 0.411
419.80 0.4116
419.90 0.4122
420.00 0.4128
420.10 0.4134
420.20 0.414
420.30 0.4147
420.40 0.4153
420.50 0.4159
420.60 0.4165
420.70 0.4171
420.80 0.4177
420.90 0.4183
421.00 0.4189
421.10 0.4195
421.20 0.4201
421.30 0.4207
421.40 0.4213
421.50 0.422
421.60 0.4226
421.70 0.4232
421.80 0.4238
421.90 0.4244
422.00 0.425
422.10 0.4256
422.20 0.4262
422.30 0.4268
422.40 0.4275
422.50 0.4281
422.60 0.4287
422.70 0.4293
422.80 0.4299
422.90 0.4305
423.00 0.4312
423.10 0.4318
423.20 0.4324
423.30 0.433
423.40 0.4336
423.50 0.4342
423.60 0.4349
423.70 0.4355
423.80 0.4361
423.90 0.4367
424.00 0.4373
424.10 0.438
424.20 0.4386
424.30 0.4392
424.40 0.4398
424.50 0.4404
424.60 0.4411
424.70 0.4417
424.80 0.4423
424.90 0.4429
425.00 0.4436
425.10 0.4442
425.20 0.4448
425.30 0.4454
425.40 0.4461
425.50 0.4467
425.60 0.4473
425.70 0.448
425.80 0.4486
425.90 0.4492
426.00 0.4498
426.10 0.4505
426.20 0.4511
426.30 0.4517
426.40 0.4524
426.50 0.453
426.60 0.4536
426.70 0.4543
426.80 0.4549
426.90 0.4555
427.00 0.4562
427.10 0.4568
427.20 0.4574
427.30 0.4581
427.40 0.4587
427.50 0.4593
427.60 0.46
427.70 0.4606
427.80 0.4612
427.90 0.4619
428.00 0.4625
428.10 0.4631
428.20 0.4638
428.30 0.4644
428.40 0.4651
428.50 0.4657
428.60 0.4663
428.70 0.467
428.80 0.4676
428.90 0.4683
429.00 0.4689
429.10 0.4695
429.20 0.4702
429.30 0.4708
429.40 0.4715
429.50 0.4721
429.60 0.4728
429.70 0.4734
429.80 0.474
429.90 0.4747
430.00 0.4753
430.10 0.476
430.20 0.4766
430.30 0.4773
430.40 0.4779
430.50 0.4786
430.60 0.4792
430.70 0.4799
430.80 0.4805
430.90 0.4812
431.00 0.4818
431.10 0.4824
431.20 0.4831
431.30 0.4837
431.40 0.4844
431.50 0.485
431.60 0.4857
431.70 0.4863
431.80 0.487
431.90 0.4877
432.00 0.4883
432.10 0.489
432.20 0.4896
432.30 0.4903
432.40 0.4909
432.50 0.4916
432.60 0.4922
432.70 0.4929
432.80 0.4935
432.90 0.4942
433.00 0.4949
433.10 0.4955
433.20 0.4962
433.30 0.4968
433.40 0.4975
433.50 0.4981
433.60 0.4988
433.70 0.4995
433.80 0.5001
433.90 0.5008
434.00 0.5014
434.10 0.5021
434.20 0.5028
434.30 0.5034
434.40 0.5041
434.50 0.5048
434.60 0.5054
434.70 0.5061
434.80 0.5067
434.90 0.5074
435.00 0.5081
435.10 0.5087
435.20 0.5094
435.30 0.5101
435.40 0.5107
435.50 0.5114
435.60 0.5121
435.70 0.5127
435.80 0.5134
435.90 0.5141
436.00 0.5147
436.10 0.5154
436.20 0.5161
436.30 0.5167
436.40 0.5174
436.50 0.5181
436.60 0.5187
436.70 0.5194
436.80 0.5201
436.90 0.5208
437.00 0.5214
437.10 0.5221
437.20 0.5228
437.30 0.5234
437.40 0.5241
437.50 0.5248
437.60 0.5255
437.70 0.5261
437.80 0.5268
437.90 0.5275
438.00 0.5282
438.10 0.5288
438.20 0.5295
438.30 0.5302
438.40 0.5309
438.50 0.5315
438.60 0.5322
438.70 0.5329
438.80 0.5336
438.90 0.5343
439.00 0.5349
439.10 0.5356
439.20 0.5363
439.30 0.537
439.40 0.5377
439.50 0.5383
439.60 0.539
439.70 0.5397
439.80 0.5404
439.90 0.5411
440.00 0.5417
440.10 0.5424
440.20 0.5431
440.30 0.5438
440.40 0.5445
440.50 0.5452
440.60 0.5459
440.70 0.5465
440.80 0.5472
440.90 0.5479
441.00 0.5486
441.10 0.5493
441.20 0.55
441.30 0.5507
441.40 0.5513
441.50 0.552
441.60 0.5527
441.70 0.5534
441.80 0.5541
441.90 0.5548
442.00 0.5555
442.10 0.5562
442.20 0.5569
442.30 0.5575
442.40 0.5582
442.50 0.5589
442.60 0.5596
442.70 0.5603
442.80 0.561
442.90 0.5617
443.00 0.5624
443.10 0.5631
443.20 0.5638
443.30 0.5645
443.40 0.5652
443.50 0.5659
443.60 0.5666
443.70 0.5673
443.80 0.5679
443.90 0.5686
444.00 0.5693
444.10 0.57
444.20 0.5707
444.30 0.5714
444.40 0.5721
444.50 0.5728
444.60 0.5735
444.70 0.5742
444.80 0.5749
444.90 0.5756
445.00 0.5763
445.10 0.577
445.20 0.5777
445.30 0.5784
445.40 0.5791
445.50 0.5798
445.60 0.5805
445.70 0.5812
445.80 0.5819
445.90 0.5826
446.00 0.5833
446.10 0.584
446.20 0.5847
446.30 0.5854
446.40 0.5862
446.50 0.5869
446.60 0.5876
446.70 0.5883
446.80 0.589
446.90 0.5897
447.00 0.5904
447.10 0.5911
447.20 0.5918
447.30 0.5925
447.40 0.5932
447.50 0.5939
447.60 0.5946
447.70 0.5953
447.80 0.5961
447.90 0.5968
448.00 0.5975
448.10 0.5982
448.20 0.5989
448.30 0.5996
448.40 0.6003
448.50 0.601
448.60 0.6017
448.70 0.6024
448.80 0.6032
448.90 0.6039
449.00 0.6046
449.10 0.6053
449.20 0.606
449.30 0.6067
449.40 0.6074
449.50 0.6082
449.60 0.6089
449.70 0.6096
449.80 0.6103
449.90 0.611
450.00 0.6117
450.10 0.6124
450.20 0.6132
450.30 0.6139
450.40 0.6146
450.50 0.6153
450.60 0.616
450.70 0.6168
450.80 0.6175
450.90 0.6182
451.00 0.6189
451.10 0.6196
451.20 0.6204
451.30 0.6211
451.40 0.6218
451.50 0.6225
451.60 0.6232
451.70 0.624
451.80 0.6247
451.90 0.6254
452.00 0.6261
452.10 0.6268
452.20 0.6276
452.30 0.6283
452.40 0.629
452.50 0.6297
452.60 0.6305
452.70 0.6312
452.80 0.6319
452.90 0.6327
453.00 0.6334
453.10 0.6341
453.20 0.6348
453.30 0.6355
453.40 0.6363
453.50 0.637
453.60 0.6377
453.70 0.6385
453.80 0.6392
453.90 0.6399
454.00 0.6407
454.10 0.6414
454.20 0.6421
454.30 0.6428
454.40 0.6436
454.50 0.6443
454.60 0.645
454.70 0.6458
454.80 0.6465
454.90 0.6472
455.00 0.6479
455.10 0.6487
455.20 0.6494
455.30 0.6501
455.40 0.6509
455.50 0.6516
455.60 0.6523
455.70 0.6531
455.80 0.6538
455.90 0.6545
456.00 0.6553
456.10 0.656
456.20 0.6567
456.30 0.6575
456.40 0.6582
456.50 0.6589
456.60 0.6597
456.70 0.6604
456.80 0.6612
456.90 0.6619
457.00 0.6626
457.10 0.6634
457.20 0.6641
457.30 0.6648
457.40 0.6656
457.50 0.6663
457.60 0.6671
457.70 0.6678
457.80 0.6685
457.90 0.6693
458.00 0.67
458.10 0.6708
458.20 0.6715
458.30 0.6722
458.40 0.673
458.50 0.6737
458.60 0.6745
458.70 0.6752
458.80 0.676
458.90 0.6767
459.00 0.6774
459.10 0.6782
459.20 0.6789
459.30 0.6797
459.40 0.6804
459.50 0.6812
459.60 0.6819
459.70 0.6826
459.80 0.6834
459.90 0.6841
460.00 0.6849
460.10 0.6856
460.20 0.6864
460.30 0.6871
460.40 0.6879
460.50 0.6886
460.60 0.6894
460.70 0.6901
460.80 0.6909
460.90 0.6916
461.00 0.6923
461.10 0.6931
461.20 0.6938
461.30 0.6946
461.40 0.6954
461.50 0.6961
461.60 0.6969
461.70 0.6976
461.80 0.6984
461.90 0.6991
462.00 0.6998
462.10 0.7006
462.20 0.7013
462.30 0.7021
462.40 0.7029
462.50 0.7036
462.60 0.7044
462.70 0.7051
462.80 0.7059
462.90 0.7066
463.00 0.7074
463.10 0.7081
463.20 0.7089
463.30 0.7096
463.40 0.7104
463.50 0.7112
463.60 0.7119
463.70 0.7127
463.80 0.7134
463.90 0.7142
464.00 0.7149
464.10 0.7157
464.20 0.7164
464.30 0.7172
464.40 0.718
464.50 0.7187
464.60 0.7195
464.70 0.7202
464.80 0.721
464.90 0.7217
465.00 0.7225
465.10 0.7233
465.20 0.724
465.30 0.7248
465.40 0.7255
465.50 0.7263
465.60 0.7271
465.70 0.7278
465.80 0.7286
465.90 0.7293
466.00 0.7301
466.10 0.7309
466.20 0.7316
466.30 0.7324
466.40 0.7331
466.50 0.7339
466.60 0.7347
466.70 0.7354
466.80 0.7362
466.90 0.737
467.00 0.7377
467.10 0.7385
467.20 0.7392
467.30 0.74
467.40 0.7408
467.50 0.7416
467.60 0.7423
467.70 0.7431
467.80 0.7438
467.90 0.7446
468.00 0.7454
468.10 0.7461
468.20 0.7469
468.30 0.7477
468.40 0.7484
468.50 0.7492
468.60 0.75
468.70 0.7507
468.80 0.7515
468.90 0.7523
469.00 0.753
469.10 0.7538
469.20 0.7546
469.30 0.7554
469.40 0.7561
469.50 0.7569
469.60 0.7577
469.70 0.7584
469.80 0.7592
469.90 0.76
470.00 0.7607
470.10 0.7615
470.20 0.7623
470.30 0.7631
470.40 0.7638
470.50 0.7646
470.60 0.7654
470.70 0.7661
470.80 0.7669
470.90 0.7677
471.00 0.7685
471.10 0.7692
471.20 0.77
471.30 0.7708
471.40 0.7716
471.50 0.7723
471.60 0.7731
471.70 0.7739
471.80 0.7747
471.90 0.7754
472.00 0.7762
472.10 0.777
472.20 0.7777
472.30 0.7785
472.40 0.7793
472.50 0.7801
472.60 0.7809
472.70 0.7816
472.80 0.7824
472.90 0.7832
473.00 0.784
473.10 0.7847
473.20 0.7855
473.30 0.7863
473.40 0.7871
473.50 0.7879
473.60 0.7886
473.70 0.7894
473.80 0.7902
473.90 0.791
474.00 0.7917
474.10 0.7925
474.20 0.7933
474.30 0.7941
474.40 0.7949
474.50 0.7956
474.60 0.7964
474.70 0.7972
474.80 0.798
474.90 0.7988
475.00 0.7995
475.10 0.8003
475.20 0.8011
475.30 0.8019
475.40 0.8027
475.50 0.8035
475.60 0.8042
475.70 0.805
475.80 0.8058
475.90 0.8066
476.00 0.8074
476.10 0.8081
476.20 0.8089
476.30 0.8097
476.40 0.8105
476.50 0.8113
476.60 0.8121
476.70 0.8129
476.80 0.8136
476.90 0.8144
477.00 0.8152
477.10 0.816
477.20 0.8168
477.30 0.8176
477.40 0.8184
477.50 0.8191
477.60 0.8199
477.70 0.8207
477.80 0.8215
477.90 0.8223
478.00 0.8231
478.10 0.8239
478.20 0.8246
478.30 0.8254
478.40 0.8262
478.50 0.827
478.60 0.8278
478.70 0.8286
478.80 0.8294
478.90 0.8302
479.00 0.831
479.10 0.8317
479.20 0.8325
479.30 0.8333
479.40 0.8341
479.50 0.8349
479.60 0.8357
479.70 0.8365
479.80 0.8373
479.90 0.8381
480.00 0.8389
480.10 0.8396
480.20 0.8404
480.30 0.8412
480.40 0.842
480.50 0.8428
480.60 0.8436
480.70 0.8444
480.80 0.8452
480.90 0.846
481.00 0.8468
481.10 0.8476
481.20 0.8484
481.30 0.8492
481.40 0.8499
481.50 0.8507
481.60 0.8515
481.70 0.8523
481.80 0.8531
481.90 0.8539
482.00 0.8547
482.10 0.8555
482.20 0.8563
482.30 0.8571
482.40 0.8579
482.50 0.8587
482.60 0.8595
482.70 0.8603
482.80 0.8611
482.90 0.8619
483.00 0.8627
483.10 0.8634
483.20 0.8642
483.30 0.865
483.40 0.8658
483.50 0.8666
483.60 0.8674
483.70 0.8682
483.80 0.869
483.90 0.8698
484.00 0.8706
484.10 0.8714
484.20 0.8722
484.30 0.873
484.40 0.8738
484.50 0.8746
484.60 0.8754
484.70 0.8762
484.80 0.877
484.90 0.8778
485.00 0.8786
485.10 0.8794
485.20 0.8802
485.30 0.881
485.40 0.8818
485.50 0.8826
485.60 0.8834
485.70 0.8842
485.80 0.885
485.90 0.8858
486.00 0.8866
486.10 0.8874
486.20 0.8882
486.30 0.889
486.40 0.8898
486.50 0.8906
486.60 0.8914
486.70 0.8922
486.80 0.893
486.90 0.8938
487.00 0.8946
487.10 0.8954
487.20 0.8962
487.30 0.897
487.40 0.8978
487.50 0.8986
487.60 0.8994
487.70 0.9002
487.80 0.9011
487.90 0.9019
488.00 0.9027
488.10 0.9035
488.20 0.9043
488.30 0.9051
488.40 0.9059
488.50 0.9067
488.60 0.9075
488.70 0.9083
488.80 0.9091
488.90 0.9099
489.00 0.9107
489.10 0.9115
489.20 0.9123
489.30 0.9131
489.40 0.9139
489.50 0.9147
489.60 0.9155
489.70 0.9163
489.80 0.9172
489.90 0.918
490.00 0.9188
490.10 0.9196
490.20 0.9204
490.30 0.9212
490.40 0.922
490.50 0.9228
490.60 0.9236
490.70 0.9244
490.80 0.9252
490.90 0.926
491.00 0.9268
491.10 0.9276
491.20 0.9284
491.30 0.9293
491.40 0.9301
491.50 0.9309
491.60 0.9317
491.70 0.9325
491.80 0.9333
491.90 0.9341
492.00 0.9349
492.10 0.9357
492.20 0.9365
492.30 0.9373
492.40 0.9382
492.50 0.939
492.60 0.9398
492.70 0.9406
492.80 0.9414
492.90 0.9422
493.00 0.943
493.10 0.9438
493.20 0.9446
493.30 0.9454
493.40 0.9462
493.50 0.947
493.60 0.9479
493.70 0.9487
493.80 0.9495
493.90 0.9503
494.00 0.9511
494.10 0.9519
494.20 0.9527
494.30 0.9535
494.40 0.9543
494.50 0.9552
494.60 0.956
494.70 0.9568
494.80 0.9576
494.90 0.9584
495.00 0.9593
495.10 0.9601
495.20 0.9609
495.30 0.9617
495.40 0.9625
495.50 0.9633
495.60 0.9641
495.70 0.9649
495.80 0.9658
495.90 0.9666
496.00 0.9674
496.10 0.9682
496.20 0.969
496.30 0.9698
496.40 0.9706
496.50 0.9714
496.60 0.9723
496.70 0.9731
496.80 0.9739
496.90 0.9747
497.00 0.9755
497.10 0.9763
497.20 0.9771
497.30 0.9779
497.40 0.9788
497.50 0.9796
497.60 0.9804
497.70 0.9812
497.80 0.982
497.90 0.9828
498.00 0.9837
498.10 0.9845
498.20 0.9853
498.30 0.9861
498.40 0.9869
498.50 0.9877
498.60 0.9886
498.70 0.9894
498.80 0.9902
498.90 0.991
499.00 0.9918
499.10 0.9926
499.20 0.9934
499.30 0.9943
499.40 0.9951
499.50 0.9959
499.60 0.9967
499.70 0.9975
499.80 0.9984
499.90 0.9992
500.00 1
500.10 1.001
500.20 1.002
500.30 1.002
500.40 1.003
500.50 1.004
500.60 1.005
500.70 1.006
500.80 1.007
500.90 1.007
501.00 1.008
501.10 1.009
501.20 1.01
501.30 1.011
501.40 1.011
501.50 1.012
501.60 1.013
501.70 1.014
501.80 1.015
501.90 1.016
502.00 1.016
502.10 1.017
502.20 1.018
502.30 1.019
502.40 1.02
502.50 1.02
502.60 1.021
502.70 1.022
502.80 1.023
502.90 1.024
503.00 1.024
503.10 1.025
503.20 1.026
503.30 1.027
503.40 1.028
503.50 1.029
503.60 1.029
503.70 1.03
503.80 1.031
503.90 1.032
504.00 1.033
504.10 1.034
504.20 1.034
504.30 1.035
504.40 1.036
504.50 1.037
504.60 1.038
504.70 1.038
504.80 1.039
504.90 1.04
505.00 1.041
505.10 1.042
505.20 1.043
505.30 1.043
505.40 1.044
505.50 1.045
505.60 1.046
505.70 1.047
505.80 1.047
505.90 1.048
506.00 1.049
506.10 1.05
506.20 1.051
506.30 1.052
506.40 1.052
506.50 1.053
506.60 1.054
506.70 1.055
506.80 1.056
506.90 1.056
507.00 1.057
507.10 1.058
507.20 1.059
507.30 1.06
507.40 1.061
507.50 1.061
507.60 1.062
507.70 1.063
507.80 1.064
507.90 1.065
508.00 1.066
508.10 1.066
508.20 1.067
508.30 1.068
508.40 1.069
508.50 1.07
508.60 1.07
508.70 1.071
508.80 1.072
508.90 1.073
509.00 1.074
509.10 1.075
509.20 1.075
509.30 1.076
509.40 1.077
509.50 1.078
509.60 1.079
509.70 1.079
509.80 1.08
509.90 1.081
510.00 1.082
510.10 1.083
510.20 1.084
510.30 1.084
510.40 1.085
510.50 1.086
510.60 1.087
510.70 1.088
510.80 1.088
510.90 1.089
511.00 1.09
511.10 1.091
511.20 1.092
511.30 1.093
511.40 1.093
511.50 1.094
511.60 1.095
511.70 1.096
511.80 1.097
511.90 1.098
512.00 1.098
512.10 1.099
512.20 1.1
512.30 1.101
512.40 1.102
512.50 1.102
512.60 1.103
512.70 1.104
512.80 1.105
512.90 1.106
513.00 1.107
513.10 1.107
513.20 1.108
513.30 1.109
513.40 1.11
513.50 1.111
513.60 1.112
513.70 1.112
513.80 1.113
513.90 1.114
514.00 1.115
514.10 1.116
514.20 1.116
514.30 1.117
514.40 1.118
514.50 1.119
514.60 1.12
514.70 1.121
514.80 1.121
514.90 1.122
515.00 1.123
515.10 1.124
515.20 1.125
515.30 1.126
515.40 1.126
515.50 1.127
515.60 1.128
515.70 1.129
515.80 1.13
515.90 1.131
516.00 1.131
516.10 1.132
516.20 1.133
516.30 1.134
516.40 1.135
516.50 1.135
516.60 1.136
516.70 1.137
516.80 1.138
516.90 1.139
517.00 1.14
517.10 1.14
517.20 1.141
517.30 1.142
517.40 1.143
517.50 1.144
517.60 1.144
517.70 1.145
517.80 1.146
517.90 1.147
518.00 1.148
518.10 1.149
518.20 1.149
518.30 1.15
518.40 1.151
518.50 1.152
518.60 1.153
518.70 1.153
518.80 1.154
518.90 1.155
519.00 1.156
519.10 1.157
519.20 1.158
519.30 1.158
519.40 1.159
519.50 1.16
519.60 1.161
519.70 1.162
519.80 1.163
519.90 1.163
520.00 1.164
520.10 1.165
520.20 1.166
520.30 1.167
520.40 1.167
520.50 1.168
520.60 1.169
520.70 1.17
520.80 1.171
520.90 1.172
521.00 1.172
521.10 1.173
521.20 1.174
521.30 1.175
521.40 1.176
521.50 1.177
521.60 1.177
521.70 1.178
521.80 1.179
521.90 1.18
522.00 1.181
522.10 1.181
522.20 1.182
522.30 1.183
522.40 1.184
522.50 1.185
522.60 1.186
522.70 1.186
522.80 1.187
522.90 1.188
523.00 1.189
523.10 1.19
523.20 1.19
523.30 1.191
523.40 1.192
523.50 1.193
523.60 1.194
523.70 1.195
523.80 1.195
523.90 1.196
524.00 1.197
524.10 1.198
524.20 1.199
524.30 1.199
524.40 1.2
524.50 1.201
524.60 1.202
524.70 1.203
524.80 1.204
524.90 1.204
525.00 1.205
525.10 1.206
525.20 1.207
525.30 1.208
525.40 1.208
525.50 1.209
525.60 1.21
525.70 1.211
525.80 1.212
525.90 1.213
526.00 1.213
526.10 1.214
526.20 1.215
526.30 1.216
526.40 1.217
526.50 1.218
526.60 1.218
526.70 1.219
526.80 1.22
526.90 1.221
527.00 1.222
527.10 1.222
527.20 1.223
527.30 1.224
527.40 1.225
527.50 1.226
527.60 1.227
527.70 1.227
527.80 1.228
527.90 1.229
528.00 1.23
528.10 1.231
528.20 1.231
528.30 1.232
528.40 1.233
528.50 1.234
528.60 1.235
528.70 1.236
528.80 1.236
528.90 1.237
529.00 1.238
529.10 1.239
529.20 1.24
529.30 1.24
529.40 1.241
529.50 1.242
529.60 1.243
529.70 1.244
529.80 1.245
529.90 1.245
530.00 1.246
530.10 1.247
530.20 1.248
530.30 1.249
530.40 1.249
530.50 1.25
530.60 1.251
530.70 1.252
530.80 1.253
530.90 1.253
531.00 1.254
531.10 1.255
531.20 1.256
531.30 1.257
531.40 1.258
531.50 1.258
531.60 1.259
531.70 1.26
531.80 1.261
531.90 1.262
532.00 1.262
532.10 1.263
532.20 1.264
532.30 1.265
532.40 1.266
532.50 1.266
532.60 1.267
532.70 1.268
532.80 1.269
532.90 1.27
533.00 1.271
533.10 1.271
533.20 1.272
533.30 1.273
533.40 1.274
533.50 1.275
533.60 1.275
533.70 1.276
533.80 1.277
533.90 1.278
534.00 1.279
534.10 1.279
534.20 1.28
534.30 1.281
534.40 1.282
534.50 1.283
534.60 1.284
534.70 1.284
534.80 1.285
534.90 1.286
535.00 1.287
535.10 1.288
535.20 1.288
535.30 1.289
535.40 1.29
535.50 1.291
535.60 1.292
535.70 1.292
535.80 1.293
535.90 1.294
536.00 1.295
536.10 1.296
536.20 1.297
536.30 1.297
536.40 1.298
536.50 1.299
536.60 1.3
536.70 1.301
536.80 1.301
536.90 1.302
537.00 1.303
537.10 1.304
537.20 1.305
537.30 1.305
537.40 1.306
537.50 1.307
537.60 1.308
537.70 1.309
537.80 1.309
537.90 1.31
538.00 1.311
538.10 1.312
538.20 1.313
538.30 1.313
538.40 1.314
538.50 1.315
538.60 1.316
538.70 1.317
538.80 1.317
538.90 1.318
539.00 1.319
539.10 1.32
539.20 1.321
539.30 1.321
539.40 1.322
539.50 1.323
539.60 1.324
539.70 1.325
539.80 1.325
539.90 1.326
540.00 1.327
540.10 1.328
540.20 1.329
540.30 1.329
540.40 1.33
540.50 1.331
540.60 1.332
540.70 1.333
540.80 1.334
540.90 1.334
541.00 1.335
541.10 1.336
541.20 1.337
541.30 1.338
541.40 1.338
541.50 1.339
541.60 1.34
541.70 1.341
541.80 1.342
541.90 1.342
542.00 1.343
542.10 1.344
542.20 1.345
542.30 1.346
542.40 1.346
542.50 1.347
542.60 1.348
542.70 1.349
542.80 1.349
542.90 1.35
543.00 1.351
543.10 1.352
543.20 1.353
543.30 1.353
543.40 1.354
543.50 1.355
543.60 1.356
543.70 1.357
543.80 1.357
543.90 1.358
544.00 1.359
544.10 1.36
544.20 1.361
544.30 1.361
544.40 1.362
544.50 1.363
544.60 1.364
544.70 1.365
544.80 1.365
544.90 1.366
545.00 1.367
545.10 1.368
545.20 1.369
545.30 1.369
545.40 1.37
545.50 1.371
545.60 1.372
545.70 1.373
545.80 1.373
545.90 1.374
546.00 1.375
546.10 1.376
546.20 1.376
546.30 1.377
546.40 1.378
546.50 1.379
546.60 1.38
546.70 1.38
546.80 1.381
546.90 1.382
547.00 1.383
547.10 1.384
547.20 1.384
547.30 1.385
547.40 1.386
547.50 1.387
547.60 1.388
547.70 1.388
547.80 1.389
547.90 1.39
548.00 1.391
548.10 1.391
548.20 1.392
548.30 1.393
548.40 1.394
548.50 1.395
548.60 1.395
548.70 1.396
548.80 1.397
548.90 1.398
549.00 1.399
549.10 1.399
549.20 1.4
549.30 1.401
549.40 1.402
549.50 1.402
549.60 1.403
549.70 1.404
549.80 1.405
549.90 1.406
550.00 1.406
550.10 1.407
550.20 1.408
550.30 1.409
550.40 1.409
550.50 1.41
550.60 1.411
550.70 1.412
550.80 1.413
550.90 1.413
551.00 1.414
551.10 1.415
551.20 1.416
551.30 1.416
551.40 1.417
551.50 1.418
551.60 1.419
551.70 1.42
551.80 1.42
551.90 1.421
552.00 1.422
552.10 1.423
552.20 1.423
552.30 1.424
552.40 1.425
552.50 1.426
552.60 1.426
552.70 1.427
552.80 1.428
552.90 1.429
553.00 1.43
553.10 1.43
553.20 1.431
553.30 1.432
553.40 1.433
553.50 1.433
553.60 1.434
553.70 1.435
553.80 1.436
553.90 1.437
554.00 1.437
554.10 1.438
554.20 1.439
554.30 1.44
554.40 1.44
554.50 1.441
554.60 1.442
554.70 1.443
554.80 1.443
554.90 1.444
555.00 1.445
555.10 1.446
555.20 1.446
555.30 1.447
555.40 1.448
555.50 1.449
555.60 1.45
555.70 1.45
555.80 1.451
555.90 1.452
556.00 1.453
556.10 1.453
556.20 1.454
556.30 1.455
556.40 1.456
556.50 1.456
556.60 1.457
556.70 1.458
556.80 1.459
556.90 1.459
557.00 1.46
557.10 1.461
557.20 1.462
557.30 1.462
557.40 1.463
557.50 1.464
557.60 1.465
557.70 1.465
557.80 1.466
557.90 1.467
558.00 1.468
558.10 1.468
558.20 1.469
558.30 1.47
558.40 1.471
558.50 1.471
558.60 1.472
558.70 1.473
558.80 1.474
558.90 1.475
559.00 1.475
559.10 1.476
559.20 1.477
559.30 1.477
559.40 1.478
559.50 1.479
559.60 1.48
559.70 1.48
559.80 1.481
559.90 1.482
560.00 1.483
560.10 1.483
560.20 1.484
560.30 1.485
560.40 1.486
560.50 1.486
560.60 1.487
560.70 1.488
560.80 1.489
560.90 1.489
561.00 1.49
561.10 1.491
561.20 1.492
561.30 1.492
561.40 1.493
561.50 1.494
561.60 1.495
561.70 1.495
561.80 1.496
561.90 1.497
562.00 1.498
562.10 1.498
562.20 1.499
562.30 1.5
562.40 1.501
562.50 1.501
562.60 1.502
562.70 1.503
562.80 1.503
562.90 1.504
563.00 1.505
563.10 1.506
563.20 1.506
563.30 1.507
563.40 1.508
563.50 1.509
563.60 1.509
563.70 1.51
563.80 1.511
563.90 1.512
564.00 1.512
564.10 1.513
564.20 1.514
564.30 1.514
564.40 1.515
564.50 1.516
564.60 1.517
564.70 1.517
564.80 1.518
564.90 1.519
565.00 1.52
565.10 1.52
565.20 1.521
565.30 1.522
565.40 1.523
565.50 1.523
565.60 1.524
565.70 1.525
565.80 1.525
565.90 1.526
566.00 1.527
566.10 1.528
566.20 1.528
566.30 1.529
566.40 1.53
566.50 1.53
566.60 1.531
566.70 1.532
566.80 1.533
566.90 1.533
567.00 1.534
567.10 1.535
567.20 1.535
567.30 1.536
567.40 1.537
567.50 1.538
567.60 1.538
567.70 1.539
567.80 1.54
567.90 1.54
568.00 1.541
568.10 1.542
568.20 1.543
568.30 1.543
568.40 1.544
568.50 1.545
568.60 1.545
568.70 1.546
568.80 1.547
568.90 1.547
569.00 1.548
569.10 1.549
569.20 1.55
569.30 1.55
569.40 1.551
569.50 1.552
569.60 1.552
569.70 1.553
569.80 1.554
569.90 1.554
570.00 1.555
570.10 1.556
570.20 1.557
570.30 1.557
570.40 1.558
570.50 1.559
570.60 1.559
570.70 1.56
570.80 1.561
570.90 1.561
571.00 1.562
571.10 1.563
571.20 1.564
571.30 1.564
571.40 1.565
571.50 1.566
571.60 1.566
571.70 1.567
571.80 1.568
571.90 1.568
572.00 1.569
572.10 1.57
572.20 1.57
572.30 1.571
572.40 1.572
572.50 1.572
572.60 1.573
572.70 1.574
572.80 1.574
572.90 1.575
573.00 1.576
573.10 1.577
573.20 1.577
573.30 1.578
573.40 1.579
573.50 1.579
573.60 1.58
573.70 1.581
573.80 1.581
573.90 1.582
574.00 1.583
574.10 1.583
574.20 1.584
574.30 1.585
574.40 1.585
574.50 1.586
574.60 1.587
574.70 1.587
574.80 1.588
574.90 1.589
575.00 1.589
575.10 1.59
575.20 1.591
575.30 1.591
575.40 1.592
575.50 1.593
575.60 1.593
575.70 1.594
575.80 1.595
575.90 1.595
576.00 1.596
576.10 1.597
576.20 1.597
576.30 1.598
576.40 1.599
576.50 1.599
576.60 1.6
576.70 1.601
576.80 1.601
576.90 1.602
577.00 1.603
577.10 1.603
577.20 1.604
577.30 1.605
577.40 1.605
577.50 1.606
577.60 1.607
577.70 1.607
577.80 1.608
577.90 1.609
578.00 1.609
578.10 1.61
578.20 1.61
578.30 1.611
578.40 1.612
578.50 1.612
578.60 1.613
578.70 1.614
578.80 1.614
578.90 1.615
579.00 1.616
579.10 1.616
579.20 1.617
579.30 1.618
579.40 1.618
579.50 1.619
579.60 1.62
579.70 1.62
579.80 1.621
579.90 1.622
580.00 1.622
580.10 1.623
580.20 1.623
580.30 1.624
580.40 1.625
580.50 1.625
580.60 1.626
580.70 1.627
580.80 1.627
580.90 1.628
581.00 1.629
581.10 1.629
581.20 1.63
581.30 1.63
581.40 1.631
581.50 1.632
581.60 1.632
581.70 1.633
581.80 1.634
581.90 1.634
582.00 1.635
582.10 1.635
582.20 1.636
582.30 1.637
582.40 1.637
582.50 1.638
582.60 1.639
582.70 1.639
582.80 1.64
582.90 1.64
583.00 1.641
583.10 1.642
583.20 1.642
583.30 1.643
583.40 1.644
583.50 1.644
583.60 1.645
583.70 1.645
583.80 1.646
583.90 1.647
584.00 1.647
584.10 1.648
584.20 1.648
584.30 1.649
584.40 1.65
584.50 1.65
584.60 1.651
584.70 1.651
584.80 1.652
584.90 1.653
585.00 1.653
585.10 1.654
585.20 1.654
585.30 1.655
585.40 1.656
585.50 1.656
585.60 1.657
585.70 1.657
585.80 1.658
585.90 1.659
586.00 1.659
586.10 1.66
586.20 1.66
586.30 1.661
586.40 1.662
586.50 1.662
586.60 1.663
586.70 1.663
586.80 1.664
586.90 1.664
587.00 1.665
587.10 1.666
587.20 1.666
587.30 1.667
587.40 1.667
587.50 1.668
587.60 1.668
587.70 1.669
587.80 1.67
587.90 1.67
588.00 1.671
588.10 1.671
588.20 1.672
588.30 1.672
588.40 1.673
588.50 1.674
588.60 1.674
588.70 1.675
588.80 1.675
588.90 1.676
589.00 1.676
589.10 1.677
589.20 1.678
589.30 1.678
589.40 1.679
589.50 1.679
589.60 1.68
589.70 1.68
589.80 1.681
589.90 1.681
590.00 1.682
590.10 1.682
590.20 1.683
590.30 1.684
590.40 1.684
590.50 1.685
590.60 1.685
590.70 1.686
590.80 1.686
590.90 1.687
591.00 1.687
591.10 1.688
591.20 1.688
591.30 1.689
591.40 1.69
591.50 1.69
591.60 1.691
591.70 1.691
591.80 1.692
591.90 1.692
592.00 1.693
592.10 1.693
592.20 1.694
592.30 1.694
592.40 1.695
592.50 1.695
592.60 1.696
592.70 1.696
592.80 1.697
592.90 1.697
593.00 1.698
593.10 1.699
593.20 1.699
593.30 1.7
593.40 1.7
593.50 1.701
593.60 1.701
593.70 1.702
593.80 1.702
593.90 1.703
594.00 1.703
594.10 1.704
594.20 1.704
594.30 1.705
594.40 1.705
594.50 1.706
594.60 1.706
594.70 1.707
594.80 1.707
594.90 1.708
595.00 1.708
595.10 1.709
595.20 1.709
595.30 1.71
595.40 1.71
595.50 1.711
595.60 1.711
595.70 1.712
595.80 1.712
595.90 1.713
596.00 1.713
596.10 1.714
596.20 1.714
596.30 1.715
596.40 1.715
596.50 1.716
596.60 1.716
596.70 1.717
596.80 1.717
596.90 1.718
597.00 1.718
597.10 1.719
597.20 1.719
597.30 1.72
597.40 1.72
597.50 1.721
597.60 1.721
597.70 1.721
597.80 1.722
597.90 1.722
598.00 1.723
598.10 1.723
598.20 1.724
598.30 1.724
598.40 1.725
598.50 1.725
598.60 1.726
598.70 1.726
598.80 1.727
598.90 1.727
599.00 1.728
599.10 1.728
599.20 1.728
599.30 1.729
599.40 1.729
599.50 1.73
599.60 1.73
599.70 1.731
599.80 1.731
599.90 1.732
600.00 1.732
600.10 1.732
600.20 1.733
600.30 1.733
600.40 1.734
600.50 1.734
600.60 1.735
600.70 1.735
600.80 1.736
600.90 1.736
601.00 1.736
601.10 1.737
601.20 1.737
601.30 1.738
601.40 1.738
601.50 1.739
601.60 1.739
601.70 1.739
601.80 1.74
601.90 1.74
602.00 1.741
602.10 1.741
602.20 1.742
602.30 1.742
602.40 1.742
602.50 1.743
602.60 1.743
602.70 1.744
602.80 1.744
602.90 1.744
603.00 1.745
603.10 1.745
603.20 1.746
603.30 1.746
603.40 1.746
603.50 1.747
603.60 1.747
603.70 1.748
603.80 1.748
603.90 1.748
604.00 1.749
604.10 1.749
604.20 1.75
604.30 1.75
604.40 1.75
604.50 1.751
604.60 1.751
604.70 1.752
604.80 1.752
604.90 1.752
605.00 1.753
605.10 1.753
605.20 1.753
605.30 1.754
605.40 1.754
605.50 1.755
605.60 1.755
605.70 1.755
605.80 1.756
605.90 1.756
606.00 1.756
606.10 1.757
606.20 1.757
606.30 1.757
606.40 1.758
606.50 1.758
606.60 1.759
606.70 1.759
606.80 1.759
606.90 1.76
607.00 1.76
607.10 1.76
607.20 1.761
607.30 1.761
607.40 1.761
607.50 1.762
607.60 1.762
607.70 1.762
607.80 1.763
607.90 1.763
608.00 1.763
608.10 1.764
608.20 1.764
608.30 1.764
608.40 1.765
608.50 1.765
608.60 1.765
608.70 1.766
608.80 1.766
608.90 1.766
609.00 1.767
609.10 1.767
609.20 1.767
609.30 1.768
609.40 1.768
609.50 1.768
609.60 1.768
609.70 1.769
609.80 1.769
609.90 1.769
610.00 1.77
610.10 1.77
610.20 1.77
610.30 1.771
610.40 1.771
610.50 1.771
610.60 1.771
610.70 1.772
610.80 1.772
610.90 1.772
611.00 1.773
611.10 1.773
611.20 1.773
611.30 1.773
611.40 1.774
611.50 1.774
611.60 1.774
611.70 1.775
611.80 1.775
611.90 1.775
612.00 1.775
612.10 1.776
612.20 1.776
612.30 1.776
612.40 1.776
612.50 1.777
612.60 1.777
612.70 1.777
612.80 1.778
612.90 1.778
613.00 1.778
613.10 1.778
613.20 1.779
613.30 1.779
613.40 1.779
613.50 1.779
613.60 1.779
613.70 1.78
613.80 1.78
613.90 1.78
614.00 1.78
614.10 1.781
614.20 1.781
614.30 1.781
614.40 1.781
614.50 1.782
614.60 1.782
614.70 1.782
614.80 1.782
614.90 1.782
615.00 1.783
615.10 1.783
615.20 1.783
615.30 1.783
615.40 1.783
615.50 1.784
615.60 1.784
615.70 1.784
615.80 1.784
615.90 1.784
616.00 1.785
616.10 1.785
616.20 1.785
616.30 1.785
616.40 1.785
616.50 1.786
616.60 1.786
616.70 1.786
616.80 1.786
616.90 1.786
617.00 1.786
617.10 1.787
617.20 1.787
617.30 1.787
617.40 1.787
617.50 1.787
617.60 1.787
617.70 1.788
617.80 1.788
617.90 1.788
618.00 1.788
618.10 1.788
618.20 1.788
618.30 1.789
618.40 1.789
618.50 1.789
618.60 1.789
618.70 1.789
618.80 1.789
618.90 1.789
619.00 1.79
619.10 1.79
619.20 1.79
619.30 1.79
619.40 1.79
619.50 1.79
619.60 1.79
619.70 1.79
619.80 1.79
619.90 1.791
620.00 1.791
620.10 1.791
620.20 1.791
620.30 1.791
620.40 1.791
620.50 1.791
620.60 1.791
620.70 1.791
620.80 1.792
620.90 1.792
621.00 1.792
621.10 1.792
621.20 1.792
621.30 1.792
621.40 1.792
621.50 1.792
621.60 1.792
621.70 1.792
621.80 1.792
621.90 1.793
622.00 1.793
622.10 1.793
622.20 1.793
622.30 1.793
622.40 1.793
622.50 1.793
622.60 1.793
622.70 1.793
622.80 1.793
622.90 1.793
623.00 1.793
623.10 1.793
623.20 1.793
623.30 1.793
623.40 1.793
623.50 1.794
623.60 1.794
623.70 1.794
623.80 1.794
623.90 1.794
624.00 1.794
624.10 1.794
624.20 1.794
624.30 1.794
624.40 1.794
624.50 1.794
624.60 1.794
624.70 1.794
624.80 1.794
624.90 1.794
625.00 1.794
625.10 1.794
625.20 1.794
625.30 1.794
625.40 1.794
625.50 1.794
625.60 1.794
625.70 1.794
625.80 1.794
625.90 1.794
626.00 1.794
626.10 1.794
626.20 1.794
626.30 1.794
626.40 1.794
626.50 1.794
626.60 1.794
626.70 1.794
626.80 1.794
626.90 1.794
627.00 1.794
627.10 1.794
627.20 1.794
627.30 1.793
627.40 1.793
627.50 1.793
627.60 1.793
627.70 1.793
627.80 1.793
627.90 1.793
628.00 1.793
628.10 1.793
628.20 1.793
628.30 1.793
628.40 1.793
628.50 1.793
628.60 1.793
628.70 1.793
628.80 1.793
628.90 1.792
629.00 1.792
629.10 1.792
629.20 1.792
629.30 1.792
629.40 1.792
629.50 1.792
629.60 1.792
629.70 1.792
629.80 1.792
629.90 1.792
630.00 1.791
630.10 1.791
630.20 1.791
630.30 1.791
630.40 1.791
630.50 1.791
630.60 1.791
630.70 1.791
630.80 1.79
630.90 1.79
631.00 1.79
631.10 1.79
631.20 1.79
631.30 1.79
631.40 1.79
631.50 1.789
631.60 1.789
631.70 1.789
631.80 1.789
631.90 1.789
632.00 1.789
632.10 1.789
632.20 1.788
632.30 1.788
632.40 1.788
632.50 1.788
632.60 1.788
632.70 1.787
632.80 1.787
632.90 1.787
633.00 1.787
633.10 1.787
633.20 1.787
633.30 1.786
633.40 1.786
633.50 1.786
633.60 1.786
633.70 1.786
633.80 1.785
633.90 1.785
634.00 1.785
634.10 1.785
634.20 1.785
634.30 1.784
634.40 1.784
634.50 1.784
634.60 1.784
634.70 1.783
634.80 1.783
634.90 1.783
635.00 1.783
635.10 1.782
635.20 1.782
635.30 1.782
635.40 1.782
635.50 1.781
635.60 1.781
635.70 1.781
635.80 1.781
635.90 1.78
636.00 1.78
636.10 1.78
636.20 1.779
636.30 1.779
636.40 1.779
636.50 1.779
636.60 1.778
636.70 1.778
636.80 1.778
636.90 1.777
637.00 1.777
637.10 1.777
637.20 1.777
637.30 1.776
637.40 1.776
637.50 1.776
637.60 1.775
637.70 1.775
637.80 1.775
637.90 1.774
638.00 1.774
638.10 1.774
638.20 1.773
638.30 1.773
638.40 1.773
638.50 1.772
638.60 1.772
638.70 1.772
638.80 1.771
638.90 1.771
639.00 1.771
639.10 1.77
639.20 1.77
639.30 1.77
639.40 1.769
639.50 1.769
639.60 1.768
639.70 1.768
639.80 1.768
639.90 1.767
640.00 1.767
640.10 1.767
640.20 1.766
640.30 1.766
640.40 1.765
640.50 1.765
640.60 1.765
640.70 1.764
640.80 1.764
640.90 1.763
641.00 1.763
641.10 1.762
641.20 1.762
641.30 1.762
641.40 1.761
641.50 1.761
641.60 1.76
641.70 1.76
641.80 1.759
641.90 1.759
642.00 1.758
642.10 1.758
642.20 1.758
642.30 1.757
642.40 1.757
642.50 1.756
642.60 1.756
642.70 1.755
642.80 1.755
642.90 1.754
643.00 1.754
643.10 1.753
643.20 1.753
643.30 1.752
643.40 1.752
643.50 1.751
643.60 1.75
643.70 1.75
643.80 1.749
643.90 1.749
644.00 1.748
644.10 1.748
644.20 1.747
644.30 1.747
644.40 1.746
644.50 1.746
644.60 1.745
644.70 1.745
644.80 1.744
644.90 1.743
645.00 1.743
645.10 1.742
645.20 1.742
645.30 1.741
645.40 1.741
645.50 1.74
645.60 1.74
645.70 1.739
645.80 1.738
645.90 1.738
646.00 1.737
646.10 1.737
646.20 1.736
646.30 1.735
646.40 1.735
646.50 1.734
646.60 1.734
646.70 1.733
646.80 1.732
646.90 1.732
647.00 1.731
647.10 1.731
647.20 1.73
647.30 1.729
647.40 1.729
647.50 1.728
647.60 1.727
647.70 1.727
647.80 1.726
647.90 1.726
648.00 1.725
648.10 1.724
648.20 1.724
648.30 1.723
648.40 1.722
648.50 1.722
648.60 1.721
648.70 1.72
648.80 1.72
648.90 1.719
649.00 1.718
649.10 1.718
649.20 1.717
649.30 1.716
649.40 1.715
649.50 1.715
649.60 1.714
649.70 1.713
649.80 1.713
649.90 1.712
650.00 1.711
650.10 1.71
650.20 1.71
650.30 1.709
650.40 1.708
650.50 1.708
650.60 1.707
650.70 1.706
650.80 1.705
650.90 1.705
651.00 1.704
651.10 1.703
651.20 1.702
651.30 1.702
651.40 1.701
651.50 1.7
651.60 1.699
651.70 1.698
651.80 1.698
651.90 1.697
652.00 1.696
652.10 1.695
652.20 1.694
652.30 1.694
652.40 1.693
652.50 1.692
652.60 1.691
652.70 1.69
652.80 1.69
652.90 1.689
653.00 1.688
653.10 1.687
653.20 1.686
653.30 1.685
653.40 1.685
653.50 1.684
653.60 1.683
653.70 1.682
653.80 1.681
653.90 1.68
654.00 1.68
654.10 1.679
654.20 1.678
654.30 1.677
654.40 1.676
654.50 1.675
654.60 1.674
654.70 1.673
654.80 1.673
654.90 1.672
655.00 1.671
655.10 1.67
655.20 1.669
655.30 1.668
655.40 1.667
655.50 1.666
655.60 1.665
655.70 1.664
655.80 1.664
655.90 1.663
656.00 1.662
656.10 1.661
656.20 1.66
656.30 1.659
656.40 1.658
656.50 1.657
656.60 1.656
656.70 1.655
656.80 1.654
656.90 1.653
657.00 1.652
657.10 1.651
657.20 1.65
657.30 1.649
657.40 1.648
657.50 1.647
657.60 1.646
657.70 1.645
657.80 1.644
657.90 1.643
658.00 1.642
658.10 1.641
658.20 1.64
658.30 1.639
658.40 1.638
658.50 1.637
658.60 1.636
658.70 1.635
658.80 1.634
658.90 1.633
659.00 1.632
659.10 1.631
659.20 1.63
659.30 1.629
659.40 1.628
659.50 1.627
659.60 1.626
659.70 1.625
659.80 1.624
659.90 1.623
660.00 1.622
660.10 1.621
660.20 1.62
660.30 1.619
660.40 1.617
660.50 1.616
660.60 1.615
660.70 1.614
660.80 1.613
660.90 1.612
661.00 1.611
661.10 1.61
661.20 1.609
661.30 1.608
661.40 1.606
661.50 1.605
661.60 1.604
661.70 1.603
661.80 1.602
661.90 1.601
662.00 1.6
662.10 1.598
662.20 1.597
662.30 1.596
662.40 1.595
662.50 1.594
662.60 1.593
662.70 1.592
662.80 1.59
662.90 1.589
663.00 1.588
663.10 1.587
663.20 1.586
663.30 1.585
663.40 1.583
663.50 1.582
663.60 1.581
663.70 1.58
663.80 1.578
663.90 1.577
664.00 1.576
664.10 1.575
664.20 1.574
664.30 1.572
664.40 1.571
664.50 1.57
664.60 1.569
664.70 1.568
664.80 1.566
664.90 1.565
665.00 1.564
665.10 1.563
665.20 1.561
665.30 1.56
665.40 1.559
665.50 1.558
665.60 1.556
665.70 1.555
665.80 1.554
665.90 1.552
666.00 1.551
666.10 1.55
666.20 1.549
666.30 1.547
666.40 1.546
666.50 1.545
666.60 1.543
666.70 1.542
666.80 1.541
666.90 1.54
667.00 1.538
667.10 1.537
667.20 1.536
667.30 1.534
667.40 1.533
667.50 1.532
667.60 1.53
667.70 1.529
667.80 1.528
667.90 1.526
668.00 1.525
668.10 1.524
668.20 1.522
668.30 1.521
668.40 1.52
668.50 1.518
668.60 1.517
668.70 1.515
668.80 1.514
668.90 1.513
669.00 1.511
669.10 1.51
669.20 1.509
669.30 1.507
669.40 1.506
669.50 1.504
669.60 1.503
669.70 1.502
669.80 1.5
669.90 1.499
670.00 1.497
670.10 1.496
670.20 1.495
670.30 1.493
670.40 1.492
670.50 1.49
670.60 1.489
670.70 1.487
670.80 1.486
670.90 1.484
671.00 1.483
671.10 1.482
671.20 1.48
671.30 1.479
671.40 1.477
671.50 1.476
671.60 1.474
671.70 1.473
671.80 1.471
671.90 1.47
672.00 1.468
672.10 1.467
672.20 1.465
672.30 1.464
672.40 1.463
672.50 1.461
672.60 1.459
672.70 1.458
672.80 1.456
672.90 1.455
673.00 1.453
673.10 1.452
673.20 1.45
673.30 1.449
673.40 1.447
673.50 1.446
673.60 1.444
673.70 1.443
673.80 1.441
673.90 1.44
674.00 1.438
674.10 1.437
674.20 1.435
674.30 1.434
674.40 1.432
674.50 1.43
674.60 1.429
674.70 1.427
674.80 1.426
674.90 1.424
675.00 1.423
675.10 1.421
675.20 1.42
675.30 1.418
675.40 1.416
675.50 1.415
675.60 1.413
675.70 1.412
675.80 1.41
675.90 1.408
676.00 1.407
676.10 1.405
676.20 1.404
676.30 1.402
676.40 1.4
676.50 1.399
676.60 1.397
676.70 1.396
676.80 1.394
676.90 1.392
677.00 1.391
677.10 1.389
677.20 1.388
677.30 1.386
677.40 1.384
677.50 1.383
677.60 1.381
677.70 1.379
677.80 1.378
677.90 1.376
678.00 1.374
678.10 1.373
678.20 1.371
678.30 1.37
678.40 1.368
678.50 1.366
678.60 1.365
678.70 1.363
678.80 1.361
678.90 1.36
679.00 1.358
679.10 1.356
679.20 1.355
679.30 1.353
679.40 1.351
679.50 1.349
679.60 1.348
679.70 1.346
679.80 1.344
679.90 1.343
680.00 1.341
680.10 1.339
680.20 1.338
680.30 1.336
680.40 1.334
680.50 1.332
680.60 1.331
680.70 1.329
680.80 1.327
680.90 1.325
681.00 1.324
681.10 1.322
681.20 1.32
681.30 1.319
681.40 1.317
681.50 1.315
681.60 1.313
681.70 1.312
681.80 1.31
681.90 1.308
682.00 1.306
682.10 1.305
682.20 1.303
682.30 1.301
682.40 1.299
682.50 1.298
682.60 1.296
682.70 1.294
682.80 1.292
682.90 1.29
683.00 1.289
683.10 1.287
683.20 1.285
683.30 1.283
683.40 1.282
683.50 1.28
683.60 1.278
683.70 1.276
683.80 1.274
683.90 1.273
684.00 1.271
684.10 1.269
684.20 1.267
684.30 1.265
684.40 1.264
684.50 1.262
684.60 1.26
684.70 1.258
684.80 1.256
684.90 1.255
685.00 1.253
685.10 1.251
685.20 1.249
685.30 1.247
685.40 1.246
685.50 1.244
685.60 1.242
685.70 1.24
685.80 1.238
685.90 1.236
686.00 1.235
686.10 1.233
686.20 1.231
686.30 1.229
686.40 1.227
686.50 1.225
686.60 1.224
686.70 1.222
686.80 1.22
686.90 1.218
687.00 1.216
687.10 1.214
687.20 1.213
687.30 1.211
687.40 1.209
687.50 1.207
687.60 1.205
687.70 1.203
687.80 1.201
687.90 1.199
688.00 1.198
688.10 1.196
688.20 1.194
688.30 1.192
688.40 1.19
688.50 1.188
688.60 1.186
688.70 1.185
688.80 1.183
688.90 1.181
689.00 1.179
689.10 1.177
689.20 1.175
689.30 1.173
689.40 1.171
689.50 1.169
689.60 1.168
689.70 1.166
689.80 1.164
689.90 1.162
690.00 1.16
690.10 1.158
690.20 1.156
690.30 1.154
690.40 1.152
690.50 1.15
690.60 1.148
690.70 1.146
690.80 1.144
690.90 1.143
691.00 1.141
691.10 1.139
691.20 1.137
691.30 1.135
691.40 1.133
691.50 1.131
691.60 1.129
691.70 1.127
691.80 1.125
691.90 1.123
692.00 1.121
692.10 1.12
692.20 1.118
692.30 1.116
692.40 1.114
692.50 1.112
692.60 1.11
692.70 1.108
692.80 1.106
692.90 1.104
693.00 1.102
693.10 1.101
693.20 1.099
693.30 1.097
693.40 1.095
693.50 1.093
693.60 1.091
693.70 1.089
693.80 1.087
693.90 1.085
694.00 1.084
694.10 1.082
694.20 1.08
694.30 1.078
694.40 1.076
694.50 1.074
694.60 1.072
694.70 1.07
694.80 1.069
694.90 1.067
695.00 1.065
695.10 1.063
695.20 1.061
695.30 1.059
695.40 1.057
695.50 1.055
695.60 1.053
695.70 1.051
695.80 1.049
695.90 1.048
696.00 1.046
696.10 1.044
696.20 1.042
696.30 1.04
696.40 1.038
696.50 1.036
696.60 1.034
696.70 1.032
696.80 1.03
696.90 1.028
697.00 1.026
697.10 1.025
697.20 1.023
697.30 1.021
697.40 1.019
697.50 1.017
697.60 1.015
697.70 1.013
697.80 1.011
697.90 1.009
698.00 1.008
698.10 1.006
698.20 1.004
698.30 1.002
698.40 0.9999
698.50 0.998
698.60 0.9962
698.70 0.9943
698.80 0.9924
698.90 0.9905
699.00 0.9886
699.10 0.9867
699.20 0.9848
699.30 0.983
699.40 0.9811
699.50 0.9792
699.60 0.9773
699.70 0.9755
699.80 0.9736
699.90 0.9717
700.00 0.9698
700.10 0.968
700.20 0.9661
700.30 0.9642
700.40 0.9623
700.50 0.9605
700.60 0.9586
700.70 0.9567
700.80 0.9548
700.90 0.953
701.00 0.9511
701.10 0.9492
701.20 0.9474
701.30 0.9455
701.40 0.9436
701.50 0.9418
701.60 0.9399
701.70 0.9381
701.80 0.9362
701.90 0.9343
702.00 0.9325
702.10 0.9306
702.20 0.9288
702.30 0.9269
702.40 0.9251
702.50 0.9232
702.60 0.9214
702.70 0.9195
702.80 0.9176
702.90 0.9158
703.00 0.914
703.10 0.9121
703.20 0.9103
703.30 0.9084
703.40 0.9066
703.50 0.9047
703.60 0.9029
703.70 0.901
703.80 0.8992
703.90 0.8974
704.00 0.8955
704.10 0.8937
704.20 0.8919
704.30 0.89
704.40 0.8882
704.50 0.8864
704.60 0.8845
704.70 0.8827
704.80 0.8809
704.90 0.879
705.00 0.8772
705.10 0.8754
705.20 0.8737
705.30 0.8719
705.40 0.8701
705.50 0.8684
705.60 0.8666
705.70 0.8648
705.80 0.8631
705.90 0.8613
706.00 0.8595
706.10 0.8578
706.20 0.856
706.30 0.8543
706.40 0.8525
706.50 0.8508
706.60 0.849
706.70 0.8472
706.80 0.8455
706.90 0.8437
707.00 0.842
707.10 0.8402
707.20 0.8385
707.30 0.8367
707.40 0.835
707.50 0.8332
707.60 0.8315
707.70 0.8297
707.80 0.828
707.90 0.8262
708.00 0.8245
708.10 0.8228
708.20 0.821
708.30 0.8193
708.40 0.8175
708.50 0.8158
708.60 0.8141
708.70 0.8123
708.80 0.8106
708.90 0.8089
709.00 0.8071
709.10 0.8054
709.20 0.8037
709.30 0.8019
709.40 0.8002
709.50 0.7985
709.60 0.7967
709.70 0.795
709.80 0.7933
709.90 0.7916
710.00 0.7898
710.10 0.7882
710.20 0.7866
710.30 0.7849
710.40 0.7833
710.50 0.7817
710.60 0.7801
710.70 0.7784
710.80 0.7768
710.90 0.7752
711.00 0.7735
711.10 0.7719
711.20 0.7703
711.30 0.7687
711.40 0.767
711.50 0.7654
711.60 0.7638
711.70 0.7622
711.80 0.7606
711.90 0.7589
712.00 0.7573
712.10 0.7557
712.20 0.7541
712.30 0.7525
712.40 0.7509
712.50 0.7493
712.60 0.7476
712.70 0.746
712.80 0.7444
712.90 0.7428
713.00 0.7412
713.10 0.7396
713.20 0.738
713.30 0.7364
713.40 0.7348
713.50 0.7332
713.60 0.7316
713.70 0.73
713.80 0.7284
713.90 0.7268
714.00 0.7252
714.10 0.7236
714.20 0.722
714.30 0.7204
714.40 0.7188
714.50 0.7172
714.60 0.7156
714.70 0.714
714.80 0.7124
714.90 0.7108
715.00 0.7092
715.10 0.7077
715.20 0.7063
715.30 0.7048
715.40 0.7033
715.50 0.7019
715.60 0.7004
715.70 0.6989
715.80 0.6974
715.90 0.696
716.00 0.6945
716.10 0.693
716.20 0.6916
716.30 0.6901
716.40 0.6887
716.50 0.6872
716.60 0.6857
716.70 0.6843
716.80 0.6828
716.90 0.6813
717.00 0.6799
717.10 0.6784
717.20 0.677
717.30 0.6755
717.40 0.6741
717.50 0.6726
717.60 0.6712
717.70 0.6697
717.80 0.6682
717.90 0.6668
718.00 0.6653
718.10 0.6639
718.20 0.6624
718.30 0.661
718.40 0.6595
718.50 0.6581
718.60 0.6567
718.70 0.6552
718.80 0.6538
718.90 0.6523
719.00 0.6509
719.10 0.6494
719.20 0.648
719.30 0.6465
719.40 0.6451
719.50 0.6437
719.60 0.6422
719.70 0.6408
719.80 0.6394
719.90 0.6379
720.00 0.6365
720.10 0.6352
720.20 0.6339
720.30 0.6326
720.40 0.6313
720.50 0.6301
720.60 0.6288
720.70 0.6275
720.80 0.6262
720.90 0.6249
721.00 0.6237
721.10 0.6224
721.20 0.6211
721.30 0.6198
721.40 0.6185
721.50 0.6173
721.60 0.616
721.70 0.6147
721.80 0.6134
721.90 0.6122
722.00 0.6109
722.10 0.6096
722.20 0.6083
722.30 0.6071
722.40 0.6058
722.50 0.6045
722.60 0.6033
722.70 0.602
722.80 0.6007
722.90 0.5995
723.00 0.5982
723.10 0.5969
723.20 0.5957
723.30 0.5944
723.40 0.5931
723.50 0.5919
723.60 0.5906
723.70 0.5894
723.80 0.5881
723.90 0.5868
724.00 0.5856
724.10 0.5843
724.20 0.5831
724.30 0.5818
724.40 0.5805
724.50 0.5793
724.60 0.578
724.70 0.5768
724.80 0.5755
724.90 0.5743
725.00 0.573
725.10 0.5719
725.20 0.5708
725.30 0.5697
725.40 0.5686
725.50 0.5675
725.60 0.5664
725.70 0.5653
725.80 0.5642
725.90 0.5631
726.00 0.562
726.10 0.5609
726.20 0.5599
726.30 0.5588
726.40 0.5577
726.50 0.5566
726.60 0.5555
726.70 0.5544
726.80 0.5533
726.90 0.5522
727.00 0.5511
727.10 0.55
727.20 0.5489
727.30 0.5479
727.40 0.5468
727.50 0.5457
727.60 0.5446
727.70 0.5435
727.80 0.5424
727.90 0.5414
728.00 0.5403
728.10 0.5392
728.20 0.5381
728.30 0.537
728.40 0.5359
728.50 0.5349
728.60 0.5338
728.70 0.5327
728.80 0.5316
728.90 0.5305
729.00 0.5295
729.10 0.5284
729.20 0.5273
729.30 0.5262
729.40 0.5252
729.50 0.5241
729.60 0.523
729.70 0.5219
729.80 0.5209
729.90 0.5198
730.00 0.5187
730.10 0.5179
730.20 0.5171
730.30 0.5163
730.40 0.5155
730.50 0.5147
730.60 0.5139
730.70 0.5131
730.80 0.5123
730.90 0.5115
731.00 0.5107
731.10 0.5099
731.20 0.5091
731.30 0.5083
731.40 0.5075
731.50 0.5066
731.60 0.5058
731.70 0.505
731.80 0.5042
731.90 0.5034
732.00 0.5026
732.10 0.5018
732.20 0.501
732.30 0.5002
732.40 0.4995
732.50 0.4987
732.60 0.4979
732.70 0.4971
732.80 0.4963
732.90 0.4955
733.00 0.4947
733.10 0.4939
733.20 0.4931
733.30 0.4923
733.40 0.4915
733.50 0.4907
733.60 0.4899
733.70 0.4891
733.80 0.4883
733.90 0.4875
734.00 0.4867
734.10 0.4859
734.20 0.4852
734.30 0.4844
734.40 0.4836
734.50 0.4828
734.60 0.482
734.70 0.4812
734.80 0.4804
734.90 0.4796
735.00 0.4788
735.10 0.4781
735.20 0.4773
735.30 0.4765
735.40 0.4757
735.50 0.4749
735.60 0.4741
735.70 0.4733
735.80 0.4726
735.90 0.4718
736.00 0.471
736.10 0.4702
736.20 0.4694
736.30 0.4686
736.40 0.4679
736.50 0.4671
736.60 0.4663
736.70 0.4655
736.80 0.4647
736.90 0.464
737.00 0.4632
737.10 0.4624
737.20 0.4616
737.30 0.4608
737.40 0.4601
737.50 0.4593
737.60 0.4585
737.70 0.4577
737.80 0.457
737.90 0.4562
738.00 0.4554
738.10 0.4546
738.20 0.4539
738.30 0.4531
738.40 0.4523
738.50 0.4515
738.60 0.4508
738.70 0.45
738.80 0.4492
738.90 0.4485
739.00 0.4477
739.10 0.4469
739.20 0.4461
739.30 0.4454
739.40 0.4446
739.50 0.4438
739.60 0.4431
739.70 0.4423
739.80 0.4415
739.90 0.4408
740.00 0.44
740.10 0.4395
740.20 0.439
740.30 0.4385
740.40 0.4381
740.50 0.4376
740.60 0.4371
740.70 0.4366
740.80 0.4361
740.90 0.4356
741.00 0.4351
741.10 0.4347
741.20 0.4342
741.30 0.4337
741.40 0.4332
741.50 0.4327
741.60 0.4322
741.70 0.4318
741.80 0.4313
741.90 0.4308
742.00 0.4303
742.10 0.4298
742.20 0.4294
742.30 0.4289
742.40 0.4284
742.50 0.4279
742.60 0.4274
742.70 0.427
742.80 0.4265
742.90 0.426
743.00 0.4255
743.10 0.425
743.20 0.4246
743.30 0.4241
743.40 0.4236
743.50 0.4231
743.60 0.4226
743.70 0.4222
743.80 0.4217
743.90 0.4212
744.00 0.4207
744.10 0.4203
744.20 0.4198
744.30 0.4193
744.40 0.4188
744.50 0.4184
744.60 0.4179
744.70 0.4174
744.80 0.4169
744.90 0.4165
745.00 0.416
745.10 0.4155
745.20 0.415
745.30 0.4146
745.40 0.4141
745.50 0.4136
745.60 0.4131
745.70 0.4127
745.80 0.4122
745.90 0.4117
746.00 0.4112
746.10 0.4108
746.20 0.4103
746.30 0.4098
746.40 0.4094
746.50 0.4089
746.60 0.4084
746.70 0.4079
746.80 0.4075
746.90 0.407
747.00 0.4065
747.10 0.4061
747.20 0.4056
747.30 0.4051
747.40 0.4047
747.50 0.4042
747.60 0.4037
747.70 0.4033
747.80 0.4028
747.90 0.4023
748.00 0.4019
748.10 0.4014
748.20 0.4009
748.30 0.4005
748.40 0.4
748.50 0.3995
748.60 0.3991
748.70 0.3986
748.80 0.3981
748.90 0.3977
749.00 0.3972
749.10 0.3967
749.20 0.3963
749.30 0.3958
749.40 0.3953
749.50 0.3949
749.60 0.3944
749.70 0.3939
749.80 0.3935
749.90 0.393
750.00 0.3926
750.10 0.3923
750.20 0.3919
750.30 0.3916
750.40 0.3913
750.50 0.391
750.60 0.3907
750.70 0.3904
750.80 0.3901
750.90 0.3898
751.00 0.3895
751.10 0.3892
751.20 0.3889
751.30 0.3886
751.40 0.3883
751.50 0.388
751.60 0.3877
751.70 0.3874
751.80 0.3871
751.90 0.3868
752.00 0.3865
752.10 0.3862
752.20 0.3859
752.30 0.3856
752.40 0.3853
752.50 0.385
752.60 0.3847
752.70 0.3844
752.80 0.3841
752.90 0.3838
753.00 0.3835
753.10 0.3832
753.20 0.3829
753.30 0.3826
753.40 0.3823
753.50 0.382
753.60 0.3817
753.70 0.3814
753.80 0.3811
753.90 0.3808
754.00 0.3805
754.10 0.3802
754.20 0.3799
754.30 0.3796
754.40 0.3793
754.50 0.379
754.60 0.3787
754.70 0.3784
754.80 0.3781
754.90 0.3778
755.00 0.3775
755.10 0.3772
755.20 0.3769
755.30 0.3766
755.40 0.3763
755.50 0.376
755.60 0.3757
755.70 0.3754
755.80 0.3752
755.90 0.3749
756.00 0.3746
756.10 0.3743
756.20 0.374
756.30 0.3737
756.40 0.3734
756.50 0.3731
756.60 0.3728
756.70 0.3725
756.80 0.3722
756.90 0.3719
757.00 0.3716
757.10 0.3713
757.20 0.371
757.30 0.3707
757.40 0.3704
757.50 0.3701
757.60 0.3698
757.70 0.3696
757.80 0.3693
757.90 0.369
758.00 0.3687
758.10 0.3684
758.20 0.3681
758.30 0.3678
758.40 0.3675
758.50 0.3672
758.60 0.3669
758.70 0.3666
758.80 0.3663
758.90 0.366
759.00 0.3658
759.10 0.3655
759.20 0.3652
759.30 0.3649
759.40 0.3646
759.50 0.3643
759.60 0.364
759.70 0.3637
759.80 0.3634
759.90 0.3631
760.00 0.3629
760.10 0.3626
760.20 0.3624
760.30 0.3622
760.40 0.362
760.50 0.3618
760.60 0.3616
760.70 0.3614
760.80 0.3612
760.90 0.361
761.00 0.3608
761.10 0.3606
761.20 0.3604
761.30 0.3602
761.40 0.36
761.50 0.3598
761.60 0.3596
761.70 0.3594
761.80 0.3592
761.90 0.359
762.00 0.3588
762.10 0.3586
762.20 0.3584
762.30 0.3582
762.40 0.358
762.50 0.3578
762.60 0.3576
762.70 0.3574
762.80 0.3572
762.90 0.357
763.00 0.3568
763.10 0.3566
763.20 0.3564
763.30 0.3562
763.40 0.356
763.50 0.3558
763.60 0.3556
763.70 0.3554
763.80 0.3552
763.90 0.355
764.00 0.3548
764.10 0.3546
764.20 0.3544
764.30 0.3542
764.40 0.354
764.50 0.3538
764.60 0.3536
764.70 0.3534
764.80 0.3532
764.90 0.353
765.00 0.3528
765.10 0.3526
765.20 0.3524
765.30 0.3522
765.40 0.352
765.50 0.3518
765.60 0.3516
765.70 0.3515
765.80 0.3513
765.90 0.3511
766.00 0.3509
766.10 0.3507
766.20 0.3505
766.30 0.3503
766.40 0.3501
766.50 0.3499
766.60 0.3497
766.70 0.3495
766.80 0.3493
766.90 0.3491
767.00 0.3489
767.10 0.3487
767.20 0.3485
767.30 0.3483
767.40 0.3481
767.50 0.3479
767.60 0.3477
767.70 0.3475
767.80 0.3473
767.90 0.3471
768.00 0.3469
768.10 0.3467
768.20 0.3465
768.30 0.3463
768.40 0.3462
768.50 0.346
768.60 0.3458
768.70 0.3456
768.80 0.3454
768.90 0.3452
769.00 0.345
769.10 0.3448
769.20 0.3446
769.30 0.3444
769.40 0.3442
769.50 0.344
769.60 0.3438
769.70 0.3436
769.80 0.3434
769.90 0.3432
770.00 0.343
770.10 0.3429
770.20 0.3429
770.30 0.3428
770.40 0.3427
770.50 0.3426
770.60 0.3425
770.70 0.3424
770.80 0.3423
770.90 0.3422
771.00 0.3421
771.10 0.342
771.20 0.3419
771.30 0.3418
771.40 0.3417
771.50 0.3416
771.60 0.3415
771.70 0.3414
771.80 0.3413
771.90 0.3412
772.00 0.3411
772.10 0.341
772.20 0.3409
772.30 0.3408
772.40 0.3407
772.50 0.3406
772.60 0.3405
772.70 0.3404
772.80 0.3403
772.90 0.3402
773.00 0.3401
773.10 0.34
773.20 0.3399
773.30 0.3398
773.40 0.3397
773.50 0.3397
773.60 0.3396
773.70 0.3395
773.80 0.3394
773.90 0.3393
774.00 0.3392
774.10 0.3391
774.20 0.339
774.30 0.3389
774.40 0.3388
774.50 0.3387
774.60 0.3386
774.70 0.3385
774.80 0.3384
774.90 0.3383
775.00 0.3382
775.10 0.3381
775.20 0.338
775.30 0.3379
775.40 0.3378
775.50 0.3377
775.60 0.3376
775.70 0.3375
775.80 0.3374
775.90 0.3373
776.00 0.3373
776.10 0.3372
776.20 0.3371
776.30 0.337
776.40 0.3369
776.50 0.3368
776.60 0.3367
776.70 0.3366
776.80 0.3365
776.90 0.3364
777.00 0.3363
777.10 0.3362
777.20 0.3361
777.30 0.336
777.40 0.3359
777.50 0.3358
777.60 0.3357
777.70 0.3356
777.80 0.3355
777.90 0.3354
778.00 0.3354
778.10 0.3353
778.20 0.3352
778.30 0.3351
778.40 0.335
778.50 0.3349
778.60 0.3348
778.70 0.3347
778.80 0.3346
778.90 0.3345
779.00 0.3344
779.10 0.3343
779.20 0.3342
779.30 0.3341
779.40 0.334
779.50 0.3339
779.60 0.3338
779.70 0.3337
779.80 0.3337
779.90 0.3336
780.00 0.3335
780.10 0.3335
780.20 0.3336
780.30 0.3336
780.40 0.3336
780.50 0.3337
780.60 0.3337
780.70 0.3338
780.80 0.3338
780.90 0.3338
781.00 0.3339
781.10 0.3339
781.20 0.334
781.30 0.334
781.40 0.3341
781.50 0.3341
781.60 0.3341
781.70 0.3342
781.80 0.3342
781.90 0.3343
782.00 0.3343
782.10 0.3343
782.20 0.3344
782.30 0.3344
782.40 0.3345
782.50 0.3345
782.60 0.3346
782.70 0.3346
782.80 0.3346
782.90 0.3347
783.00 0.3347
783.10 0.3348
783.20 0.3348
783.30 0.3348
783.40 0.3349
783.50 0.3349
783.60 0.335
783.70 0.335
783.80 0.335
783.90 0.3351
784.00 0.3351
784.10 0.3352
784.20 0.3352
784.30 0.3352
784.40 0.3353
784.50 0.3353
784.60 0.3354
784.70 0.3354
784.80 0.3355
784.90 0.3355
785.00 0.3355
785.10 0.3356
785.20 0.3356
785.30 0.3357
785.40 0.3357
785.50 0.3357
785.60 0.3358
785.70 0.3358
785.80 0.3359
785.90 0.3359
786.00 0.3359
786.10 0.336
786.20 0.336
786.30 0.3361
786.40 0.3361
786.50 0.3361
786.60 0.3362
786.70 0.3362
786.80 0.3363
786.90 0.3363
787.00 0.3363
787.10 0.3364
787.20 0.3364
787.30 0.3365
787.40 0.3365
787.50 0.3365
787.60 0.3366
787.70 0.3366
787.80 0.3367
787.90 0.3367
788.00 0.3367
788.10 0.3368
788.20 0.3368
788.30 0.3369
788.40 0.3369
788.50 0.3369
788.60 0.337
788.70 0.337
788.80 0.337
788.90 0.3371
789.00 0.3371
789.10 0.3372
789.20 0.3372
789.30 0.3372
789.40 0.3373
789.50 0.3373
789.60 0.3374
789.70 0.3374
789.80 0.3374
789.90 0.3375
790.00 0.3375
790.10 0.3376
790.20 0.3377
790.30 0.3378
790.40 0.3379
790.50 0.3381
790.60 0.3382
790.70 0.3383
790.80 0.3384
790.90 0.3385
791.00 0.3386
791.10 0.3387
791.20 0.3388
791.30 0.3389
791.40 0.339
791.50 0.3391
791.60 0.3392
791.70 0.3394
791.80 0.3395
791.90 0.3396
792.00 0.3397
792.10 0.3398
792.20 0.3399
792.30 0.34
792.40 0.3401
792.50 0.3402
792.60 0.3403
792.70 0.3404
792.80 0.3405
792.90 0.3406
793.00 0.3407
793.10 0.3408
793.20 0.341
793.30 0.3411
793.40 0.3412
793.50 0.3413
793.60 0.3414
793.70 0.3415
793.80 0.3416
793.90 0.3417
794.00 0.3418
794.10 0.3419
794.20 0.342
794.30 0.3421
794.40 0.3422
794.50 0.3423
794.60 0.3424
794.70 0.3425
794.80 0.3426
794.90 0.3428
795.00 0.3429
795.10 0.343
795.20 0.3431
795.30 0.3432
795.40 0.3433
795.50 0.3434
795.60 0.3435
795.70 0.3436
795.80 0.3437
795.90 0.3438
796.00 0.3439
796.10 0.344
796.20 0.3441
796.30 0.3442
796.40 0.3443
796.50 0.3444
796.60 0.3445
796.70 0.3446
796.80 0.3447
796.90 0.3448
797.00 0.3449
797.10 0.3451
797.20 0.3452
797.30 0.3453
797.40 0.3454
797.50 0.3455
797.60 0.3456
797.70 0.3457
797.80 0.3458
797.90 0.3459
798.00 0.346
798.10 0.3461
798.20 0.3462
798.30 0.3463
798.40 0.3464
798.50 0.3465
798.60 0.3466
798.70 0.3467
798.80 0.3468
798.90 0.3469
799.00 0.347
799.10 0.3471
799.20 0.3472
799.30 0.3473
799.40 0.3474
799.50 0.3475
799.60 0.3476
799.70 0.3477
799.80 0.3478
799.90 0.3479
800.00 0.348
800.10 0.3481
800.20 0.3481
800.30 0.3482
800.40 0.3482
800.50 0.3483
800.60 0.3483
800.70 0.3484
800.80 0.3484
800.90 0.3485
801.00 0.3486
801.10 0.3486
801.20 0.3487
801.30 0.3487
801.40 0.3488
801.50 0.3488
801.60 0.3489
801.70 0.3489
801.80 0.349
801.90 0.349
802.00 0.3491
802.10 0.3491
802.20 0.3492
802.30 0.3492
802.40 0.3493
802.50 0.3493
802.60 0.3494
802.70 0.3494
802.80 0.3495
802.90 0.3495
803.00 0.3496
803.10 0.3496
803.20 0.3497
803.30 0.3497
803.40 0.3498
803.50 0.3498
803.60 0.3499
803.70 0.3499
803.80 0.35
803.90 0.35
804.00 0.3501
804.10 0.3501
804.20 0.3502
804.30 0.3502
804.40 0.3503
804.50 0.3503
804.60 0.3504
804.70 0.3504
804.80 0.3505
804.90 0.3505
805.00 0.3506
805.10 0.3506
805.20 0.3507
805.30 0.3507
805.40 0.3508
805.50 0.3508
805.60 0.3509
805.70 0.3509
805.80 0.351
805.90 0.351
806.00 0.3511
806.10 0.3511
806.20 0.3512
806.30 0.3512
806.40 0.3512
806.50 0.3513
806.60 0.3513
806.70 0.3514
806.80 0.3514
806.90 0.3515
807.00 0.3515
807.10 0.3516
807.20 0.3516
807.30 0.3517
807.40 0.3517
807.50 0.3518
807.60 0.3518
807.70 0.3519
807.80 0.3519
807.90 0.352
808.00 0.352
808.10 0.3521
808.20 0.3521
808.30 0.3522
808.40 0.3522
808.50 0.3523
808.60 0.3523
808.70 0.3524
808.80 0.3524
808.90 0.3525
809.00 0.3525
809.10 0.3526
809.20 0.3526
809.30 0.3527
809.40 0.3527
809.50 0.3528
809.60 0.3528
809.70 0.3528
809.80 0.3529
809.90 0.3529
810.00 0.353
810.10 0.353
810.20 0.353
810.30 0.353
810.40 0.3529
810.50 0.3529
810.60 0.3529
810.70 0.3529
810.80 0.3529
810.90 0.3529
811.00 0.3529
811.10 0.3529
811.20 0.3528
811.30 0.3528
811.40 0.3528
811.50 0.3528
811.60 0.3528
811.70 0.3528
811.80 0.3528
811.90 0.3528
812.00 0.3527
812.10 0.3527
812.20 0.3527
812.30 0.3527
812.40 0.3527
812.50 0.3527
812.60 0.3527
812.70 0.3527
812.80 0.3526
812.90 0.3526
813.00 0.3526
813.10 0.3526
813.20 0.3526
813.30 0.3526
813.40 0.3526
813.50 0.3526
813.60 0.3526
813.70 0.3525
813.80 0.3525
813.90 0.3525
814.00 0.3525
814.10 0.3525
814.20 0.3525
814.30 0.3525
814.40 0.3525
814.50 0.3524
814.60 0.3524
814.70 0.3524
814.80 0.3524
814.90 0.3524
815.00 0.3524
815.10 0.3524
815.20 0.3524
815.30 0.3523
815.40 0.3523
815.50 0.3523
815.60 0.3523
815.70 0.3523
815.80 0.3523
815.90 0.3523
816.00 0.3523
816.10 0.3522
816.20 0.3522
816.30 0.3522
816.40 0.3522
816.50 0.3522
816.60 0.3522
816.70 0.3522
816.80 0.3522
816.90 0.3521
817.00 0.3521
817.10 0.3521
817.20 0.3521
817.30 0.3521
817.40 0.3521
817.50 0.3521
817.60 0.3521
817.70 0.352
817.80 0.352
817.90 0.352
818.00 0.352
818.10 0.352
818.20 0.352
818.30 0.352
818.40 0.352
818.50 0.3519
818.60 0.3519
818.70 0.3519
818.80 0.3519
818.90 0.3519
819.00 0.3519
819.10 0.3519
819.20 0.3519
819.30 0.3518
819.40 0.3518
819.50 0.3518
819.60 0.3518
819.70 0.3518
819.80 0.3518
819.90 0.3518
820.00 0.3518
820.10 0.3517
820.20 0.3517
820.30 0.3517
820.40 0.3517
820.50 0.3517
820.60 0.3517
820.70 0.3517
820.80 0.3517
820.90 0.3517
821.00 0.3517
821.10 0.3517
821.20 0.3516
821.30 0.3516
821.40 0.3516
821.50 0.3516
821.60 0.3516
821.70 0.3516
821.80 0.3516
821.90 0.3516
822.00 0.3516
822.10 0.3516
822.20 0.3516
822.30 0.3516
822.40 0.3516
822.50 0.3516
822.60 0.3516
822.70 0.3516
822.80 0.3516
822.90 0.3516
823.00 0.3516
823.10 0.3516
823.20 0.3516
823.30 0.3516
823.40 0.3516
823.50 0.3516
823.60 0.3516
823.70 0.3515
823.80 0.3515
823.90 0.3515
824.00 0.3515
824.10 0.3515
824.20 0.3515
824.30 0.3515
824.40 0.3515
824.50 0.3515
824.60 0.3515
824.70 0.3515
824.80 0.3515
824.90 0.3515
825.00 0.3515
825.10 0.3515
825.20 0.3515
825.30 0.3515
825.40 0.3515
825.50 0.3515
825.60 0.3515
825.70 0.3515
825.80 0.3515
825.90 0.3515
826.00 0.3515
826.10 0.3515
826.20 0.3515
826.30 0.3515
826.40 0.3515
826.50 0.3515
826.60 0.3515
826.70 0.3515
826.80 0.3515
826.90 0.3515
827.00 0.3515
827.10 0.3515
827.20 0.3515
827.30 0.3515
827.40 0.3515
827.50 0.3515
827.60 0.3515
827.70 0.3515
827.80 0.3515
827.90 0.3515
828.00 0.3515
828.10 0.3515
828.20 0.3515
828.30 0.3515
828.40 0.3515
828.50 0.3515
828.60 0.3515
828.70 0.3515
828.80 0.3515
828.90 0.3515
829.00 0.3515
829.10 0.3515
829.20 0.3515
829.30 0.3515
829.40 0.3516
829.50 0.3516
829.60 0.3516
829.70 0.3516
829.80 0.3516
829.90 0.3516
830.00 0.3516
830.10 0.3516
830.20 0.3516
830.30 0.3516
830.40 0.3516
830.50 0.3516
830.60 0.3516
830.70 0.3516
830.80 0.3516
830.90 0.3516
831.00 0.3516
831.10 0.3516
831.20 0.3516
831.30 0.3516
831.40 0.3516
831.50 0.3516
831.60 0.3516
831.70 0.3516
831.80 0.3516
831.90 0.3516
832.00 0.3516
832.10 0.3516
832.20 0.3516
832.30 0.3516
832.40 0.3516
832.50 0.3516
832.60 0.3516
832.70 0.3516
832.80 0.3516
832.90 0.3516
833.00 0.3516
833.10 0.3516
833.20 0.3516
833.30 0.3516
833.40 0.3516
833.50 0.3516
833.60 0.3516
833.70 0.3516
833.80 0.3516
833.90 0.3516
834.00 0.3516
834.10 0.3516
834.20 0.3516
834.30 0.3516
834.40 0.3516
834.50 0.3516
834.60 0.3516
834.70 0.3516
834.80 0.3515
834.90 0.3515
835.00 0.3515
835.10 0.3515
835.20 0.3515
835.30 0.3515
835.40 0.3515
835.50 0.3515
835.60 0.3515
835.70 0.3515
835.80 0.3515
835.90 0.3515
836.00 0.3515
836.10 0.3515
836.20 0.3515
836.30 0.3515
836.40 0.3515
836.50 0.3515
836.60 0.3515
836.70 0.3515
836.80 0.3515
836.90 0.3515
837.00 0.3515
837.10 0.3515
837.20 0.3514
837.30 0.3514
837.40 0.3514
837.50 0.3514
837.60 0.3514
837.70 0.3514
837.80 0.3514
837.90 0.3514
838.00 0.3514
838.10 0.3514
838.20 0.3514
838.30 0.3513
838.40 0.3513
838.50 0.3513
838.60 0.3513
838.70 0.3513
838.80 0.3513
838.90 0.3513
839.00 0.3513
839.10 0.3513
839.20 0.3513
839.30 0.3512
839.40 0.3512
839.50 0.3512
839.60 0.3512
839.70 0.3512
839.80 0.3512
839.90 0.3512
840.00 0.3512
840.10 0.3512
840.20 0.3512
840.30 0.3512
840.40 0.3511
840.50 0.3511
840.60 0.3511
840.70 0.3511
840.80 0.3511
840.90 0.3511
841.00 0.3511
841.10 0.3511
841.20 0.3511
841.30 0.3511
841.40 0.351
841.50 0.351
841.60 0.351
841.70 0.351
841.80 0.351
841.90 0.351
842.00 0.351
842.10 0.351
842.20 0.351
842.30 0.3509
842.40 0.3509
842.50 0.3509
842.60 0.3509
842.70 0.3509
842.80 0.3509
842.90 0.3508
843.00 0.3508
843.10 0.3508
843.20 0.3508
843.30 0.3508
843.40 0.3508
843.50 0.3508
843.60 0.3507
843.70 0.3507
843.80 0.3507
843.90 0.3507
844.00 0.3507
844.10 0.3507
844.20 0.3506
844.30 0.3506
844.40 0.3506
844.50 0.3506
844.60 0.3506
844.70 0.3506
844.80 0.3505
844.90 0.3505
845.00 0.3505
845.10 0.3505
845.20 0.3505
845.30 0.3505
845.40 0.3505
845.50 0.3504
845.60 0.3504
845.70 0.3504
845.80 0.3504
845.90 0.3504
846.00 0.3504
846.10 0.3503
846.20 0.3503
846.30 0.3503
846.40 0.3503
846.50 0.3503
846.60 0.3503
846.70 0.3503
846.80 0.3502
846.90 0.3502
847.00 0.3502
847.10 0.3502
847.20 0.3502
847.30 0.3501
847.40 0.3501
847.50 0.3501
847.60 0.3501
847.70 0.3501
847.80 0.35
847.90 0.35
848.00 0.35
848.10 0.35
848.20 0.35
848.30 0.3499
848.40 0.3499
848.50 0.3499
848.60 0.3499
848.70 0.3499
848.80 0.3498
848.90 0.3498
849.00 0.3498
849.10 0.3498
849.20 0.3498
849.30 0.3497
849.40 0.3497
849.50 0.3497
849.60 0.3497
849.70 0.3497
849.80 0.3496
849.90 0.3496
850.00 0.3496
850.10 0.3496
850.20 0.3496
850.30 0.3495
850.40 0.3495
850.50 0.3495
850.60 0.3495
850.70 0.3495
850.80 0.3494
850.90 0.3494
851.00 0.3494
851.10 0.3494
851.20 0.3494
851.30 0.3493
851.40 0.3493
851.50 0.3493
851.60 0.3493
851.70 0.3493
851.80 0.3492
851.90 0.3492
852.00 0.3492
852.10 0.3492
852.20 0.3492
852.30 0.3491
852.40 0.3491
852.50 0.3491
852.60 0.3491
852.70 0.349
852.80 0.349
852.90 0.349
853.00 0.349
853.10 0.3489
853.20 0.3489
853.30 0.3489
853.40 0.3489
853.50 0.3489
853.60 0.3488
853.70 0.3488
853.80 0.3488
853.90 0.3488
854.00 0.3487
854.10 0.3487
854.20 0.3487
854.30 0.3487
854.40 0.3486
854.50 0.3486
854.60 0.3486
854.70 0.3486
854.80 0.3486
854.90 0.3485
855.00 0.3485
855.10 0.3485
855.20 0.3485
855.30 0.3484
855.40 0.3484
855.50 0.3484
855.60 0.3484
855.70 0.3483
855.80 0.3483
855.90 0.3483
856.00 0.3483
856.10 0.3482
856.20 0.3482
856.30 0.3482
856.40 0.3482
856.50 0.3482
856.60 0.3481
856.70 0.3481
856.80 0.3481
856.90 0.3481
857.00 0.348
857.10 0.348
857.20 0.348
857.30 0.348
857.40 0.3479
857.50 0.3479
857.60 0.3479
857.70 0.3479
857.80 0.3478
857.90 0.3478
858.00 0.3478
858.10 0.3478
858.20 0.3477
858.30 0.3477
858.40 0.3477
858.50 0.3477
858.60 0.3476
858.70 0.3476
858.80 0.3476
858.90 0.3476
859.00 0.3475
859.10 0.3475
859.20 0.3475
859.30 0.3475
859.40 0.3474
859.50 0.3474
859.60 0.3474
859.70 0.3473
859.80 0.3473
859.90 0.3473
860.00 0.3473
860.10 0.3472
860.20 0.3472
860.30 0.3472
860.40 0.3472
860.50 0.3471
860.60 0.3471
860.70 0.3471
860.80 0.3471
860.90 0.347
861.00 0.347
861.10 0.347
861.20 0.347
861.30 0.3469
861.40 0.3469
861.50 0.3469
861.60 0.3469
861.70 0.3468
861.80 0.3468
861.90 0.3468
862.00 0.3468
862.10 0.3467
862.20 0.3467
862.30 0.3467
862.40 0.3467
862.50 0.3466
862.60 0.3466
862.70 0.3466
862.80 0.3466
862.90 0.3465
863.00 0.3465
863.10 0.3465
863.20 0.3465
863.30 0.3464
863.40 0.3464
863.50 0.3464
863.60 0.3464
863.70 0.3463
863.80 0.3463
863.90 0.3463
864.00 0.3463
864.10 0.3462
864.20 0.3462
864.30 0.3462
864.40 0.3462
864.50 0.3461
864.60 0.3461
864.70 0.3461
864.80 0.3461
864.90 0.346
865.00 0.346
865.10 0.346
865.20 0.346
865.30 0.3459
865.40 0.3459
865.50 0.3459
865.60 0.3459
865.70 0.3458
865.80 0.3458
865.90 0.3458
866.00 0.3458
866.10 0.3457
866.20 0.3457
866.30 0.3457
866.40 0.3457
866.50 0.3456
866.60 0.3456
866.70 0.3456
866.80 0.3456
866.90 0.3455
867.00 0.3455
867.10 0.3455
867.20 0.3454
867.30 0.3454
867.40 0.3453
867.50 0.3453
867.60 0.3452
867.70 0.3452
867.80 0.3452
867.90 0.3451
868.00 0.3451
868.10 0.345
868.20 0.345
868.30 0.3449
868.40 0.3449
868.50 0.3448
868.60 0.3448
868.70 0.3448
868.80 0.3447
868.90 0.3447
869.00 0.3446
869.10 0.3446
869.20 0.3445
869.30 0.3445
869.40 0.3444
869.50 0.3444
869.60 0.3443
869.70 0.3443
869.80 0.3443
869.90 0.3442
870.00 0.3442
870.10 0.3441
870.20 0.3441
870.30 0.344
870.40 0.344
870.50 0.3439
870.60 0.3439
870.70 0.3439
870.80 0.3438
870.90 0.3438
871.00 0.3437
871.10 0.3437
871.20 0.3436
871.30 0.3436
871.40 0.3435
871.50 0.3435
871.60 0.3434
871.70 0.3434
871.80 0.3434
871.90 0.3433
872.00 0.3433
872.10 0.3432
872.20 0.3431
872.30 0.3431
872.40 0.343
872.50 0.343
872.60 0.3429
872.70 0.3428
872.80 0.3428
872.90 0.3427
873.00 0.3426
873.10 0.3426
873.20 0.3425
873.30 0.3424
873.40 0.3424
873.50 0.3423
873.60 0.3423
873.70 0.3422
873.80 0.3421
873.90 0.3421
874.00 0.342
874.10 0.3419
874.20 0.3419
874.30 0.3418
874.40 0.3418
874.50 0.3417
874.60 0.3416
874.70 0.3416
874.80 0.3415
874.90 0.3414
875.00 0.3414
875.10 0.3413
875.20 0.3413
875.30 0.3412
875.40 0.3411
875.50 0.3411
875.60 0.341
875.70 0.3409
875.80 0.3409
875.90 0.3408
876.00 0.3408
876.10 0.3407
876.20 0.3406
876.30 0.3406
876.40 0.3405
876.50 0.3404
876.60 0.3404
876.70 0.3403
876.80 0.3403
876.90 0.3402
877.00 0.3401
877.10 0.34
877.20 0.3399
877.30 0.3398
877.40 0.3397
877.50 0.3397
877.60 0.3396
877.70 0.3395
877.80 0.3394
877.90 0.3393
878.00 0.3392
878.10 0.3391
878.20 0.339
878.30 0.3389
878.40 0.3388
878.50 0.3387
878.60 0.3386
878.70 0.3385
878.80 0.3384
878.90 0.3383
879.00 0.3382
879.10 0.3381
879.20 0.338
879.30 0.3379
879.40 0.3378
879.50 0.3377
879.60 0.3376
879.70 0.3375
879.80 0.3374
879.90 0.3374
880.00 0.3373
880.10 0.3372
880.20 0.3371
880.30 0.337
880.40 0.3369
880.50 0.3368
880.60 0.3367
880.70 0.3366
880.80 0.3365
880.90 0.3364
881.00 0.3363
881.10 0.3362
881.20 0.3361
881.30 0.336
881.40 0.3359
881.50 0.3358
881.60 0.3357
881.70 0.3356
881.80 0.3355
881.90 0.3355
882.00 0.3354
882.10 0.3352
882.20 0.3351
882.30 0.335
882.40 0.3349
882.50 0.3347
882.60 0.3346
882.70 0.3345
882.80 0.3344
882.90 0.3342
883.00 0.3341
883.10 0.334
883.20 0.3339
883.30 0.3337
883.40 0.3336
883.50 0.3335
883.60 0.3334
883.70 0.3332
883.80 0.3331
883.90 0.333
884.00 0.3329
884.10 0.3327
884.20 0.3326
884.30 0.3325
884.40 0.3324
884.50 0.3322
884.60 0.3321
884.70 0.332
884.80 0.3319
884.90 0.3317
885.00 0.3316
885.10 0.3315
885.20 0.3314
885.30 0.3313
885.40 0.3311
885.50 0.331
885.60 0.3309
885.70 0.3308
885.80 0.3306
885.90 0.3305
886.00 0.3304
886.10 0.3303
886.20 0.3301
886.30 0.33
886.40 0.3299
886.50 0.3298
886.60 0.3297
886.70 0.3295
886.80 0.3294
886.90 0.3293
887.00 0.3292
887.10 0.329
887.20 0.3289
887.30 0.3287
887.40 0.3286
887.50 0.3284
887.60 0.3283
887.70 0.3281
887.80 0.328
887.90 0.3278
888.00 0.3277
888.10 0.3275
888.20 0.3274
888.30 0.3272
888.40 0.3271
888.50 0.3269
888.60 0.3268
888.70 0.3266
888.80 0.3265
888.90 0.3263
889.00 0.3262
889.10 0.326
889.20 0.3259
889.30 0.3257
889.40 0.3256
889.50 0.3254
889.60 0.3253
889.70 0.3251
889.80 0.325
889.90 0.3248
890.00 0.3247
890.10 0.3245
890.20 0.3244
890.30 0.3242
890.40 0.3241
890.50 0.3239
890.60 0.3238
890.70 0.3236
890.80 0.3235
890.90 0.3233
891.00 0.3232
891.10 0.323
891.20 0.3229
891.30 0.3228
891.40 0.3226
891.50 0.3225
891.60 0.3223
891.70 0.3222
891.80 0.322
891.90 0.3219
892.00 0.3217
892.10 0.3215
892.20 0.3214
892.30 0.3212
892.40 0.321
892.50 0.3209
892.60 0.3207
892.70 0.3205
892.80 0.3203
892.90 0.3202
893.00 0.32
893.10 0.3198
893.20 0.3196
893.30 0.3195
893.40 0.3193
893.50 0.3191
893.60 0.319
893.70 0.3188
893.80 0.3186
893.90 0.3184
894.00 0.3183
894.10 0.3181
894.20 0.3179
894.30 0.3177
894.40 0.3176
894.50 0.3174
894.60 0.3172
894.70 0.3171
894.80 0.3169
894.90 0.3167
895.00 0.3165
895.10 0.3164
895.20 0.3162
895.30 0.316
895.40 0.3159
895.50 0.3157
895.60 0.3155
895.70 0.3153
895.80 0.3152
895.90 0.315
896.00 0.3148
896.10 0.3147
896.20 0.3145
896.30 0.3143
896.40 0.3141
896.50 0.314
896.60 0.3138
896.70 0.3136
896.80 0.3135
896.90 0.3133
897.00 0.3131
897.10 0.3129
897.20 0.3127
897.30 0.3126
897.40 0.3124
897.50 0.3122
897.60 0.312
897.70 0.3118
897.80 0.3116
897.90 0.3114
898.00 0.3112
898.10 0.3111
898.20 0.3109
898.30 0.3107
898.40 0.3105
898.50 0.3103
898.60 0.3101
898.70 0.3099
898.80 0.3097
898.90 0.3096
899.00 0.3094
899.10 0.3092
899.20 0.309
899.30 0.3088
899.40 0.3086
899.50 0.3084
899.60 0.3083
899.70 0.3081
899.80 0.3079
899.90 0.3077
900.00 0.3075
900.10 0.3073
900.20 0.3071
900.30 0.307
900.40 0.3068
900.50 0.3066
900.60 0.3064
900.70 0.3062
900.80 0.306
900.90 0.3058
901.00 0.3057
901.10 0.3055
901.20 0.3053
901.30 0.3051
901.40 0.3049
901.50 0.3047
901.60 0.3045
901.70 0.3044
901.80 0.3042
901.90 0.304
902.00 0.3038
902.10 0.3036
902.20 0.3034
902.30 0.3032
902.40 0.303
902.50 0.3028
902.60 0.3026
902.70 0.3024
902.80 0.3022
902.90 0.302
903.00 0.3018
903.10 0.3016
903.20 0.3015
903.30 0.3013
903.40 0.3011
903.50 0.3009
903.60 0.3007
903.70 0.3005
903.80 0.3003
903.90 0.3001
904.00 0.2999
904.10 0.2997
904.20 0.2995
904.30 0.2993
904.40 0.2991
904.50 0.2989
904.60 0.2987
904.70 0.2985
904.80 0.2983
904.90 0.2981
905.00 0.2979
905.10 0.2977
905.20 0.2976
905.30 0.2974
905.40 0.2972
905.50 0.297
905.60 0.2968
905.70 0.2966
905.80 0.2964
905.90 0.2962
906.00 0.296
906.10 0.2958
906.20 0.2956
906.30 0.2954
906.40 0.2952
906.50 0.295
906.60 0.2948
906.70 0.2947
906.80 0.2945
906.90 0.2943
907.00 0.2941
907.10 0.2939
907.20 0.2936
907.30 0.2934
907.40 0.2932
907.50 0.293
907.60 0.2927
907.70 0.2925
907.80 0.2923
907.90 0.2921
908.00 0.2919
908.10 0.2916
908.20 0.2914
908.30 0.2912
908.40 0.291
908.50 0.2908
908.60 0.2905
908.70 0.2903
908.80 0.2901
908.90 0.2899
909.00 0.2897
909.10 0.2894
909.20 0.2892
909.30 0.289
909.40 0.2888
909.50 0.2886
909.60 0.2883
909.70 0.2881
909.80 0.2879
909.90 0.2877
910.00 0.2875
910.10 0.2872
910.20 0.287
910.30 0.2868
910.40 0.2866
910.50 0.2864
910.60 0.2862
910.70 0.2859
910.80 0.2857
910.90 0.2855
911.00 0.2853
911.10 0.2851
911.20 0.2848
911.30 0.2846
911.40 0.2844
911.50 0.2842
911.60 0.284
911.70 0.2838
911.80 0.2835
911.90 0.2833
912.00 0.2831
912.10 0.2829
912.20 0.2826
912.30 0.2824
912.40 0.2821
912.50 0.2819
912.60 0.2817
912.70 0.2814
912.80 0.2812
912.90 0.2809
913.00 0.2807
913.10 0.2805
913.20 0.2802
913.30 0.28
913.40 0.2797
913.50 0.2795
913.60 0.2793
913.70 0.279
913.80 0.2788
913.90 0.2785
914.00 0.2783
914.10 0.2781
914.20 0.2778
914.30 0.2776
914.40 0.2774
914.50 0.2771
914.60 0.2769
914.70 0.2766
914.80 0.2764
914.90 0.2762
915.00 0.2759
915.10 0.2757
915.20 0.2754
915.30 0.2752
915.40 0.275
915.50 0.2747
915.60 0.2745
915.70 0.2743
915.80 0.274
915.90 0.2738
916.00 0.2735
916.10 0.2733
916.20 0.2731
916.30 0.2728
916.40 0.2726
916.50 0.2724
916.60 0.2721
916.70 0.2719
916.80 0.2717
916.90 0.2714
917.00 0.2712
917.10 0.2709
917.20 0.2707
917.30 0.2704
917.40 0.2702
917.50 0.2699
917.60 0.2697
917.70 0.2694
917.80 0.2692
917.90 0.2689
918.00 0.2687
918.10 0.2684
918.20 0.2682
918.30 0.2679
918.40 0.2677
918.50 0.2674
918.60 0.2672
918.70 0.2669
918.80 0.2667
918.90 0.2664
919.00 0.2662
919.10 0.2659
919.20 0.2657
919.30 0.2654
919.40 0.2652
919.50 0.2649
919.60 0.2647
919.70 0.2645
919.80 0.2642
919.90 0.264
920.00 0.2637
920.10 0.2635
920.20 0.2632
920.30 0.263
920.40 0.2627
920.50 0.2625
920.60 0.2622
920.70 0.262
920.80 0.2617
920.90 0.2615
921.00 0.2612
921.10 0.261
921.20 0.2607
921.30 0.2605
921.40 0.2603
921.50 0.26
921.60 0.2598
921.70 0.2595
921.80 0.2593
921.90 0.259
922.00 0.2588
922.10 0.2585
922.20 0.2583
922.30 0.258
922.40 0.2577
922.50 0.2575
922.60 0.2572
922.70 0.257
922.80 0.2567
922.90 0.2565
923.00 0.2562
923.10 0.2559
923.20 0.2557
923.30 0.2554
923.40 0.2552
923.50 0.2549
923.60 0.2547
923.70 0.2544
923.80 0.2541
923.90 0.2539
924.00 0.2536
924.10 0.2534
924.20 0.2531
924.30 0.2529
924.40 0.2526
924.50 0.2524
924.60 0.2521
924.70 0.2518
924.80 0.2516
924.90 0.2513
925.00 0.2511
925.10 0.2508
925.20 0.2506
925.30 0.2503
925.40 0.2501
925.50 0.2498
925.60 0.2495
925.70 0.2493
925.80 0.249
925.90 0.2488
926.00 0.2485
926.10 0.2483
926.20 0.248
926.30 0.2478
926.40 0.2475
926.50 0.2473
926.60 0.247
926.70 0.2468
926.80 0.2465
926.90 0.2462
927.00 0.246
927.10 0.2457
927.20 0.2455
927.30 0.2452
927.40 0.2449
927.50 0.2447
927.60 0.2444
927.70 0.2441
927.80 0.2439
927.90 0.2436
928.00 0.2433
928.10 0.2431
928.20 0.2428
928.30 0.2426
928.40 0.2423
928.50 0.242
928.60 0.2418
928.70 0.2415
928.80 0.2412
928.90 0.241
929.00 0.2407
929.10 0.2404
929.20 0.2402
929.30 0.2399
929.40 0.2397
929.50 0.2394
929.60 0.2391
929.70 0.2389
929.80 0.2386
929.90 0.2383
930.00 0.2381
930.10 0.2378
930.20 0.2376
930.30 0.2373
930.40 0.237
930.50 0.2368
930.60 0.2365
930.70 0.2363
930.80 0.236
930.90 0.2357
931.00 0.2355
931.10 0.2352
931.20 0.2349
931.30 0.2347
931.40 0.2344
931.50 0.2342
931.60 0.2339
931.70 0.2336
931.80 0.2334
931.90 0.2331
932.00 0.2329
932.10 0.2326
932.20 0.2323
932.30 0.2321
932.40 0.2318
932.50 0.2316
932.60 0.2313
932.70 0.231
932.80 0.2308
932.90 0.2305
933.00 0.2302
933.10 0.23
933.20 0.2297
933.30 0.2295
933.40 0.2292
933.50 0.2289
933.60 0.2287
933.70 0.2284
933.80 0.2281
933.90 0.2279
934.00 0.2276
934.10 0.2274
934.20 0.2271
934.30 0.2268
934.40 0.2266
934.50 0.2263
934.60 0.226
934.70 0.2258
934.80 0.2255
934.90 0.2253
935.00 0.225
935.10 0.2247
935.20 0.2245
935.30 0.2242
935.40 0.2239
935.50 0.2237
935.60 0.2234
935.70 0.2232
935.80 0.2229
935.90 0.2226
936.00 0.2224
936.10 0.2221
936.20 0.2218
936.30 0.2216
936.40 0.2213
936.50 0.2211
936.60 0.2208
936.70 0.2205
936.80 0.2203
936.90 0.22
937.00 0.2198
937.10 0.2195
937.20 0.2192
937.30 0.219
937.40 0.2187
937.50 0.2185
937.60 0.2182
937.70 0.2179
937.80 0.2177
937.90 0.2174
938.00 0.2171
938.10 0.2169
938.20 0.2166
938.30 0.2164
938.40 0.2161
938.50 0.2158
938.60 0.2156
938.70 0.2153
938.80 0.215
938.90 0.2148
939.00 0.2145
939.10 0.2142
939.20 0.214
939.30 0.2137
939.40 0.2134
939.50 0.2132
939.60 0.2129
939.70 0.2127
939.80 0.2124
939.90 0.2121
940.00 0.2119
940.10 0.2116
940.20 0.2113
940.30 0.2111
940.40 0.2108
940.50 0.2106
940.60 0.2103
940.70 0.21
940.80 0.2098
940.90 0.2095
941.00 0.2093
941.10 0.209
941.20 0.2087
941.30 0.2085
941.40 0.2082
941.50 0.208
941.60 0.2077
941.70 0.2075
941.80 0.2072
941.90 0.2069
942.00 0.2067
942.10 0.2064
942.20 0.2062
942.30 0.2059
942.40 0.2056
942.50 0.2054
942.60 0.2051
942.70 0.2049
942.80 0.2046
942.90 0.2044
943.00 0.2041
943.10 0.2038
943.20 0.2036
943.30 0.2033
943.40 0.2031
943.50 0.2028
943.60 0.2026
943.70 0.2023
943.80 0.202
943.90 0.2018
944.00 0.2015
944.10 0.2013
944.20 0.201
944.30 0.2008
944.40 0.2005
944.50 0.2003
944.60 0.2
944.70 0.1997
944.80 0.1995
944.90 0.1992
945.00 0.199
945.10 0.1987
945.20 0.1985
945.30 0.1982
945.40 0.198
945.50 0.1977
945.60 0.1975
945.70 0.1972
945.80 0.1969
945.90 0.1967
946.00 0.1964
946.10 0.1962
946.20 0.1959
946.30 0.1957
946.40 0.1954
946.50 0.1952
946.60 0.1949
946.70 0.1947
946.80 0.1944
946.90 0.1942
947.00 0.1939
947.10 0.1937
947.20 0.1934
947.30 0.1932
947.40 0.1929
947.50 0.1926
947.60 0.1924
947.70 0.1921
947.80 0.1919
947.90 0.1916
948.00 0.1914
948.10 0.1911
948.20 0.1909
948.30 0.1906
948.40 0.1904
948.50 0.1901
948.60 0.1899
948.70 0.1896
948.80 0.1894
948.90 0.1891
949.00 0.1889
949.10 0.1886
949.20 0.1884
949.30 0.1881
949.40 0.1879
949.50 0.1876
949.60 0.1874
949.70 0.1871
949.80 0.1869
949.90 0.1866
950.00 0.1864
950.10 0.1861
950.20 0.1859
950.30 0.1856
950.40 0.1854
950.50 0.1851
950.60 0.1849
950.70 0.1846
950.80 0.1844
950.90 0.1842
951.00 0.1839
951.10 0.1837
951.20 0.1834
951.30 0.1832
951.40 0.1829
951.50 0.1827
951.60 0.1824
951.70 0.1822
951.80 0.1819
951.90 0.1817
952.00 0.1814
952.10 0.1812
952.20 0.181
952.30 0.1807
952.40 0.1805
952.50 0.1802
952.60 0.18
952.70 0.1797
952.80 0.1795
952.90 0.1792
953.00 0.179
953.10 0.1788
953.20 0.1785
953.30 0.1783
953.40 0.178
953.50 0.1778
953.60 0.1775
953.70 0.1773
953.80 0.1771
953.90 0.1768
954.00 0.1766
954.10 0.1763
954.20 0.1761
954.30 0.1758
954.40 0.1756
954.50 0.1754
954.60 0.1751
954.70 0.1749
954.80 0.1746
954.90 0.1744
955.00 0.1742
955.10 0.1739
955.20 0.1737
955.30 0.1734
955.40 0.1732
955.50 0.173
955.60 0.1727
955.70 0.1725
955.80 0.1722
955.90 0.172
956.00 0.1718
956.10 0.1715
956.20 0.1713
956.30 0.171
956.40 0.1708
956.50 0.1705
956.60 0.1703
956.70 0.17
956.80 0.1698
956.90 0.1696
957.00 0.1693
957.10 0.1691
957.20 0.1688
957.30 0.1686
957.40 0.1684
957.50 0.1681
957.60 0.1679
957.70 0.1677
957.80 0.1674
957.90 0.1672
958.00 0.167
958.10 0.1667
958.20 0.1665
958.30 0.1663
958.40 0.166
958.50 0.1658
958.60 0.1655
958.70 0.1653
958.80 0.1651
958.90 0.1648
959.00 0.1646
959.10 0.1644
959.20 0.1641
959.30 0.1639
959.40 0.1637
959.50 0.1634
959.60 0.1632
959.70 0.163
959.80 0.1628
959.90 0.1625
960.00 0.1623
960.10 0.1621
960.20 0.1618
960.30 0.1616
960.40 0.1614
960.50 0.1611
960.60 0.1609
960.70 0.1607
960.80 0.1605
960.90 0.1602
961.00 0.16
961.10 0.1598
961.20 0.1595
961.30 0.1593
961.40 0.1591
961.50 0.1588
961.60 0.1586
961.70 0.1584
961.80 0.1582
961.90 0.1579
962.00 0.1577
962.10 0.1575
962.20 0.1573
962.30 0.157
962.40 0.1568
962.50 0.1566
962.60 0.1564
962.70 0.1561
962.80 0.1559
962.90 0.1557
963.00 0.1554
963.10 0.1552
963.20 0.155
963.30 0.1548
963.40 0.1545
963.50 0.1543
963.60 0.1541
963.70 0.1539
963.80 0.1537
963.90 0.1534
964.00 0.1532
964.10 0.153
964.20 0.1528
964.30 0.1525
964.40 0.1523
964.50 0.1521
964.60 0.1519
964.70 0.1516
964.80 0.1514
964.90 0.1512
965.00 0.151
965.10 0.1507
965.20 0.1505
965.30 0.1503
965.40 0.15
965.50 0.1498
965.60 0.1496
965.70 0.1494
965.80 0.1491
965.90 0.1489
966.00 0.1487
966.10 0.1485
966.20 0.1482
966.30 0.148
966.40 0.1478
966.50 0.1476
966.60 0.1474
966.70 0.1472
966.80 0.1469
966.90 0.1467
967.00 0.1465
967.10 0.1463
967.20 0.1461
967.30 0.1459
967.40 0.1456
967.50 0.1454
967.60 0.1452
967.70 0.145
967.80 0.1448
967.90 0.1446
968.00 0.1444
968.10 0.1441
968.20 0.1439
968.30 0.1437
968.40 0.1435
968.50 0.1433
968.60 0.1431
968.70 0.1429
968.80 0.1427
968.90 0.1424
969.00 0.1422
969.10 0.142
969.20 0.1418
969.30 0.1416
969.40 0.1414
969.50 0.1412
969.60 0.141
969.70 0.1408
969.80 0.1406
969.90 0.1403
970.00 0.1401
970.10 0.1399
970.20 0.1397
970.30 0.1395
970.40 0.1393
970.50 0.1391
970.60 0.1389
970.70 0.1387
970.80 0.1385
970.90 0.1383
971.00 0.1381
971.10 0.1379
971.20 0.1377
971.30 0.1375
971.40 0.1372
971.50 0.137
971.60 0.1368
971.70 0.1366
971.80 0.1364
971.90 0.1362
972.00 0.136
972.10 0.1358
972.20 0.1356
972.30 0.1354
972.40 0.1352
972.50 0.135
972.60 0.1348
972.70 0.1346
972.80 0.1344
972.90 0.1342
973.00 0.134
973.10 0.1338
973.20 0.1336
973.30 0.1334
973.40 0.1332
973.50 0.133
973.60 0.1328
973.70 0.1326
973.80 0.1324
973.90 0.1322
974.00 0.132
974.10 0.1318
974.20 0.1316
974.30 0.1314
974.40 0.1312
974.50 0.131
974.60 0.1308
974.70 0.1306
974.80 0.1304
974.90 0.1302
975.00 0.13
975.10 0.1298
975.20 0.1296
975.30 0.1294
975.40 0.1293
975.50 0.1291
975.60 0.1289
975.70 0.1287
975.80 0.1285
975.90 0.1283
976.00 0.1281
976.10 0.1279
976.20 0.1277
976.30 0.1275
976.40 0.1273
976.50 0.1271
976.60 0.1269
976.70 0.1267
976.80 0.1265
976.90 0.1263
977.00 0.1261
977.10 0.1259
977.20 0.1258
977.30 0.1256
977.40 0.1254
977.50 0.1252
977.60 0.125
977.70 0.1248
977.80 0.1246
977.90 0.1245
978.00 0.1243
978.10 0.1241
978.20 0.1239
978.30 0.1237
978.40 0.1235
978.50 0.1234
978.60 0.1232
978.70 0.123
978.80 0.1228
978.90 0.1226
979.00 0.1224
979.10 0.1223
979.20 0.1221
979.30 0.1219
979.40 0.1217
979.50 0.1215
979.60 0.1213
979.70 0.1212
979.80 0.121
979.90 0.1208
980.00 0.1206
980.10 0.1204
980.20 0.1202
980.30 0.1201
980.40 0.1199
980.50 0.1197
980.60 0.1195
980.70 0.1193
980.80 0.1191
980.90 0.119
981.00 0.1188
981.10 0.1186
981.20 0.1184
981.30 0.1182
981.40 0.118
981.50 0.1179
981.60 0.1177
981.70 0.1175
981.80 0.1173
981.90 0.1171
982.00 0.117
982.10 0.1168
982.20 0.1166
982.30 0.1164
982.40 0.1163
982.50 0.1161
982.60 0.1159
982.70 0.1157
982.80 0.1156
982.90 0.1154
983.00 0.1152
983.10 0.115
983.20 0.1149
983.30 0.1147
983.40 0.1145
983.50 0.1143
983.60 0.1142
983.70 0.114
983.80 0.1138
983.90 0.1137
984.00 0.1135
984.10 0.1133
984.20 0.1131
984.30 0.113
984.40 0.1128
984.50 0.1126
984.60 0.1124
984.70 0.1123
984.80 0.1121
984.90 0.112
985.00 0.1118
985.10 0.1116
985.20 0.1115
985.30 0.1113
985.40 0.1112
985.50 0.111
985.60 0.1108
985.70 0.1107
985.80 0.1105
985.90 0.1103
986.00 0.1102
986.10 0.11
986.20 0.1099
986.30 0.1097
986.40 0.1095
986.50 0.1094
986.60 0.1092
986.70 0.1091
986.80 0.1089
986.90 0.1087
987.00 0.1086
987.10 0.1084
987.20 0.1082
987.30 0.1081
987.40 0.1079
987.50 0.1077
987.60 0.1076
987.70 0.1074
987.80 0.1072
987.90 0.1071
988.00 0.1069
988.10 0.1067
988.20 0.1066
988.30 0.1064
988.40 0.1062
988.50 0.1061
988.60 0.1059
988.70 0.1057
988.80 0.1056
988.90 0.1054
989.00 0.1052
989.10 0.1051
989.20 0.1049
989.30 0.1047
989.40 0.1046
989.50 0.1044
989.60 0.1042
989.70 0.1041
989.80 0.1039
989.90 0.1037
990.00 0.1036
990.10 0.1034
990.20 0.1033
990.30 0.1031
990.40 0.1029
990.50 0.1028
990.60 0.1026
990.70 0.1024
990.80 0.1023
990.90 0.1021
991.00 0.1019
991.10 0.1018
991.20 0.1016
991.30 0.1014
991.40 0.1013
991.50 0.1011
991.60 0.101
991.70 0.1008
991.80 0.1006
991.90 0.1005
992.00 0.1003
992.10 0.1001
992.20 0.09997
992.30 0.09981
992.40 0.09964
992.50 0.09948
992.60 0.09932
992.70 0.09916
992.80 0.09899
992.90 0.09883
993.00 0.09867
993.10 0.09851
993.20 0.09834
993.30 0.09818
993.40 0.09802
993.50 0.09786
993.60 0.09769
993.70 0.09753
993.80 0.09737
993.90 0.09721
994.00 0.09705
994.10 0.09689
994.20 0.09672
994.30 0.09656
994.40 0.0964
994.50 0.09624
994.60 0.09608
994.70 0.09589
994.80 0.09569
994.90 0.09549
995.00 0.09529
995.10 0.09509
995.20 0.09489
995.30 0.09469
995.40 0.0945
995.50 0.0943
995.60 0.0941
995.70 0.09393
995.80 0.09378
995.90 0.09362
996.00 0.09347
996.10 0.09331
996.20 0.09316
996.30 0.093
996.40 0.09285
996.50 0.09269
996.60 0.09253
996.70 0.09238
996.80 0.09222
996.90 0.09207
997.00 0.09191
997.10 0.09176
997.20 0.09161
997.30 0.09146
997.40 0.09131
997.50 0.09116
997.60 0.09101
997.70 0.09086
997.80 0.09071
997.90 0.09056
998.00 0.09042
998.10 0.09027
998.20 0.09012
998.30 0.08998
998.40 0.08983
998.50 0.08968
998.60 0.08954
998.70 0.08939
998.80 0.08924
998.90 0.0891
999.00 0.08895
999.10 0.0888
999.20 0.08866
999.30 0.08851
999.40 0.08837
999.50 0.08822
999.60 0.08807
999.70 0.08793
999.80 0.08779
999.90 0.08765
1000.00 0.08751
1000.10 0.08737
1000.20 0.08723
1000.30 0.08709
1000.40 0.08695
1000.50 0.08681
1000.60 0.08668
1000.70 0.08654
1000.80 0.0864
1000.90 0.08626
1001.00 0.08612
1001.10 0.08598
1001.20 0.08584
1001.30 0.0857
1001.40 0.08556
1001.50 0.08542
1001.60 0.08528
1001.70 0.08515
1001.80 0.08501
1001.90 0.08487
1002.00 0.08474
1002.10 0.08461
1002.20 0.08447
1002.30 0.08434
1002.40 0.08421
1002.50 0.08407
1002.60 0.08394
1002.70 0.08381
1002.80 0.08368
1002.90 0.08354
1003.00 0.08341
1003.10 0.08328
1003.20 0.08315
1003.30 0.08302
1003.40 0.08289
1003.50 0.08276
1003.60 0.08263
1003.70 0.0825
1003.80 0.08237
1003.90 0.08224
1004.00 0.08211
1004.10 0.08198
1004.20 0.08186
1004.30 0.08173
1004.40 0.0816
1004.50 0.08147
1004.60 0.08135
1004.70 0.08122
1004.80 0.08109
1004.90 0.08092
1005.00 0.08075
1005.10 0.08062
1005.20 0.08049
1005.30 0.08037
1005.40 0.08024
1005.50 0.08012
1005.60 0.08
1005.70 0.07988
1005.80 0.07975
1005.90 0.07963
1006.00 0.07951
1006.10 0.07939
1006.20 0.07927
1006.30 0.07915
1006.40 0.07903
1006.50 0.07891
1006.60 0.07879
1006.70 0.07867
1006.80 0.07855
1006.90 0.07844
1007.00 0.07832
1007.10 0.0782
1007.20 0.07808
1007.30 0.07797
1007.40 0.07785
1007.50 0.07773
1007.60 0.07762
1007.70 0.0775
1007.80 0.07739
1007.90 0.07728
1008.00 0.07717
1008.10 0.07706
1008.20 0.07694
1008.30 0.07683
1008.40 0.07672
1008.50 0.07661
1008.60 0.0765
1008.70 0.07639
1008.80 0.07627
1008.90 0.07616
1009.00 0.07605
1009.10 0.07594
1009.20 0.07583
1009.30 0.07572
1009.40 0.07561
1009.50 0.0755
1009.60 0.07538
1009.70 0.07528
1009.80 0.07517
1009.90 0.07507
1010.00 0.07496
1010.10 0.07486
1010.20 0.07475
1010.30 0.07465
1010.40 0.07454
1010.50 0.07444
1010.60 0.07433
1010.70 0.07423
1010.80 0.07412
1010.90 0.07402
1011.00 0.07392
1011.10 0.07381
1011.20 0.07371
1011.30 0.0736
1011.40 0.0735
1011.50 0.07339
1011.60 0.07329
1011.70 0.07319
1011.80 0.07309
1011.90 0.07299
1012.00 0.07289
1012.10 0.07279
1012.20 0.07269
1012.30 0.07259
1012.40 0.0725
1012.50 0.0724
1012.60 0.0723
1012.70 0.0722
1012.80 0.0721
1012.90 0.07201
1013.00 0.07191
1013.10 0.07181
1013.20 0.07171
1013.30 0.07162
1013.40 0.07152
1013.50 0.07142
1013.60 0.07133
1013.70 0.07123
1013.80 0.07114
1013.90 0.07104
1014.00 0.07095
1014.10 0.07086
1014.20 0.07076
1014.30 0.07067
1014.40 0.07058
1014.50 0.07048
1014.60 0.07039
1014.70 0.07031
1014.80 0.07023
1014.90 0.07015
1015.00 0.07006
1015.10 0.06998
1015.20 0.0699
1015.30 0.06982
1015.40 0.06974
1015.50 0.06966
1015.60 0.06958
1015.70 0.0695
1015.80 0.06942
1015.90 0.06934
1016.00 0.06926
1016.10 0.06918
1016.20 0.0691
1016.30 0.06902
1016.40 0.06894
1016.50 0.06886
1016.60 0.06878
1016.70 0.06869
1016.80 0.06861
1016.90 0.06852
1017.00 0.06843
1017.10 0.06834
1017.20 0.06826
1017.30 0.06817
1017.40 0.06808
1017.50 0.068
1017.60 0.06791
1017.70 0.06783
1017.80 0.06774
1017.90 0.06765
1018.00 0.06757
1018.10 0.06748
1018.20 0.06739
1018.30 0.06731
1018.40 0.06722
1018.50 0.06714
1018.60 0.06705
1018.70 0.06697
1018.80 0.06688
1018.90 0.0668
1019.00 0.06671
1019.10 0.06663
1019.20 0.06655
1019.30 0.06646
1019.40 0.06638
1019.50 0.0663
1019.60 0.06621
1019.70 0.06613
1019.80 0.06605
1019.90 0.06596
1020.00 0.06588
1020.10 0.0658
1020.20 0.06571
1020.30 0.06563
1020.40 0.06555
1020.50 0.06546
1020.60 0.06538
1020.70 0.0653
1020.80 0.06522
1020.90 0.06514
1021.00 0.06505
1021.10 0.06497
1021.20 0.06489
1021.30 0.06481
1021.40 0.06473
1021.50 0.06465
1021.60 0.06457
1021.70 0.06449
1021.80 0.06441
1021.90 0.06432
1022.00 0.06424
1022.10 0.06417
1022.20 0.06409
1022.30 0.06401
1022.40 0.06393
1022.50 0.06385
1022.60 0.06377
1022.70 0.06369
1022.80 0.06362
1022.90 0.06354
1023.00 0.06346
1023.10 0.06338
1023.20 0.0633
1023.30 0.06322
1023.40 0.06315
1023.50 0.06307
1023.60 0.06299
1023.70 0.06291
1023.80 0.06283
1023.90 0.06275
1024.00 0.06268
1024.10 0.0626
1024.20 0.06252
1024.30 0.06244
1024.40 0.06236
1024.50 0.06229
1024.60 0.06221
1024.70 0.06213
1024.80 0.06205
1024.90 0.06198
1025.00 0.0619
1025.10 0.06182
1025.20 0.06175
1025.30 0.06167
1025.40 0.06159
1025.50 0.06151
1025.60 0.06144
1025.70 0.06136
1025.80 0.06128
1025.90 0.06121
1026.00 0.06113
1026.10 0.06105
1026.20 0.06098
1026.30 0.0609
1026.40 0.06082
1026.50 0.06075
1026.60 0.06067
1026.70 0.06059
1026.80 0.06052
1026.90 0.06044
1027.00 0.06036
1027.10 0.06029
1027.20 0.06022
1027.30 0.06015
1027.40 0.06008
1027.50 0.06001
1027.60 0.05994
1027.70 0.05987
1027.80 0.05981
1027.90 0.05974
1028.00 0.05967
1028.10 0.0596
1028.20 0.05953
1028.30 0.05946
1028.40 0.05939
1028.50 0.05932
1028.60 0.05925
1028.70 0.05918
1028.80 0.05911
1028.90 0.05904
1029.00 0.05897
1029.10 0.0589
1029.20 0.05883
1029.30 0.05876
1029.40 0.05869
1029.50 0.05862
1029.60 0.05855
1029.70 0.05848
1029.80 0.05842
1029.90 0.05835
1030.00 0.05828
1030.10 0.05821
1030.20 0.05814
1030.30 0.05807
1030.40 0.058
1030.50 0.05793
1030.60 0.05786
1030.70 0.05779
1030.80 0.05772
1030.90 0.05766
1031.00 0.05759
1031.10 0.05752
1031.20 0.05745
1031.30 0.05738
1031.40 0.05731
1031.50 0.05724
1031.60 0.05717
1031.70 0.0571
1031.80 0.05704
1031.90 0.05697
1032.00 0.0569
1032.10 0.05684
1032.20 0.05677
1032.30 0.05671
1032.40 0.05665
1032.50 0.05658
1032.60 0.05652
1032.70 0.05646
1032.80 0.05639
1032.90 0.05633
1033.00 0.05627
1033.10 0.0562
1033.20 0.05614
1033.30 0.05608
1033.40 0.05601
1033.50 0.05595
1033.60 0.05589
1033.70 0.05582
1033.80 0.05576
1033.90 0.0557
1034.00 0.05563
1034.10 0.05557
1034.20 0.05551
1034.30 0.05545
1034.40 0.05538
1034.50 0.05532
1034.60 0.05526
1034.70 0.05519
1034.80 0.05513
1034.90 0.05507
1035.00 0.05501
1035.10 0.05494
1035.20 0.05488
1035.30 0.05482
1035.40 0.05475
1035.50 0.05469
1035.60 0.05463
1035.70 0.05457
1035.80 0.0545
1035.90 0.05444
1036.00 0.05438
1036.10 0.05432
1036.20 0.05425
1036.30 0.05419
1036.40 0.05413
1036.50 0.05407
1036.60 0.054
1036.70 0.05394
1036.80 0.05388
1036.90 0.05382
1037.00 0.05375
1037.10 0.0537
1037.20 0.05364
1037.30 0.05359
1037.40 0.05353
1037.50 0.05348
1037.60 0.05342
1037.70 0.05337
1037.80 0.05331
1037.90 0.05326
1038.00 0.0532
1038.10 0.05315
1038.20 0.05309
1038.30 0.05304
1038.40 0.05298
1038.50 0.05293
1038.60 0.05287
1038.70 0.05282
1038.80 0.05276
1038.90 0.05271
1039.00 0.05265
1039.10 0.0526
1039.20 0.05254
1039.30 0.05249
1039.40 0.05243
1039.50 0.05238
1039.60 0.05232
1039.70 0.05227
1039.80 0.05221
1039.90 0.05216
1040.00 0.0521
1040.10 0.05205
1040.20 0.05199
1040.30 0.05194
1040.40 0.05188
1040.50 0.05183
1040.60 0.05177
1040.70 0.05172
1040.80 0.05166
1040.90 0.05161
1041.00 0.05155
1041.10 0.0515
1041.20 0.05144
1041.30 0.05139
1041.40 0.05134
1041.50 0.05128
1041.60 0.05123
1041.70 0.05117
1041.80 0.05112
1041.90 0.05106
1042.00 0.05101
1042.10 0.05096
1042.20 0.05091
1042.30 0.05086
1042.40 0.05082
1042.50 0.05077
1042.60 0.05072
1042.70 0.05067
1042.80 0.05062
1042.90 0.05057
1043.00 0.05053
1043.10 0.05048
1043.20 0.05043
1043.30 0.05038
1043.40 0.05033
1043.50 0.05029
1043.60 0.05024
1043.70 0.05019
1043.80 0.05014
1043.90 0.05009
1044.00 0.05005
1044.10 0.05
1044.20 0.04995
1044.30 0.0499
1044.40 0.04985
1044.50 0.04981
1044.60 0.04976
1044.70 0.04971
1044.80 0.04966
1044.90 0.04961
1045.00 0.04957
1045.10 0.04952
1045.20 0.04947
1045.30 0.04942
1045.40 0.04937
1045.50 0.04933
1045.60 0.04928
1045.70 0.04923
1045.80 0.04918
1045.90 0.04914
1046.00 0.04909
1046.10 0.04904
1046.20 0.04899
1046.30 0.04895
1046.40 0.0489
1046.50 0.04885
1046.60 0.0488
1046.70 0.04876
1046.80 0.04871
1046.90 0.04866
1047.00 0.04861
1047.10 0.04857
1047.20 0.04853
1047.30 0.04849
1047.40 0.04845
1047.50 0.0484
1047.60 0.04836
1047.70 0.04832
1047.80 0.04828
1047.90 0.04824
1048.00 0.0482
1048.10 0.04816
1048.20 0.04811
1048.30 0.04807
1048.40 0.04803
1048.50 0.04799
1048.60 0.04795
1048.70 0.04791
1048.80 0.04786
1048.90 0.04782
1049.00 0.04778
1049.10 0.04774
1049.20 0.0477
1049.30 0.04766
1049.40 0.04762
1049.50 0.04758
1049.60 0.04753
1049.70 0.04749
1049.80 0.04745
1049.90 0.04741
1050.00 0.04737
1050.10 0.04733
1050.20 0.04729
1050.30 0.04725
1050.40 0.0472
1050.50 0.04716
1050.60 0.04712
1050.70 0.04708
1050.80 0.04704
1050.90 0.047
1051.00 0.04696
1051.10 0.04692
1051.20 0.04688
1051.30 0.04683
1051.40 0.04679
1051.50 0.04675
1051.60 0.04671
1051.70 0.04667
1051.80 0.04663
1051.90 0.04659
1052.00 0.04655
1052.10 0.04651
1052.20 0.04647
1052.30 0.04644
1052.40 0.0464
1052.50 0.04636
1052.60 0.04632
1052.70 0.04629
1052.80 0.04625
1052.90 0.04621
1053.00 0.04618
1053.10 0.04614
1053.20 0.0461
1053.30 0.04606
1053.40 0.04603
1053.50 0.04599
1053.60 0.04595
1053.70 0.04592
1053.80 0.04588
1053.90 0.04584
1054.00 0.0458
1054.10 0.04577
1054.20 0.04573
1054.30 0.04569
1054.40 0.04566
1054.50 0.04562
1054.60 0.04558
1054.70 0.04555
1054.80 0.04551
1054.90 0.04547
1055.00 0.04544
1055.10 0.0454
1055.20 0.04536
1055.30 0.04532
1055.40 0.04529
1055.50 0.04525
1055.60 0.04521
1055.70 0.04518
1055.80 0.04514
1055.90 0.0451
1056.00 0.04507
1056.10 0.04503
1056.20 0.04499
1056.30 0.04496
1056.40 0.04492
1056.50 0.04488
1056.60 0.04485
1056.70 0.04481
1056.80 0.04477
1056.90 0.04474
1057.00 0.0447
1057.10 0.04467
1057.20 0.04464
1057.30 0.0446
1057.40 0.04457
1057.50 0.04454
1057.60 0.0445
1057.70 0.04447
1057.80 0.04444
1057.90 0.04441
1058.00 0.04437
1058.10 0.04434
1058.20 0.04431
1058.30 0.04428
1058.40 0.04424
1058.50 0.04421
1058.60 0.04418
1058.70 0.04415
1058.80 0.04411
1058.90 0.04408
1059.00 0.04405
1059.10 0.04402
1059.20 0.04398
1059.30 0.04395
1059.40 0.04392
1059.50 0.04389
1059.60 0.04385
1059.70 0.04382
1059.80 0.04379
1059.90 0.04376
1060.00 0.04372
1060.10 0.04369
1060.20 0.04366
1060.30 0.04363
1060.40 0.0436
1060.50 0.04356
1060.60 0.04353
1060.70 0.0435
1060.80 0.04347
1060.90 0.04343
1061.00 0.0434
1061.10 0.04337
1061.20 0.04334
1061.30 0.04331
1061.40 0.04327
1061.50 0.04324
1061.60 0.04321
1061.70 0.04318
1061.80 0.04314
1061.90 0.04311
1062.00 0.04308
1062.10 0.04305
1062.20 0.04302
1062.30 0.043
1062.40 0.04297
1062.50 0.04294
1062.60 0.04291
1062.70 0.04288
1062.80 0.04285
1062.90 0.04283
1063.00 0.0428
1063.10 0.04277
1063.20 0.04274
1063.30 0.04271
1063.40 0.04269
1063.50 0.04266
1063.60 0.04263
1063.70 0.0426
1063.80 0.04257
1063.90 0.04255
1064.00 0.04252
1064.10 0.04249
1064.20 0.04246
1064.30 0.04243
1064.40 0.04241
1064.50 0.04238
1064.60 0.04235
1064.70 0.04232
1064.80 0.04229
1064.90 0.04227
1065.00 0.04224
1065.10 0.04221
1065.20 0.04218
1065.30 0.04215
1065.40 0.04213
1065.50 0.0421
1065.60 0.04207
1065.70 0.04204
1065.80 0.04201
1065.90 0.04199
1066.00 0.04196
1066.10 0.04193
1066.20 0.0419
1066.30 0.04188
1066.40 0.04185
1066.50 0.04182
1066.60 0.04179
1066.70 0.04176
1066.80 0.04174
1066.90 0.04171
1067.00 0.04168
1067.10 0.04166
1067.20 0.04163
1067.30 0.04161
1067.40 0.04158
1067.50 0.04156
1067.60 0.04153
1067.70 0.04151
1067.80 0.04148
1067.90 0.04145
1068.00 0.04143
1068.10 0.0414
1068.20 0.04138
1068.30 0.04135
1068.40 0.04133
1068.50 0.0413
1068.60 0.04128
1068.70 0.04125
1068.80 0.04123
1068.90 0.0412
1069.00 0.04118
1069.10 0.04115
1069.20 0.04113
1069.30 0.0411
1069.40 0.04108
1069.50 0.04105
1069.60 0.04103
1069.70 0.041
1069.80 0.04098
1069.90 0.04095
1070.00 0.04093
1070.10 0.0409
1070.20 0.04088
1070.30 0.04085
1070.40 0.04083
1070.50 0.0408
1070.60 0.04078
1070.70 0.04076
1070.80 0.04073
1070.90 0.04071
1071.00 0.04068
1071.10 0.04066
1071.20 0.04063
1071.30 0.04061
1071.40 0.04058
1071.50 0.04056
1071.60 0.04053
1071.70 0.04051
1071.80 0.04048
1071.90 0.04046
1072.00 0.04043
1072.10 0.04041
1072.20 0.04039
1072.30 0.04037
1072.40 0.04035
1072.50 0.04033
1072.60 0.04031
1072.70 0.04029
1072.80 0.04027
1072.90 0.04025
1073.00 0.04023
1073.10 0.04021
1073.20 0.04019
1073.30 0.04017
1073.40 0.04015
1073.50 0.04013
1073.60 0.04011
1073.70 0.0401
1073.80 0.04008
1073.90 0.04006
1074.00 0.04004
1074.10 0.04003
1074.20 0.04001
1074.30 0.03999
1074.40 0.03997
1074.50 0.03996
1074.60 0.03994
1074.70 0.03992
1074.80 0.03991
1074.90 0.03989
1075.00 0.03987
1075.10 0.03985
1075.20 0.03984
1075.30 0.03982
1075.40 0.0398
1075.50 0.03978
1075.60 0.03977
1075.70 0.03975
1075.80 0.03973
1075.90 0.03971
1076.00 0.0397
1076.10 0.03968
1076.20 0.03966
1076.30 0.03965
1076.40 0.03963
1076.50 0.03961
1076.60 0.03959
1076.70 0.03958
1076.80 0.03956
1076.90 0.03954
1077.00 0.03952
1077.10 0.03951
1077.20 0.03949
1077.30 0.03948
1077.40 0.03946
1077.50 0.03945
1077.60 0.03943
1077.70 0.03942
1077.80 0.03941
1077.90 0.03939
1078.00 0.03938
1078.10 0.03937
1078.20 0.03935
1078.30 0.03934
1078.40 0.03932
1078.50 0.03931
1078.60 0.0393
1078.70 0.03928
1078.80 0.03927
1078.90 0.03925
1079.00 0.03924
1079.10 0.03923
1079.20 0.03921
1079.30 0.0392
1079.40 0.03919
1079.50 0.03917
1079.60 0.03916
1079.70 0.03915
1079.80 0.03914
1079.90 0.03913
1080.00 0.03912
1080.10 0.03911
1080.20 0.0391
1080.30 0.03909
1080.40 0.03908
1080.50 0.03907
1080.60 0.03906
1080.70 0.03905
1080.80 0.03904
1080.90 0.03903
1081.00 0.03902
1081.10 0.03901
1081.20 0.039
1081.30 0.03899
1081.40 0.03898
1081.50 0.03897
1081.60 0.03896
1081.70 0.03895
1081.80 0.03893
1081.90 0.03892
1082.00 0.03891
1082.10 0.0389
1082.20 0.03889
1082.30 0.03888
1082.40 0.03888
1082.50 0.03887
1082.60 0.03886
1082.70 0.03885
1082.80 0.03884
1082.90 0.03883
1083.00 0.03882
1083.10 0.03881
1083.20 0.0388
1083.30 0.03879
1083.40 0.03878
1083.50 0.03877
1083.60 0.03876
1083.70 0.03875
1083.80 0.03875
1083.90 0.03874
1084.00 0.03873
1084.10 0.03872
1084.20 0.03871
1084.30 0.0387
1084.40 0.0387
1084.50 0.03869
1084.60 0.03868
1084.70 0.03867
1084.80 0.03867
1084.90 0.03866
1085.00 0.03865
1085.10 0.03865
1085.20 0.03864
1085.30 0.03863
1085.40 0.03862
1085.50 0.03862
1085.60 0.03861
1085.70 0.0386
1085.80 0.0386
1085.90 0.03859
1086.00 0.03858
1086.10 0.03857
1086.20 0.03857
1086.30 0.03856
1086.40 0.03855
1086.50 0.03855
1086.60 0.03854
1086.70 0.03853
1086.80 0.03853
1086.90 0.03852
1087.00 0.03852
1087.10 0.03851
1087.20 0.03851
1087.30 0.0385
1087.40 0.0385
1087.50 0.03849
1087.60 0.03848
1087.70 0.03848
1087.80 0.03847
1087.90 0.03847
1088.00 0.03846
1088.10 0.03846
1088.20 0.03845
1088.30 0.03845
1088.40 0.03844
1088.50 0.03844
1088.60 0.03843
1088.70 0.03843
1088.80 0.03843
1088.90 0.03842
1089.00 0.03842
1089.10 0.03842
1089.20 0.03841
1089.30 0.03841
1089.40 0.03841
1089.50 0.0384
1089.60 0.0384
1089.70 0.03839
1089.80 0.03839
1089.90 0.03839
1090.00 0.03838
1090.10 0.03838
1090.20 0.03838
1090.30 0.03837
1090.40 0.03837
1090.50 0.03837
1090.60 0.03836
1090.70 0.03836
1090.80 0.03836
1090.90 0.03836
1091.00 0.03836
1091.10 0.03835
1091.20 0.03835
1091.30 0.03835
1091.40 0.03835
1091.50 0.03834
1091.60 0.03834
1091.70 0.03834
1091.80 0.03834
1091.90 0.03834
1092.00 0.03833
1092.10 0.03833
1092.20 0.03833
1092.30 0.03833
1092.40 0.03833
1092.50 0.03833
1092.60 0.03833
1092.70 0.03833
1092.80 0.03835
1092.90 0.03837
1093.00 0.03839
1093.10 0.0384
1093.20 0.0384
1093.30 0.0384
1093.40 0.0384
1093.50 0.0384
1093.60 0.0384
1093.70 0.0384
1093.80 0.0384
1093.90 0.0384
1094.00 0.0384
1094.10 0.0384
1094.20 0.0384
1094.30 0.0384
1094.40 0.0384
1094.50 0.0384
1094.60 0.0384
1094.70 0.0384
1094.80 0.0384
1094.90 0.0384
1095.00 0.0384
1095.10 0.0384
1095.20 0.0384
1095.30 0.0384
1095.40 0.0384
1095.50 0.0384
1095.60 0.0384
1095.70 0.0384
1095.80 0.0384
1095.90 0.0384
1096.00 0.0384
1096.10 0.0384
1096.20 0.0384
1096.30 0.0384
1096.40 0.0384
1096.50 0.0384
1096.60 0.0384
1096.70 0.0384
1096.80 0.03841
1096.90 0.03841
1097.00 0.03841
1097.10 0.03841
1097.20 0.03841
1097.30 0.03841
1097.40 0.03841
1097.50 0.03841
1097.60 0.03841
1097.70 0.03842
1097.80 0.03842
1097.90 0.03842
1098.00 0.03842
1098.10 0.03842
1098.20 0.03842
1098.30 0.03842
1098.40 0.03842
1098.50 0.03843
1098.60 0.03843
1098.70 0.03843
1098.80 0.03843
1098.90 0.03843
1099.00 0.03844
1099.10 0.03844
1099.20 0.03844
1099.30 0.03844
1099.40 0.03844
1099.50 0.03845
1099.60 0.03845
1099.70 0.03845
1099.80 0.03845
1099.90 0.03845
1100.00 0.03846
1100.10 0.03846
1100.20 0.03846
1100.30 0.03846
1100.40 0.03846
1100.50 0.03847
1100.60 0.03847
1100.70 0.03847
1100.80 0.03847
1100.90 0.03848
1101.00 0.03848
1101.10 0.03848
1101.20 0.03848
1101.30 0.03849
1101.40 0.03849
1101.50 0.03849
1101.60 0.0385
1101.70 0.0385
1101.80 0.0385
1101.90 0.0385
1102.00 0.03851
1102.10 0.03851
1102.20 0.03851
1102.30 0.03851
1102.40 0.03852
1102.50 0.03852
1102.60 0.03852
1102.70 0.03853
1102.80 0.03853
1102.90 0.03853
1103.00 0.03854
1103.10 0.03854
1103.20 0.03855
1103.30 0.03855
1103.40 0.03855
1103.50 0.03856
1103.60 0.03856
1103.70 0.03856
1103.80 0.03857
1103.90 0.03857
1104.00 0.03857
1104.10 0.03858
1104.20 0.03858
1104.30 0.03859
1104.40 0.03859
1104.50 0.03859
1104.60 0.0386
1104.70 0.0386
1104.80 0.0386
1104.90 0.03861
1105.00 0.03861
1105.10 0.03861
1105.20 0.03862
1105.30 0.03862
1105.40 0.03863
1105.50 0.03863
1105.60 0.03863
1105.70 0.03864
1105.80 0.03864
1105.90 0.03865
1106.00 0.03865
1106.10 0.03866
1106.20 0.03866
1106.30 0.03867
1106.40 0.03867
1106.50 0.03868
1106.60 0.03868
1106.70 0.03869
1106.80 0.03869
1106.90 0.03869
1107.00 0.0387
1107.10 0.0387
1107.20 0.03871
1107.30 0.03872
1107.40 0.03872
1107.50 0.03873
1107.60 0.03873
1107.70 0.03874
1107.80 0.03874
1107.90 0.03875
1108.00 0.03875
1108.10 0.03876
1108.20 0.03877
1108.30 0.03877
1108.40 0.03878
1108.50 0.03878
1108.60 0.03879
1108.70 0.03879
1108.80 0.0388
1108.90 0.0388
1109.00 0.03881
1109.10 0.03882
1109.20 0.03882
1109.30 0.03883
1109.40 0.03883
1109.50 0.03884
1109.60 0.03885
1109.70 0.03885
1109.80 0.03886
1109.90 0.03887
1110.00 0.03887
1110.10 0.03888
1110.20 0.03889
1110.30 0.03889
1110.40 0.0389
1110.50 0.0389
1110.60 0.03891
1110.70 0.03892
1110.80 0.03892
1110.90 0.03893
1111.00 0.03894
1111.10 0.03894
1111.20 0.03895
1111.30 0.03896
1111.40 0.03896
1111.50 0.03897
1111.60 0.03898
1111.70 0.03898
1111.80 0.03899
1111.90 0.039
1112.00 0.039
1112.10 0.03901
1112.20 0.03902
1112.30 0.03903
1112.40 0.03903
1112.50 0.03904
1112.60 0.03905
1112.70 0.03906
1112.80 0.03906
1112.90 0.03907
1113.00 0.03908
1113.10 0.03909
1113.20 0.03909
1113.30 0.0391
1113.40 0.03911
1113.50 0.03912
1113.60 0.03912
1113.70 0.03913
1113.80 0.03914
1113.90 0.03915
1114.00 0.03916
1114.10 0.03917
1114.20 0.03918
1114.30 0.03918
1114.40 0.03919
1114.50 0.0392
1114.60 0.03921
1114.70 0.03922
1114.80 0.03923
1114.90 0.03924
1115.00 0.03924
1115.10 0.03925
1115.20 0.03926
1115.30 0.03927
1115.40 0.03928
1115.50 0.03929
1115.60 0.03929
1115.70 0.0393
1115.80 0.03931
1115.90 0.03932
1116.00 0.03933
1116.10 0.03934
1116.20 0.03935
1116.30 0.03935
1116.40 0.03936
1116.50 0.03937
1116.60 0.03938
1116.70 0.03939
1116.80 0.0394
1116.90 0.0394
1117.00 0.03941
1117.10 0.03942
1117.20 0.03943
1117.30 0.03944
1117.40 0.03945
1117.50 0.03946
1117.60 0.03947
1117.70 0.03948
1117.80 0.03949
1117.90 0.0395
1118.00 0.03951
1118.10 0.03952
1118.20 0.03953
1118.30 0.03954
1118.40 0.03955
1118.50 0.03956
1118.60 0.03957
1118.70 0.03958
1118.80 0.03959
1118.90 0.0396
1119.00 0.03961
1119.10 0.03962
1119.20 0.03963
1119.30 0.03964
1119.40 0.03965
1119.50 0.03966
1119.60 0.03967
1119.70 0.03968
1119.80 0.03969
1119.90 0.0397
1120.00 0.03971
1120.10 0.03972
1120.20 0.03973
1120.30 0.03974
1120.40 0.03975
1120.50 0.03976
1120.60 0.03977
1120.70 0.03978
1120.80 0.03979
1120.90 0.0398
1121.00 0.03981
1121.10 0.03982
1121.20 0.03983
1121.30 0.03984
1121.40 0.03985
1121.50 0.03986
1121.60 0.03987
1121.70 0.03988
1121.80 0.03989
1121.90 0.0399
1122.00 0.03991
1122.10 0.03993
1122.20 0.03994
1122.30 0.03995
1122.40 0.03997
1122.50 0.03998
1122.60 0.04
1122.70 0.04001
1122.80 0.04002
1122.90 0.04004
1123.00 0.04005
1123.10 0.04007
1123.20 0.04008
1123.30 0.04009
1123.40 0.04011
1123.50 0.04012
1123.60 0.04014
1123.70 0.04015
1123.80 0.04016
1123.90 0.04018
1124.00 0.04019
1124.10 0.04021
1124.20 0.04022
1124.30 0.04023
1124.40 0.04025
1124.50 0.04026
1124.60 0.04028
1124.70 0.04029
1124.80 0.0403
1124.90 0.04032
1125.00 0.04033
1125.10 0.04035
1125.20 0.04036
1125.30 0.04037
1125.40 0.04039
1125.50 0.0404
1125.60 0.04042
1125.70 0.04043
1125.80 0.04044
1125.90 0.04046
1126.00 0.04047
1126.10 0.04049
1126.20 0.0405
1126.30 0.04051
1126.40 0.04053
1126.50 0.04054
1126.60 0.04055
1126.70 0.04057
1126.80 0.04058
1126.90 0.0406
1127.00 0.04061
1127.10 0.04063
1127.20 0.04065
1127.30 0.04067
1127.40 0.04068
1127.50 0.0407
1127.60 0.04072
1127.70 0.04074
1127.80 0.04076
1127.90 0.04078
1128.00 0.0408
1128.10 0.04081
1128.20 0.04083
1128.30 0.04085
1128.40 0.04087
1128.50 0.04089
1128.60 0.04091
1128.70 0.04093
1128.80 0.04094
1128.90 0.04096
1129.00 0.04098
1129.10 0.041
1129.20 0.04102
1129.30 0.04104
1129.40 0.04106
1129.50 0.04107
1129.60 0.04109
1129.70 0.04111
1129.80 0.04113
1129.90 0.04115
1130.00 0.04117
1130.10 0.04118
1130.20 0.0412
1130.30 0.04122
1130.40 0.04124
1130.50 0.04126
1130.60 0.04128
1130.70 0.04129
1130.80 0.04131
1130.90 0.04133
1131.00 0.04135
1131.10 0.04137
1131.20 0.04139
1131.30 0.04141
1131.40 0.04142
1131.50 0.04144
1131.60 0.04146
1131.70 0.04148
1131.80 0.0415
1131.90 0.04152
1132.00 0.04153
1132.10 0.04155
1132.20 0.04157
1132.30 0.04159
1132.40 0.04161
1132.50 0.04163
1132.60 0.04165
1132.70 0.04167
1132.80 0.04168
1132.90 0.0417
1133.00 0.04172
1133.10 0.04174
1133.20 0.04176
1133.30 0.04178
1133.40 0.0418
1133.50 0.04182
1133.60 0.04183
1133.70 0.04185
1133.80 0.04187
1133.90 0.04189
1134.00 0.04191
1134.10 0.04193
1134.20 0.04195
1134.30 0.04197
1134.40 0.04198
1134.50 0.042
1134.60 0.04202
1134.70 0.04204
1134.80 0.04206
1134.90 0.04208
1135.00 0.0421
1135.10 0.04212
1135.20 0.04213
1135.30 0.04215
1135.40 0.04217
1135.50 0.04219
1135.60 0.04221
1135.70 0.04223
1135.80 0.04225
1135.90 0.04226
1136.00 0.04228
1136.10 0.0423
1136.20 0.04232
1136.30 0.04234
1136.40 0.04236
1136.50 0.04238
1136.60 0.04239
1136.70 0.04241
1136.80 0.04243
1136.90 0.04245
1137.00 0.04247
1137.10 0.04249
1137.20 0.04251
1137.30 0.04253
1137.40 0.04255
1137.50 0.04257
1137.60 0.04259
1137.70 0.04261
1137.80 0.04263
1137.90 0.04265
1138.00 0.04267
1138.10 0.04269
1138.20 0.04271
1138.30 0.04273
1138.40 0.04275
1138.50 0.04277
1138.60 0.04279
1138.70 0.04281
1138.80 0.04283
1138.90 0.04285
1139.00 0.04287
1139.10 0.04289
1139.20 0.04291
1139.30 0.04293
1139.40 0.04295
1139.50 0.04297
1139.60 0.04299
1139.70 0.04301
1139.80 0.04303
1139.90 0.04305
1140.00 0.04307
1140.10 0.04309
1140.20 0.04311
1140.30 0.04313
1140.40 0.04315
1140.50 0.04317
1140.60 0.04319
1140.70 0.04321
1140.80 0.04323
1140.90 0.04325
1141.00 0.04327
1141.10 0.04329
1141.20 0.04331
1141.30 0.04333
1141.40 0.04335
1141.50 0.04337
1141.60 0.04339
1141.70 0.04341
1141.80 0.04343
1141.90 0.04345
1142.00 0.04347
1142.10 0.0435
1142.20 0.04352
1142.30 0.04354
1142.40 0.04357
1142.50 0.04359
1142.60 0.04361
1142.70 0.04363
1142.80 0.04366
1142.90 0.04368
1143.00 0.0437
1143.10 0.04373
1143.20 0.04375
1143.30 0.04377
1143.40 0.04379
1143.50 0.04382
1143.60 0.04384
1143.70 0.04386
1143.80 0.04389
1143.90 0.04391
1144.00 0.04393
1144.10 0.04395
1144.20 0.04398
1144.30 0.044
1144.40 0.04402
1144.50 0.04405
1144.60 0.04407
1144.70 0.04409
1144.80 0.04411
1144.90 0.04414
1145.00 0.04416
1145.10 0.04418
1145.20 0.0442
1145.30 0.04423
1145.40 0.04425
1145.50 0.04427
1145.60 0.04429
1145.70 0.04432
1145.80 0.04434
1145.90 0.04436
1146.00 0.04439
1146.10 0.04441
1146.20 0.04443
1146.30 0.04445
1146.40 0.04448
1146.50 0.0445
1146.60 0.04452
1146.70 0.04454
1146.80 0.04457
1146.90 0.04459
1147.00 0.04461
1147.10 0.04463
1147.20 0.04465
1147.30 0.04467
1147.40 0.04469
1147.50 0.04471
1147.60 0.04473
1147.70 0.04475
1147.80 0.04477
1147.90 0.04479
1148.00 0.04481
1148.10 0.04483
1148.20 0.04485
1148.30 0.04487
1148.40 0.04489
1148.50 0.04491
1148.60 0.04493
1148.70 0.04495
1148.80 0.04497
1148.90 0.04499
1149.00 0.04501
1149.10 0.04503
1149.20 0.04505
1149.30 0.04506
1149.40 0.04508
1149.50 0.0451
1149.60 0.04512
1149.70 0.04514
1149.80 0.04516
1149.90 0.04518
1150.00 0.0452
1150.10 0.04522
1150.20 0.04524
1150.30 0.04526
1150.40 0.04528
1150.50 0.0453
1150.60 0.04532
1150.70 0.04534
1150.80 0.04536
1150.90 0.04538
1151.00 0.0454
1151.10 0.04542
1151.20 0.04544
1151.30 0.04546
1151.40 0.04548
1151.50 0.04549
1151.60 0.04551
1151.70 0.04553
1151.80 0.04555
1151.90 0.04557
1152.00 0.04559
1152.10 0.04561
1152.20 0.04563
1152.30 0.04565
1152.40 0.04567
1152.50 0.04569
1152.60 0.04571
1152.70 0.04573
1152.80 0.04575
1152.90 0.04577
1153.00 0.04579
1153.10 0.04582
1153.20 0.04584
1153.30 0.04586
1153.40 0.04588
1153.50 0.0459
1153.60 0.04592
1153.70 0.04594
1153.80 0.04596
1153.90 0.04598
1154.00 0.046
1154.10 0.04602
1154.20 0.04604
1154.30 0.04606
1154.40 0.04608
1154.50 0.0461
1154.60 0.04612
1154.70 0.04614
1154.80 0.04616
1154.90 0.04618
1155.00 0.0462
1155.10 0.04622
1155.20 0.04624
1155.30 0.04626
1155.40 0.04628
1155.50 0.0463
1155.60 0.04632
1155.70 0.04634
1155.80 0.04636
1155.90 0.04638
1156.00 0.0464
1156.10 0.04642
1156.20 0.04644
1156.30 0.04646
1156.40 0.04648
1156.50 0.0465
1156.60 0.04652
1156.70 0.04654
1156.80 0.04656
1156.90 0.04658
1157.00 0.0466
1157.10 0.04661
1157.20 0.04663
1157.30 0.04665
1157.40 0.04666
1157.50 0.04668
1157.60 0.0467
1157.70 0.04671
1157.80 0.04673
1157.90 0.04675
1158.00 0.04676
1158.10 0.04678
1158.20 0.04679
1158.30 0.04681
1158.40 0.04683
1158.50 0.04684
1158.60 0.04686
1158.70 0.04687
1158.80 0.04689
1158.90 0.04691
1159.00 0.04692
1159.10 0.04694
1159.20 0.04696
1159.30 0.04697
1159.40 0.04699
1159.50 0.047
1159.60 0.04702
1159.70 0.04704
1159.80 0.04705
1159.90 0.04707
1160.00 0.04709
1160.10 0.0471
1160.20 0.04712
1160.30 0.04713
1160.40 0.04715
1160.50 0.04717
1160.60 0.04718
1160.70 0.0472
1160.80 0.04721
1160.90 0.04723
1161.00 0.04725
1161.10 0.04726
1161.20 0.04728
1161.30 0.04729
1161.40 0.04731
1161.50 0.04733
1161.60 0.04734
1161.70 0.04736
1161.80 0.04737
1161.90 0.04739
1162.00 0.04741
1162.10 0.04742
1162.20 0.04743
1162.30 0.04745
1162.40 0.04746
1162.50 0.04747
1162.60 0.04749
1162.70 0.0475
1162.80 0.04751
1162.90 0.04753
1163.00 0.04754
1163.10 0.04755
1163.20 0.04757
1163.30 0.04758
1163.40 0.04759
1163.50 0.04761
1163.60 0.04762
1163.70 0.04763
1163.80 0.04765
1163.90 0.04766
1164.00 0.04767
1164.10 0.04769
1164.20 0.0477
1164.30 0.04771
1164.40 0.04773
1164.50 0.04774
1164.60 0.04775
1164.70 0.04777
1164.80 0.04778
1164.90 0.04779
1165.00 0.04781
1165.10 0.04782
1165.20 0.04783
1165.30 0.04785
1165.40 0.04786
1165.50 0.04787
1165.60 0.04789
1165.70 0.0479
1165.80 0.04791
1165.90 0.04793
1166.00 0.04794
1166.10 0.04795
1166.20 0.04796
1166.30 0.04798
1166.40 0.04799
1166.50 0.048
1166.60 0.04802
1166.70 0.04803
1166.80 0.04804
1166.90 0.04806
1167.00 0.04807
1167.10 0.04808
1167.20 0.0481
1167.30 0.04811
1167.40 0.04812
1167.50 0.04813
1167.60 0.04814
1167.70 0.04816
1167.80 0.04817
1167.90 0.04818
1168.00 0.04819
1168.10 0.04821
1168.20 0.04822
1168.30 0.04823
1168.40 0.04824
1168.50 0.04826
1168.60 0.04827
1168.70 0.04828
1168.80 0.04829
1168.90 0.04831
1169.00 0.04832
1169.10 0.04833
1169.20 0.04834
1169.30 0.04835
1169.40 0.04837
1169.50 0.04838
1169.60 0.04839
1169.70 0.0484
1169.80 0.04842
1169.90 0.04843
1170.00 0.04844
1170.10 0.04845
1170.20 0.04846
1170.30 0.04848
1170.40 0.04849
1170.50 0.0485
1170.60 0.04851
1170.70 0.04853
1170.80 0.04854
1170.90 0.04855
1171.00 0.04856
1171.10 0.04858
1171.20 0.04859
1171.30 0.0486
1171.40 0.04861
1171.50 0.04862
1171.60 0.04864
1171.70 0.04865
1171.80 0.04866
1171.90 0.04867
1172.00 0.04868
1172.10 0.04869
1172.20 0.0487
1172.30 0.0487
1172.40 0.04871
1172.50 0.04871
1172.60 0.04872
1172.70 0.04872
1172.80 0.04873
1172.90 0.04873
1173.00 0.04874
1173.10 0.04874
1173.20 0.04875
1173.30 0.04875
1173.40 0.04876
1173.50 0.04876
1173.60 0.04877
1173.70 0.04877
1173.80 0.04878
1173.90 0.04878
1174.00 0.04879
1174.10 0.04879
1174.20 0.0488
1174.30 0.0488
1174.40 0.04881
1174.50 0.04881
1174.60 0.04882
1174.70 0.04882
1174.80 0.04883
1174.90 0.04883
1175.00 0.04884
1175.10 0.04884
1175.20 0.04885
1175.30 0.04886
1175.40 0.04886
1175.50 0.04887
1175.60 0.04887
1175.70 0.04888
1175.80 0.04888
1175.90 0.04889
1176.00 0.04889
1176.10 0.0489
1176.20 0.0489
1176.30 0.04891
1176.40 0.04891
1176.50 0.04892
1176.60 0.04892
1176.70 0.04893
1176.80 0.04893
1176.90 0.04894
1177.00 0.04894
1177.10 0.04894
1177.20 0.04894
1177.30 0.04894
1177.40 0.04894
1177.50 0.04894
1177.60 0.04894
1177.70 0.04894
1177.80 0.04894
1177.90 0.04894
1178.00 0.04894
1178.10 0.04894
1178.20 0.04894
1178.30 0.04894
1178.40 0.04894
1178.50 0.04894
1178.60 0.04894
1178.70 0.04894
1178.80 0.04894
1178.90 0.04894
1179.00 0.04894
1179.10 0.04894
1179.20 0.04894
1179.30 0.04894
1179.40 0.04894
1179.50 0.04894
1179.60 0.04894
1179.70 0.04894
1179.80 0.04894
1179.90 0.04894
1180.00 0.04894
1180.10 0.04894
1180.20 0.04894
1180.30 0.04894
1180.40 0.04894
1180.50 0.04894
1180.60 0.04894
1180.70 0.04894
1180.80 0.04894
1180.90 0.04894
1181.00 0.04894
1181.10 0.04894
1181.20 0.04894
1181.30 0.04894
1181.40 0.04894
1181.50 0.04894
1181.60 0.04894
1181.70 0.04894
1181.80 0.04894
1181.90 0.04894
1182.00 0.04894
1182.10 0.04893
1182.20 0.04892
1182.30 0.04892
1182.40 0.04891
1182.50 0.0489
1182.60 0.04889
1182.70 0.04889
1182.80 0.04888
1182.90 0.04887
1183.00 0.04886
1183.10 0.04886
1183.20 0.04885
1183.30 0.04884
1183.40 0.04883
1183.50 0.04882
1183.60 0.04882
1183.70 0.04881
1183.80 0.0488
1183.90 0.04879
1184.00 0.04879
1184.10 0.04878
1184.20 0.04877
1184.30 0.04876
1184.40 0.04876
1184.50 0.04875
1184.60 0.04874
1184.70 0.04873
1184.80 0.04873
1184.90 0.04872
1185.00 0.04871
1185.10 0.0487
1185.20 0.0487
1185.30 0.04869
1185.40 0.04868
1185.50 0.04867
1185.60 0.04866
1185.70 0.04866
1185.80 0.04865
1185.90 0.04864
1186.00 0.04863
1186.10 0.04863
1186.20 0.04862
1186.30 0.04861
1186.40 0.0486
1186.50 0.0486
1186.60 0.04859
1186.70 0.04858
1186.80 0.04857
1186.90 0.04857
1187.00 0.04856
1187.10 0.04855
1187.20 0.04855
1187.30 0.04854
1187.40 0.04854
1187.50 0.04853
1187.60 0.04852
1187.70 0.04852
1187.80 0.04851
1187.90 0.04851
1188.00 0.0485
1188.10 0.0485
1188.20 0.04849
1188.30 0.04848
1188.40 0.04848
1188.50 0.04847
1188.60 0.04847
1188.70 0.04846
1188.80 0.04846
1188.90 0.04845
1189.00 0.04844
1189.10 0.04844
1189.20 0.04843
1189.30 0.04843
1189.40 0.04842
1189.50 0.04842
1189.60 0.04841
1189.70 0.0484
1189.80 0.0484
1189.90 0.04839
1190.00 0.04839
1190.10 0.04838
1190.20 0.04838
1190.30 0.04837
1190.40 0.04837
1190.50 0.04836
1190.60 0.04835
1190.70 0.04835
1190.80 0.04834
1190.90 0.04834
1191.00 0.04833
1191.10 0.04833
1191.20 0.04832
1191.30 0.04831
1191.40 0.04831
1191.50 0.0483
1191.60 0.0483
1191.70 0.04829
1191.80 0.04829
1191.90 0.04828
1192.00 0.04827
1192.10 0.04827
1192.20 0.04826
1192.30 0.04825
1192.40 0.04825
1192.50 0.04824
1192.60 0.04823
1192.70 0.04823
1192.80 0.04822
1192.90 0.04821
1193.00 0.0482
1193.10 0.0482
1193.20 0.04819
1193.30 0.04818
1193.40 0.04818
1193.50 0.04817
1193.60 0.04816
1193.70 0.04815
1193.80 0.04815
1193.90 0.04814
1194.00 0.04813
1194.10 0.04813
1194.20 0.04812
1194.30 0.04811
1194.40 0.04811
1194.50 0.0481
1194.60 0.04809
1194.70 0.04808
1194.80 0.04808
1194.90 0.04807
1195.00 0.04806
1195.10 0.04806
1195.20 0.04805
1195.30 0.04804
1195.40 0.04804
1195.50 0.04803
1195.60 0.04802
1195.70 0.04801
1195.80 0.04801
1195.90 0.048
1196.00 0.04799
1196.10 0.04799
1196.20 0.04798
1196.30 0.04797
1196.40 0.04797
1196.50 0.04796
1196.60 0.04795
1196.70 0.04794
1196.80 0.04794
1196.90 0.04793
1197.00 0.04792
1197.10 0.04791
1197.20 0.0479
1197.30 0.04789
1197.40 0.04788
1197.50 0.04786
1197.60 0.04785
1197.70 0.04784
1197.80 0.04783
1197.90 0.04782
1198.00 0.04781
1198.10 0.04779
1198.20 0.04778
1198.30 0.04777
1198.40 0.04776
1198.50 0.04775
1198.60 0.04774
1198.70 0.04772
1198.80 0.04771
1198.90 0.0477
1199.00 0.04769
1199.10 0.04768
1199.20 0.04767
1199.30 0.04765
1199.40 0.04764
1199.50 0.04763
1199.60 0.04762
1199.70 0.04761
1199.80 0.0476
1199.90 0.04758
1200.00 0
