# Version 2.1 - nm, norm@500 to 1, cut digits, bergeron_85000_80.dat_85000
# Wavelength(nm)  Flambda(ergs/cm^s/s/nm)
300.00 6.716
300.10 6.708
300.20 6.699
300.30 6.691
300.40 6.683
300.50 6.674
300.60 6.666
300.70 6.658
300.80 6.649
300.90 6.641
301.00 6.633
301.10 6.625
301.20 6.616
301.30 6.608
301.40 6.6
301.50 6.592
301.60 6.584
301.70 6.576
301.80 6.567
301.90 6.559
302.00 6.551
302.10 6.543
302.20 6.535
302.30 6.527
302.40 6.519
302.50 6.511
302.60 6.503
302.70 6.495
302.80 6.487
302.90 6.479
303.00 6.471
303.10 6.463
303.20 6.455
303.30 6.447
303.40 6.439
303.50 6.431
303.60 6.423
303.70 6.415
303.80 6.407
303.90 6.399
304.00 6.391
304.10 6.384
304.20 6.376
304.30 6.368
304.40 6.36
304.50 6.352
304.60 6.344
304.70 6.337
304.80 6.329
304.90 6.321
305.00 6.313
305.10 6.306
305.20 6.298
305.30 6.29
305.40 6.282
305.50 6.275
305.60 6.267
305.70 6.259
305.80 6.252
305.90 6.244
306.00 6.236
306.10 6.229
306.20 6.221
306.30 6.214
306.40 6.206
306.50 6.198
306.60 6.191
306.70 6.183
306.80 6.176
306.90 6.168
307.00 6.161
307.10 6.153
307.20 6.146
307.30 6.138
307.40 6.131
307.50 6.123
307.60 6.116
307.70 6.108
307.80 6.101
307.90 6.094
308.00 6.086
308.10 6.079
308.20 6.071
308.30 6.064
308.40 6.057
308.50 6.049
308.60 6.042
308.70 6.035
308.80 6.027
308.90 6.02
309.00 6.013
309.10 6.005
309.20 5.998
309.30 5.991
309.40 5.984
309.50 5.976
309.60 5.969
309.70 5.962
309.80 5.955
309.90 5.948
310.00 5.94
310.10 5.933
310.20 5.926
310.30 5.919
310.40 5.912
310.50 5.905
310.60 5.898
310.70 5.89
310.80 5.883
310.90 5.876
311.00 5.869
311.10 5.862
311.20 5.855
311.30 5.848
311.40 5.841
311.50 5.834
311.60 5.827
311.70 5.82
311.80 5.813
311.90 5.806
312.00 5.799
312.10 5.792
312.20 5.785
312.30 5.778
312.40 5.771
312.50 5.764
312.60 5.757
312.70 5.751
312.80 5.744
312.90 5.737
313.00 5.73
313.10 5.723
313.20 5.716
313.30 5.709
313.40 5.703
313.50 5.696
313.60 5.689
313.70 5.682
313.80 5.675
313.90 5.669
314.00 5.662
314.10 5.655
314.20 5.648
314.30 5.642
314.40 5.635
314.50 5.628
314.60 5.621
314.70 5.615
314.80 5.608
314.90 5.601
315.00 5.595
315.10 5.588
315.20 5.581
315.30 5.575
315.40 5.568
315.50 5.562
315.60 5.555
315.70 5.548
315.80 5.542
315.90 5.535
316.00 5.529
316.10 5.522
316.20 5.516
316.30 5.509
316.40 5.502
316.50 5.496
316.60 5.489
316.70 5.483
316.80 5.476
316.90 5.47
317.00 5.464
317.10 5.457
317.20 5.451
317.30 5.444
317.40 5.438
317.50 5.431
317.60 5.425
317.70 5.419
317.80 5.412
317.90 5.406
318.00 5.399
318.10 5.393
318.20 5.387
318.30 5.38
318.40 5.374
318.50 5.368
318.60 5.361
318.70 5.355
318.80 5.349
318.90 5.342
319.00 5.336
319.10 5.33
319.20 5.324
319.30 5.317
319.40 5.311
319.50 5.305
319.60 5.299
319.70 5.293
319.80 5.286
319.90 5.28
320.00 5.274
320.10 5.268
320.20 5.262
320.30 5.255
320.40 5.249
320.50 5.243
320.60 5.237
320.70 5.231
320.80 5.225
320.90 5.219
321.00 5.213
321.10 5.206
321.20 5.2
321.30 5.194
321.40 5.188
321.50 5.182
321.60 5.176
321.70 5.17
321.80 5.164
321.90 5.158
322.00 5.152
322.10 5.146
322.20 5.14
322.30 5.134
322.40 5.128
322.50 5.122
322.60 5.116
322.70 5.11
322.80 5.104
322.90 5.098
323.00 5.092
323.10 5.087
323.20 5.081
323.30 5.075
323.40 5.069
323.50 5.063
323.60 5.057
323.70 5.051
323.80 5.045
323.90 5.04
324.00 5.034
324.10 5.028
324.20 5.022
324.30 5.016
324.40 5.01
324.50 5.005
324.60 4.999
324.70 4.993
324.80 4.987
324.90 4.982
325.00 4.976
325.10 4.97
325.20 4.964
325.30 4.959
325.40 4.953
325.50 4.947
325.60 4.942
325.70 4.936
325.80 4.93
325.90 4.924
326.00 4.919
326.10 4.913
326.20 4.907
326.30 4.902
326.40 4.896
326.50 4.891
326.60 4.885
326.70 4.879
326.80 4.874
326.90 4.868
327.00 4.863
327.10 4.857
327.20 4.851
327.30 4.846
327.40 4.84
327.50 4.835
327.60 4.829
327.70 4.824
327.80 4.818
327.90 4.813
328.00 4.807
328.10 4.802
328.20 4.796
328.30 4.791
328.40 4.785
328.50 4.78
328.60 4.774
328.70 4.769
328.80 4.763
328.90 4.758
329.00 4.752
329.10 4.747
329.20 4.742
329.30 4.736
329.40 4.731
329.50 4.725
329.60 4.72
329.70 4.715
329.80 4.709
329.90 4.704
330.00 4.699
330.10 4.693
330.20 4.688
330.30 4.683
330.40 4.677
330.50 4.672
330.60 4.667
330.70 4.661
330.80 4.656
330.90 4.651
331.00 4.646
331.10 4.64
331.20 4.635
331.30 4.63
331.40 4.625
331.50 4.619
331.60 4.614
331.70 4.609
331.80 4.604
331.90 4.598
332.00 4.593
332.10 4.588
332.20 4.583
332.30 4.578
332.40 4.572
332.50 4.567
332.60 4.562
332.70 4.557
332.80 4.552
332.90 4.547
333.00 4.542
333.10 4.537
333.20 4.531
333.30 4.526
333.40 4.521
333.50 4.516
333.60 4.511
333.70 4.506
333.80 4.501
333.90 4.496
334.00 4.491
334.10 4.486
334.20 4.481
334.30 4.476
334.40 4.471
334.50 4.466
334.60 4.461
334.70 4.456
334.80 4.451
334.90 4.446
335.00 4.441
335.10 4.436
335.20 4.431
335.30 4.426
335.40 4.421
335.50 4.416
335.60 4.411
335.70 4.406
335.80 4.401
335.90 4.396
336.00 4.391
336.10 4.386
336.20 4.381
336.30 4.376
336.40 4.371
336.50 4.367
336.60 4.362
336.70 4.357
336.80 4.352
336.90 4.347
337.00 4.342
337.10 4.337
337.20 4.333
337.30 4.328
337.40 4.323
337.50 4.318
337.60 4.313
337.70 4.308
337.80 4.304
337.90 4.299
338.00 4.294
338.10 4.289
338.20 4.285
338.30 4.28
338.40 4.275
338.50 4.27
338.60 4.266
338.70 4.261
338.80 4.256
338.90 4.251
339.00 4.247
339.10 4.242
339.20 4.237
339.30 4.233
339.40 4.228
339.50 4.223
339.60 4.219
339.70 4.214
339.80 4.209
339.90 4.205
340.00 4.2
340.10 4.195
340.20 4.191
340.30 4.186
340.40 4.181
340.50 4.177
340.60 4.172
340.70 4.168
340.80 4.163
340.90 4.158
341.00 4.154
341.10 4.149
341.20 4.145
341.30 4.14
341.40 4.136
341.50 4.131
341.60 4.126
341.70 4.122
341.80 4.117
341.90 4.113
342.00 4.108
342.10 4.104
342.20 4.099
342.30 4.095
342.40 4.09
342.50 4.086
342.60 4.081
342.70 4.077
342.80 4.072
342.90 4.068
343.00 4.063
343.10 4.059
343.20 4.054
343.30 4.05
343.40 4.046
343.50 4.041
343.60 4.037
343.70 4.032
343.80 4.028
343.90 4.023
344.00 4.019
344.10 4.015
344.20 4.01
344.30 4.006
344.40 4.002
344.50 3.997
344.60 3.993
344.70 3.988
344.80 3.984
344.90 3.98
345.00 3.975
345.10 3.971
345.20 3.967
345.30 3.962
345.40 3.958
345.50 3.954
345.60 3.95
345.70 3.945
345.80 3.941
345.90 3.937
346.00 3.932
346.10 3.928
346.20 3.924
346.30 3.92
346.40 3.915
346.50 3.911
346.60 3.907
346.70 3.903
346.80 3.898
346.90 3.894
347.00 3.89
347.10 3.886
347.20 3.881
347.30 3.877
347.40 3.873
347.50 3.869
347.60 3.865
347.70 3.86
347.80 3.856
347.90 3.852
348.00 3.848
348.10 3.844
348.20 3.84
348.30 3.835
348.40 3.831
348.50 3.827
348.60 3.823
348.70 3.819
348.80 3.815
348.90 3.811
349.00 3.807
349.10 3.803
349.20 3.798
349.30 3.794
349.40 3.79
349.50 3.786
349.60 3.782
349.70 3.778
349.80 3.774
349.90 3.77
350.00 3.766
350.10 3.762
350.20 3.758
350.30 3.754
350.40 3.75
350.50 3.746
350.60 3.742
350.70 3.738
350.80 3.734
350.90 3.73
351.00 3.726
351.10 3.722
351.20 3.718
351.30 3.714
351.40 3.71
351.50 3.706
351.60 3.702
351.70 3.698
351.80 3.694
351.90 3.69
352.00 3.686
352.10 3.682
352.20 3.678
352.30 3.674
352.40 3.67
352.50 3.666
352.60 3.662
352.70 3.658
352.80 3.654
352.90 3.651
353.00 3.647
353.10 3.643
353.20 3.639
353.30 3.635
353.40 3.631
353.50 3.627
353.60 3.623
353.70 3.62
353.80 3.616
353.90 3.612
354.00 3.608
354.10 3.604
354.20 3.6
354.30 3.596
354.40 3.593
354.50 3.589
354.60 3.585
354.70 3.581
354.80 3.577
354.90 3.574
355.00 3.57
355.10 3.566
355.20 3.562
355.30 3.558
355.40 3.555
355.50 3.551
355.60 3.547
355.70 3.543
355.80 3.54
355.90 3.536
356.00 3.532
356.10 3.528
356.20 3.525
356.30 3.521
356.40 3.517
356.50 3.514
356.60 3.51
356.70 3.506
356.80 3.502
356.90 3.499
357.00 3.495
357.10 3.491
357.20 3.488
357.30 3.484
357.40 3.48
357.50 3.477
357.60 3.473
357.70 3.469
357.80 3.466
357.90 3.462
358.00 3.458
358.10 3.455
358.20 3.451
358.30 3.447
358.40 3.444
358.50 3.44
358.60 3.437
358.70 3.433
358.80 3.429
358.90 3.426
359.00 3.422
359.10 3.419
359.20 3.415
359.30 3.411
359.40 3.408
359.50 3.404
359.60 3.401
359.70 3.397
359.80 3.394
359.90 3.39
360.00 3.386
360.10 3.383
360.20 3.379
360.30 3.376
360.40 3.372
360.50 3.369
360.60 3.365
360.70 3.362
360.80 3.358
360.90 3.355
361.00 3.351
361.10 3.348
361.20 3.344
361.30 3.341
361.40 3.337
361.50 3.334
361.60 3.33
361.70 3.327
361.80 3.323
361.90 3.32
362.00 3.316
362.10 3.313
362.20 3.31
362.30 3.306
362.40 3.303
362.50 3.299
362.60 3.296
362.70 3.292
362.80 3.289
362.90 3.286
363.00 3.282
363.10 3.279
363.20 3.275
363.30 3.272
363.40 3.269
363.50 3.265
363.60 3.262
363.70 3.258
363.80 3.255
363.90 3.252
364.00 3.248
364.10 3.245
364.20 3.242
364.30 3.238
364.40 3.235
364.50 3.231
364.60 3.228
364.70 3.225
364.80 3.221
364.90 3.218
365.00 3.215
365.10 3.211
365.20 3.208
365.30 3.205
365.40 3.202
365.50 3.198
365.60 3.195
365.70 3.192
365.80 3.188
365.90 3.185
366.00 3.182
366.10 3.178
366.20 3.175
366.30 3.172
366.40 3.169
366.50 3.165
366.60 3.162
366.70 3.159
366.80 3.155
366.90 3.152
367.00 3.149
367.10 3.145
367.20 3.142
367.30 3.139
367.40 3.136
367.50 3.132
367.60 3.129
367.70 3.126
367.80 3.123
367.90 3.119
368.00 3.116
368.10 3.113
368.20 3.11
368.30 3.106
368.40 3.103
368.50 3.1
368.60 3.097
368.70 3.093
368.80 3.09
368.90 3.087
369.00 3.084
369.10 3.08
369.20 3.077
369.30 3.074
369.40 3.071
369.50 3.068
369.60 3.064
369.70 3.061
369.80 3.058
369.90 3.055
370.00 3.051
370.10 3.048
370.20 3.045
370.30 3.042
370.40 3.039
370.50 3.036
370.60 3.033
370.70 3.029
370.80 3.026
370.90 3.023
371.00 3.02
371.10 3.017
371.20 3.014
371.30 3.011
371.40 3.008
371.50 3.004
371.60 3.001
371.70 2.998
371.80 2.995
371.90 2.992
372.00 2.989
372.10 2.986
372.20 2.983
372.30 2.98
372.40 2.977
372.50 2.974
372.60 2.971
372.70 2.968
372.80 2.965
372.90 2.962
373.00 2.958
373.10 2.955
373.20 2.952
373.30 2.949
373.40 2.946
373.50 2.943
373.60 2.94
373.70 2.937
373.80 2.934
373.90 2.931
374.00 2.928
374.10 2.925
374.20 2.922
374.30 2.919
374.40 2.916
374.50 2.913
374.60 2.911
374.70 2.908
374.80 2.905
374.90 2.902
375.00 2.899
375.10 2.896
375.20 2.893
375.30 2.89
375.40 2.887
375.50 2.884
375.60 2.881
375.70 2.878
375.80 2.875
375.90 2.872
376.00 2.869
376.10 2.866
376.20 2.863
376.30 2.86
376.40 2.858
376.50 2.855
376.60 2.852
376.70 2.849
376.80 2.846
376.90 2.843
377.00 2.84
377.10 2.837
377.20 2.835
377.30 2.832
377.40 2.829
377.50 2.826
377.60 2.823
377.70 2.821
377.80 2.818
377.90 2.815
378.00 2.812
378.10 2.809
378.20 2.807
378.30 2.804
378.40 2.801
378.50 2.798
378.60 2.796
378.70 2.793
378.80 2.79
378.90 2.787
379.00 2.784
379.10 2.782
379.20 2.779
379.30 2.776
379.40 2.774
379.50 2.771
379.60 2.768
379.70 2.766
379.80 2.763
379.90 2.76
380.00 2.757
380.10 2.755
380.20 2.752
380.30 2.75
380.40 2.747
380.50 2.744
380.60 2.742
380.70 2.739
380.80 2.736
380.90 2.734
381.00 2.731
381.10 2.729
381.20 2.726
381.30 2.723
381.40 2.721
381.50 2.718
381.60 2.715
381.70 2.713
381.80 2.71
381.90 2.708
382.00 2.705
382.10 2.702
382.20 2.7
382.30 2.697
382.40 2.694
382.50 2.692
382.60 2.689
382.70 2.686
382.80 2.684
382.90 2.681
383.00 2.679
383.10 2.676
383.20 2.673
383.30 2.671
383.40 2.668
383.50 2.666
383.60 2.663
383.70 2.661
383.80 2.658
383.90 2.656
384.00 2.654
384.10 2.651
384.20 2.649
384.30 2.647
384.40 2.644
384.50 2.642
384.60 2.64
384.70 2.638
384.80 2.635
384.90 2.633
385.00 2.63
385.10 2.628
385.20 2.626
385.30 2.623
385.40 2.621
385.50 2.618
385.60 2.616
385.70 2.614
385.80 2.611
385.90 2.608
386.00 2.606
386.10 2.603
386.20 2.601
386.30 2.598
386.40 2.596
386.50 2.593
386.60 2.59
386.70 2.587
386.80 2.585
386.90 2.582
387.00 2.579
387.10 2.576
387.20 2.574
387.30 2.571
387.40 2.568
387.50 2.565
387.60 2.562
387.70 2.559
387.80 2.557
387.90 2.554
388.00 2.551
388.10 2.548
388.20 2.545
388.30 2.542
388.40 2.54
388.50 2.537
388.60 2.534
388.70 2.532
388.80 2.53
388.90 2.528
389.00 2.525
389.10 2.523
389.20 2.521
389.30 2.519
389.40 2.517
389.50 2.516
389.60 2.514
389.70 2.512
389.80 2.511
389.90 2.509
390.00 2.508
390.10 2.506
390.20 2.504
390.30 2.503
390.40 2.501
390.50 2.499
390.60 2.498
390.70 2.496
390.80 2.494
390.90 2.492
391.00 2.491
391.10 2.489
391.20 2.487
391.30 2.485
391.40 2.483
391.50 2.481
391.60 2.479
391.70 2.477
391.80 2.475
391.90 2.473
392.00 2.471
392.10 2.468
392.20 2.466
392.30 2.464
392.40 2.461
392.50 2.459
392.60 2.457
392.70 2.454
392.80 2.452
392.90 2.449
393.00 2.446
393.10 2.444
393.20 2.441
393.30 2.438
393.40 2.435
393.50 2.432
393.60 2.429
393.70 2.426
393.80 2.423
393.90 2.42
394.00 2.417
394.10 2.414
394.20 2.411
394.30 2.407
394.40 2.404
394.50 2.401
394.60 2.397
394.70 2.394
394.80 2.39
394.90 2.386
395.00 2.383
395.10 2.379
395.20 2.375
395.30 2.371
395.40 2.368
395.50 2.364
395.60 2.36
395.70 2.356
395.80 2.352
395.90 2.348
396.00 2.344
396.10 2.34
396.20 2.336
396.30 2.331
396.40 2.327
396.50 2.323
396.60 2.32
396.70 2.316
396.80 2.312
396.90 2.309
397.00 2.306
397.10 2.305
397.20 2.304
397.30 2.303
397.40 2.303
397.50 2.303
397.60 2.303
397.70 2.303
397.80 2.303
397.90 2.303
398.00 2.303
398.10 2.303
398.20 2.303
398.30 2.303
398.40 2.302
398.50 2.302
398.60 2.302
398.70 2.302
398.80 2.302
398.90 2.301
399.00 2.301
399.10 2.301
399.20 2.3
399.30 2.3
399.40 2.299
399.50 2.299
399.60 2.298
399.70 2.297
399.80 2.296
399.90 2.296
400.00 2.295
400.10 2.294
400.20 2.293
400.30 2.292
400.40 2.291
400.50 2.29
400.60 2.289
400.70 2.288
400.80 2.286
400.90 2.285
401.00 2.284
401.10 2.283
401.20 2.281
401.30 2.28
401.40 2.278
401.50 2.277
401.60 2.275
401.70 2.274
401.80 2.272
401.90 2.27
402.00 2.269
402.10 2.267
402.20 2.265
402.30 2.263
402.40 2.262
402.50 2.26
402.60 2.258
402.70 2.256
402.80 2.254
402.90 2.252
403.00 2.25
403.10 2.248
403.20 2.246
403.30 2.244
403.40 2.242
403.50 2.239
403.60 2.237
403.70 2.235
403.80 2.233
403.90 2.23
404.00 2.228
404.10 2.226
404.20 2.223
404.30 2.221
404.40 2.218
404.50 2.216
404.60 2.213
404.70 2.21
404.80 2.208
404.90 2.205
405.00 2.202
405.10 2.199
405.20 2.197
405.30 2.194
405.40 2.191
405.50 2.188
405.60 2.185
405.70 2.182
405.80 2.178
405.90 2.175
406.00 2.172
406.10 2.168
406.20 2.165
406.30 2.162
406.40 2.158
406.50 2.154
406.60 2.151
406.70 2.147
406.80 2.143
406.90 2.139
407.00 2.135
407.10 2.131
407.20 2.127
407.30 2.123
407.40 2.118
407.50 2.114
407.60 2.109
407.70 2.105
407.80 2.1
407.90 2.095
408.00 2.09
408.10 2.085
408.20 2.08
408.30 2.075
408.40 2.07
408.50 2.064
408.60 2.059
408.70 2.053
408.80 2.047
408.90 2.042
409.00 2.036
409.10 2.03
409.20 2.024
409.30 2.018
409.40 2.012
409.50 2.006
409.60 2.001
409.70 1.996
409.80 1.991
409.90 1.988
410.00 1.986
410.10 1.986
410.20 1.987
410.30 1.982
410.40 1.979
410.50 1.978
410.60 1.979
410.70 1.98
410.80 1.982
410.90 1.984
411.00 1.986
411.10 1.988
411.20 1.991
411.30 1.993
411.40 1.995
411.50 1.997
411.60 1.999
411.70 2.001
411.80 2.003
411.90 2.005
412.00 2.006
412.10 2.008
412.20 2.009
412.30 2.011
412.40 2.012
412.50 2.013
412.60 2.014
412.70 2.015
412.80 2.016
412.90 2.016
413.00 2.017
413.10 2.018
413.20 2.018
413.30 2.018
413.40 2.019
413.50 2.019
413.60 2.019
413.70 2.019
413.80 2.019
413.90 2.019
414.00 2.018
414.10 2.018
414.20 2.018
414.30 2.017
414.40 2.017
414.50 2.016
414.60 2.016
414.70 2.015
414.80 2.015
414.90 2.014
415.00 2.013
415.10 2.012
415.20 2.011
415.30 2.011
415.40 2.01
415.50 2.009
415.60 2.008
415.70 2.007
415.80 2.006
415.90 2.005
416.00 2.003
416.10 2.002
416.20 2.001
416.30 2
416.40 1.999
416.50 1.997
416.60 1.996
416.70 1.995
416.80 1.994
416.90 1.992
417.00 1.991
417.10 1.99
417.20 1.988
417.30 1.987
417.40 1.985
417.50 1.984
417.60 1.983
417.70 1.981
417.80 1.98
417.90 1.978
418.00 1.977
418.10 1.975
418.20 1.974
418.30 1.972
418.40 1.971
418.50 1.969
418.60 1.967
418.70 1.966
418.80 1.964
418.90 1.963
419.00 1.961
419.10 1.96
419.20 1.958
419.30 1.956
419.40 1.955
419.50 1.953
419.60 1.952
419.70 1.95
419.80 1.948
419.90 1.947
420.00 1.945
420.10 1.943
420.20 1.942
420.30 1.94
420.40 1.938
420.50 1.937
420.60 1.935
420.70 1.933
420.80 1.932
420.90 1.93
421.00 1.928
421.10 1.927
421.20 1.925
421.30 1.923
421.40 1.921
421.50 1.92
421.60 1.918
421.70 1.916
421.80 1.915
421.90 1.913
422.00 1.911
422.10 1.909
422.20 1.908
422.30 1.906
422.40 1.904
422.50 1.902
422.60 1.901
422.70 1.899
422.80 1.897
422.90 1.895
423.00 1.894
423.10 1.892
423.20 1.89
423.30 1.888
423.40 1.887
423.50 1.885
423.60 1.883
423.70 1.881
423.80 1.879
423.90 1.878
424.00 1.876
424.10 1.874
424.20 1.872
424.30 1.87
424.40 1.869
424.50 1.867
424.60 1.865
424.70 1.863
424.80 1.861
424.90 1.859
425.00 1.858
425.10 1.856
425.20 1.854
425.30 1.852
425.40 1.85
425.50 1.848
425.60 1.846
425.70 1.844
425.80 1.843
425.90 1.841
426.00 1.839
426.10 1.837
426.20 1.835
426.30 1.833
426.40 1.831
426.50 1.829
426.60 1.827
426.70 1.825
426.80 1.823
426.90 1.821
427.00 1.819
427.10 1.817
427.20 1.815
427.30 1.812
427.40 1.81
427.50 1.808
427.60 1.806
427.70 1.804
427.80 1.802
427.90 1.799
428.00 1.797
428.10 1.795
428.20 1.792
428.30 1.79
428.40 1.788
428.50 1.785
428.60 1.783
428.70 1.78
428.80 1.778
428.90 1.775
429.00 1.773
429.10 1.77
429.20 1.767
429.30 1.765
429.40 1.762
429.50 1.759
429.60 1.756
429.70 1.753
429.80 1.75
429.90 1.747
430.00 1.744
430.10 1.741
430.20 1.737
430.30 1.734
430.40 1.73
430.50 1.727
430.60 1.723
430.70 1.72
430.80 1.716
430.90 1.712
431.00 1.708
431.10 1.704
431.20 1.7
431.30 1.695
431.40 1.691
431.50 1.686
431.60 1.681
431.70 1.676
431.80 1.672
431.90 1.666
432.00 1.661
432.10 1.656
432.20 1.65
432.30 1.645
432.40 1.639
432.50 1.633
432.60 1.627
432.70 1.621
432.80 1.615
432.90 1.608
433.00 1.602
433.10 1.596
433.20 1.589
433.30 1.583
433.40 1.577
433.50 1.571
433.60 1.565
433.70 1.559
433.80 1.554
433.90 1.548
434.00 1.543
434.10 1.542
434.20 1.544
434.30 1.547
434.40 1.55
434.50 1.553
434.60 1.557
434.70 1.56
434.80 1.564
434.90 1.567
435.00 1.571
435.10 1.574
435.20 1.578
435.30 1.581
435.40 1.585
435.50 1.588
435.60 1.591
435.70 1.594
435.80 1.597
435.90 1.6
436.00 1.602
436.10 1.605
436.20 1.607
436.30 1.609
436.40 1.611
436.50 1.613
436.60 1.615
436.70 1.616
436.80 1.618
436.90 1.619
437.00 1.62
437.10 1.622
437.20 1.623
437.30 1.623
437.40 1.624
437.50 1.625
437.60 1.625
437.70 1.626
437.80 1.626
437.90 1.627
438.00 1.627
438.10 1.627
438.20 1.627
438.30 1.627
438.40 1.627
438.50 1.627
438.60 1.627
438.70 1.626
438.80 1.626
438.90 1.626
439.00 1.625
439.10 1.625
439.20 1.624
439.30 1.624
439.40 1.623
439.50 1.623
439.60 1.622
439.70 1.621
439.80 1.621
439.90 1.62
440.00 1.619
440.10 1.618
440.20 1.618
440.30 1.617
440.40 1.616
440.50 1.615
440.60 1.614
440.70 1.613
440.80 1.612
440.90 1.611
441.00 1.61
441.10 1.609
441.20 1.608
441.30 1.607
441.40 1.606
441.50 1.605
441.60 1.604
441.70 1.603
441.80 1.602
441.90 1.601
442.00 1.6
442.10 1.599
442.20 1.598
442.30 1.596
442.40 1.595
442.50 1.594
442.60 1.593
442.70 1.592
442.80 1.591
442.90 1.589
443.00 1.588
443.10 1.587
443.20 1.586
443.30 1.585
443.40 1.583
443.50 1.582
443.60 1.581
443.70 1.58
443.80 1.579
443.90 1.577
444.00 1.576
444.10 1.575
444.20 1.574
444.30 1.572
444.40 1.571
444.50 1.57
444.60 1.569
444.70 1.567
444.80 1.566
444.90 1.565
445.00 1.564
445.10 1.562
445.20 1.561
445.30 1.56
445.40 1.559
445.50 1.557
445.60 1.556
445.70 1.555
445.80 1.554
445.90 1.552
446.00 1.551
446.10 1.55
446.20 1.549
446.30 1.547
446.40 1.546
446.50 1.545
446.60 1.544
446.70 1.542
446.80 1.541
446.90 1.54
447.00 1.538
447.10 1.537
447.20 1.536
447.30 1.535
447.40 1.533
447.50 1.532
447.60 1.531
447.70 1.53
447.80 1.528
447.90 1.527
448.00 1.526
448.10 1.524
448.20 1.523
448.30 1.522
448.40 1.521
448.50 1.519
448.60 1.518
448.70 1.517
448.80 1.516
448.90 1.514
449.00 1.513
449.10 1.512
449.20 1.511
449.30 1.509
449.40 1.508
449.50 1.507
449.60 1.505
449.70 1.504
449.80 1.503
449.90 1.502
450.00 1.5
450.10 1.499
450.20 1.498
450.30 1.497
450.40 1.495
450.50 1.494
450.60 1.493
450.70 1.492
450.80 1.49
450.90 1.489
451.00 1.488
451.10 1.487
451.20 1.485
451.30 1.484
451.40 1.483
451.50 1.482
451.60 1.48
451.70 1.479
451.80 1.478
451.90 1.477
452.00 1.475
452.10 1.474
452.20 1.473
452.30 1.472
452.40 1.471
452.50 1.469
452.60 1.468
452.70 1.467
452.80 1.466
452.90 1.464
453.00 1.463
453.10 1.462
453.20 1.461
453.30 1.459
453.40 1.458
453.50 1.457
453.60 1.456
453.70 1.455
453.80 1.453
453.90 1.452
454.00 1.451
454.10 1.45
454.20 1.448
454.30 1.447
454.40 1.446
454.50 1.445
454.60 1.444
454.70 1.442
454.80 1.441
454.90 1.44
455.00 1.439
455.10 1.438
455.20 1.436
455.30 1.435
455.40 1.434
455.50 1.433
455.60 1.431
455.70 1.43
455.80 1.429
455.90 1.428
456.00 1.427
456.10 1.425
456.20 1.424
456.30 1.423
456.40 1.422
456.50 1.421
456.60 1.419
456.70 1.418
456.80 1.417
456.90 1.416
457.00 1.415
457.10 1.414
457.20 1.412
457.30 1.411
457.40 1.41
457.50 1.409
457.60 1.408
457.70 1.406
457.80 1.405
457.90 1.404
458.00 1.403
458.10 1.402
458.20 1.401
458.30 1.399
458.40 1.398
458.50 1.397
458.60 1.396
458.70 1.395
458.80 1.394
458.90 1.392
459.00 1.391
459.10 1.39
459.20 1.389
459.30 1.388
459.40 1.387
459.50 1.385
459.60 1.384
459.70 1.383
459.80 1.382
459.90 1.381
460.00 1.38
460.10 1.378
460.20 1.377
460.30 1.376
460.40 1.375
460.50 1.374
460.60 1.373
460.70 1.372
460.80 1.37
460.90 1.369
461.00 1.368
461.10 1.367
461.20 1.366
461.30 1.365
461.40 1.364
461.50 1.362
461.60 1.361
461.70 1.36
461.80 1.359
461.90 1.358
462.00 1.357
462.10 1.356
462.20 1.354
462.30 1.353
462.40 1.352
462.50 1.351
462.60 1.35
462.70 1.349
462.80 1.348
462.90 1.347
463.00 1.345
463.10 1.344
463.20 1.343
463.30 1.342
463.40 1.341
463.50 1.34
463.60 1.339
463.70 1.338
463.80 1.336
463.90 1.335
464.00 1.334
464.10 1.333
464.20 1.332
464.30 1.331
464.40 1.33
464.50 1.329
464.60 1.328
464.70 1.326
464.80 1.325
464.90 1.324
465.00 1.323
465.10 1.322
465.20 1.321
465.30 1.32
465.40 1.319
465.50 1.318
465.60 1.317
465.70 1.315
465.80 1.314
465.90 1.313
466.00 1.312
466.10 1.311
466.20 1.31
466.30 1.309
466.40 1.308
466.50 1.307
466.60 1.306
466.70 1.305
466.80 1.303
466.90 1.302
467.00 1.301
467.10 1.3
467.20 1.299
467.30 1.298
467.40 1.297
467.50 1.296
467.60 1.295
467.70 1.294
467.80 1.293
467.90 1.292
468.00 1.29
468.10 1.289
468.20 1.288
468.30 1.287
468.40 1.286
468.50 1.285
468.60 1.284
468.70 1.283
468.80 1.282
468.90 1.281
469.00 1.28
469.10 1.279
469.20 1.278
469.30 1.277
469.40 1.275
469.50 1.274
469.60 1.273
469.70 1.272
469.80 1.271
469.90 1.27
470.00 1.269
470.10 1.268
470.20 1.267
470.30 1.266
470.40 1.265
470.50 1.264
470.60 1.263
470.70 1.262
470.80 1.261
470.90 1.26
471.00 1.258
471.10 1.257
471.20 1.256
471.30 1.255
471.40 1.254
471.50 1.253
471.60 1.252
471.70 1.251
471.80 1.25
471.90 1.249
472.00 1.248
472.10 1.247
472.20 1.246
472.30 1.245
472.40 1.244
472.50 1.243
472.60 1.242
472.70 1.24
472.80 1.239
472.90 1.238
473.00 1.237
473.10 1.236
473.20 1.235
473.30 1.234
473.40 1.233
473.50 1.232
473.60 1.231
473.70 1.23
473.80 1.229
473.90 1.228
474.00 1.227
474.10 1.226
474.20 1.225
474.30 1.224
474.40 1.223
474.50 1.221
474.60 1.22
474.70 1.219
474.80 1.218
474.90 1.217
475.00 1.216
475.10 1.215
475.20 1.214
475.30 1.213
475.40 1.212
475.50 1.211
475.60 1.21
475.70 1.209
475.80 1.208
475.90 1.207
476.00 1.205
476.10 1.204
476.20 1.203
476.30 1.202
476.40 1.201
476.50 1.2
476.60 1.199
476.70 1.198
476.80 1.197
476.90 1.196
477.00 1.194
477.10 1.193
477.20 1.192
477.30 1.191
477.40 1.19
477.50 1.189
477.60 1.188
477.70 1.187
477.80 1.185
477.90 1.184
478.00 1.183
478.10 1.182
478.20 1.181
478.30 1.18
478.40 1.178
478.50 1.177
478.60 1.176
478.70 1.175
478.80 1.174
478.90 1.172
479.00 1.171
479.10 1.17
479.20 1.169
479.30 1.167
479.40 1.166
479.50 1.165
479.60 1.164
479.70 1.162
479.80 1.161
479.90 1.16
480.00 1.158
480.10 1.157
480.20 1.156
480.30 1.154
480.40 1.153
480.50 1.151
480.60 1.15
480.70 1.148
480.80 1.147
480.90 1.145
481.00 1.144
481.10 1.142
481.20 1.141
481.30 1.139
481.40 1.137
481.50 1.135
481.60 1.133
481.70 1.132
481.80 1.13
481.90 1.128
482.00 1.126
482.10 1.125
482.20 1.122
482.30 1.12
482.40 1.118
482.50 1.116
482.60 1.113
482.70 1.111
482.80 1.109
482.90 1.107
483.00 1.104
483.10 1.102
483.20 1.099
483.30 1.096
483.40 1.093
483.50 1.09
483.60 1.087
483.70 1.084
483.80 1.081
483.90 1.078
484.00 1.075
484.10 1.072
484.20 1.068
484.30 1.065
484.40 1.061
484.50 1.057
484.60 1.054
484.70 1.05
484.80 1.045
484.90 1.041
485.00 1.037
485.10 1.033
485.20 1.029
485.30 1.024
485.40 1.02
485.50 1.016
485.60 1.012
485.70 1.008
485.80 1.005
485.90 1.002
486.00 1.003
486.10 1.014
486.20 1.009
486.30 0.9992
486.40 0.9991
486.50 1
486.60 1.002
486.70 1.004
486.80 1.007
486.90 1.01
487.00 1.012
487.10 1.015
487.20 1.018
487.30 1.02
487.40 1.023
487.50 1.025
487.60 1.028
487.70 1.03
487.80 1.032
487.90 1.034
488.00 1.036
488.10 1.038
488.20 1.04
488.30 1.041
488.40 1.042
488.50 1.044
488.60 1.045
488.70 1.046
488.80 1.047
488.90 1.049
489.00 1.05
489.10 1.051
489.20 1.052
489.30 1.052
489.40 1.053
489.50 1.053
489.60 1.054
489.70 1.054
489.80 1.055
489.90 1.055
490.00 1.056
490.10 1.056
490.20 1.056
490.30 1.056
490.40 1.056
490.50 1.056
490.60 1.056
490.70 1.056
490.80 1.056
490.90 1.056
491.00 1.056
491.10 1.056
491.20 1.056
491.30 1.056
491.40 1.055
491.50 1.055
491.60 1.055
491.70 1.054
491.80 1.054
491.90 1.054
492.00 1.053
492.10 1.053
492.20 1.053
492.30 1.052
492.40 1.052
492.50 1.051
492.60 1.051
492.70 1.05
492.80 1.05
492.90 1.049
493.00 1.049
493.10 1.048
493.20 1.048
493.30 1.047
493.40 1.046
493.50 1.046
493.60 1.045
493.70 1.045
493.80 1.044
493.90 1.043
494.00 1.043
494.10 1.042
494.20 1.042
494.30 1.041
494.40 1.04
494.50 1.04
494.60 1.039
494.70 1.038
494.80 1.038
494.90 1.037
495.00 1.036
495.10 1.036
495.20 1.035
495.30 1.034
495.40 1.034
495.50 1.033
495.60 1.032
495.70 1.031
495.80 1.031
495.90 1.03
496.00 1.029
496.10 1.029
496.20 1.028
496.30 1.027
496.40 1.026
496.50 1.026
496.60 1.025
496.70 1.024
496.80 1.024
496.90 1.023
497.00 1.022
497.10 1.021
497.20 1.021
497.30 1.02
497.40 1.019
497.50 1.018
497.60 1.018
497.70 1.017
497.80 1.016
497.90 1.016
498.00 1.015
498.10 1.014
498.20 1.013
498.30 1.013
498.40 1.012
498.50 1.011
498.60 1.01
498.70 1.01
498.80 1.009
498.90 1.008
499.00 1.007
499.10 1.007
499.20 1.006
499.30 1.005
499.40 1.004
499.50 1.004
499.60 1.003
499.70 1.002
499.80 1.001
499.90 1.001
500.00 1
500.10 0.9993
500.20 0.9985
500.30 0.9978
500.40 0.997
500.50 0.9963
500.60 0.9955
500.70 0.9948
500.80 0.9941
500.90 0.9933
501.00 0.9926
501.10 0.9918
501.20 0.9911
501.30 0.9904
501.40 0.9896
501.50 0.9889
501.60 0.9881
501.70 0.9874
501.80 0.9867
501.90 0.9859
502.00 0.9852
502.10 0.9844
502.20 0.9837
502.30 0.983
502.40 0.9822
502.50 0.9815
502.60 0.9808
502.70 0.98
502.80 0.9793
502.90 0.9785
503.00 0.9778
503.10 0.9771
503.20 0.9763
503.30 0.9756
503.40 0.9749
503.50 0.9741
503.60 0.9734
503.70 0.9727
503.80 0.9719
503.90 0.9712
504.00 0.9705
504.10 0.9698
504.20 0.969
504.30 0.9683
504.40 0.9676
504.50 0.9668
504.60 0.9661
504.70 0.9654
504.80 0.9647
504.90 0.9639
505.00 0.9632
505.10 0.9625
505.20 0.9618
505.30 0.961
505.40 0.9603
505.50 0.9596
505.60 0.9589
505.70 0.9581
505.80 0.9574
505.90 0.9567
506.00 0.956
506.10 0.9553
506.20 0.9545
506.30 0.9538
506.40 0.9531
506.50 0.9524
506.60 0.9517
506.70 0.9509
506.80 0.9502
506.90 0.9495
507.00 0.9488
507.10 0.9481
507.20 0.9474
507.30 0.9467
507.40 0.9459
507.50 0.9452
507.60 0.9445
507.70 0.9438
507.80 0.9431
507.90 0.9424
508.00 0.9417
508.10 0.941
508.20 0.9403
508.30 0.9395
508.40 0.9388
508.50 0.9381
508.60 0.9374
508.70 0.9367
508.80 0.936
508.90 0.9353
509.00 0.9346
509.10 0.9339
509.20 0.9332
509.30 0.9325
509.40 0.9318
509.50 0.9311
509.60 0.9304
509.70 0.9297
509.80 0.929
509.90 0.9283
510.00 0.9276
510.10 0.9269
510.20 0.9262
510.30 0.9255
510.40 0.9248
510.50 0.9241
510.60 0.9234
510.70 0.9227
510.80 0.922
510.90 0.9214
511.00 0.9207
511.10 0.92
511.20 0.9193
511.30 0.9186
511.40 0.9179
511.50 0.9172
511.60 0.9165
511.70 0.9158
511.80 0.9151
511.90 0.9145
512.00 0.9138
512.10 0.9131
512.20 0.9124
512.30 0.9117
512.40 0.911
512.50 0.9104
512.60 0.9097
512.70 0.909
512.80 0.9083
512.90 0.9076
513.00 0.907
513.10 0.9063
513.20 0.9056
513.30 0.9049
513.40 0.9042
513.50 0.9036
513.60 0.9029
513.70 0.9022
513.80 0.9015
513.90 0.9009
514.00 0.9002
514.10 0.8995
514.20 0.8988
514.30 0.8982
514.40 0.8975
514.50 0.8968
514.60 0.8962
514.70 0.8955
514.80 0.8948
514.90 0.8942
515.00 0.8935
515.10 0.8928
515.20 0.8922
515.30 0.8915
515.40 0.8908
515.50 0.8902
515.60 0.8895
515.70 0.8888
515.80 0.8882
515.90 0.8875
516.00 0.8868
516.10 0.8862
516.20 0.8855
516.30 0.8849
516.40 0.8842
516.50 0.8836
516.60 0.8829
516.70 0.8822
516.80 0.8816
516.90 0.8809
517.00 0.8803
517.10 0.8796
517.20 0.879
517.30 0.8783
517.40 0.8777
517.50 0.877
517.60 0.8763
517.70 0.8757
517.80 0.875
517.90 0.8744
518.00 0.8737
518.10 0.8731
518.20 0.8724
518.30 0.8718
518.40 0.8712
518.50 0.8705
518.60 0.8699
518.70 0.8692
518.80 0.8686
518.90 0.8679
519.00 0.8673
519.10 0.8666
519.20 0.866
519.30 0.8654
519.40 0.8647
519.50 0.8641
519.60 0.8634
519.70 0.8628
519.80 0.8622
519.90 0.8615
520.00 0.8609
520.10 0.8602
520.20 0.8596
520.30 0.859
520.40 0.8583
520.50 0.8577
520.60 0.8571
520.70 0.8564
520.80 0.8558
520.90 0.8552
521.00 0.8545
521.10 0.8539
521.20 0.8533
521.30 0.8526
521.40 0.852
521.50 0.8514
521.60 0.8507
521.70 0.8501
521.80 0.8495
521.90 0.8489
522.00 0.8482
522.10 0.8476
522.20 0.847
522.30 0.8464
522.40 0.8457
522.50 0.8451
522.60 0.8445
522.70 0.8439
522.80 0.8432
522.90 0.8426
523.00 0.842
523.10 0.8414
523.20 0.8408
523.30 0.8401
523.40 0.8395
523.50 0.8389
523.60 0.8383
523.70 0.8377
523.80 0.8371
523.90 0.8364
524.00 0.8358
524.10 0.8352
524.20 0.8346
524.30 0.834
524.40 0.8334
524.50 0.8328
524.60 0.8322
524.70 0.8315
524.80 0.8309
524.90 0.8303
525.00 0.8297
525.10 0.8291
525.20 0.8285
525.30 0.8279
525.40 0.8273
525.50 0.8267
525.60 0.8261
525.70 0.8255
525.80 0.8249
525.90 0.8243
526.00 0.8236
526.10 0.823
526.20 0.8224
526.30 0.8218
526.40 0.8212
526.50 0.8206
526.60 0.82
526.70 0.8194
526.80 0.8188
526.90 0.8182
527.00 0.8176
527.10 0.817
527.20 0.8164
527.30 0.8158
527.40 0.8152
527.50 0.8147
527.60 0.8141
527.70 0.8135
527.80 0.8129
527.90 0.8123
528.00 0.8117
528.10 0.8111
528.20 0.8105
528.30 0.8099
528.40 0.8093
528.50 0.8087
528.60 0.8081
528.70 0.8075
528.80 0.807
528.90 0.8064
529.00 0.8058
529.10 0.8052
529.20 0.8046
529.30 0.804
529.40 0.8034
529.50 0.8029
529.60 0.8023
529.70 0.8017
529.80 0.8011
529.90 0.8005
530.00 0.7999
530.10 0.7994
530.20 0.7988
530.30 0.7982
530.40 0.7976
530.50 0.797
530.60 0.7965
530.70 0.7959
530.80 0.7953
530.90 0.7947
531.00 0.7941
531.10 0.7936
531.20 0.793
531.30 0.7924
531.40 0.7918
531.50 0.7913
531.60 0.7907
531.70 0.7901
531.80 0.7895
531.90 0.789
532.00 0.7884
532.10 0.7878
532.20 0.7873
532.30 0.7867
532.40 0.7861
532.50 0.7855
532.60 0.785
532.70 0.7844
532.80 0.7838
532.90 0.7833
533.00 0.7827
533.10 0.7821
533.20 0.7816
533.30 0.781
533.40 0.7804
533.50 0.7799
533.60 0.7793
533.70 0.7788
533.80 0.7782
533.90 0.7776
534.00 0.7771
534.10 0.7765
534.20 0.7759
534.30 0.7754
534.40 0.7748
534.50 0.7743
534.60 0.7737
534.70 0.7731
534.80 0.7726
534.90 0.772
535.00 0.7715
535.10 0.7709
535.20 0.7704
535.30 0.7698
535.40 0.7693
535.50 0.7687
535.60 0.7682
535.70 0.7676
535.80 0.767
535.90 0.7665
536.00 0.7659
536.10 0.7654
536.20 0.7648
536.30 0.7643
536.40 0.7637
536.50 0.7632
536.60 0.7626
536.70 0.7621
536.80 0.7615
536.90 0.761
537.00 0.7605
537.10 0.7599
537.20 0.7594
537.30 0.7588
537.40 0.7583
537.50 0.7577
537.60 0.7572
537.70 0.7566
537.80 0.7561
537.90 0.7556
538.00 0.755
538.10 0.7545
538.20 0.7539
538.30 0.7534
538.40 0.7528
538.50 0.7523
538.60 0.7518
538.70 0.7512
538.80 0.7507
538.90 0.7502
539.00 0.7496
539.10 0.7491
539.20 0.7485
539.30 0.748
539.40 0.7475
539.50 0.7469
539.60 0.7464
539.70 0.7459
539.80 0.7453
539.90 0.7448
540.00 0.7443
540.10 0.7437
540.20 0.7432
540.30 0.7427
540.40 0.7421
540.50 0.7416
540.60 0.7411
540.70 0.7406
540.80 0.74
540.90 0.7395
541.00 0.739
541.10 0.7385
541.20 0.7379
541.30 0.7374
541.40 0.7369
541.50 0.7363
541.60 0.7358
541.70 0.7353
541.80 0.7348
541.90 0.7343
542.00 0.7337
542.10 0.7332
542.20 0.7327
542.30 0.7322
542.40 0.7316
542.50 0.7311
542.60 0.7306
542.70 0.7301
542.80 0.7296
542.90 0.729
543.00 0.7285
543.10 0.728
543.20 0.7275
543.30 0.727
543.40 0.7265
543.50 0.7259
543.60 0.7254
543.70 0.7249
543.80 0.7244
543.90 0.7239
544.00 0.7234
544.10 0.7229
544.20 0.7223
544.30 0.7218
544.40 0.7213
544.50 0.7208
544.60 0.7203
544.70 0.7198
544.80 0.7193
544.90 0.7188
545.00 0.7183
545.10 0.7177
545.20 0.7172
545.30 0.7167
545.40 0.7162
545.50 0.7157
545.60 0.7152
545.70 0.7147
545.80 0.7142
545.90 0.7137
546.00 0.7132
546.10 0.7127
546.20 0.7122
546.30 0.7117
546.40 0.7112
546.50 0.7107
546.60 0.7102
546.70 0.7097
546.80 0.7092
546.90 0.7087
547.00 0.7082
547.10 0.7077
547.20 0.7072
547.30 0.7067
547.40 0.7062
547.50 0.7057
547.60 0.7052
547.70 0.7047
547.80 0.7042
547.90 0.7037
548.00 0.7032
548.10 0.7027
548.20 0.7022
548.30 0.7017
548.40 0.7012
548.50 0.7007
548.60 0.7002
548.70 0.6997
548.80 0.6992
548.90 0.6988
549.00 0.6983
549.10 0.6978
549.20 0.6973
549.30 0.6968
549.40 0.6963
549.50 0.6958
549.60 0.6953
549.70 0.6948
549.80 0.6943
549.90 0.6939
550.00 0.6934
550.10 0.6929
550.20 0.6924
550.30 0.6919
550.40 0.6914
550.50 0.6909
550.60 0.6905
550.70 0.69
550.80 0.6895
550.90 0.689
551.00 0.6885
551.10 0.688
551.20 0.6876
551.30 0.6871
551.40 0.6866
551.50 0.6861
551.60 0.6856
551.70 0.6852
551.80 0.6847
551.90 0.6842
552.00 0.6837
552.10 0.6832
552.20 0.6828
552.30 0.6823
552.40 0.6818
552.50 0.6813
552.60 0.6809
552.70 0.6804
552.80 0.6799
552.90 0.6794
553.00 0.679
553.10 0.6785
553.20 0.678
553.30 0.6775
553.40 0.6771
553.50 0.6766
553.60 0.6761
553.70 0.6756
553.80 0.6752
553.90 0.6747
554.00 0.6742
554.10 0.6738
554.20 0.6733
554.30 0.6728
554.40 0.6724
554.50 0.6719
554.60 0.6714
554.70 0.671
554.80 0.6705
554.90 0.67
555.00 0.6696
555.10 0.6691
555.20 0.6686
555.30 0.6682
555.40 0.6677
555.50 0.6672
555.60 0.6668
555.70 0.6663
555.80 0.6658
555.90 0.6654
556.00 0.6649
556.10 0.6644
556.20 0.664
556.30 0.6635
556.40 0.6631
556.50 0.6626
556.60 0.6621
556.70 0.6617
556.80 0.6612
556.90 0.6608
557.00 0.6603
557.10 0.6599
557.20 0.6594
557.30 0.6589
557.40 0.6585
557.50 0.658
557.60 0.6576
557.70 0.6571
557.80 0.6567
557.90 0.6562
558.00 0.6558
558.10 0.6553
558.20 0.6548
558.30 0.6544
558.40 0.6539
558.50 0.6535
558.60 0.653
558.70 0.6526
558.80 0.6521
558.90 0.6517
559.00 0.6512
559.10 0.6508
559.20 0.6503
559.30 0.6499
559.40 0.6494
559.50 0.649
559.60 0.6485
559.70 0.6481
559.80 0.6476
559.90 0.6472
560.00 0.6467
560.10 0.6463
560.20 0.6459
560.30 0.6454
560.40 0.645
560.50 0.6445
560.60 0.6441
560.70 0.6436
560.80 0.6432
560.90 0.6427
561.00 0.6423
561.10 0.6419
561.20 0.6414
561.30 0.641
561.40 0.6405
561.50 0.6401
561.60 0.6397
561.70 0.6392
561.80 0.6388
561.90 0.6383
562.00 0.6379
562.10 0.6375
562.20 0.637
562.30 0.6366
562.40 0.6361
562.50 0.6357
562.60 0.6353
562.70 0.6348
562.80 0.6344
562.90 0.634
563.00 0.6335
563.10 0.6331
563.20 0.6327
563.30 0.6322
563.40 0.6318
563.50 0.6314
563.60 0.6309
563.70 0.6305
563.80 0.6301
563.90 0.6296
564.00 0.6292
564.10 0.6288
564.20 0.6283
564.30 0.6279
564.40 0.6275
564.50 0.6271
564.60 0.6266
564.70 0.6262
564.80 0.6258
564.90 0.6253
565.00 0.6249
565.10 0.6245
565.20 0.6241
565.30 0.6236
565.40 0.6232
565.50 0.6228
565.60 0.6224
565.70 0.6219
565.80 0.6215
565.90 0.6211
566.00 0.6207
566.10 0.6202
566.20 0.6198
566.30 0.6194
566.40 0.619
566.50 0.6185
566.60 0.6181
566.70 0.6177
566.80 0.6173
566.90 0.6169
567.00 0.6164
567.10 0.616
567.20 0.6156
567.30 0.6152
567.40 0.6148
567.50 0.6143
567.60 0.6139
567.70 0.6135
567.80 0.6131
567.90 0.6127
568.00 0.6122
568.10 0.6118
568.20 0.6114
568.30 0.611
568.40 0.6106
568.50 0.6102
568.60 0.6098
568.70 0.6093
568.80 0.6089
568.90 0.6085
569.00 0.6081
569.10 0.6077
569.20 0.6073
569.30 0.6069
569.40 0.6065
569.50 0.606
569.60 0.6056
569.70 0.6052
569.80 0.6048
569.90 0.6044
570.00 0.604
570.10 0.6036
570.20 0.6032
570.30 0.6028
570.40 0.6024
570.50 0.6019
570.60 0.6015
570.70 0.6011
570.80 0.6007
570.90 0.6003
571.00 0.5999
571.10 0.5995
571.20 0.5991
571.30 0.5987
571.40 0.5983
571.50 0.5979
571.60 0.5975
571.70 0.5971
571.80 0.5967
571.90 0.5963
572.00 0.5959
572.10 0.5955
572.20 0.5951
572.30 0.5947
572.40 0.5943
572.50 0.5939
572.60 0.5935
572.70 0.5931
572.80 0.5927
572.90 0.5923
573.00 0.5919
573.10 0.5915
573.20 0.5911
573.30 0.5907
573.40 0.5903
573.50 0.5899
573.60 0.5895
573.70 0.5891
573.80 0.5887
573.90 0.5883
574.00 0.5879
574.10 0.5875
574.20 0.5871
574.30 0.5867
574.40 0.5863
574.50 0.5859
574.60 0.5855
574.70 0.5851
574.80 0.5847
574.90 0.5843
575.00 0.5839
575.10 0.5835
575.20 0.5831
575.30 0.5828
575.40 0.5824
575.50 0.582
575.60 0.5816
575.70 0.5812
575.80 0.5808
575.90 0.5804
576.00 0.58
576.10 0.5796
576.20 0.5792
576.30 0.5789
576.40 0.5785
576.50 0.5781
576.60 0.5777
576.70 0.5773
576.80 0.5769
576.90 0.5765
577.00 0.5761
577.10 0.5758
577.20 0.5754
577.30 0.575
577.40 0.5746
577.50 0.5742
577.60 0.5738
577.70 0.5735
577.80 0.5731
577.90 0.5727
578.00 0.5723
578.10 0.5719
578.20 0.5715
578.30 0.5712
578.40 0.5708
578.50 0.5704
578.60 0.57
578.70 0.5696
578.80 0.5692
578.90 0.5689
579.00 0.5685
579.10 0.5681
579.20 0.5677
579.30 0.5673
579.40 0.567
579.50 0.5666
579.60 0.5662
579.70 0.5658
579.80 0.5655
579.90 0.5651
580.00 0.5647
580.10 0.5643
580.20 0.564
580.30 0.5636
580.40 0.5632
580.50 0.5628
580.60 0.5625
580.70 0.5621
580.80 0.5617
580.90 0.5613
581.00 0.561
581.10 0.5606
581.20 0.5602
581.30 0.5598
581.40 0.5595
581.50 0.5591
581.60 0.5587
581.70 0.5584
581.80 0.558
581.90 0.5576
582.00 0.5572
582.10 0.5569
582.20 0.5565
582.30 0.5561
582.40 0.5558
582.50 0.5554
582.60 0.555
582.70 0.5547
582.80 0.5543
582.90 0.5539
583.00 0.5535
583.10 0.5532
583.20 0.5528
583.30 0.5524
583.40 0.5521
583.50 0.5517
583.60 0.5514
583.70 0.551
583.80 0.5506
583.90 0.5503
584.00 0.5499
584.10 0.5495
584.20 0.5492
584.30 0.5488
584.40 0.5484
584.50 0.5481
584.60 0.5477
584.70 0.5474
584.80 0.547
584.90 0.5466
585.00 0.5463
585.10 0.5459
585.20 0.5455
585.30 0.5452
585.40 0.5448
585.50 0.5445
585.60 0.5441
585.70 0.5437
585.80 0.5434
585.90 0.543
586.00 0.5427
586.10 0.5423
586.20 0.542
586.30 0.5416
586.40 0.5412
586.50 0.5409
586.60 0.5405
586.70 0.5402
586.80 0.5398
586.90 0.5395
587.00 0.5391
587.10 0.5387
587.20 0.5384
587.30 0.538
587.40 0.5377
587.50 0.5373
587.60 0.537
587.70 0.5366
587.80 0.5363
587.90 0.5359
588.00 0.5356
588.10 0.5352
588.20 0.5349
588.30 0.5345
588.40 0.5342
588.50 0.5338
588.60 0.5335
588.70 0.5331
588.80 0.5328
588.90 0.5324
589.00 0.5321
589.10 0.5317
589.20 0.5314
589.30 0.531
589.40 0.5307
589.50 0.5303
589.60 0.53
589.70 0.5296
589.80 0.5293
589.90 0.5289
590.00 0.5286
590.10 0.5282
590.20 0.5279
590.30 0.5275
590.40 0.5272
590.50 0.5268
590.60 0.5265
590.70 0.5262
590.80 0.5258
590.90 0.5255
591.00 0.5251
591.10 0.5248
591.20 0.5244
591.30 0.5241
591.40 0.5237
591.50 0.5234
591.60 0.5231
591.70 0.5227
591.80 0.5224
591.90 0.522
592.00 0.5217
592.10 0.5214
592.20 0.521
592.30 0.5207
592.40 0.5203
592.50 0.52
592.60 0.5197
592.70 0.5193
592.80 0.519
592.90 0.5186
593.00 0.5183
593.10 0.518
593.20 0.5176
593.30 0.5173
593.40 0.5169
593.50 0.5166
593.60 0.5163
593.70 0.5159
593.80 0.5156
593.90 0.5153
594.00 0.5149
594.10 0.5146
594.20 0.5143
594.30 0.5139
594.40 0.5136
594.50 0.5133
594.60 0.5129
594.70 0.5126
594.80 0.5123
594.90 0.5119
595.00 0.5116
595.10 0.5113
595.20 0.5109
595.30 0.5106
595.40 0.5103
595.50 0.5099
595.60 0.5096
595.70 0.5093
595.80 0.5089
595.90 0.5086
596.00 0.5083
596.10 0.5079
596.20 0.5076
596.30 0.5073
596.40 0.507
596.50 0.5066
596.60 0.5063
596.70 0.506
596.80 0.5056
596.90 0.5053
597.00 0.505
597.10 0.5047
597.20 0.5043
597.30 0.504
597.40 0.5037
597.50 0.5034
597.60 0.503
597.70 0.5027
597.80 0.5024
597.90 0.5021
598.00 0.5017
598.10 0.5014
598.20 0.5011
598.30 0.5008
598.40 0.5004
598.50 0.5001
598.60 0.4998
598.70 0.4995
598.80 0.4991
598.90 0.4988
599.00 0.4985
599.10 0.4982
599.20 0.4978
599.30 0.4975
599.40 0.4972
599.50 0.4969
599.60 0.4966
599.70 0.4962
599.80 0.4959
599.90 0.4956
600.00 0.4953
600.10 0.495
600.20 0.4946
600.30 0.4943
600.40 0.494
600.50 0.4937
600.60 0.4934
600.70 0.4931
600.80 0.4927
600.90 0.4924
601.00 0.4921
601.10 0.4918
601.20 0.4915
601.30 0.4912
601.40 0.4908
601.50 0.4905
601.60 0.4902
601.70 0.4899
601.80 0.4896
601.90 0.4893
602.00 0.4889
602.10 0.4886
602.20 0.4883
602.30 0.488
602.40 0.4877
602.50 0.4874
602.60 0.4871
602.70 0.4868
602.80 0.4864
602.90 0.4861
603.00 0.4858
603.10 0.4855
603.20 0.4852
603.30 0.4849
603.40 0.4846
603.50 0.4843
603.60 0.4839
603.70 0.4836
603.80 0.4833
603.90 0.483
604.00 0.4827
604.10 0.4824
604.20 0.4821
604.30 0.4818
604.40 0.4815
604.50 0.4812
604.60 0.4809
604.70 0.4805
604.80 0.4802
604.90 0.4799
605.00 0.4796
605.10 0.4793
605.20 0.479
605.30 0.4787
605.40 0.4784
605.50 0.4781
605.60 0.4778
605.70 0.4775
605.80 0.4772
605.90 0.4769
606.00 0.4766
606.10 0.4763
606.20 0.476
606.30 0.4757
606.40 0.4754
606.50 0.475
606.60 0.4747
606.70 0.4744
606.80 0.4741
606.90 0.4738
607.00 0.4735
607.10 0.4732
607.20 0.4729
607.30 0.4726
607.40 0.4723
607.50 0.472
607.60 0.4717
607.70 0.4714
607.80 0.4711
607.90 0.4708
608.00 0.4705
608.10 0.4702
608.20 0.4699
608.30 0.4696
608.40 0.4693
608.50 0.469
608.60 0.4687
608.70 0.4684
608.80 0.4681
608.90 0.4678
609.00 0.4675
609.10 0.4672
609.20 0.4669
609.30 0.4666
609.40 0.4664
609.50 0.4661
609.60 0.4658
609.70 0.4655
609.80 0.4652
609.90 0.4649
610.00 0.4646
610.10 0.4643
610.20 0.464
610.30 0.4637
610.40 0.4634
610.50 0.4631
610.60 0.4628
610.70 0.4625
610.80 0.4622
610.90 0.4619
611.00 0.4616
611.10 0.4613
611.20 0.4611
611.30 0.4608
611.40 0.4605
611.50 0.4602
611.60 0.4599
611.70 0.4596
611.80 0.4593
611.90 0.459
612.00 0.4587
612.10 0.4584
612.20 0.4581
612.30 0.4579
612.40 0.4576
612.50 0.4573
612.60 0.457
612.70 0.4567
612.80 0.4564
612.90 0.4561
613.00 0.4558
613.10 0.4555
613.20 0.4553
613.30 0.455
613.40 0.4547
613.50 0.4544
613.60 0.4541
613.70 0.4538
613.80 0.4535
613.90 0.4532
614.00 0.453
614.10 0.4527
614.20 0.4524
614.30 0.4521
614.40 0.4518
614.50 0.4515
614.60 0.4512
614.70 0.451
614.80 0.4507
614.90 0.4504
615.00 0.4501
615.10 0.4498
615.20 0.4495
615.30 0.4493
615.40 0.449
615.50 0.4487
615.60 0.4484
615.70 0.4481
615.80 0.4478
615.90 0.4476
616.00 0.4473
616.10 0.447
616.20 0.4467
616.30 0.4464
616.40 0.4462
616.50 0.4459
616.60 0.4456
616.70 0.4453
616.80 0.445
616.90 0.4448
617.00 0.4445
617.10 0.4442
617.20 0.4439
617.30 0.4436
617.40 0.4434
617.50 0.4431
617.60 0.4428
617.70 0.4425
617.80 0.4423
617.90 0.442
618.00 0.4417
618.10 0.4414
618.20 0.4411
618.30 0.4409
618.40 0.4406
618.50 0.4403
618.60 0.44
618.70 0.4398
618.80 0.4395
618.90 0.4392
619.00 0.4389
619.10 0.4387
619.20 0.4384
619.30 0.4381
619.40 0.4378
619.50 0.4376
619.60 0.4373
619.70 0.437
619.80 0.4367
619.90 0.4365
620.00 0.4362
620.10 0.4359
620.20 0.4357
620.30 0.4354
620.40 0.4351
620.50 0.4348
620.60 0.4346
620.70 0.4343
620.80 0.434
620.90 0.4338
621.00 0.4335
621.10 0.4332
621.20 0.4329
621.30 0.4327
621.40 0.4324
621.50 0.4321
621.60 0.4319
621.70 0.4316
621.80 0.4313
621.90 0.4311
622.00 0.4308
622.10 0.4305
622.20 0.4302
622.30 0.43
622.40 0.4297
622.50 0.4294
622.60 0.4292
622.70 0.4289
622.80 0.4286
622.90 0.4284
623.00 0.4281
623.10 0.4278
623.20 0.4276
623.30 0.4273
623.40 0.427
623.50 0.4268
623.60 0.4265
623.70 0.4262
623.80 0.426
623.90 0.4257
624.00 0.4254
624.10 0.4252
624.20 0.4249
624.30 0.4247
624.40 0.4244
624.50 0.4241
624.60 0.4239
624.70 0.4236
624.80 0.4233
624.90 0.4231
625.00 0.4228
625.10 0.4226
625.20 0.4223
625.30 0.422
625.40 0.4218
625.50 0.4215
625.60 0.4212
625.70 0.421
625.80 0.4207
625.90 0.4205
626.00 0.4202
626.10 0.4199
626.20 0.4197
626.30 0.4194
626.40 0.4192
626.50 0.4189
626.60 0.4186
626.70 0.4184
626.80 0.4181
626.90 0.4179
627.00 0.4176
627.10 0.4173
627.20 0.4171
627.30 0.4168
627.40 0.4166
627.50 0.4163
627.60 0.416
627.70 0.4158
627.80 0.4155
627.90 0.4153
628.00 0.415
628.10 0.4148
628.20 0.4145
628.30 0.4142
628.40 0.414
628.50 0.4137
628.60 0.4135
628.70 0.4132
628.80 0.413
628.90 0.4127
629.00 0.4125
629.10 0.4122
629.20 0.4119
629.30 0.4117
629.40 0.4114
629.50 0.4112
629.60 0.4109
629.70 0.4107
629.80 0.4104
629.90 0.4102
630.00 0.4099
630.10 0.4097
630.20 0.4094
630.30 0.4092
630.40 0.4089
630.50 0.4087
630.60 0.4084
630.70 0.4082
630.80 0.4079
630.90 0.4076
631.00 0.4074
631.10 0.4071
631.20 0.4069
631.30 0.4066
631.40 0.4064
631.50 0.4061
631.60 0.4059
631.70 0.4056
631.80 0.4054
631.90 0.4051
632.00 0.4049
632.10 0.4046
632.20 0.4044
632.30 0.4041
632.40 0.4039
632.50 0.4036
632.60 0.4034
632.70 0.4031
632.80 0.4029
632.90 0.4026
633.00 0.4024
633.10 0.4022
633.20 0.4019
633.30 0.4017
633.40 0.4014
633.50 0.4012
633.60 0.4009
633.70 0.4007
633.80 0.4004
633.90 0.4002
634.00 0.3999
634.10 0.3997
634.20 0.3994
634.30 0.3992
634.40 0.3989
634.50 0.3987
634.60 0.3985
634.70 0.3982
634.80 0.398
634.90 0.3977
635.00 0.3975
635.10 0.3972
635.20 0.397
635.30 0.3967
635.40 0.3965
635.50 0.3963
635.60 0.396
635.70 0.3958
635.80 0.3955
635.90 0.3953
636.00 0.395
636.10 0.3948
636.20 0.3945
636.30 0.3943
636.40 0.3941
636.50 0.3938
636.60 0.3936
636.70 0.3933
636.80 0.3931
636.90 0.3928
637.00 0.3926
637.10 0.3924
637.20 0.3921
637.30 0.3919
637.40 0.3916
637.50 0.3914
637.60 0.3912
637.70 0.3909
637.80 0.3907
637.90 0.3904
638.00 0.3902
638.10 0.39
638.20 0.3897
638.30 0.3895
638.40 0.3892
638.50 0.389
638.60 0.3888
638.70 0.3885
638.80 0.3883
638.90 0.388
639.00 0.3878
639.10 0.3876
639.20 0.3873
639.30 0.3871
639.40 0.3868
639.50 0.3866
639.60 0.3864
639.70 0.3861
639.80 0.3859
639.90 0.3856
640.00 0.3854
640.10 0.3852
640.20 0.3849
640.30 0.3847
640.40 0.3845
640.50 0.3842
640.60 0.384
640.70 0.3837
640.80 0.3835
640.90 0.3833
641.00 0.383
641.10 0.3828
641.20 0.3825
641.30 0.3823
641.40 0.3821
641.50 0.3818
641.60 0.3816
641.70 0.3814
641.80 0.3811
641.90 0.3809
642.00 0.3806
642.10 0.3804
642.20 0.3802
642.30 0.3799
642.40 0.3797
642.50 0.3795
642.60 0.3792
642.70 0.379
642.80 0.3787
642.90 0.3785
643.00 0.3783
643.10 0.378
643.20 0.3778
643.30 0.3776
643.40 0.3773
643.50 0.3771
643.60 0.3768
643.70 0.3766
643.80 0.3764
643.90 0.3761
644.00 0.3759
644.10 0.3756
644.20 0.3754
644.30 0.3752
644.40 0.3749
644.50 0.3747
644.60 0.3744
644.70 0.3742
644.80 0.374
644.90 0.3737
645.00 0.3735
645.10 0.3732
645.20 0.373
645.30 0.3728
645.40 0.3725
645.50 0.3723
645.60 0.372
645.70 0.3718
645.80 0.3716
645.90 0.3713
646.00 0.3711
646.10 0.3708
646.20 0.3706
646.30 0.3703
646.40 0.3701
646.50 0.3698
646.60 0.3696
646.70 0.3693
646.80 0.3691
646.90 0.3688
647.00 0.3686
647.10 0.3684
647.20 0.3681
647.30 0.3679
647.40 0.3676
647.50 0.3673
647.60 0.3671
647.70 0.3668
647.80 0.3666
647.90 0.3663
648.00 0.3661
648.10 0.3658
648.20 0.3655
648.30 0.3653
648.40 0.365
648.50 0.3647
648.60 0.3645
648.70 0.3642
648.80 0.3639
648.90 0.3637
649.00 0.3634
649.10 0.3631
649.20 0.3629
649.30 0.3626
649.40 0.3623
649.50 0.362
649.60 0.3617
649.70 0.3614
649.80 0.3611
649.90 0.3608
650.00 0.3605
650.10 0.3602
650.20 0.3599
650.30 0.3596
650.40 0.3593
650.50 0.359
650.60 0.3586
650.70 0.3583
650.80 0.358
650.90 0.3576
651.00 0.3573
651.10 0.357
651.20 0.3566
651.30 0.3563
651.40 0.3559
651.50 0.3555
651.60 0.3551
651.70 0.3547
651.80 0.3543
651.90 0.3539
652.00 0.3535
652.10 0.3531
652.20 0.3527
652.30 0.3523
652.40 0.3518
652.50 0.3513
652.60 0.3508
652.70 0.3502
652.80 0.3497
652.90 0.3492
653.00 0.3487
653.10 0.3482
653.20 0.3477
653.30 0.3472
653.40 0.3465
653.50 0.3458
653.60 0.3451
653.70 0.3444
653.80 0.3437
653.90 0.343
654.00 0.3423
654.10 0.3416
654.20 0.3409
654.30 0.3402
654.40 0.3393
654.50 0.3384
654.60 0.3376
654.70 0.3367
654.80 0.3358
654.90 0.3348
655.00 0.3338
655.10 0.3328
655.20 0.3318
655.30 0.3308
655.40 0.3297
655.50 0.3286
655.60 0.3275
655.70 0.3264
655.80 0.3252
655.90 0.3241
656.00 0.3233
656.10 0.3229
656.20 0.3317
656.30 0.3447
656.40 0.3257
656.50 0.3221
656.60 0.3225
656.70 0.3229
656.80 0.3237
656.90 0.3245
657.00 0.3252
657.10 0.326
657.20 0.3267
657.30 0.3273
657.40 0.3279
657.50 0.3285
657.60 0.3291
657.70 0.3297
657.80 0.3303
657.90 0.3308
658.00 0.3313
658.10 0.3317
658.20 0.3322
658.30 0.3327
658.40 0.3329
658.50 0.3332
658.60 0.3335
658.70 0.3338
658.80 0.3341
658.90 0.3344
659.00 0.3346
659.10 0.3349
659.20 0.3352
659.30 0.3354
659.40 0.3355
659.50 0.3356
659.60 0.3357
659.70 0.3358
659.80 0.3359
659.90 0.336
660.00 0.3361
660.10 0.3362
660.20 0.3363
660.30 0.3364
660.40 0.3363
660.50 0.3363
660.60 0.3363
660.70 0.3363
660.80 0.3363
660.90 0.3362
661.00 0.3362
661.10 0.3362
661.20 0.3362
661.30 0.3361
661.40 0.3361
661.50 0.336
661.60 0.3359
661.70 0.3358
661.80 0.3357
661.90 0.3356
662.00 0.3355
662.10 0.3354
662.20 0.3354
662.30 0.3353
662.40 0.3351
662.50 0.335
662.60 0.3349
662.70 0.3348
662.80 0.3346
662.90 0.3345
663.00 0.3344
663.10 0.3343
663.20 0.3341
663.30 0.334
663.40 0.3339
663.50 0.3337
663.60 0.3336
663.70 0.3334
663.80 0.3333
663.90 0.3331
664.00 0.333
664.10 0.3328
664.20 0.3327
664.30 0.3325
664.40 0.3324
664.50 0.3322
664.60 0.332
664.70 0.3319
664.80 0.3317
664.90 0.3315
665.00 0.3314
665.10 0.3312
665.20 0.3311
665.30 0.3309
665.40 0.3307
665.50 0.3306
665.60 0.3304
665.70 0.3302
665.80 0.33
665.90 0.3299
666.00 0.3297
666.10 0.3295
666.20 0.3294
666.30 0.3292
666.40 0.329
666.50 0.3289
666.60 0.3287
666.70 0.3285
666.80 0.3283
666.90 0.3282
667.00 0.328
667.10 0.3278
667.20 0.3276
667.30 0.3275
667.40 0.3273
667.50 0.3271
667.60 0.3269
667.70 0.3267
667.80 0.3266
667.90 0.3264
668.00 0.3262
668.10 0.326
668.20 0.3259
668.30 0.3257
668.40 0.3255
668.50 0.3253
668.60 0.3251
668.70 0.325
668.80 0.3248
668.90 0.3246
669.00 0.3244
669.10 0.3242
669.20 0.3241
669.30 0.3239
669.40 0.3237
669.50 0.3235
669.60 0.3233
669.70 0.3232
669.80 0.323
669.90 0.3228
670.00 0.3226
670.10 0.3224
670.20 0.3223
670.30 0.3221
670.40 0.3219
670.50 0.3217
670.60 0.3215
670.70 0.3214
670.80 0.3212
670.90 0.321
671.00 0.3208
671.10 0.3206
671.20 0.3205
671.30 0.3203
671.40 0.3201
671.50 0.3199
671.60 0.3197
671.70 0.3196
671.80 0.3194
671.90 0.3192
672.00 0.319
672.10 0.3188
672.20 0.3187
672.30 0.3185
672.40 0.3183
672.50 0.3181
672.60 0.318
672.70 0.3178
672.80 0.3176
672.90 0.3174
673.00 0.3172
673.10 0.3171
673.20 0.3169
673.30 0.3167
673.40 0.3165
673.50 0.3163
673.60 0.3162
673.70 0.316
673.80 0.3158
673.90 0.3156
674.00 0.3154
674.10 0.3153
674.20 0.3151
674.30 0.3149
674.40 0.3147
674.50 0.3145
674.60 0.3144
674.70 0.3142
674.80 0.314
674.90 0.3138
675.00 0.3137
675.10 0.3135
675.20 0.3133
675.30 0.3131
675.40 0.3129
675.50 0.3128
675.60 0.3126
675.70 0.3124
675.80 0.3122
675.90 0.3121
676.00 0.3119
676.10 0.3117
676.20 0.3115
676.30 0.3114
676.40 0.3112
676.50 0.311
676.60 0.3108
676.70 0.3106
676.80 0.3105
676.90 0.3103
677.00 0.3101
677.10 0.3099
677.20 0.3098
677.30 0.3096
677.40 0.3094
677.50 0.3092
677.60 0.3091
677.70 0.3089
677.80 0.3087
677.90 0.3085
678.00 0.3084
678.10 0.3082
678.20 0.308
678.30 0.3078
678.40 0.3077
678.50 0.3075
678.60 0.3073
678.70 0.3071
678.80 0.307
678.90 0.3068
679.00 0.3066
679.10 0.3064
679.20 0.3063
679.30 0.3061
679.40 0.3059
679.50 0.3057
679.60 0.3056
679.70 0.3054
679.80 0.3052
679.90 0.3051
680.00 0.3049
680.10 0.3047
680.20 0.3045
680.30 0.3044
680.40 0.3042
680.50 0.304
680.60 0.3038
680.70 0.3037
680.80 0.3035
680.90 0.3033
681.00 0.3032
681.10 0.303
681.20 0.3028
681.30 0.3026
681.40 0.3025
681.50 0.3023
681.60 0.3021
681.70 0.302
681.80 0.3018
681.90 0.3016
682.00 0.3014
682.10 0.3013
682.20 0.3011
682.30 0.3009
682.40 0.3008
682.50 0.3006
682.60 0.3004
682.70 0.3003
682.80 0.3001
682.90 0.2999
683.00 0.2997
683.10 0.2996
683.20 0.2994
683.30 0.2992
683.40 0.2991
683.50 0.2989
683.60 0.2987
683.70 0.2986
683.80 0.2984
683.90 0.2982
684.00 0.2981
684.10 0.2979
684.20 0.2977
684.30 0.2975
684.40 0.2974
684.50 0.2972
684.60 0.297
684.70 0.2969
684.80 0.2967
684.90 0.2965
685.00 0.2964
685.10 0.2962
685.20 0.296
685.30 0.2959
685.40 0.2957
685.50 0.2955
685.60 0.2954
685.70 0.2952
685.80 0.295
685.90 0.2949
686.00 0.2947
686.10 0.2945
686.20 0.2944
686.30 0.2942
686.40 0.294
686.50 0.2939
686.60 0.2937
686.70 0.2935
686.80 0.2934
686.90 0.2932
687.00 0.293
687.10 0.2929
687.20 0.2927
687.30 0.2926
687.40 0.2924
687.50 0.2922
687.60 0.2921
687.70 0.2919
687.80 0.2917
687.90 0.2916
688.00 0.2914
688.10 0.2912
688.20 0.2911
688.30 0.2909
688.40 0.2907
688.50 0.2906
688.60 0.2904
688.70 0.2903
688.80 0.2901
688.90 0.2899
689.00 0.2898
689.10 0.2896
689.20 0.2894
689.30 0.2893
689.40 0.2891
689.50 0.289
689.60 0.2888
689.70 0.2886
689.80 0.2885
689.90 0.2883
690.00 0.2882
690.10 0.288
690.20 0.2878
690.30 0.2877
690.40 0.2875
690.50 0.2873
690.60 0.2872
690.70 0.287
690.80 0.2869
690.90 0.2867
691.00 0.2865
691.10 0.2864
691.20 0.2862
691.30 0.2861
691.40 0.2859
691.50 0.2857
691.60 0.2856
691.70 0.2854
691.80 0.2853
691.90 0.2851
692.00 0.2849
692.10 0.2848
692.20 0.2846
692.30 0.2845
692.40 0.2843
692.50 0.2841
692.60 0.284
692.70 0.2838
692.80 0.2837
692.90 0.2835
693.00 0.2834
693.10 0.2832
693.20 0.283
693.30 0.2829
693.40 0.2827
693.50 0.2826
693.60 0.2824
693.70 0.2822
693.80 0.2821
693.90 0.2819
694.00 0.2818
694.10 0.2816
694.20 0.2815
694.30 0.2813
694.40 0.2811
694.50 0.281
694.60 0.2808
694.70 0.2807
694.80 0.2805
694.90 0.2804
695.00 0.2802
695.10 0.28
695.20 0.2799
695.30 0.2797
695.40 0.2796
695.50 0.2794
695.60 0.2793
695.70 0.2791
695.80 0.279
695.90 0.2788
696.00 0.2786
696.10 0.2785
696.20 0.2783
696.30 0.2782
696.40 0.278
696.50 0.2779
696.60 0.2777
696.70 0.2776
696.80 0.2774
696.90 0.2773
697.00 0.2771
697.10 0.2769
697.20 0.2768
697.30 0.2766
697.40 0.2765
697.50 0.2763
697.60 0.2762
697.70 0.276
697.80 0.2759
697.90 0.2757
698.00 0.2756
698.10 0.2754
698.20 0.2753
698.30 0.2751
698.40 0.2749
698.50 0.2748
698.60 0.2746
698.70 0.2745
698.80 0.2743
698.90 0.2742
699.00 0.274
699.10 0.2739
699.20 0.2737
699.30 0.2736
699.40 0.2734
699.50 0.2733
699.60 0.2731
699.70 0.273
699.80 0.2728
699.90 0.2727
700.00 0.2725
700.10 0.2724
700.20 0.2722
700.30 0.2721
700.40 0.2719
700.50 0.2718
700.60 0.2716
700.70 0.2715
700.80 0.2713
700.90 0.2712
701.00 0.271
701.10 0.2709
701.20 0.2707
701.30 0.2706
701.40 0.2704
701.50 0.2703
701.60 0.2701
701.70 0.27
701.80 0.2698
701.90 0.2697
702.00 0.2695
702.10 0.2694
702.20 0.2692
702.30 0.2691
702.40 0.2689
702.50 0.2688
702.60 0.2686
702.70 0.2685
702.80 0.2683
702.90 0.2682
703.00 0.268
703.10 0.2679
703.20 0.2677
703.30 0.2676
703.40 0.2674
703.50 0.2673
703.60 0.2671
703.70 0.267
703.80 0.2669
703.90 0.2667
704.00 0.2666
704.10 0.2664
704.20 0.2663
704.30 0.2661
704.40 0.266
704.50 0.2658
704.60 0.2657
704.70 0.2655
704.80 0.2654
704.90 0.2652
705.00 0.2651
705.10 0.2649
705.20 0.2648
705.30 0.2647
705.40 0.2645
705.50 0.2644
705.60 0.2642
705.70 0.2641
705.80 0.2639
705.90 0.2638
706.00 0.2636
706.10 0.2635
706.20 0.2634
706.30 0.2632
706.40 0.2631
706.50 0.2629
706.60 0.2628
706.70 0.2626
706.80 0.2625
706.90 0.2623
707.00 0.2622
707.10 0.2621
707.20 0.2619
707.30 0.2618
707.40 0.2616
707.50 0.2615
707.60 0.2613
707.70 0.2612
707.80 0.2611
707.90 0.2609
708.00 0.2608
708.10 0.2606
708.20 0.2605
708.30 0.2603
708.40 0.2602
708.50 0.2601
708.60 0.2599
708.70 0.2598
708.80 0.2596
708.90 0.2595
709.00 0.2593
709.10 0.2592
709.20 0.2591
709.30 0.2589
709.40 0.2588
709.50 0.2586
709.60 0.2585
709.70 0.2583
709.80 0.2582
709.90 0.2581
710.00 0.2579
710.10 0.2578
710.20 0.2576
710.30 0.2575
710.40 0.2574
710.50 0.2572
710.60 0.2571
710.70 0.2569
710.80 0.2568
710.90 0.2567
711.00 0.2565
711.10 0.2564
711.20 0.2562
711.30 0.2561
711.40 0.256
711.50 0.2558
711.60 0.2557
711.70 0.2555
711.80 0.2554
711.90 0.2553
712.00 0.2551
712.10 0.255
712.20 0.2548
712.30 0.2547
712.40 0.2546
712.50 0.2544
712.60 0.2543
712.70 0.2542
712.80 0.254
712.90 0.2539
713.00 0.2537
713.10 0.2536
713.20 0.2535
713.30 0.2533
713.40 0.2532
713.50 0.253
713.60 0.2529
713.70 0.2528
713.80 0.2526
713.90 0.2525
714.00 0.2524
714.10 0.2522
714.20 0.2521
714.30 0.2519
714.40 0.2518
714.50 0.2517
714.60 0.2515
714.70 0.2514
714.80 0.2513
714.90 0.2511
715.00 0.251
715.10 0.2509
715.20 0.2507
715.30 0.2506
715.40 0.2504
715.50 0.2503
715.60 0.2502
715.70 0.25
715.80 0.2499
715.90 0.2498
716.00 0.2496
716.10 0.2495
716.20 0.2494
716.30 0.2492
716.40 0.2491
716.50 0.249
716.60 0.2488
716.70 0.2487
716.80 0.2486
716.90 0.2484
717.00 0.2483
717.10 0.2482
717.20 0.248
717.30 0.2479
717.40 0.2478
717.50 0.2476
717.60 0.2475
717.70 0.2473
717.80 0.2472
717.90 0.2471
718.00 0.2469
718.10 0.2468
718.20 0.2467
718.30 0.2465
718.40 0.2464
718.50 0.2463
718.60 0.2461
718.70 0.246
718.80 0.2459
718.90 0.2457
719.00 0.2456
719.10 0.2455
719.20 0.2453
719.30 0.2452
719.40 0.2451
719.50 0.2449
719.60 0.2448
719.70 0.2447
719.80 0.2446
719.90 0.2444
720.00 0.2443
720.10 0.2442
720.20 0.244
720.30 0.2439
720.40 0.2438
720.50 0.2436
720.60 0.2435
720.70 0.2434
720.80 0.2432
720.90 0.2431
721.00 0.243
721.10 0.2428
721.20 0.2427
721.30 0.2426
721.40 0.2425
721.50 0.2423
721.60 0.2422
721.70 0.2421
721.80 0.2419
721.90 0.2418
722.00 0.2417
722.10 0.2415
722.20 0.2414
722.30 0.2413
722.40 0.2412
722.50 0.241
722.60 0.2409
722.70 0.2408
722.80 0.2406
722.90 0.2405
723.00 0.2404
723.10 0.2403
723.20 0.2401
723.30 0.24
723.40 0.2399
723.50 0.2397
723.60 0.2396
723.70 0.2395
723.80 0.2393
723.90 0.2392
724.00 0.2391
724.10 0.239
724.20 0.2388
724.30 0.2387
724.40 0.2386
724.50 0.2384
724.60 0.2383
724.70 0.2382
724.80 0.2381
724.90 0.2379
725.00 0.2378
725.10 0.2377
725.20 0.2376
725.30 0.2374
725.40 0.2373
725.50 0.2372
725.60 0.237
725.70 0.2369
725.80 0.2368
725.90 0.2367
726.00 0.2365
726.10 0.2364
726.20 0.2363
726.30 0.2362
726.40 0.236
726.50 0.2359
726.60 0.2358
726.70 0.2357
726.80 0.2355
726.90 0.2354
727.00 0.2353
727.10 0.2352
727.20 0.235
727.30 0.2349
727.40 0.2348
727.50 0.2347
727.60 0.2345
727.70 0.2344
727.80 0.2343
727.90 0.2342
728.00 0.234
728.10 0.2339
728.20 0.2338
728.30 0.2337
728.40 0.2335
728.50 0.2334
728.60 0.2333
728.70 0.2332
728.80 0.233
728.90 0.2329
729.00 0.2328
729.10 0.2327
729.20 0.2325
729.30 0.2324
729.40 0.2323
729.50 0.2322
729.60 0.232
729.70 0.2319
729.80 0.2318
729.90 0.2317
730.00 0.2315
730.10 0.2314
730.20 0.2313
730.30 0.2312
730.40 0.2311
730.50 0.2309
730.60 0.2308
730.70 0.2307
730.80 0.2306
730.90 0.2304
731.00 0.2303
731.10 0.2302
731.20 0.2301
731.30 0.23
731.40 0.2298
731.50 0.2297
731.60 0.2296
731.70 0.2295
731.80 0.2294
731.90 0.2292
732.00 0.2291
732.10 0.229
732.20 0.2289
732.30 0.2288
732.40 0.2286
732.50 0.2285
732.60 0.2284
732.70 0.2283
732.80 0.2282
732.90 0.228
733.00 0.2279
733.10 0.2278
733.20 0.2277
733.30 0.2275
733.40 0.2274
733.50 0.2273
733.60 0.2272
733.70 0.2271
733.80 0.2269
733.90 0.2268
734.00 0.2267
734.10 0.2266
734.20 0.2265
734.30 0.2264
734.40 0.2262
734.50 0.2261
734.60 0.226
734.70 0.2259
734.80 0.2258
734.90 0.2256
735.00 0.2255
735.10 0.2254
735.20 0.2253
735.30 0.2252
735.40 0.225
735.50 0.2249
735.60 0.2248
735.70 0.2247
735.80 0.2246
735.90 0.2244
736.00 0.2243
736.10 0.2242
736.20 0.2241
736.30 0.224
736.40 0.2239
736.50 0.2237
736.60 0.2236
736.70 0.2235
736.80 0.2234
736.90 0.2233
737.00 0.2231
737.10 0.223
737.20 0.2229
737.30 0.2228
737.40 0.2227
737.50 0.2226
737.60 0.2224
737.70 0.2223
737.80 0.2222
737.90 0.2221
738.00 0.222
738.10 0.2218
738.20 0.2217
738.30 0.2216
738.40 0.2215
738.50 0.2214
738.60 0.2213
738.70 0.2211
738.80 0.221
738.90 0.2209
739.00 0.2208
739.10 0.2207
739.20 0.2206
739.30 0.2204
739.40 0.2203
739.50 0.2202
739.60 0.2201
739.70 0.22
739.80 0.2199
739.90 0.2197
740.00 0.2196
740.10 0.2195
740.20 0.2194
740.30 0.2193
740.40 0.2192
740.50 0.2191
740.60 0.2189
740.70 0.2188
740.80 0.2187
740.90 0.2186
741.00 0.2185
741.10 0.2184
741.20 0.2183
741.30 0.2181
741.40 0.218
741.50 0.2179
741.60 0.2178
741.70 0.2177
741.80 0.2176
741.90 0.2175
742.00 0.2174
742.10 0.2172
742.20 0.2171
742.30 0.217
742.40 0.2169
742.50 0.2168
742.60 0.2167
742.70 0.2166
742.80 0.2164
742.90 0.2163
743.00 0.2162
743.10 0.2161
743.20 0.216
743.30 0.2159
743.40 0.2158
743.50 0.2157
743.60 0.2155
743.70 0.2154
743.80 0.2153
743.90 0.2152
744.00 0.2151
744.10 0.215
744.20 0.2149
744.30 0.2148
744.40 0.2146
744.50 0.2145
744.60 0.2144
744.70 0.2143
744.80 0.2142
744.90 0.2141
745.00 0.214
745.10 0.2139
745.20 0.2138
745.30 0.2136
745.40 0.2135
745.50 0.2134
745.60 0.2133
745.70 0.2132
745.80 0.2131
745.90 0.213
746.00 0.2129
746.10 0.2128
746.20 0.2126
746.30 0.2125
746.40 0.2124
746.50 0.2123
746.60 0.2122
746.70 0.2121
746.80 0.212
746.90 0.2119
747.00 0.2118
747.10 0.2116
747.20 0.2115
747.30 0.2114
747.40 0.2113
747.50 0.2112
747.60 0.2111
747.70 0.211
747.80 0.2109
747.90 0.2108
748.00 0.2107
748.10 0.2105
748.20 0.2104
748.30 0.2103
748.40 0.2102
748.50 0.2101
748.60 0.21
748.70 0.2099
748.80 0.2098
748.90 0.2097
749.00 0.2096
749.10 0.2094
749.20 0.2093
749.30 0.2092
749.40 0.2091
749.50 0.209
749.60 0.2089
749.70 0.2088
749.80 0.2087
749.90 0.2086
750.00 0.2085
750.10 0.2084
750.20 0.2082
750.30 0.2081
750.40 0.208
750.50 0.2079
750.60 0.2078
750.70 0.2077
750.80 0.2076
750.90 0.2075
751.00 0.2074
751.10 0.2073
751.20 0.2072
751.30 0.2071
751.40 0.207
751.50 0.2069
751.60 0.2068
751.70 0.2067
751.80 0.2065
751.90 0.2064
752.00 0.2063
752.10 0.2062
752.20 0.2061
752.30 0.206
752.40 0.2059
752.50 0.2058
752.60 0.2057
752.70 0.2056
752.80 0.2055
752.90 0.2054
753.00 0.2053
753.10 0.2052
753.20 0.2051
753.30 0.205
753.40 0.2049
753.50 0.2047
753.60 0.2046
753.70 0.2045
753.80 0.2044
753.90 0.2043
754.00 0.2042
754.10 0.2041
754.20 0.204
754.30 0.2039
754.40 0.2038
754.50 0.2037
754.60 0.2036
754.70 0.2035
754.80 0.2034
754.90 0.2033
755.00 0.2032
755.10 0.2031
755.20 0.203
755.30 0.2029
755.40 0.2028
755.50 0.2026
755.60 0.2025
755.70 0.2024
755.80 0.2023
755.90 0.2022
756.00 0.2021
756.10 0.202
756.20 0.2019
756.30 0.2018
756.40 0.2017
756.50 0.2016
756.60 0.2015
756.70 0.2014
756.80 0.2013
756.90 0.2012
757.00 0.2011
757.10 0.201
757.20 0.2009
757.30 0.2008
757.40 0.2007
757.50 0.2006
757.60 0.2005
757.70 0.2004
757.80 0.2003
757.90 0.2002
758.00 0.2001
758.10 0.2
758.20 0.1998
758.30 0.1997
758.40 0.1996
758.50 0.1995
758.60 0.1994
758.70 0.1993
758.80 0.1992
758.90 0.1991
759.00 0.199
759.10 0.1989
759.20 0.1988
759.30 0.1987
759.40 0.1986
759.50 0.1985
759.60 0.1984
759.70 0.1983
759.80 0.1982
759.90 0.1981
760.00 0.198
760.10 0.1979
760.20 0.1978
760.30 0.1977
760.40 0.1976
760.50 0.1975
760.60 0.1974
760.70 0.1973
760.80 0.1972
760.90 0.1971
761.00 0.197
761.10 0.1969
761.20 0.1968
761.30 0.1967
761.40 0.1966
761.50 0.1965
761.60 0.1964
761.70 0.1963
761.80 0.1962
761.90 0.1961
762.00 0.196
762.10 0.1959
762.20 0.1958
762.30 0.1957
762.40 0.1956
762.50 0.1955
762.60 0.1954
762.70 0.1953
762.80 0.1952
762.90 0.1951
763.00 0.195
763.10 0.1949
763.20 0.1948
763.30 0.1947
763.40 0.1946
763.50 0.1945
763.60 0.1944
763.70 0.1943
763.80 0.1942
763.90 0.1941
764.00 0.194
764.10 0.1939
764.20 0.1938
764.30 0.1937
764.40 0.1936
764.50 0.1935
764.60 0.1934
764.70 0.1933
764.80 0.1932
764.90 0.1931
765.00 0.193
765.10 0.1929
765.20 0.1928
765.30 0.1927
765.40 0.1926
765.50 0.1926
765.60 0.1925
765.70 0.1924
765.80 0.1923
765.90 0.1922
766.00 0.1921
766.10 0.192
766.20 0.1919
766.30 0.1918
766.40 0.1917
766.50 0.1916
766.60 0.1915
766.70 0.1914
766.80 0.1913
766.90 0.1912
767.00 0.1911
767.10 0.191
767.20 0.1909
767.30 0.1908
767.40 0.1907
767.50 0.1906
767.60 0.1905
767.70 0.1904
767.80 0.1903
767.90 0.1902
768.00 0.1901
768.10 0.19
768.20 0.1899
768.30 0.1898
768.40 0.1897
768.50 0.1896
768.60 0.1895
768.70 0.1894
768.80 0.1893
768.90 0.1892
769.00 0.1892
769.10 0.1891
769.20 0.189
769.30 0.1889
769.40 0.1888
769.50 0.1887
769.60 0.1886
769.70 0.1885
769.80 0.1884
769.90 0.1883
770.00 0.1882
770.10 0.1881
770.20 0.188
770.30 0.1879
770.40 0.1878
770.50 0.1877
770.60 0.1876
770.70 0.1875
770.80 0.1874
770.90 0.1873
771.00 0.1873
771.10 0.1872
771.20 0.1871
771.30 0.187
771.40 0.1869
771.50 0.1868
771.60 0.1867
771.70 0.1866
771.80 0.1865
771.90 0.1864
772.00 0.1863
772.10 0.1862
772.20 0.1861
772.30 0.186
772.40 0.1859
772.50 0.1858
772.60 0.1858
772.70 0.1857
772.80 0.1856
772.90 0.1855
773.00 0.1854
773.10 0.1853
773.20 0.1852
773.30 0.1851
773.40 0.185
773.50 0.1849
773.60 0.1848
773.70 0.1847
773.80 0.1846
773.90 0.1845
774.00 0.1845
774.10 0.1844
774.20 0.1843
774.30 0.1842
774.40 0.1841
774.50 0.184
774.60 0.1839
774.70 0.1838
774.80 0.1837
774.90 0.1836
775.00 0.1835
775.10 0.1834
775.20 0.1834
775.30 0.1833
775.40 0.1832
775.50 0.1831
775.60 0.183
775.70 0.1829
775.80 0.1828
775.90 0.1827
776.00 0.1826
776.10 0.1825
776.20 0.1824
776.30 0.1823
776.40 0.1822
776.50 0.1822
776.60 0.1821
776.70 0.182
776.80 0.1819
776.90 0.1818
777.00 0.1817
777.10 0.1816
777.20 0.1815
777.30 0.1814
777.40 0.1813
777.50 0.1812
777.60 0.1812
777.70 0.1811
777.80 0.181
777.90 0.1809
778.00 0.1808
778.10 0.1807
778.20 0.1806
778.30 0.1805
778.40 0.1804
778.50 0.1803
778.60 0.1802
778.70 0.1802
778.80 0.1801
778.90 0.18
779.00 0.1799
779.10 0.1798
779.20 0.1797
779.30 0.1796
779.40 0.1795
779.50 0.1794
779.60 0.1793
779.70 0.1793
779.80 0.1792
779.90 0.1791
780.00 0.179
780.10 0.1789
780.20 0.1788
780.30 0.1787
780.40 0.1786
780.50 0.1785
780.60 0.1785
780.70 0.1784
780.80 0.1783
780.90 0.1782
781.00 0.1781
781.10 0.178
781.20 0.1779
781.30 0.1778
781.40 0.1777
781.50 0.1777
781.60 0.1776
781.70 0.1775
781.80 0.1774
781.90 0.1773
782.00 0.1772
782.10 0.1771
782.20 0.177
782.30 0.177
782.40 0.1769
782.50 0.1768
782.60 0.1767
782.70 0.1766
782.80 0.1765
782.90 0.1764
783.00 0.1763
783.10 0.1763
783.20 0.1762
783.30 0.1761
783.40 0.176
783.50 0.1759
783.60 0.1758
783.70 0.1757
783.80 0.1756
783.90 0.1756
784.00 0.1755
784.10 0.1754
784.20 0.1753
784.30 0.1752
784.40 0.1751
784.50 0.175
784.60 0.175
784.70 0.1749
784.80 0.1748
784.90 0.1747
785.00 0.1746
785.10 0.1745
785.20 0.1744
785.30 0.1743
785.40 0.1743
785.50 0.1742
785.60 0.1741
785.70 0.174
785.80 0.1739
785.90 0.1738
786.00 0.1737
786.10 0.1737
786.20 0.1736
786.30 0.1735
786.40 0.1734
786.50 0.1733
786.60 0.1732
786.70 0.1731
786.80 0.1731
786.90 0.173
787.00 0.1729
787.10 0.1728
787.20 0.1727
787.30 0.1726
787.40 0.1725
787.50 0.1725
787.60 0.1724
787.70 0.1723
787.80 0.1722
787.90 0.1721
788.00 0.172
788.10 0.1719
788.20 0.1719
788.30 0.1718
788.40 0.1717
788.50 0.1716
788.60 0.1715
788.70 0.1714
788.80 0.1713
788.90 0.1713
789.00 0.1712
789.10 0.1711
789.20 0.171
789.30 0.1709
789.40 0.1708
789.50 0.1708
789.60 0.1707
789.70 0.1706
789.80 0.1705
789.90 0.1704
790.00 0.1703
790.10 0.1702
790.20 0.1702
790.30 0.1701
790.40 0.17
790.50 0.1699
790.60 0.1698
790.70 0.1697
790.80 0.1697
790.90 0.1696
791.00 0.1695
791.10 0.1694
791.20 0.1693
791.30 0.1693
791.40 0.1692
791.50 0.1691
791.60 0.169
791.70 0.1689
791.80 0.1688
791.90 0.1688
792.00 0.1687
792.10 0.1686
792.20 0.1685
792.30 0.1684
792.40 0.1683
792.50 0.1683
792.60 0.1682
792.70 0.1681
792.80 0.168
792.90 0.1679
793.00 0.1679
793.10 0.1678
793.20 0.1677
793.30 0.1676
793.40 0.1675
793.50 0.1674
793.60 0.1674
793.70 0.1673
793.80 0.1672
793.90 0.1671
794.00 0.167
794.10 0.167
794.20 0.1669
794.30 0.1668
794.40 0.1667
794.50 0.1666
794.60 0.1665
794.70 0.1665
794.80 0.1664
794.90 0.1663
795.00 0.1662
795.10 0.1661
795.20 0.1661
795.30 0.166
795.40 0.1659
795.50 0.1658
795.60 0.1657
795.70 0.1656
795.80 0.1656
795.90 0.1655
796.00 0.1654
796.10 0.1653
796.20 0.1652
796.30 0.1652
796.40 0.1651
796.50 0.165
796.60 0.1649
796.70 0.1648
796.80 0.1648
796.90 0.1647
797.00 0.1646
797.10 0.1645
797.20 0.1644
797.30 0.1644
797.40 0.1643
797.50 0.1642
797.60 0.1641
797.70 0.164
797.80 0.164
797.90 0.1639
798.00 0.1638
798.10 0.1637
798.20 0.1636
798.30 0.1636
798.40 0.1635
798.50 0.1634
798.60 0.1633
798.70 0.1632
798.80 0.1632
798.90 0.1631
799.00 0.163
799.10 0.1629
799.20 0.1628
799.30 0.1628
799.40 0.1627
799.50 0.1626
799.60 0.1625
799.70 0.1624
799.80 0.1624
799.90 0.1623
800.00 0.1622
800.10 0.1621
800.20 0.162
800.30 0.162
800.40 0.1619
800.50 0.1618
800.60 0.1617
800.70 0.1616
800.80 0.1616
800.90 0.1615
801.00 0.1614
801.10 0.1613
801.20 0.1613
801.30 0.1612
801.40 0.1611
801.50 0.161
801.60 0.1609
801.70 0.1609
801.80 0.1608
801.90 0.1607
802.00 0.1606
802.10 0.1606
802.20 0.1605
802.30 0.1604
802.40 0.1603
802.50 0.1602
802.60 0.1602
802.70 0.1601
802.80 0.16
802.90 0.1599
803.00 0.1599
803.10 0.1598
803.20 0.1597
803.30 0.1596
803.40 0.1596
803.50 0.1595
803.60 0.1594
803.70 0.1593
803.80 0.1592
803.90 0.1592
804.00 0.1591
804.10 0.159
804.20 0.1589
804.30 0.1589
804.40 0.1588
804.50 0.1587
804.60 0.1586
804.70 0.1586
804.80 0.1585
804.90 0.1584
805.00 0.1583
805.10 0.1582
805.20 0.1582
805.30 0.1581
805.40 0.158
805.50 0.1579
805.60 0.1579
805.70 0.1578
805.80 0.1577
805.90 0.1576
806.00 0.1576
806.10 0.1575
806.20 0.1574
806.30 0.1573
806.40 0.1573
806.50 0.1572
806.60 0.1571
806.70 0.157
806.80 0.157
806.90 0.1569
807.00 0.1568
807.10 0.1567
807.20 0.1567
807.30 0.1566
807.40 0.1565
807.50 0.1564
807.60 0.1563
807.70 0.1563
807.80 0.1562
807.90 0.1561
808.00 0.156
808.10 0.156
808.20 0.1559
808.30 0.1558
808.40 0.1557
808.50 0.1557
808.60 0.1556
808.70 0.1555
808.80 0.1554
808.90 0.1554
809.00 0.1553
809.10 0.1552
809.20 0.1551
809.30 0.1551
809.40 0.155
809.50 0.1549
809.60 0.1548
809.70 0.1548
809.80 0.1547
809.90 0.1546
810.00 0.1545
810.10 0.1545
810.20 0.1544
810.30 0.1543
810.40 0.1542
810.50 0.1542
810.60 0.1541
810.70 0.154
810.80 0.154
810.90 0.1539
811.00 0.1538
811.10 0.1537
811.20 0.1537
811.30 0.1536
811.40 0.1535
811.50 0.1534
811.60 0.1534
811.70 0.1533
811.80 0.1532
811.90 0.1531
812.00 0.1531
812.10 0.153
812.20 0.1529
812.30 0.1529
812.40 0.1528
812.50 0.1527
812.60 0.1526
812.70 0.1526
812.80 0.1525
812.90 0.1524
813.00 0.1523
813.10 0.1523
813.20 0.1522
813.30 0.1521
813.40 0.1521
813.50 0.152
813.60 0.1519
813.70 0.1518
813.80 0.1518
813.90 0.1517
814.00 0.1516
814.10 0.1515
814.20 0.1515
814.30 0.1514
814.40 0.1513
814.50 0.1513
814.60 0.1512
814.70 0.1511
814.80 0.151
814.90 0.151
815.00 0.1509
815.10 0.1508
815.20 0.1508
815.30 0.1507
815.40 0.1506
815.50 0.1505
815.60 0.1505
815.70 0.1504
815.80 0.1503
815.90 0.1503
816.00 0.1502
816.10 0.1501
816.20 0.15
816.30 0.15
816.40 0.1499
816.50 0.1498
816.60 0.1498
816.70 0.1497
816.80 0.1496
816.90 0.1495
817.00 0.1495
817.10 0.1494
817.20 0.1493
817.30 0.1493
817.40 0.1492
817.50 0.1491
817.60 0.149
817.70 0.149
817.80 0.1489
817.90 0.1488
818.00 0.1488
818.10 0.1487
818.20 0.1486
818.30 0.1485
818.40 0.1485
818.50 0.1484
818.60 0.1483
818.70 0.1483
818.80 0.1482
818.90 0.1481
819.00 0.148
819.10 0.148
819.20 0.1479
819.30 0.1478
819.40 0.1478
819.50 0.1477
819.60 0.1476
819.70 0.1475
819.80 0.1475
819.90 0.1474
820.00 0.1473
820.10 0.1473
820.20 0.1472
820.30 0.1471
820.40 0.1471
820.50 0.147
820.60 0.1469
820.70 0.1468
820.80 0.1468
820.90 0.1467
821.00 0.1466
821.10 0.1466
821.20 0.1465
821.30 0.1464
821.40 0.1464
821.50 0.1463
821.60 0.1462
821.70 0.1462
821.80 0.1461
821.90 0.146
822.00 0.1459
822.10 0.1459
822.20 0.1458
822.30 0.1457
822.40 0.1457
822.50 0.1456
822.60 0.1455
822.70 0.1455
822.80 0.1454
822.90 0.1453
823.00 0.1453
823.10 0.1452
823.20 0.1451
823.30 0.1451
823.40 0.145
823.50 0.1449
823.60 0.1448
823.70 0.1448
823.80 0.1447
823.90 0.1446
824.00 0.1446
824.10 0.1445
824.20 0.1444
824.30 0.1444
824.40 0.1443
824.50 0.1442
824.60 0.1442
824.70 0.1441
824.80 0.144
824.90 0.144
825.00 0.1439
825.10 0.1438
825.20 0.1438
825.30 0.1437
825.40 0.1436
825.50 0.1436
825.60 0.1435
825.70 0.1434
825.80 0.1433
825.90 0.1433
826.00 0.1432
826.10 0.1431
826.20 0.1431
826.30 0.143
826.40 0.1429
826.50 0.1429
826.60 0.1428
826.70 0.1427
826.80 0.1427
826.90 0.1426
827.00 0.1425
827.10 0.1425
827.20 0.1424
827.30 0.1423
827.40 0.1423
827.50 0.1422
827.60 0.1421
827.70 0.1421
827.80 0.142
827.90 0.1419
828.00 0.1419
828.10 0.1418
828.20 0.1417
828.30 0.1417
828.40 0.1416
828.50 0.1415
828.60 0.1415
828.70 0.1414
828.80 0.1413
828.90 0.1413
829.00 0.1412
829.10 0.1411
829.20 0.1411
829.30 0.141
829.40 0.1409
829.50 0.1409
829.60 0.1408
829.70 0.1407
829.80 0.1407
829.90 0.1406
830.00 0.1405
830.10 0.1405
830.20 0.1404
830.30 0.1403
830.40 0.1403
830.50 0.1402
830.60 0.1402
830.70 0.1401
830.80 0.14
830.90 0.14
831.00 0.1399
831.10 0.1398
831.20 0.1398
831.30 0.1397
831.40 0.1396
831.50 0.1396
831.60 0.1395
831.70 0.1394
831.80 0.1394
831.90 0.1393
832.00 0.1392
832.10 0.1392
832.20 0.1391
832.30 0.139
832.40 0.139
832.50 0.1389
832.60 0.1388
832.70 0.1388
832.80 0.1387
832.90 0.1386
833.00 0.1386
833.10 0.1385
833.20 0.1385
833.30 0.1384
833.40 0.1383
833.50 0.1383
833.60 0.1382
833.70 0.1381
833.80 0.1381
833.90 0.138
834.00 0.1379
834.10 0.1379
834.20 0.1378
834.30 0.1377
834.40 0.1377
834.50 0.1376
834.60 0.1376
834.70 0.1375
834.80 0.1374
834.90 0.1374
835.00 0.1373
835.10 0.1372
835.20 0.1372
835.30 0.1371
835.40 0.137
835.50 0.137
835.60 0.1369
835.70 0.1368
835.80 0.1368
835.90 0.1367
836.00 0.1367
836.10 0.1366
836.20 0.1365
836.30 0.1365
836.40 0.1364
836.50 0.1363
836.60 0.1363
836.70 0.1362
836.80 0.1361
836.90 0.1361
837.00 0.136
837.10 0.136
837.20 0.1359
837.30 0.1358
837.40 0.1358
837.50 0.1357
837.60 0.1356
837.70 0.1356
837.80 0.1355
837.90 0.1355
838.00 0.1354
838.10 0.1353
838.20 0.1353
838.30 0.1352
838.40 0.1351
838.50 0.1351
838.60 0.135
838.70 0.1349
838.80 0.1349
838.90 0.1348
839.00 0.1348
839.10 0.1347
839.20 0.1346
839.30 0.1346
839.40 0.1345
839.50 0.1344
839.60 0.1344
839.70 0.1343
839.80 0.1343
839.90 0.1342
840.00 0.1341
840.10 0.1341
840.20 0.134
840.30 0.1339
840.40 0.1339
840.50 0.1338
840.60 0.1338
840.70 0.1337
840.80 0.1336
840.90 0.1336
841.00 0.1335
841.10 0.1335
841.20 0.1334
841.30 0.1333
841.40 0.1333
841.50 0.1332
841.60 0.1331
841.70 0.1331
841.80 0.133
841.90 0.133
842.00 0.1329
842.10 0.1328
842.20 0.1328
842.30 0.1327
842.40 0.1326
842.50 0.1326
842.60 0.1325
842.70 0.1325
842.80 0.1324
842.90 0.1323
843.00 0.1323
843.10 0.1322
843.20 0.1322
843.30 0.1321
843.40 0.132
843.50 0.132
843.60 0.1319
843.70 0.1319
843.80 0.1318
843.90 0.1317
844.00 0.1317
844.10 0.1316
844.20 0.1316
844.30 0.1315
844.40 0.1314
844.50 0.1314
844.60 0.1313
844.70 0.1312
844.80 0.1312
844.90 0.1311
845.00 0.1311
845.10 0.131
845.20 0.1309
845.30 0.1309
845.40 0.1308
845.50 0.1308
845.60 0.1307
845.70 0.1306
845.80 0.1306
845.90 0.1305
846.00 0.1305
846.10 0.1304
846.20 0.1303
846.30 0.1303
846.40 0.1302
846.50 0.1302
846.60 0.1301
846.70 0.13
846.80 0.13
846.90 0.1299
847.00 0.1299
847.10 0.1298
847.20 0.1297
847.30 0.1297
847.40 0.1296
847.50 0.1296
847.60 0.1295
847.70 0.1294
847.80 0.1294
847.90 0.1293
848.00 0.1293
848.10 0.1292
848.20 0.1291
848.30 0.1291
848.40 0.129
848.50 0.129
848.60 0.1289
848.70 0.1289
848.80 0.1288
848.90 0.1287
849.00 0.1287
849.10 0.1286
849.20 0.1286
849.30 0.1285
849.40 0.1284
849.50 0.1284
849.60 0.1283
849.70 0.1283
849.80 0.1282
849.90 0.1281
850.00 0.1281
850.10 0.128
850.20 0.128
850.30 0.1279
850.40 0.1278
850.50 0.1278
850.60 0.1277
850.70 0.1277
850.80 0.1276
850.90 0.1276
851.00 0.1275
851.10 0.1274
851.20 0.1274
851.30 0.1273
851.40 0.1273
851.50 0.1272
851.60 0.1271
851.70 0.1271
851.80 0.127
851.90 0.127
852.00 0.1269
852.10 0.1269
852.20 0.1268
852.30 0.1267
852.40 0.1267
852.50 0.1266
852.60 0.1266
852.70 0.1265
852.80 0.1264
852.90 0.1264
853.00 0.1263
853.10 0.1263
853.20 0.1262
853.30 0.1262
853.40 0.1261
853.50 0.126
853.60 0.126
853.70 0.1259
853.80 0.1259
853.90 0.1258
854.00 0.1258
854.10 0.1257
854.20 0.1256
854.30 0.1256
854.40 0.1255
854.50 0.1255
854.60 0.1254
854.70 0.1254
854.80 0.1253
854.90 0.1252
855.00 0.1252
855.10 0.1251
855.20 0.1251
855.30 0.125
855.40 0.125
855.50 0.1249
855.60 0.1248
855.70 0.1248
855.80 0.1247
855.90 0.1247
856.00 0.1246
856.10 0.1246
856.20 0.1245
856.30 0.1244
856.40 0.1244
856.50 0.1243
856.60 0.1243
856.70 0.1242
856.80 0.1242
856.90 0.1241
857.00 0.124
857.10 0.124
857.20 0.1239
857.30 0.1239
857.40 0.1238
857.50 0.1238
857.60 0.1237
857.70 0.1237
857.80 0.1236
857.90 0.1235
858.00 0.1235
858.10 0.1234
858.20 0.1234
858.30 0.1233
858.40 0.1233
858.50 0.1232
858.60 0.1232
858.70 0.1231
858.80 0.123
858.90 0.123
859.00 0.1229
859.10 0.1229
859.20 0.1228
859.30 0.1228
859.40 0.1227
859.50 0.1227
859.60 0.1226
859.70 0.1225
859.80 0.1225
859.90 0.1224
860.00 0.1224
860.10 0.1223
860.20 0.1223
860.30 0.1222
860.40 0.1222
860.50 0.1221
860.60 0.122
860.70 0.122
860.80 0.1219
860.90 0.1219
861.00 0.1218
861.10 0.1218
861.20 0.1217
861.30 0.1217
861.40 0.1216
861.50 0.1215
861.60 0.1215
861.70 0.1214
861.80 0.1214
861.90 0.1213
862.00 0.1213
862.10 0.1212
862.20 0.1212
862.30 0.1211
862.40 0.121
862.50 0.121
862.60 0.1209
862.70 0.1209
862.80 0.1208
862.90 0.1208
863.00 0.1207
863.10 0.1207
863.20 0.1206
863.30 0.1206
863.40 0.1205
863.50 0.1205
863.60 0.1204
863.70 0.1203
863.80 0.1203
863.90 0.1202
864.00 0.1202
864.10 0.1201
864.20 0.1201
864.30 0.12
864.40 0.12
864.50 0.1199
864.60 0.1199
864.70 0.1198
864.80 0.1197
864.90 0.1197
865.00 0.1196
865.10 0.1196
865.20 0.1195
865.30 0.1195
865.40 0.1194
865.50 0.1194
865.60 0.1193
865.70 0.1193
865.80 0.1192
865.90 0.1192
866.00 0.1191
866.10 0.119
866.20 0.119
866.30 0.1189
866.40 0.1189
866.50 0.1188
866.60 0.1188
866.70 0.1187
866.80 0.1187
866.90 0.1186
867.00 0.1186
867.10 0.1185
867.20 0.1185
867.30 0.1184
867.40 0.1183
867.50 0.1183
867.60 0.1182
867.70 0.1182
867.80 0.1181
867.90 0.1181
868.00 0.118
868.10 0.118
868.20 0.1179
868.30 0.1179
868.40 0.1178
868.50 0.1178
868.60 0.1177
868.70 0.1177
868.80 0.1176
868.90 0.1176
869.00 0.1175
869.10 0.1175
869.20 0.1174
869.30 0.1173
869.40 0.1173
869.50 0.1172
869.60 0.1172
869.70 0.1171
869.80 0.1171
869.90 0.117
870.00 0.117
870.10 0.1169
870.20 0.1169
870.30 0.1168
870.40 0.1168
870.50 0.1167
870.60 0.1167
870.70 0.1166
870.80 0.1166
870.90 0.1165
871.00 0.1165
871.10 0.1164
871.20 0.1163
871.30 0.1163
871.40 0.1162
871.50 0.1162
871.60 0.1161
871.70 0.1161
871.80 0.116
871.90 0.116
872.00 0.1159
872.10 0.1159
872.20 0.1158
872.30 0.1158
872.40 0.1157
872.50 0.1157
872.60 0.1156
872.70 0.1156
872.80 0.1155
872.90 0.1155
873.00 0.1154
873.10 0.1154
873.20 0.1153
873.30 0.1153
873.40 0.1152
873.50 0.1152
873.60 0.1151
873.70 0.1151
873.80 0.115
873.90 0.115
874.00 0.1149
874.10 0.1149
874.20 0.1148
874.30 0.1148
874.40 0.1147
874.50 0.1146
874.60 0.1146
874.70 0.1145
874.80 0.1145
874.90 0.1144
875.00 0.1144
875.10 0.1143
875.20 0.1143
875.30 0.1142
875.40 0.1142
875.50 0.1141
875.60 0.1141
875.70 0.114
875.80 0.114
875.90 0.1139
876.00 0.1139
876.10 0.1138
876.20 0.1138
876.30 0.1137
876.40 0.1137
876.50 0.1136
876.60 0.1136
876.70 0.1135
876.80 0.1135
876.90 0.1134
877.00 0.1134
877.10 0.1133
877.20 0.1133
877.30 0.1132
877.40 0.1132
877.50 0.1131
877.60 0.1131
877.70 0.113
877.80 0.113
877.90 0.1129
878.00 0.1129
878.10 0.1128
878.20 0.1128
878.30 0.1127
878.40 0.1127
878.50 0.1126
878.60 0.1126
878.70 0.1125
878.80 0.1125
878.90 0.1124
879.00 0.1124
879.10 0.1123
879.20 0.1123
879.30 0.1122
879.40 0.1122
879.50 0.1121
879.60 0.1121
879.70 0.112
879.80 0.112
879.90 0.1119
880.00 0.1119
880.10 0.1118
880.20 0.1118
880.30 0.1117
880.40 0.1117
880.50 0.1116
880.60 0.1116
880.70 0.1115
880.80 0.1115
880.90 0.1114
881.00 0.1114
881.10 0.1113
881.20 0.1113
881.30 0.1112
881.40 0.1112
881.50 0.1111
881.60 0.1111
881.70 0.111
881.80 0.111
881.90 0.1109
882.00 0.1109
882.10 0.1108
882.20 0.1108
882.30 0.1107
882.40 0.1107
882.50 0.1106
882.60 0.1106
882.70 0.1106
882.80 0.1105
882.90 0.1105
883.00 0.1104
883.10 0.1104
883.20 0.1103
883.30 0.1103
883.40 0.1102
883.50 0.1102
883.60 0.1101
883.70 0.1101
883.80 0.11
883.90 0.11
884.00 0.1099
884.10 0.1099
884.20 0.1098
884.30 0.1098
884.40 0.1097
884.50 0.1097
884.60 0.1096
884.70 0.1096
884.80 0.1095
884.90 0.1095
885.00 0.1094
885.10 0.1094
885.20 0.1093
885.30 0.1093
885.40 0.1092
885.50 0.1092
885.60 0.1092
885.70 0.1091
885.80 0.1091
885.90 0.109
886.00 0.109
886.10 0.1089
886.20 0.1089
886.30 0.1088
886.40 0.1088
886.50 0.1087
886.60 0.1087
886.70 0.1086
886.80 0.1086
886.90 0.1085
887.00 0.1085
887.10 0.1084
887.20 0.1084
887.30 0.1083
887.40 0.1083
887.50 0.1082
887.60 0.1082
887.70 0.1081
887.80 0.1081
887.90 0.1081
888.00 0.108
888.10 0.108
888.20 0.1079
888.30 0.1079
888.40 0.1078
888.50 0.1078
888.60 0.1077
888.70 0.1077
888.80 0.1076
888.90 0.1076
889.00 0.1075
889.10 0.1075
889.20 0.1074
889.30 0.1074
889.40 0.1073
889.50 0.1073
889.60 0.1073
889.70 0.1072
889.80 0.1072
889.90 0.1071
890.00 0.1071
890.10 0.107
890.20 0.107
890.30 0.1069
890.40 0.1069
890.50 0.1068
890.60 0.1068
890.70 0.1067
890.80 0.1067
890.90 0.1066
891.00 0.1066
891.10 0.1065
891.20 0.1065
891.30 0.1065
891.40 0.1064
891.50 0.1064
891.60 0.1063
891.70 0.1063
891.80 0.1062
891.90 0.1062
892.00 0.1061
892.10 0.1061
892.20 0.106
892.30 0.106
892.40 0.1059
892.50 0.1059
892.60 0.1059
892.70 0.1058
892.80 0.1058
892.90 0.1057
893.00 0.1057
893.10 0.1056
893.20 0.1056
893.30 0.1055
893.40 0.1055
893.50 0.1054
893.60 0.1054
893.70 0.1053
893.80 0.1053
893.90 0.1053
894.00 0.1052
894.10 0.1052
894.20 0.1051
894.30 0.1051
894.40 0.105
894.50 0.105
894.60 0.1049
894.70 0.1049
894.80 0.1048
894.90 0.1048
895.00 0.1048
895.10 0.1047
895.20 0.1047
895.30 0.1046
895.40 0.1046
895.50 0.1045
895.60 0.1045
895.70 0.1044
895.80 0.1044
895.90 0.1043
896.00 0.1043
896.10 0.1043
896.20 0.1042
896.30 0.1042
896.40 0.1041
896.50 0.1041
896.60 0.104
896.70 0.104
896.80 0.1039
896.90 0.1039
897.00 0.1038
897.10 0.1038
897.20 0.1038
897.30 0.1037
897.40 0.1037
897.50 0.1036
897.60 0.1036
897.70 0.1035
897.80 0.1035
897.90 0.1034
898.00 0.1034
898.10 0.1034
898.20 0.1033
898.30 0.1033
898.40 0.1032
898.50 0.1032
898.60 0.1031
898.70 0.1031
898.80 0.103
898.90 0.103
899.00 0.103
899.10 0.1029
899.20 0.1029
899.30 0.1028
899.40 0.1028
899.50 0.1027
899.60 0.1027
899.70 0.1026
899.80 0.1026
899.90 0.1026
900.00 0.1025
900.10 0.1025
900.20 0.1024
900.30 0.1024
900.40 0.1023
900.50 0.1023
900.60 0.1023
900.70 0.1022
900.80 0.1022
900.90 0.1021
901.00 0.1021
901.10 0.102
901.20 0.102
901.30 0.1019
901.40 0.1019
901.50 0.1019
901.60 0.1018
901.70 0.1018
901.80 0.1017
901.90 0.1017
902.00 0.1016
902.10 0.1016
902.20 0.1016
902.30 0.1015
902.40 0.1015
902.50 0.1014
902.60 0.1014
902.70 0.1013
902.80 0.1013
902.90 0.1012
903.00 0.1012
903.10 0.1012
903.20 0.1011
903.30 0.1011
903.40 0.101
903.50 0.101
903.60 0.1009
903.70 0.1009
903.80 0.1009
903.90 0.1008
904.00 0.1008
904.10 0.1007
904.20 0.1007
904.30 0.1006
904.40 0.1006
904.50 0.1005
904.60 0.1005
904.70 0.1005
904.80 0.1004
904.90 0.1004
905.00 0.1003
905.10 0.1003
905.20 0.1002
905.30 0.1002
905.40 0.1002
905.50 0.1001
905.60 0.1001
905.70 0.1
905.80 0.09998
905.90 0.09994
906.00 0.0999
906.10 0.09985
906.20 0.09981
906.30 0.09977
906.40 0.09972
906.50 0.09968
906.60 0.09964
906.70 0.09959
906.80 0.09955
906.90 0.09951
907.00 0.09946
907.10 0.09942
907.20 0.09938
907.30 0.09934
907.40 0.09929
907.50 0.09925
907.60 0.09921
907.70 0.09917
907.80 0.09912
907.90 0.09908
908.00 0.09904
908.10 0.099
908.20 0.09895
908.30 0.09891
908.40 0.09887
908.50 0.09883
908.60 0.09879
908.70 0.09874
908.80 0.0987
908.90 0.09866
909.00 0.09862
909.10 0.09857
909.20 0.09853
909.30 0.09849
909.40 0.09845
909.50 0.09841
909.60 0.09836
909.70 0.09832
909.80 0.09828
909.90 0.09824
910.00 0.09819
910.10 0.09815
910.20 0.09811
910.30 0.09807
910.40 0.09803
910.50 0.09798
910.60 0.09794
910.70 0.0979
910.80 0.09786
910.90 0.09782
911.00 0.09777
911.10 0.09773
911.20 0.09769
911.30 0.09765
911.40 0.09761
911.50 0.09757
911.60 0.09752
911.70 0.09748
911.80 0.09744
911.90 0.0974
912.00 0.09736
912.10 0.09731
912.20 0.09727
912.30 0.09723
912.40 0.09719
912.50 0.09715
912.60 0.09711
912.70 0.09707
912.80 0.09703
912.90 0.09698
913.00 0.09694
913.10 0.0969
913.20 0.09686
913.30 0.09682
913.40 0.09678
913.50 0.09674
913.60 0.0967
913.70 0.09665
913.80 0.09661
913.90 0.09657
914.00 0.09653
914.10 0.09649
914.20 0.09645
914.30 0.09641
914.40 0.09637
914.50 0.09633
914.60 0.09628
914.70 0.09624
914.80 0.0962
914.90 0.09616
915.00 0.09612
915.10 0.09608
915.20 0.09604
915.30 0.096
915.40 0.09596
915.50 0.09592
915.60 0.09588
915.70 0.09583
915.80 0.09579
915.90 0.09575
916.00 0.09571
916.10 0.09567
916.20 0.09563
916.30 0.09559
916.40 0.09555
916.50 0.09551
916.60 0.09547
916.70 0.09543
916.80 0.09539
916.90 0.09535
917.00 0.0953
917.10 0.09526
917.20 0.09522
917.30 0.09519
917.40 0.09515
917.50 0.09511
917.60 0.09507
917.70 0.09503
917.80 0.09499
917.90 0.09495
918.00 0.09491
918.10 0.09487
918.20 0.09483
918.30 0.09479
918.40 0.09475
918.50 0.09471
918.60 0.09467
918.70 0.09463
918.80 0.09459
918.90 0.09455
919.00 0.09451
919.10 0.09447
919.20 0.09443
919.30 0.09439
919.40 0.09435
919.50 0.09431
919.60 0.09427
919.70 0.09423
919.80 0.09419
919.90 0.09415
920.00 0.09412
920.10 0.09408
920.20 0.09404
920.30 0.094
920.40 0.09396
920.50 0.09392
920.60 0.09388
920.70 0.09384
920.80 0.0938
920.90 0.09376
921.00 0.09372
921.10 0.09368
921.20 0.09364
921.30 0.0936
921.40 0.09357
921.50 0.09353
921.60 0.09349
921.70 0.09345
921.80 0.09341
921.90 0.09337
922.00 0.09333
922.10 0.09329
922.20 0.09325
922.30 0.09321
922.40 0.09317
922.50 0.09313
922.60 0.09309
922.70 0.09305
922.80 0.09302
922.90 0.09298
923.00 0.09294
923.10 0.0929
923.20 0.09286
923.30 0.09282
923.40 0.09278
923.50 0.09274
923.60 0.0927
923.70 0.09266
923.80 0.09262
923.90 0.09258
924.00 0.09254
924.10 0.09251
924.20 0.09247
924.30 0.09243
924.40 0.09239
924.50 0.09235
924.60 0.09231
924.70 0.09227
924.80 0.09223
924.90 0.09219
925.00 0.09215
925.10 0.09212
925.20 0.09208
925.30 0.09204
925.40 0.092
925.50 0.09196
925.60 0.09192
925.70 0.09188
925.80 0.09184
925.90 0.0918
926.00 0.09177
926.10 0.09173
926.20 0.09169
926.30 0.09165
926.40 0.09161
926.50 0.09157
926.60 0.09153
926.70 0.09149
926.80 0.09145
926.90 0.09142
927.00 0.09138
927.10 0.09134
927.20 0.0913
927.30 0.09126
927.40 0.09123
927.50 0.09119
927.60 0.09115
927.70 0.09111
927.80 0.09107
927.90 0.09104
928.00 0.091
928.10 0.09096
928.20 0.09092
928.30 0.09088
928.40 0.09085
928.50 0.09081
928.60 0.09077
928.70 0.09073
928.80 0.09069
928.90 0.09066
929.00 0.09062
929.10 0.09058
929.20 0.09054
929.30 0.09051
929.40 0.09047
929.50 0.09043
929.60 0.09039
929.70 0.09036
929.80 0.09032
929.90 0.09028
930.00 0.09024
930.10 0.0902
930.20 0.09017
930.30 0.09013
930.40 0.09009
930.50 0.09005
930.60 0.09002
930.70 0.08998
930.80 0.08994
930.90 0.0899
931.00 0.08987
931.10 0.08983
931.20 0.08979
931.30 0.08975
931.40 0.08972
931.50 0.08968
931.60 0.08964
931.70 0.0896
931.80 0.08957
931.90 0.08953
932.00 0.08949
932.10 0.08945
932.20 0.08942
932.30 0.08938
932.40 0.08934
932.50 0.08931
932.60 0.08927
932.70 0.08923
932.80 0.08919
932.90 0.08916
933.00 0.08912
933.10 0.08908
933.20 0.08905
933.30 0.08901
933.40 0.08897
933.50 0.08894
933.60 0.0889
933.70 0.08886
933.80 0.08882
933.90 0.08879
934.00 0.08875
934.10 0.08871
934.20 0.08868
934.30 0.08864
934.40 0.0886
934.50 0.08857
934.60 0.08853
934.70 0.08849
934.80 0.08846
934.90 0.08842
935.00 0.08838
935.10 0.08834
935.20 0.08831
935.30 0.08827
935.40 0.08823
935.50 0.0882
935.60 0.08816
935.70 0.08812
935.80 0.08809
935.90 0.08805
936.00 0.08801
936.10 0.08798
936.20 0.08794
936.30 0.0879
936.40 0.08787
936.50 0.08783
936.60 0.08779
936.70 0.08776
936.80 0.08772
936.90 0.08768
937.00 0.08765
937.10 0.08761
937.20 0.08757
937.30 0.08754
937.40 0.0875
937.50 0.08746
937.60 0.08743
937.70 0.08739
937.80 0.08735
937.90 0.08732
938.00 0.08728
938.10 0.08725
938.20 0.08721
938.30 0.08717
938.40 0.08714
938.50 0.0871
938.60 0.08706
938.70 0.08703
938.80 0.08699
938.90 0.08695
939.00 0.08692
939.10 0.08688
939.20 0.08684
939.30 0.08681
939.40 0.08677
939.50 0.08674
939.60 0.0867
939.70 0.08666
939.80 0.08663
939.90 0.08659
940.00 0.08655
940.10 0.08652
940.20 0.08648
940.30 0.08645
940.40 0.08641
940.50 0.08637
940.60 0.08634
940.70 0.0863
940.80 0.08626
940.90 0.08623
941.00 0.08619
941.10 0.08616
941.20 0.08612
941.30 0.08608
941.40 0.08605
941.50 0.08601
941.60 0.08598
941.70 0.08594
941.80 0.0859
941.90 0.08587
942.00 0.08583
942.10 0.0858
942.20 0.08576
942.30 0.08572
942.40 0.08569
942.50 0.08565
942.60 0.08562
942.70 0.08558
942.80 0.08554
942.90 0.08551
943.00 0.08547
943.10 0.08544
943.20 0.0854
943.30 0.08536
943.40 0.08533
943.50 0.08529
943.60 0.08526
943.70 0.08522
943.80 0.08518
943.90 0.08515
944.00 0.08511
944.10 0.08508
944.20 0.08504
944.30 0.08501
944.40 0.08497
944.50 0.08493
944.60 0.0849
944.70 0.08486
944.80 0.08483
944.90 0.08479
945.00 0.08476
945.10 0.08472
945.20 0.08468
945.30 0.08465
945.40 0.08461
945.50 0.08458
945.60 0.08454
945.70 0.08451
945.80 0.08447
945.90 0.08444
946.00 0.0844
946.10 0.08436
946.20 0.08433
946.30 0.08429
946.40 0.08426
946.50 0.08422
946.60 0.08419
946.70 0.08415
946.80 0.08412
946.90 0.08408
947.00 0.08405
947.10 0.08401
947.20 0.08397
947.30 0.08394
947.40 0.0839
947.50 0.08387
947.60 0.08383
947.70 0.0838
947.80 0.08376
947.90 0.08373
948.00 0.08369
948.10 0.08366
948.20 0.08362
948.30 0.08359
948.40 0.08355
948.50 0.08352
948.60 0.08348
948.70 0.08345
948.80 0.08341
948.90 0.08338
949.00 0.08334
949.10 0.08331
949.20 0.08327
949.30 0.08324
949.40 0.0832
949.50 0.08317
949.60 0.08313
949.70 0.0831
949.80 0.08307
949.90 0.08303
950.00 0.083
950.10 0.08296
950.20 0.08293
950.30 0.08289
950.40 0.08286
950.50 0.08283
950.60 0.08279
950.70 0.08276
950.80 0.08272
950.90 0.08269
951.00 0.08265
951.10 0.08262
951.20 0.08259
951.30 0.08255
951.40 0.08252
951.50 0.08248
951.60 0.08245
951.70 0.08242
951.80 0.08238
951.90 0.08235
952.00 0.08232
952.10 0.08228
952.20 0.08225
952.30 0.08222
952.40 0.08218
952.50 0.08215
952.60 0.08212
952.70 0.08208
952.80 0.08205
952.90 0.08202
953.00 0.08199
953.10 0.08195
953.20 0.08192
953.30 0.08189
953.40 0.08186
953.50 0.08183
953.60 0.08179
953.70 0.08176
953.80 0.08173
953.90 0.0817
954.00 0.08167
954.10 0.08164
954.20 0.08161
954.30 0.08158
954.40 0.08155
954.50 0.08152
954.60 0.08148
954.70 0.08145
954.80 0.08141
954.90 0.08138
955.00 0.08134
955.10 0.08131
955.20 0.08127
955.30 0.08124
955.40 0.0812
955.50 0.08117
955.60 0.08113
955.70 0.0811
955.80 0.08106
955.90 0.08103
956.00 0.081
956.10 0.08096
956.20 0.08093
956.30 0.0809
956.40 0.08086
956.50 0.08083
956.60 0.0808
956.70 0.08076
956.80 0.08073
956.90 0.08069
957.00 0.08066
957.10 0.08063
957.20 0.0806
957.30 0.08056
957.40 0.08053
957.50 0.0805
957.60 0.08047
957.70 0.08043
957.80 0.0804
957.90 0.08037
958.00 0.08034
958.10 0.08031
958.20 0.08027
958.30 0.08024
958.40 0.08021
958.50 0.08018
958.60 0.08015
958.70 0.08011
958.80 0.08008
958.90 0.08005
959.00 0.08002
959.10 0.07999
959.20 0.07995
959.30 0.07992
959.40 0.07989
959.50 0.07986
959.60 0.07983
959.70 0.0798
959.80 0.07976
959.90 0.07973
960.00 0.0797
960.10 0.07967
960.20 0.07964
960.30 0.07961
960.40 0.07958
960.50 0.07955
960.60 0.07951
960.70 0.07948
960.80 0.07945
960.90 0.07942
961.00 0.07939
961.10 0.07936
961.20 0.07933
961.30 0.0793
961.40 0.07926
961.50 0.07923
961.60 0.0792
961.70 0.07917
961.80 0.07914
961.90 0.07911
962.00 0.07908
962.10 0.07905
962.20 0.07902
962.30 0.07898
962.40 0.07895
962.50 0.07892
962.60 0.07889
962.70 0.07886
962.80 0.07883
962.90 0.0788
963.00 0.07877
963.10 0.07874
963.20 0.07871
963.30 0.07868
963.40 0.07865
963.50 0.07861
963.60 0.07858
963.70 0.07855
963.80 0.07852
963.90 0.07849
964.00 0.07846
964.10 0.07843
964.20 0.0784
964.30 0.07837
964.40 0.07834
964.50 0.07831
964.60 0.07828
964.70 0.07825
964.80 0.07822
964.90 0.07818
965.00 0.07815
965.10 0.07812
965.20 0.07809
965.30 0.07806
965.40 0.07803
965.50 0.078
965.60 0.07797
965.70 0.07794
965.80 0.07791
965.90 0.07788
966.00 0.07785
966.10 0.07782
966.20 0.07779
966.30 0.07776
966.40 0.07773
966.50 0.0777
966.60 0.07767
966.70 0.07764
966.80 0.0776
966.90 0.07757
967.00 0.07754
967.10 0.07751
967.20 0.07748
967.30 0.07745
967.40 0.07742
967.50 0.07739
967.60 0.07736
967.70 0.07733
967.80 0.0773
967.90 0.07727
968.00 0.07724
968.10 0.07721
968.20 0.07718
968.30 0.07715
968.40 0.07712
968.50 0.07709
968.60 0.07706
968.70 0.07703
968.80 0.077
968.90 0.07697
969.00 0.07694
969.10 0.07691
969.20 0.07688
969.30 0.07684
969.40 0.07681
969.50 0.07678
969.60 0.07675
969.70 0.07672
969.80 0.07669
969.90 0.07666
970.00 0.07663
970.10 0.0766
970.20 0.07657
970.30 0.07654
970.40 0.07651
970.50 0.07648
970.60 0.07645
970.70 0.07642
970.80 0.07639
970.90 0.07636
971.00 0.07633
971.10 0.0763
971.20 0.07627
971.30 0.07624
971.40 0.07621
971.50 0.07618
971.60 0.07615
971.70 0.07612
971.80 0.07609
971.90 0.07606
972.00 0.07603
972.10 0.076
972.20 0.07597
972.30 0.07594
972.40 0.07591
972.50 0.07588
972.60 0.07585
972.70 0.07582
972.80 0.07579
972.90 0.07576
973.00 0.07573
973.10 0.0757
973.20 0.07567
973.30 0.07564
973.40 0.07561
973.50 0.07558
973.60 0.07555
973.70 0.07552
973.80 0.07549
973.90 0.07546
974.00 0.07543
974.10 0.0754
974.20 0.07537
974.30 0.07534
974.40 0.07531
974.50 0.07528
974.60 0.07525
974.70 0.07522
974.80 0.07519
974.90 0.07516
975.00 0.07513
975.10 0.0751
975.20 0.07507
975.30 0.07504
975.40 0.07501
975.50 0.07498
975.60 0.07495
975.70 0.07492
975.80 0.07489
975.90 0.07486
976.00 0.07483
976.10 0.0748
976.20 0.07477
976.30 0.07474
976.40 0.07471
976.50 0.07468
976.60 0.07465
976.70 0.07462
976.80 0.07459
976.90 0.07456
977.00 0.07453
977.10 0.0745
977.20 0.07447
977.30 0.07444
977.40 0.07441
977.50 0.07438
977.60 0.07436
977.70 0.07433
977.80 0.0743
977.90 0.07427
978.00 0.07424
978.10 0.07421
978.20 0.07418
978.30 0.07415
978.40 0.07412
978.50 0.07409
978.60 0.07406
978.70 0.07403
978.80 0.074
978.90 0.07397
979.00 0.07394
979.10 0.07391
979.20 0.07388
979.30 0.07385
979.40 0.07382
979.50 0.07379
979.60 0.07376
979.70 0.07373
979.80 0.0737
979.90 0.07367
980.00 0.07364
980.10 0.07361
980.20 0.07358
980.30 0.07355
980.40 0.07353
980.50 0.0735
980.60 0.07347
980.70 0.07344
980.80 0.07341
980.90 0.07338
981.00 0.07335
981.10 0.07332
981.20 0.07329
981.30 0.07326
981.40 0.07323
981.50 0.0732
981.60 0.07317
981.70 0.07314
981.80 0.07311
981.90 0.07308
982.00 0.07305
982.10 0.07303
982.20 0.073
982.30 0.07297
982.40 0.07294
982.50 0.07291
982.60 0.07288
982.70 0.07285
982.80 0.07282
982.90 0.07279
983.00 0.07276
983.10 0.07273
983.20 0.0727
983.30 0.07267
983.40 0.07264
983.50 0.07261
983.60 0.07258
983.70 0.07255
983.80 0.07253
983.90 0.0725
984.00 0.07247
984.10 0.07244
984.20 0.07241
984.30 0.07238
984.40 0.07235
984.50 0.07232
984.60 0.07229
984.70 0.07226
984.80 0.07223
984.90 0.0722
985.00 0.07217
985.10 0.07214
985.20 0.07212
985.30 0.07209
985.40 0.07206
985.50 0.07203
985.60 0.072
985.70 0.07197
985.80 0.07194
985.90 0.07191
986.00 0.07188
986.10 0.07185
986.20 0.07182
986.30 0.07179
986.40 0.07176
986.50 0.07173
986.60 0.07171
986.70 0.07168
986.80 0.07165
986.90 0.07162
987.00 0.07159
987.10 0.07156
987.20 0.07153
987.30 0.0715
987.40 0.07147
987.50 0.07144
987.60 0.07141
987.70 0.07138
987.80 0.07135
987.90 0.07133
988.00 0.0713
988.10 0.07127
988.20 0.07124
988.30 0.07121
988.40 0.07118
988.50 0.07115
988.60 0.07112
988.70 0.07109
988.80 0.07106
988.90 0.07103
989.00 0.071
989.10 0.07097
989.20 0.07095
989.30 0.07092
989.40 0.07089
989.50 0.07086
989.60 0.07083
989.70 0.0708
989.80 0.07077
989.90 0.07074
990.00 0.07071
990.10 0.07068
990.20 0.07065
990.30 0.07062
990.40 0.07059
990.50 0.07057
990.60 0.07054
990.70 0.07051
990.80 0.07048
990.90 0.07045
991.00 0.07042
991.10 0.07039
991.20 0.07036
991.30 0.07033
991.40 0.0703
991.50 0.07027
991.60 0.07024
991.70 0.07021
991.80 0.07018
991.90 0.07016
992.00 0.07013
992.10 0.0701
992.20 0.07007
992.30 0.07004
992.40 0.07001
992.50 0.06998
992.60 0.06995
992.70 0.06992
992.80 0.06989
992.90 0.06986
993.00 0.06983
993.10 0.0698
993.20 0.06977
993.30 0.06975
993.40 0.06972
993.50 0.06969
993.60 0.06966
993.70 0.06963
993.80 0.0696
993.90 0.06957
994.00 0.06954
994.10 0.06951
994.20 0.06948
994.30 0.06945
994.40 0.06942
994.50 0.06939
994.60 0.06936
994.70 0.06933
994.80 0.06931
994.90 0.06928
995.00 0.06925
995.10 0.06922
995.20 0.06919
995.30 0.06916
995.40 0.06913
995.50 0.0691
995.60 0.06907
995.70 0.06904
995.80 0.06901
995.90 0.06898
996.00 0.06895
996.10 0.06892
996.20 0.06889
996.30 0.06886
996.40 0.06884
996.50 0.06881
996.60 0.06878
996.70 0.06875
996.80 0.06872
996.90 0.06869
997.00 0.06866
997.10 0.06863
997.20 0.0686
997.30 0.06857
997.40 0.06854
997.50 0.06851
997.60 0.06848
997.70 0.06845
997.80 0.06842
997.90 0.06839
998.00 0.06837
998.10 0.06834
998.20 0.06831
998.30 0.06828
998.40 0.06825
998.50 0.06822
998.60 0.06819
998.70 0.06816
998.80 0.06813
998.90 0.0681
999.00 0.06807
999.10 0.06804
999.20 0.06802
999.30 0.06799
999.40 0.06796
999.50 0.06793
999.60 0.0679
999.70 0.06787
999.80 0.06784
999.90 0.06781
1000.00 0.06778
1000.10 0.06775
1000.20 0.06772
1000.30 0.06769
1000.40 0.06766
1000.50 0.06763
1000.60 0.0676
1000.70 0.06757
1000.80 0.06754
1000.90 0.06751
1001.00 0.06748
1001.10 0.06745
1001.20 0.06742
1001.30 0.06739
1001.40 0.06736
1001.50 0.06733
1001.60 0.0673
1001.70 0.06728
1001.80 0.06725
1001.90 0.06722
1002.00 0.0672
1002.10 0.06717
1002.20 0.06714
1002.30 0.06712
1002.40 0.06709
1002.50 0.06707
1002.60 0.06704
1002.70 0.06702
1002.80 0.06699
1002.90 0.06697
1003.00 0.06694
1003.10 0.06692
1003.20 0.06689
1003.30 0.06687
1003.40 0.06685
1003.50 0.06683
1003.60 0.06681
1003.70 0.06678
1003.80 0.06676
1003.90 0.06674
1004.00 0.06672
1004.10 0.06671
1004.20 0.06669
1004.30 0.06667
1004.40 0.06665
1004.50 0.06663
1004.60 0.06661
1004.70 0.06659
1004.80 0.06657
1004.90 0.06654
1005.00 0.06652
1005.10 0.06649
1005.20 0.06646
1005.30 0.06643
1005.40 0.0664
1005.50 0.06637
1005.60 0.06633
1005.70 0.0663
1005.80 0.06627
1005.90 0.06624
1006.00 0.0662
1006.10 0.06617
1006.20 0.06614
1006.30 0.06611
1006.40 0.06608
1006.50 0.06606
1006.60 0.06603
1006.70 0.066
1006.80 0.06597
1006.90 0.06594
1007.00 0.06591
1007.10 0.06589
1007.20 0.06586
1007.30 0.06584
1007.40 0.06581
1007.50 0.06578
1007.60 0.06576
1007.70 0.06573
1007.80 0.06571
1007.90 0.06569
1008.00 0.06566
1008.10 0.06564
1008.20 0.06561
1008.30 0.06559
1008.40 0.06557
1008.50 0.06554
1008.60 0.06552
1008.70 0.0655
1008.80 0.06547
1008.90 0.06545
1009.00 0.06543
1009.10 0.0654
1009.20 0.06538
1009.30 0.06535
1009.40 0.06533
1009.50 0.06531
1009.60 0.06528
1009.70 0.06526
1009.80 0.06524
1009.90 0.06521
1010.00 0.06519
1010.10 0.06517
1010.20 0.06515
1010.30 0.06512
1010.40 0.0651
1010.50 0.06508
1010.60 0.06506
1010.70 0.06503
1010.80 0.06501
1010.90 0.06499
1011.00 0.06497
1011.10 0.06494
1011.20 0.06492
1011.30 0.0649
1011.40 0.06488
1011.50 0.06485
1011.60 0.06483
1011.70 0.06481
1011.80 0.06479
1011.90 0.06476
1012.00 0.06474
1012.10 0.06472
1012.20 0.0647
1012.30 0.06467
1012.40 0.06465
1012.50 0.06463
1012.60 0.06461
1012.70 0.06458
1012.80 0.06456
1012.90 0.06454
1013.00 0.06452
1013.10 0.06449
1013.20 0.06447
1013.30 0.06445
1013.40 0.06443
1013.50 0.0644
1013.60 0.06438
1013.70 0.06436
1013.80 0.06434
1013.90 0.06431
1014.00 0.06429
1014.10 0.06427
1014.20 0.06425
1014.30 0.06422
1014.40 0.0642
1014.50 0.06418
1014.60 0.06416
1014.70 0.06413
1014.80 0.06411
1014.90 0.06409
1015.00 0.06407
1015.10 0.06404
1015.20 0.06402
1015.30 0.064
1015.40 0.06398
1015.50 0.06395
1015.60 0.06393
1015.70 0.06391
1015.80 0.06389
1015.90 0.06386
1016.00 0.06384
1016.10 0.06382
1016.20 0.0638
1016.30 0.06377
1016.40 0.06375
1016.50 0.06373
1016.60 0.06371
1016.70 0.06368
1016.80 0.06366
1016.90 0.06364
1017.00 0.06361
1017.10 0.06359
1017.20 0.06357
1017.30 0.06355
1017.40 0.06352
1017.50 0.0635
1017.60 0.06348
1017.70 0.06345
1017.80 0.06343
1017.90 0.06341
1018.00 0.06339
1018.10 0.06336
1018.20 0.06334
1018.30 0.06332
1018.40 0.0633
1018.50 0.06327
1018.60 0.06325
1018.70 0.06323
1018.80 0.0632
1018.90 0.06318
1019.00 0.06316
1019.10 0.06314
1019.20 0.06311
1019.30 0.06309
1019.40 0.06307
1019.50 0.06304
1019.60 0.06302
1019.70 0.063
1019.80 0.06298
1019.90 0.06295
1020.00 0.06293
1020.10 0.06291
1020.20 0.06289
1020.30 0.06286
1020.40 0.06284
1020.50 0.06282
1020.60 0.06279
1020.70 0.06277
1020.80 0.06275
1020.90 0.06273
1021.00 0.0627
1021.10 0.06268
1021.20 0.06266
1021.30 0.06263
1021.40 0.06261
1021.50 0.06259
1021.60 0.06257
1021.70 0.06254
1021.80 0.06252
1021.90 0.0625
1022.00 0.06247
1022.10 0.06245
1022.20 0.06243
1022.30 0.06241
1022.40 0.06238
1022.50 0.06236
1022.60 0.06234
1022.70 0.06231
1022.80 0.06229
1022.90 0.06227
1023.00 0.06224
1023.10 0.06222
1023.20 0.0622
1023.30 0.06218
1023.40 0.06215
1023.50 0.06213
1023.60 0.06211
1023.70 0.06208
1023.80 0.06206
1023.90 0.06204
1024.00 0.06202
1024.10 0.06199
1024.20 0.06197
1024.30 0.06195
1024.40 0.06193
1024.50 0.0619
1024.60 0.06188
1024.70 0.06186
1024.80 0.06183
1024.90 0.06181
1025.00 0.06179
1025.10 0.06177
1025.20 0.06174
1025.30 0.06172
1025.40 0.0617
1025.50 0.06167
1025.60 0.06165
1025.70 0.06163
1025.80 0.06161
1025.90 0.06158
1026.00 0.06156
1026.10 0.06154
1026.20 0.06151
1026.30 0.06149
1026.40 0.06147
1026.50 0.06145
1026.60 0.06142
1026.70 0.0614
1026.80 0.06138
1026.90 0.06136
1027.00 0.06133
1027.10 0.06131
1027.20 0.06129
1027.30 0.06126
1027.40 0.06124
1027.50 0.06122
1027.60 0.0612
1027.70 0.06117
1027.80 0.06115
1027.90 0.06113
1028.00 0.0611
1028.10 0.06108
1028.20 0.06106
1028.30 0.06104
1028.40 0.06101
1028.50 0.06099
1028.60 0.06097
1028.70 0.06095
1028.80 0.06092
1028.90 0.0609
1029.00 0.06088
1029.10 0.06086
1029.20 0.06083
1029.30 0.06081
1029.40 0.06079
1029.50 0.06076
1029.60 0.06074
1029.70 0.06072
1029.80 0.0607
1029.90 0.06067
1030.00 0.06065
1030.10 0.06063
1030.20 0.06061
1030.30 0.06058
1030.40 0.06056
1030.50 0.06054
1030.60 0.06052
1030.70 0.06049
1030.80 0.06047
1030.90 0.06045
1031.00 0.06043
1031.10 0.0604
1031.20 0.06038
1031.30 0.06036
1031.40 0.06034
1031.50 0.06031
1031.60 0.06029
1031.70 0.06027
1031.80 0.06025
1031.90 0.06022
1032.00 0.0602
1032.10 0.06018
1032.20 0.06016
1032.30 0.06013
1032.40 0.06011
1032.50 0.06009
1032.60 0.06007
1032.70 0.06004
1032.80 0.06002
1032.90 0.06
1033.00 0.05998
1033.10 0.05995
1033.20 0.05993
1033.30 0.05991
1033.40 0.05989
1033.50 0.05986
1033.60 0.05984
1033.70 0.05982
1033.80 0.0598
1033.90 0.05978
1034.00 0.05975
1034.10 0.05973
1034.20 0.05971
1034.30 0.05969
1034.40 0.05966
1034.50 0.05964
1034.60 0.05962
1034.70 0.0596
1034.80 0.05957
1034.90 0.05955
1035.00 0.05953
1035.10 0.05951
1035.20 0.05949
1035.30 0.05946
1035.40 0.05944
1035.50 0.05942
1035.60 0.0594
1035.70 0.05937
1035.80 0.05935
1035.90 0.05933
1036.00 0.05931
1036.10 0.05929
1036.20 0.05926
1036.30 0.05924
1036.40 0.05922
1036.50 0.0592
1036.60 0.05918
1036.70 0.05915
1036.80 0.05913
1036.90 0.05911
1037.00 0.05909
1037.10 0.05906
1037.20 0.05904
1037.30 0.05902
1037.40 0.059
1037.50 0.05898
1037.60 0.05895
1037.70 0.05893
1037.80 0.05891
1037.90 0.05889
1038.00 0.05887
1038.10 0.05884
1038.20 0.05882
1038.30 0.0588
1038.40 0.05878
1038.50 0.05876
1038.60 0.05873
1038.70 0.05871
1038.80 0.05869
1038.90 0.05867
1039.00 0.05865
1039.10 0.05863
1039.20 0.0586
1039.30 0.05858
1039.40 0.05856
1039.50 0.05854
1039.60 0.05852
1039.70 0.05849
1039.80 0.05847
1039.90 0.05845
1040.00 0.05843
1040.10 0.05841
1040.20 0.05838
1040.30 0.05836
1040.40 0.05834
1040.50 0.05832
1040.60 0.0583
1040.70 0.05828
1040.80 0.05825
1040.90 0.05823
1041.00 0.05821
1041.10 0.05819
1041.20 0.05817
1041.30 0.05815
1041.40 0.05812
1041.50 0.0581
1041.60 0.05808
1041.70 0.05806
1041.80 0.05804
1041.90 0.05801
1042.00 0.05799
1042.10 0.05797
1042.20 0.05795
1042.30 0.05793
1042.40 0.05791
1042.50 0.05788
1042.60 0.05786
1042.70 0.05784
1042.80 0.05782
1042.90 0.0578
1043.00 0.05778
1043.10 0.05776
1043.20 0.05773
1043.30 0.05771
1043.40 0.05769
1043.50 0.05767
1043.60 0.05765
1043.70 0.05763
1043.80 0.0576
1043.90 0.05758
1044.00 0.05756
1044.10 0.05754
1044.20 0.05752
1044.30 0.0575
1044.40 0.05748
1044.50 0.05745
1044.60 0.05743
1044.70 0.05741
1044.80 0.05739
1044.90 0.05737
1045.00 0.05735
1045.10 0.05733
1045.20 0.0573
1045.30 0.05728
1045.40 0.05726
1045.50 0.05724
1045.60 0.05722
1045.70 0.0572
1045.80 0.05718
1045.90 0.05715
1046.00 0.05713
1046.10 0.05711
1046.20 0.05709
1046.30 0.05707
1046.40 0.05705
1046.50 0.05703
1046.60 0.05701
1046.70 0.05698
1046.80 0.05696
1046.90 0.05694
1047.00 0.05692
1047.10 0.0569
1047.20 0.05688
1047.30 0.05686
1047.40 0.05684
1047.50 0.05681
1047.60 0.05679
1047.70 0.05677
1047.80 0.05675
1047.90 0.05673
1048.00 0.05671
1048.10 0.05669
1048.20 0.05667
1048.30 0.05665
1048.40 0.05662
1048.50 0.0566
1048.60 0.05658
1048.70 0.05656
1048.80 0.05654
1048.90 0.05652
1049.00 0.0565
1049.10 0.05648
1049.20 0.05646
1049.30 0.05643
1049.40 0.05641
1049.50 0.05639
1049.60 0.05637
1049.70 0.05635
1049.80 0.05633
1049.90 0.05631
1050.00 0.05629
1050.10 0.05627
1050.20 0.05625
1050.30 0.05622
1050.40 0.0562
1050.50 0.05618
1050.60 0.05616
1050.70 0.05614
1050.80 0.05612
1050.90 0.0561
1051.00 0.05608
1051.10 0.05606
1051.20 0.05604
1051.30 0.05602
1051.40 0.05599
1051.50 0.05597
1051.60 0.05595
1051.70 0.05593
1051.80 0.05591
1051.90 0.05589
1052.00 0.05587
1052.10 0.05585
1052.20 0.05583
1052.30 0.05581
1052.40 0.05579
1052.50 0.05577
1052.60 0.05574
1052.70 0.05572
1052.80 0.0557
1052.90 0.05568
1053.00 0.05566
1053.10 0.05564
1053.20 0.05562
1053.30 0.0556
1053.40 0.05558
1053.50 0.05556
1053.60 0.05554
1053.70 0.05552
1053.80 0.0555
1053.90 0.05548
1054.00 0.05546
1054.10 0.05543
1054.20 0.05541
1054.30 0.05539
1054.40 0.05537
1054.50 0.05535
1054.60 0.05533
1054.70 0.05531
1054.80 0.05529
1054.90 0.05527
1055.00 0.05525
1055.10 0.05523
1055.20 0.05521
1055.30 0.05519
1055.40 0.05517
1055.50 0.05515
1055.60 0.05513
1055.70 0.05511
1055.80 0.05509
1055.90 0.05506
1056.00 0.05504
1056.10 0.05502
1056.20 0.055
1056.30 0.05498
1056.40 0.05496
1056.50 0.05494
1056.60 0.05492
1056.70 0.0549
1056.80 0.05488
1056.90 0.05486
1057.00 0.05484
1057.10 0.05482
1057.20 0.0548
1057.30 0.05478
1057.40 0.05476
1057.50 0.05474
1057.60 0.05472
1057.70 0.0547
1057.80 0.05468
1057.90 0.05466
1058.00 0.05464
1058.10 0.05462
1058.20 0.0546
1058.30 0.05458
1058.40 0.05455
1058.50 0.05453
1058.60 0.05451
1058.70 0.05449
1058.80 0.05447
1058.90 0.05445
1059.00 0.05443
1059.10 0.05441
1059.20 0.05439
1059.30 0.05437
1059.40 0.05435
1059.50 0.05433
1059.60 0.05431
1059.70 0.05429
1059.80 0.05427
1059.90 0.05425
1060.00 0.05423
1060.10 0.05421
1060.20 0.05419
1060.30 0.05417
1060.40 0.05415
1060.50 0.05413
1060.60 0.05411
1060.70 0.05409
1060.80 0.05407
1060.90 0.05405
1061.00 0.05403
1061.10 0.05401
1061.20 0.05399
1061.30 0.05397
1061.40 0.05395
1061.50 0.05393
1061.60 0.05391
1061.70 0.05389
1061.80 0.05387
1061.90 0.05385
1062.00 0.05383
1062.10 0.05381
1062.20 0.05379
1062.30 0.05377
1062.40 0.05375
1062.50 0.05373
1062.60 0.05371
1062.70 0.05369
1062.80 0.05367
1062.90 0.05365
1063.00 0.05363
1063.10 0.05361
1063.20 0.05359
1063.30 0.05357
1063.40 0.05355
1063.50 0.05353
1063.60 0.05351
1063.70 0.05349
1063.80 0.05347
1063.90 0.05345
1064.00 0.05343
1064.10 0.05341
1064.20 0.05339
1064.30 0.05337
1064.40 0.05335
1064.50 0.05333
1064.60 0.05331
1064.70 0.05329
1064.80 0.05327
1064.90 0.05325
1065.00 0.05323
1065.10 0.05321
1065.20 0.05319
1065.30 0.05317
1065.40 0.05315
1065.50 0.05313
1065.60 0.05311
1065.70 0.05309
1065.80 0.05307
1065.90 0.05305
1066.00 0.05303
1066.10 0.05301
1066.20 0.05299
1066.30 0.05297
1066.40 0.05295
1066.50 0.05293
1066.60 0.05291
1066.70 0.05289
1066.80 0.05287
1066.90 0.05285
1067.00 0.05283
1067.10 0.05281
1067.20 0.0528
1067.30 0.05278
1067.40 0.05276
1067.50 0.05274
1067.60 0.05272
1067.70 0.0527
1067.80 0.05268
1067.90 0.05266
1068.00 0.05264
1068.10 0.05262
1068.20 0.0526
1068.30 0.05258
1068.40 0.05256
1068.50 0.05254
1068.60 0.05252
1068.70 0.0525
1068.80 0.05248
1068.90 0.05246
1069.00 0.05244
1069.10 0.05242
1069.20 0.0524
1069.30 0.05238
1069.40 0.05236
1069.50 0.05234
1069.60 0.05232
1069.70 0.0523
1069.80 0.05228
1069.90 0.05226
1070.00 0.05224
1070.10 0.05222
1070.20 0.0522
1070.30 0.05218
1070.40 0.05216
1070.50 0.05214
1070.60 0.05213
1070.70 0.05211
1070.80 0.05209
1070.90 0.05207
1071.00 0.05205
1071.10 0.05203
1071.20 0.05201
1071.30 0.05199
1071.40 0.05197
1071.50 0.05195
1071.60 0.05193
1071.70 0.05191
1071.80 0.05189
1071.90 0.05187
1072.00 0.05185
1072.10 0.05183
1072.20 0.05181
1072.30 0.05179
1072.40 0.05177
1072.50 0.05175
1072.60 0.05173
1072.70 0.05171
1072.80 0.05169
1072.90 0.05167
1073.00 0.05166
1073.10 0.05164
1073.20 0.05162
1073.30 0.0516
1073.40 0.05158
1073.50 0.05156
1073.60 0.05154
1073.70 0.05152
1073.80 0.0515
1073.90 0.05148
1074.00 0.05146
1074.10 0.05144
1074.20 0.05142
1074.30 0.0514
1074.40 0.05138
1074.50 0.05136
1074.60 0.05134
1074.70 0.05132
1074.80 0.0513
1074.90 0.05128
1075.00 0.05126
1075.10 0.05124
1075.20 0.05122
1075.30 0.0512
1075.40 0.05118
1075.50 0.05116
1075.60 0.05114
1075.70 0.05112
1075.80 0.0511
1075.90 0.05108
1076.00 0.05106
1076.10 0.05105
1076.20 0.05103
1076.30 0.05101
1076.40 0.05099
1076.50 0.05097
1076.60 0.05095
1076.70 0.05093
1076.80 0.05091
1076.90 0.05089
1077.00 0.05087
1077.10 0.05085
1077.20 0.05083
1077.30 0.05081
1077.40 0.05079
1077.50 0.05077
1077.60 0.05075
1077.70 0.05073
1077.80 0.05071
1077.90 0.05069
1078.00 0.05067
1078.10 0.05065
1078.20 0.05063
1078.30 0.05061
1078.40 0.05059
1078.50 0.05057
1078.60 0.05055
1078.70 0.05053
1078.80 0.05051
1078.90 0.05049
1079.00 0.05047
1079.10 0.05045
1079.20 0.05043
1079.30 0.05041
1079.40 0.05039
1079.50 0.05037
1079.60 0.05035
1079.70 0.05033
1079.80 0.05031
1079.90 0.05029
1080.00 0.05027
1080.10 0.05025
1080.20 0.05023
1080.30 0.05021
1080.40 0.05019
1080.50 0.05017
1080.60 0.05015
1080.70 0.05013
1080.80 0.05011
1080.90 0.05009
1081.00 0.05007
1081.10 0.05005
1081.20 0.05003
1081.30 0.05001
1081.40 0.04999
1081.50 0.04997
1081.60 0.04995
1081.70 0.04993
1081.80 0.04991
1081.90 0.04989
1082.00 0.04987
1082.10 0.04985
1082.20 0.04983
1082.30 0.04981
1082.40 0.04979
1082.50 0.04977
1082.60 0.04974
1082.70 0.04972
1082.80 0.0497
1082.90 0.04968
1083.00 0.04966
1083.10 0.04964
1083.20 0.04962
1083.30 0.0496
1083.40 0.04958
1083.50 0.04956
1083.60 0.04954
1083.70 0.04952
1083.80 0.0495
1083.90 0.04948
1084.00 0.04946
1084.10 0.04944
1084.20 0.04941
1084.30 0.04939
1084.40 0.04937
1084.50 0.04935
1084.60 0.04933
1084.70 0.04931
1084.80 0.04929
1084.90 0.04927
1085.00 0.04925
1085.10 0.04923
1085.20 0.0492
1085.30 0.04918
1085.40 0.04916
1085.50 0.04914
1085.60 0.04912
1085.70 0.0491
1085.80 0.04908
1085.90 0.04906
1086.00 0.04904
1086.10 0.04902
1086.20 0.04899
1086.30 0.04897
1086.40 0.04895
1086.50 0.04893
1086.60 0.04891
1086.70 0.04889
1086.80 0.04887
1086.90 0.04885
1087.00 0.04883
1087.10 0.0488
1087.20 0.04878
1087.30 0.04876
1087.40 0.04874
1087.50 0.04872
1087.60 0.0487
1087.70 0.04868
1087.80 0.04866
1087.90 0.04864
1088.00 0.04861
1088.10 0.04859
1088.20 0.04857
1088.30 0.04855
1088.40 0.04853
1088.50 0.04851
1088.60 0.04849
1088.70 0.04847
1088.80 0.04845
1088.90 0.04843
1089.00 0.04841
1089.10 0.04839
1089.20 0.04837
1089.30 0.04835
1089.40 0.04833
1089.50 0.04831
1089.60 0.04829
1089.70 0.04827
1089.80 0.04825
1089.90 0.04823
1090.00 0.0482
1090.10 0.04818
1090.20 0.04816
1090.30 0.04814
1090.40 0.04812
1090.50 0.0481
1090.60 0.04809
1090.70 0.04807
1090.80 0.04805
1090.90 0.04803
1091.00 0.04802
1091.10 0.048
1091.20 0.04798
1091.30 0.04796
1091.40 0.04795
1091.50 0.04793
1091.60 0.04791
1091.70 0.04789
1091.80 0.04788
1091.90 0.04786
1092.00 0.04784
1092.10 0.04783
1092.20 0.04781
1092.30 0.0478
1092.40 0.04778
1092.50 0.04777
1092.60 0.04775
1092.70 0.04774
1092.80 0.04773
1092.90 0.04772
1093.00 0.0477
1093.10 0.04769
1093.20 0.04768
1093.30 0.04767
1093.40 0.04767
1093.50 0.04767
1093.60 0.04769
1093.70 0.0477
1093.80 0.0477
1093.90 0.04768
1094.00 0.04764
1094.10 0.04759
1094.20 0.04755
1094.30 0.04751
1094.40 0.04749
1094.50 0.04746
1094.60 0.04744
1094.70 0.04742
1094.80 0.04739
1094.90 0.04737
1095.00 0.04735
1095.10 0.04733
1095.20 0.04731
1095.30 0.0473
1095.40 0.04728
1095.50 0.04726
1095.60 0.04724
1095.70 0.04723
1095.80 0.04721
1095.90 0.04719
1096.00 0.04717
1096.10 0.04715
1096.20 0.04714
1096.30 0.04712
1096.40 0.0471
1096.50 0.04708
1096.60 0.04707
1096.70 0.04705
1096.80 0.04704
1096.90 0.04702
1097.00 0.04701
1097.10 0.04699
1097.20 0.04698
1097.30 0.04697
1097.40 0.04695
1097.50 0.04694
1097.60 0.04692
1097.70 0.04691
1097.80 0.0469
1097.90 0.04688
1098.00 0.04687
1098.10 0.04685
1098.20 0.04684
1098.30 0.04683
1098.40 0.04681
1098.50 0.0468
1098.60 0.04679
1098.70 0.04677
1098.80 0.04676
1098.90 0.04675
1099.00 0.04673
1099.10 0.04672
1099.20 0.04671
1099.30 0.04669
1099.40 0.04668
1099.50 0.04667
1099.60 0.04666
1099.70 0.04664
1099.80 0.04663
1099.90 0.04662
1100.00 0.0466
1100.10 0.04659
1100.20 0.04658
1100.30 0.04656
1100.40 0.04655
1100.50 0.04654
1100.60 0.04652
1100.70 0.04651
1100.80 0.0465
1100.90 0.04649
1101.00 0.04647
1101.10 0.04646
1101.20 0.04645
1101.30 0.04643
1101.40 0.04642
1101.50 0.04641
1101.60 0.04639
1101.70 0.04638
1101.80 0.04637
1101.90 0.04636
1102.00 0.04634
1102.10 0.04633
1102.20 0.04632
1102.30 0.0463
1102.40 0.04629
1102.50 0.04628
1102.60 0.04626
1102.70 0.04625
1102.80 0.04624
1102.90 0.04622
1103.00 0.04621
1103.10 0.0462
1103.20 0.04618
1103.30 0.04617
1103.40 0.04616
1103.50 0.04614
1103.60 0.04613
1103.70 0.04611
1103.80 0.0461
1103.90 0.04609
1104.00 0.04607
1104.10 0.04606
1104.20 0.04605
1104.30 0.04603
1104.40 0.04602
1104.50 0.046
1104.60 0.04599
1104.70 0.04598
1104.80 0.04596
1104.90 0.04595
1105.00 0.04594
1105.10 0.04592
1105.20 0.04591
1105.30 0.04589
1105.40 0.04588
1105.50 0.04587
1105.60 0.04585
1105.70 0.04584
1105.80 0.04582
1105.90 0.04581
1106.00 0.0458
1106.10 0.04578
1106.20 0.04577
1106.30 0.04575
1106.40 0.04574
1106.50 0.04572
1106.60 0.04571
1106.70 0.0457
1106.80 0.04568
1106.90 0.04567
1107.00 0.04565
1107.10 0.04564
1107.20 0.04563
1107.30 0.04561
1107.40 0.0456
1107.50 0.04558
1107.60 0.04557
1107.70 0.04555
1107.80 0.04554
1107.90 0.04552
1108.00 0.04551
1108.10 0.04549
1108.20 0.04548
1108.30 0.04547
1108.40 0.04545
1108.50 0.04544
1108.60 0.04542
1108.70 0.04541
1108.80 0.04539
1108.90 0.04538
1109.00 0.04536
1109.10 0.04535
1109.20 0.04534
1109.30 0.04532
1109.40 0.04531
1109.50 0.04529
1109.60 0.04528
1109.70 0.04526
1109.80 0.04525
1109.90 0.04523
1110.00 0.04522
1110.10 0.0452
1110.20 0.04519
1110.30 0.04517
1110.40 0.04516
1110.50 0.04514
1110.60 0.04513
1110.70 0.04511
1110.80 0.0451
1110.90 0.04508
1111.00 0.04507
1111.10 0.04505
1111.20 0.04504
1111.30 0.04502
1111.40 0.04501
1111.50 0.045
1111.60 0.04498
1111.70 0.04497
1111.80 0.04495
1111.90 0.04494
1112.00 0.04492
1112.10 0.04491
1112.20 0.04489
1112.30 0.04488
1112.40 0.04486
1112.50 0.04485
1112.60 0.04483
1112.70 0.04482
1112.80 0.0448
1112.90 0.04479
1113.00 0.04477
1113.10 0.04476
1113.20 0.04474
1113.30 0.04473
1113.40 0.04471
1113.50 0.0447
1113.60 0.04468
1113.70 0.04467
1113.80 0.04465
1113.90 0.04464
1114.00 0.04462
1114.10 0.04461
1114.20 0.04459
1114.30 0.04458
1114.40 0.04456
1114.50 0.04455
1114.60 0.04453
1114.70 0.04452
1114.80 0.0445
1114.90 0.04449
1115.00 0.04447
1115.10 0.04446
1115.20 0.04444
1115.30 0.04443
1115.40 0.04441
1115.50 0.0444
1115.60 0.04438
1115.70 0.04437
1115.80 0.04435
1115.90 0.04434
1116.00 0.04432
1116.10 0.04431
1116.20 0.04429
1116.30 0.04428
1116.40 0.04426
1116.50 0.04425
1116.60 0.04423
1116.70 0.04422
1116.80 0.0442
1116.90 0.04419
1117.00 0.04417
1117.10 0.04416
1117.20 0.04414
1117.30 0.04413
1117.40 0.04411
1117.50 0.0441
1117.60 0.04408
1117.70 0.04407
1117.80 0.04405
1117.90 0.04404
1118.00 0.04402
1118.10 0.04401
1118.20 0.04399
1118.30 0.04398
1118.40 0.04396
1118.50 0.04395
1118.60 0.04393
1118.70 0.04392
1118.80 0.0439
1118.90 0.04389
1119.00 0.04387
1119.10 0.04386
1119.20 0.04384
1119.30 0.04383
1119.40 0.04381
1119.50 0.0438
1119.60 0.04378
1119.70 0.04377
1119.80 0.04375
1119.90 0.04374
1120.00 0.04372
1120.10 0.04371
1120.20 0.04369
1120.30 0.04368
1120.40 0.04366
1120.50 0.04365
1120.60 0.04363
1120.70 0.04362
1120.80 0.0436
1120.90 0.04359
1121.00 0.04357
1121.10 0.04356
1121.20 0.04354
1121.30 0.04353
1121.40 0.04352
1121.50 0.0435
1121.60 0.04349
1121.70 0.04347
1121.80 0.04346
1121.90 0.04344
1122.00 0.04343
1122.10 0.04341
1122.20 0.0434
1122.30 0.04338
1122.40 0.04337
1122.50 0.04335
1122.60 0.04334
1122.70 0.04332
1122.80 0.04331
1122.90 0.04329
1123.00 0.04328
1123.10 0.04326
1123.20 0.04325
1123.30 0.04323
1123.40 0.04322
1123.50 0.0432
1123.60 0.04319
1123.70 0.04317
1123.80 0.04316
1123.90 0.04314
1124.00 0.04313
1124.10 0.04311
1124.20 0.0431
1124.30 0.04308
1124.40 0.04307
1124.50 0.04306
1124.60 0.04304
1124.70 0.04303
1124.80 0.04301
1124.90 0.043
1125.00 0.04298
1125.10 0.04297
1125.20 0.04295
1125.30 0.04294
1125.40 0.04292
1125.50 0.04291
1125.60 0.04289
1125.70 0.04288
1125.80 0.04286
1125.90 0.04285
1126.00 0.04283
1126.10 0.04282
1126.20 0.0428
1126.30 0.04279
1126.40 0.04278
1126.50 0.04276
1126.60 0.04275
1126.70 0.04273
1126.80 0.04272
1126.90 0.0427
1127.00 0.04269
1127.10 0.04267
1127.20 0.04266
1127.30 0.04264
1127.40 0.04263
1127.50 0.04261
1127.60 0.0426
1127.70 0.04258
1127.80 0.04257
1127.90 0.04256
1128.00 0.04254
1128.10 0.04253
1128.20 0.04251
1128.30 0.0425
1128.40 0.04248
1128.50 0.04247
1128.60 0.04245
1128.70 0.04244
1128.80 0.04242
1128.90 0.04241
1129.00 0.04239
1129.10 0.04238
1129.20 0.04237
1129.30 0.04235
1129.40 0.04234
1129.50 0.04232
1129.60 0.04231
1129.70 0.04229
1129.80 0.04228
1129.90 0.04226
1130.00 0.04225
1130.10 0.04223
1130.20 0.04222
1130.30 0.04221
1130.40 0.04219
1130.50 0.04218
1130.60 0.04216
1130.70 0.04215
1130.80 0.04213
1130.90 0.04212
1131.00 0.0421
1131.10 0.04209
1131.20 0.04208
1131.30 0.04206
1131.40 0.04205
1131.50 0.04203
1131.60 0.04202
1131.70 0.042
1131.80 0.04199
1131.90 0.04197
1132.00 0.04196
1132.10 0.04195
1132.20 0.04193
1132.30 0.04192
1132.40 0.0419
1132.50 0.04189
1132.60 0.04187
1132.70 0.04186
1132.80 0.04185
1132.90 0.04183
1133.00 0.04182
1133.10 0.0418
1133.20 0.04179
1133.30 0.04177
1133.40 0.04176
1133.50 0.04174
1133.60 0.04173
1133.70 0.04172
1133.80 0.0417
1133.90 0.04169
1134.00 0.04167
1134.10 0.04166
1134.20 0.04164
1134.30 0.04163
1134.40 0.04162
1134.50 0.0416
1134.60 0.04159
1134.70 0.04157
1134.80 0.04156
1134.90 0.04154
1135.00 0.04153
1135.10 0.04152
1135.20 0.0415
1135.30 0.04149
1135.40 0.04147
1135.50 0.04146
1135.60 0.04145
1135.70 0.04143
1135.80 0.04142
1135.90 0.0414
1136.00 0.04139
1136.10 0.04137
1136.20 0.04136
1136.30 0.04135
1136.40 0.04133
1136.50 0.04132
1136.60 0.0413
1136.70 0.04129
1136.80 0.04127
1136.90 0.04126
1137.00 0.04125
1137.10 0.04123
1137.20 0.04122
1137.30 0.0412
1137.40 0.04119
1137.50 0.04118
1137.60 0.04116
1137.70 0.04115
1137.80 0.04113
1137.90 0.04112
1138.00 0.04111
1138.10 0.04109
1138.20 0.04108
1138.30 0.04106
1138.40 0.04105
1138.50 0.04104
1138.60 0.04102
1138.70 0.04101
1138.80 0.04099
1138.90 0.04098
1139.00 0.04097
1139.10 0.04095
1139.20 0.04094
1139.30 0.04092
1139.40 0.04091
1139.50 0.0409
1139.60 0.04088
1139.70 0.04087
1139.80 0.04085
1139.90 0.04084
1140.00 0.04083
1140.10 0.04081
1140.20 0.0408
1140.30 0.04078
1140.40 0.04077
1140.50 0.04076
1140.60 0.04074
1140.70 0.04073
1140.80 0.04071
1140.90 0.0407
1141.00 0.04069
1141.10 0.04067
1141.20 0.04066
1141.30 0.04064
1141.40 0.04063
1141.50 0.04062
1141.60 0.0406
1141.70 0.04059
1141.80 0.04057
1141.90 0.04056
1142.00 0.04055
1142.10 0.04053
1142.20 0.04052
1142.30 0.04051
1142.40 0.04049
1142.50 0.04048
1142.60 0.04046
1142.70 0.04045
1142.80 0.04044
1142.90 0.04042
1143.00 0.04041
1143.10 0.04039
1143.20 0.04038
1143.30 0.04037
1143.40 0.04035
1143.50 0.04034
1143.60 0.04033
1143.70 0.04031
1143.80 0.0403
1143.90 0.04028
1144.00 0.04027
1144.10 0.04026
1144.20 0.04024
1144.30 0.04023
1144.40 0.04022
1144.50 0.0402
1144.60 0.04019
1144.70 0.04018
1144.80 0.04016
1144.90 0.04015
1145.00 0.04013
1145.10 0.04012
1145.20 0.04011
1145.30 0.04009
1145.40 0.04008
1145.50 0.04007
1145.60 0.04005
1145.70 0.04004
1145.80 0.04002
1145.90 0.04001
1146.00 0.04
1146.10 0.03998
1146.20 0.03997
1146.30 0.03996
1146.40 0.03994
1146.50 0.03993
1146.60 0.03992
1146.70 0.0399
1146.80 0.03989
1146.90 0.03987
1147.00 0.03986
1147.10 0.03985
1147.20 0.03983
1147.30 0.03982
1147.40 0.03981
1147.50 0.03979
1147.60 0.03978
1147.70 0.03977
1147.80 0.03975
1147.90 0.03974
1148.00 0.03973
1148.10 0.03971
1148.20 0.0397
1148.30 0.03969
1148.40 0.03967
1148.50 0.03966
1148.60 0.03965
1148.70 0.03963
1148.80 0.03962
1148.90 0.0396
1149.00 0.03959
1149.10 0.03958
1149.20 0.03956
1149.30 0.03955
1149.40 0.03954
1149.50 0.03952
1149.60 0.03951
1149.70 0.0395
1149.80 0.03948
1149.90 0.03947
1150.00 0.03946
1150.10 0.03944
1150.20 0.03943
1150.30 0.03942
1150.40 0.0394
1150.50 0.03939
1150.60 0.03938
1150.70 0.03936
1150.80 0.03935
1150.90 0.03934
1151.00 0.03932
1151.10 0.03931
1151.20 0.0393
1151.30 0.03928
1151.40 0.03927
1151.50 0.03926
1151.60 0.03924
1151.70 0.03923
1151.80 0.03922
1151.90 0.0392
1152.00 0.03919
1152.10 0.03918
1152.20 0.03916
1152.30 0.03915
1152.40 0.03914
1152.50 0.03912
1152.60 0.03911
1152.70 0.0391
1152.80 0.03908
1152.90 0.03907
1153.00 0.03906
1153.10 0.03904
1153.20 0.03903
1153.30 0.03902
1153.40 0.039
1153.50 0.03899
1153.60 0.03898
1153.70 0.03896
1153.80 0.03895
1153.90 0.03894
1154.00 0.03892
1154.10 0.03891
1154.20 0.0389
1154.30 0.03889
1154.40 0.03887
1154.50 0.03886
1154.60 0.03885
1154.70 0.03883
1154.80 0.03882
1154.90 0.03881
1155.00 0.03879
1155.10 0.03878
1155.20 0.03877
1155.30 0.03875
1155.40 0.03874
1155.50 0.03873
1155.60 0.03871
1155.70 0.0387
1155.80 0.03869
1155.90 0.03868
1156.00 0.03866
1156.10 0.03865
1156.20 0.03864
1156.30 0.03862
1156.40 0.03861
1156.50 0.0386
1156.60 0.03858
1156.70 0.03857
1156.80 0.03856
1156.90 0.03854
1157.00 0.03853
1157.10 0.03852
1157.20 0.03851
1157.30 0.03849
1157.40 0.03848
1157.50 0.03847
1157.60 0.03845
1157.70 0.03844
1157.80 0.03843
1157.90 0.03841
1158.00 0.0384
1158.10 0.03839
1158.20 0.03838
1158.30 0.03836
1158.40 0.03835
1158.50 0.03834
1158.60 0.03832
1158.70 0.03831
1158.80 0.0383
1158.90 0.03829
1159.00 0.03827
1159.10 0.03826
1159.20 0.03825
1159.30 0.03823
1159.40 0.03822
1159.50 0.03821
1159.60 0.0382
1159.70 0.03818
1159.80 0.03817
1159.90 0.03816
1160.00 0.03814
1160.10 0.03813
1160.20 0.03812
1160.30 0.03811
1160.40 0.03809
1160.50 0.03808
1160.60 0.03807
1160.70 0.03805
1160.80 0.03804
1160.90 0.03803
1161.00 0.03802
1161.10 0.038
1161.20 0.03799
1161.30 0.03798
1161.40 0.03796
1161.50 0.03795
1161.60 0.03794
1161.70 0.03793
1161.80 0.03791
1161.90 0.0379
1162.00 0.03789
1162.10 0.03787
1162.20 0.03786
1162.30 0.03785
1162.40 0.03784
1162.50 0.03782
1162.60 0.03781
1162.70 0.0378
1162.80 0.03779
1162.90 0.03777
1163.00 0.03776
1163.10 0.03775
1163.20 0.03773
1163.30 0.03772
1163.40 0.03771
1163.50 0.0377
1163.60 0.03768
1163.70 0.03767
1163.80 0.03766
1163.90 0.03765
1164.00 0.03763
1164.10 0.03762
1164.20 0.03761
1164.30 0.0376
1164.40 0.03758
1164.50 0.03757
1164.60 0.03756
1164.70 0.03755
1164.80 0.03753
1164.90 0.03752
1165.00 0.03751
1165.10 0.03749
1165.20 0.03748
1165.30 0.03747
1165.40 0.03746
1165.50 0.03744
1165.60 0.03743
1165.70 0.03742
1165.80 0.03741
1165.90 0.03739
1166.00 0.03738
1166.10 0.03737
1166.20 0.03736
1166.30 0.03734
1166.40 0.03733
1166.50 0.03732
1166.60 0.03731
1166.70 0.03729
1166.80 0.03728
1166.90 0.03727
1167.00 0.03726
1167.10 0.03724
1167.20 0.03723
1167.30 0.03722
1167.40 0.03721
1167.50 0.03719
1167.60 0.03718
1167.70 0.03717
1167.80 0.03716
1167.90 0.03714
1168.00 0.03713
1168.10 0.03712
1168.20 0.03711
1168.30 0.03709
1168.40 0.03708
1168.50 0.03707
1168.60 0.03706
1168.70 0.03705
1168.80 0.03703
1168.90 0.03702
1169.00 0.03701
1169.10 0.037
1169.20 0.03698
1169.30 0.03697
1169.40 0.03696
1169.50 0.03695
1169.60 0.03693
1169.70 0.03692
1169.80 0.03691
1169.90 0.0369
1170.00 0.03688
1170.10 0.03687
1170.20 0.03686
1170.30 0.03685
1170.40 0.03683
1170.50 0.03682
1170.60 0.03681
1170.70 0.0368
1170.80 0.03679
1170.90 0.03677
1171.00 0.03676
1171.10 0.03675
1171.20 0.03674
1171.30 0.03672
1171.40 0.03671
1171.50 0.0367
1171.60 0.03669
1171.70 0.03667
1171.80 0.03666
1171.90 0.03665
1172.00 0.03664
1172.10 0.03663
1172.20 0.03661
1172.30 0.0366
1172.40 0.03659
1172.50 0.03658
1172.60 0.03657
1172.70 0.03655
1172.80 0.03654
1172.90 0.03653
1173.00 0.03652
1173.10 0.0365
1173.20 0.03649
1173.30 0.03648
1173.40 0.03647
1173.50 0.03646
1173.60 0.03644
1173.70 0.03643
1173.80 0.03642
1173.90 0.03641
1174.00 0.03639
1174.10 0.03638
1174.20 0.03637
1174.30 0.03636
1174.40 0.03635
1174.50 0.03633
1174.60 0.03632
1174.70 0.03631
1174.80 0.0363
1174.90 0.03629
1175.00 0.03627
1175.10 0.03626
1175.20 0.03625
1175.30 0.03624
1175.40 0.03623
1175.50 0.03621
1175.60 0.0362
1175.70 0.03619
1175.80 0.03618
1175.90 0.03617
1176.00 0.03615
1176.10 0.03614
1176.20 0.03613
1176.30 0.03612
1176.40 0.0361
1176.50 0.03609
1176.60 0.03608
1176.70 0.03607
1176.80 0.03606
1176.90 0.03604
1177.00 0.03603
1177.10 0.03602
1177.20 0.03601
1177.30 0.036
1177.40 0.03599
1177.50 0.03597
1177.60 0.03596
1177.70 0.03595
1177.80 0.03594
1177.90 0.03593
1178.00 0.03591
1178.10 0.0359
1178.20 0.03589
1178.30 0.03588
1178.40 0.03587
1178.50 0.03585
1178.60 0.03584
1178.70 0.03583
1178.80 0.03582
1178.90 0.03581
1179.00 0.03579
1179.10 0.03578
1179.20 0.03577
1179.30 0.03576
1179.40 0.03575
1179.50 0.03574
1179.60 0.03572
1179.70 0.03571
1179.80 0.0357
1179.90 0.03569
1180.00 0.03568
1180.10 0.03566
1180.20 0.03565
1180.30 0.03564
1180.40 0.03563
1180.50 0.03562
1180.60 0.03561
1180.70 0.03559
1180.80 0.03558
1180.90 0.03557
1181.00 0.03556
1181.10 0.03555
1181.20 0.03553
1181.30 0.03552
1181.40 0.03551
1181.50 0.0355
1181.60 0.03549
1181.70 0.03548
1181.80 0.03546
1181.90 0.03545
1182.00 0.03544
1182.10 0.03543
1182.20 0.03542
1182.30 0.0354
1182.40 0.03539
1182.50 0.03538
1182.60 0.03537
1182.70 0.03536
1182.80 0.03535
1182.90 0.03533
1183.00 0.03532
1183.10 0.03531
1183.20 0.0353
1183.30 0.03529
1183.40 0.03528
1183.50 0.03526
1183.60 0.03525
1183.70 0.03524
1183.80 0.03523
1183.90 0.03522
1184.00 0.03521
1184.10 0.03519
1184.20 0.03518
1184.30 0.03517
1184.40 0.03516
1184.50 0.03515
1184.60 0.03514
1184.70 0.03513
1184.80 0.03511
1184.90 0.0351
1185.00 0.03509
1185.10 0.03508
1185.20 0.03507
1185.30 0.03506
1185.40 0.03504
1185.50 0.03503
1185.60 0.03502
1185.70 0.03501
1185.80 0.035
1185.90 0.03499
1186.00 0.03497
1186.10 0.03496
1186.20 0.03495
1186.30 0.03494
1186.40 0.03493
1186.50 0.03492
1186.60 0.03491
1186.70 0.03489
1186.80 0.03488
1186.90 0.03487
1187.00 0.03486
1187.10 0.03485
1187.20 0.03484
1187.30 0.03482
1187.40 0.03481
1187.50 0.0348
1187.60 0.03479
1187.70 0.03478
1187.80 0.03477
1187.90 0.03476
1188.00 0.03474
1188.10 0.03473
1188.20 0.03472
1188.30 0.03471
1188.40 0.0347
1188.50 0.03469
1188.60 0.03468
1188.70 0.03466
1188.80 0.03465
1188.90 0.03464
1189.00 0.03463
1189.10 0.03462
1189.20 0.03461
1189.30 0.0346
1189.40 0.03458
1189.50 0.03457
1189.60 0.03456
1189.70 0.03455
1189.80 0.03454
1189.90 0.03453
1190.00 0.03452
1190.10 0.03451
1190.20 0.03449
1190.30 0.03448
1190.40 0.03447
1190.50 0.03446
1190.60 0.03445
1190.70 0.03444
1190.80 0.03443
1190.90 0.03441
1191.00 0.0344
1191.10 0.03439
1191.20 0.03438
1191.30 0.03437
1191.40 0.03436
1191.50 0.03435
1191.60 0.03434
1191.70 0.03432
1191.80 0.03431
1191.90 0.0343
1192.00 0.03429
1192.10 0.03428
1192.20 0.03427
1192.30 0.03426
1192.40 0.03425
1192.50 0.03423
1192.60 0.03422
1192.70 0.03421
1192.80 0.0342
1192.90 0.03419
1193.00 0.03418
1193.10 0.03417
1193.20 0.03416
1193.30 0.03414
1193.40 0.03413
1193.50 0.03412
1193.60 0.03411
1193.70 0.0341
1193.80 0.03409
1193.90 0.03408
1194.00 0.03407
1194.10 0.03406
1194.20 0.03404
1194.30 0.03403
1194.40 0.03402
1194.50 0.03401
1194.60 0.034
1194.70 0.03399
1194.80 0.03398
1194.90 0.03397
1195.00 0.03395
1195.10 0.03394
1195.20 0.03393
1195.30 0.03392
1195.40 0.03391
1195.50 0.0339
1195.60 0.03389
1195.70 0.03388
1195.80 0.03387
1195.90 0.03385
1196.00 0.03384
1196.10 0.03383
1196.20 0.03382
1196.30 0.03381
1196.40 0.0338
1196.50 0.03379
1196.60 0.03378
1196.70 0.03377
1196.80 0.03375
1196.90 0.03374
1197.00 0.03373
1197.10 0.03372
1197.20 0.03371
1197.30 0.0337
1197.40 0.03369
1197.50 0.03368
1197.60 0.03367
1197.70 0.03366
1197.80 0.03364
1197.90 0.03363
1198.00 0.03362
1198.10 0.03361
1198.20 0.0336
1198.30 0.03359
1198.40 0.03358
1198.50 0.03357
1198.60 0.03356
1198.70 0.03355
1198.80 0.03354
1198.90 0.03352
1199.00 0.03351
1199.10 0.0335
1199.20 0.03349
1199.30 0.03348
1199.40 0.03347
1199.50 0.03346
1199.60 0.03345
1199.70 0.03344
1199.80 0.03343
1199.90 0.03341
1200.00 0
