# Version 2.1 - nm, norm@500 to 1, cut digits, bergeron_2500_85.dat_2500
# Wavelength(nm)  Flambda(ergs/cm^s/s/nm)
300.00 0.07773
300.10 0.07794
300.20 0.07815
300.30 0.07836
300.40 0.07858
300.50 0.07879
300.60 0.079
300.70 0.07921
300.80 0.07943
300.90 0.07964
301.00 0.07985
301.10 0.08006
301.20 0.08027
301.30 0.08048
301.40 0.08069
301.50 0.0809
301.60 0.08111
301.70 0.08132
301.80 0.08153
301.90 0.08174
302.00 0.08196
302.10 0.08217
302.20 0.08239
302.30 0.08261
302.40 0.08283
302.50 0.08305
302.60 0.08327
302.70 0.08349
302.80 0.08371
302.90 0.08393
303.00 0.08415
303.10 0.08437
303.20 0.08459
303.30 0.0848
303.40 0.08502
303.50 0.08524
303.60 0.08546
303.70 0.08567
303.80 0.08589
303.90 0.08611
304.00 0.08633
304.10 0.08655
304.20 0.08678
304.30 0.08701
304.40 0.08723
304.50 0.08746
304.60 0.08769
304.70 0.08792
304.80 0.08814
304.90 0.08837
305.00 0.0886
305.10 0.08882
305.20 0.08905
305.30 0.08927
305.40 0.0895
305.50 0.08972
305.60 0.08995
305.70 0.09017
305.80 0.09039
305.90 0.09062
306.00 0.09085
306.10 0.09108
306.20 0.09131
306.30 0.09155
306.40 0.09178
306.50 0.09202
306.60 0.09225
306.70 0.09249
306.80 0.09272
306.90 0.09295
307.00 0.09319
307.10 0.09342
307.20 0.09365
307.30 0.09388
307.40 0.09412
307.50 0.09435
307.60 0.09458
307.70 0.09481
307.80 0.09504
307.90 0.09527
308.00 0.09551
308.10 0.09575
308.20 0.09599
308.30 0.09623
308.40 0.09647
308.50 0.09672
308.60 0.09696
308.70 0.0972
308.80 0.09744
308.90 0.09768
309.00 0.09792
309.10 0.09816
309.20 0.0984
309.30 0.09864
309.40 0.09888
309.50 0.09912
309.60 0.09936
309.70 0.0996
309.80 0.09983
309.90 0.1001
310.00 0.1003
310.10 0.1006
310.20 0.1008
310.30 0.1011
310.40 0.1013
310.50 0.1016
310.60 0.1018
310.70 0.1021
310.80 0.1023
310.90 0.1026
311.00 0.1028
311.10 0.1031
311.20 0.1033
311.30 0.1036
311.40 0.1038
311.50 0.104
311.60 0.1043
311.70 0.1045
311.80 0.1048
311.90 0.105
312.00 0.1053
312.10 0.1055
312.20 0.1058
312.30 0.106
312.40 0.1063
312.50 0.1065
312.60 0.1068
312.70 0.1071
312.80 0.1073
312.90 0.1076
313.00 0.1078
313.10 0.1081
313.20 0.1083
313.30 0.1086
313.40 0.1088
313.50 0.1091
313.60 0.1094
313.70 0.1096
313.80 0.1099
313.90 0.1101
314.00 0.1104
314.10 0.1106
314.20 0.1109
314.30 0.1112
314.40 0.1114
314.50 0.1117
314.60 0.112
314.70 0.1122
314.80 0.1125
314.90 0.1127
315.00 0.113
315.10 0.1133
315.20 0.1135
315.30 0.1138
315.40 0.1141
315.50 0.1143
315.60 0.1146
315.70 0.1148
315.80 0.1151
315.90 0.1154
316.00 0.1156
316.10 0.1159
316.20 0.1162
316.30 0.1164
316.40 0.1167
316.50 0.117
316.60 0.1173
316.70 0.1175
316.80 0.1178
316.90 0.1181
317.00 0.1183
317.10 0.1186
317.20 0.1189
317.30 0.1191
317.40 0.1194
317.50 0.1197
317.60 0.1199
317.70 0.1202
317.80 0.1205
317.90 0.1208
318.00 0.121
318.10 0.1213
318.20 0.1216
318.30 0.1219
318.40 0.1221
318.50 0.1224
318.60 0.1227
318.70 0.123
318.80 0.1233
318.90 0.1235
319.00 0.1238
319.10 0.1241
319.20 0.1244
319.30 0.1246
319.40 0.1249
319.50 0.1252
319.60 0.1255
319.70 0.1257
319.80 0.126
319.90 0.1263
320.00 0.1266
320.10 0.1269
320.20 0.1271
320.30 0.1274
320.40 0.1277
320.50 0.128
320.60 0.1283
320.70 0.1286
320.80 0.1289
320.90 0.1291
321.00 0.1294
321.10 0.1297
321.20 0.13
321.30 0.1303
321.40 0.1306
321.50 0.1308
321.60 0.1311
321.70 0.1314
321.80 0.1317
321.90 0.132
322.00 0.1323
322.10 0.1326
322.20 0.1328
322.30 0.1331
322.40 0.1334
322.50 0.1337
322.60 0.134
322.70 0.1343
322.80 0.1346
322.90 0.1349
323.00 0.1352
323.10 0.1355
323.20 0.1358
323.30 0.1361
323.40 0.1364
323.50 0.1366
323.60 0.1369
323.70 0.1372
323.80 0.1375
323.90 0.1378
324.00 0.1381
324.10 0.1384
324.20 0.1387
324.30 0.139
324.40 0.1393
324.50 0.1396
324.60 0.1399
324.70 0.1402
324.80 0.1405
324.90 0.1408
325.00 0.1411
325.10 0.1414
325.20 0.1417
325.30 0.142
325.40 0.1423
325.50 0.1426
325.60 0.1429
325.70 0.1432
325.80 0.1435
325.90 0.1438
326.00 0.1441
326.10 0.1444
326.20 0.1447
326.30 0.145
326.40 0.1453
326.50 0.1456
326.60 0.1459
326.70 0.1462
326.80 0.1466
326.90 0.1469
327.00 0.1472
327.10 0.1475
327.20 0.1478
327.30 0.1481
327.40 0.1484
327.50 0.1487
327.60 0.149
327.70 0.1493
327.80 0.1496
327.90 0.1499
328.00 0.1502
328.10 0.1505
328.20 0.1508
328.30 0.1512
328.40 0.1515
328.50 0.1518
328.60 0.1521
328.70 0.1524
328.80 0.1527
328.90 0.1531
329.00 0.1534
329.10 0.1537
329.20 0.154
329.30 0.1543
329.40 0.1546
329.50 0.1549
329.60 0.1552
329.70 0.1556
329.80 0.1559
329.90 0.1562
330.00 0.1565
330.10 0.1568
330.20 0.1571
330.30 0.1575
330.40 0.1578
330.50 0.1581
330.60 0.1584
330.70 0.1588
330.80 0.1591
330.90 0.1594
331.00 0.1597
331.10 0.16
331.20 0.1604
331.30 0.1607
331.40 0.161
331.50 0.1613
331.60 0.1616
331.70 0.162
331.80 0.1623
331.90 0.1626
332.00 0.1629
332.10 0.1632
332.20 0.1636
332.30 0.1639
332.40 0.1642
332.50 0.1646
332.60 0.1649
332.70 0.1652
332.80 0.1656
332.90 0.1659
333.00 0.1662
333.10 0.1665
333.20 0.1669
333.30 0.1672
333.40 0.1675
333.50 0.1679
333.60 0.1682
333.70 0.1685
333.80 0.1688
333.90 0.1692
334.00 0.1695
334.10 0.1698
334.20 0.1702
334.30 0.1705
334.40 0.1708
334.50 0.1712
334.60 0.1715
334.70 0.1718
334.80 0.1722
334.90 0.1725
335.00 0.1729
335.10 0.1732
335.20 0.1735
335.30 0.1739
335.40 0.1742
335.50 0.1745
335.60 0.1749
335.70 0.1752
335.80 0.1755
335.90 0.1759
336.00 0.1762
336.10 0.1765
336.20 0.1769
336.30 0.1772
336.40 0.1776
336.50 0.1779
336.60 0.1783
336.70 0.1786
336.80 0.1789
336.90 0.1793
337.00 0.1796
337.10 0.18
337.20 0.1803
337.30 0.1807
337.40 0.181
337.50 0.1813
337.60 0.1817
337.70 0.182
337.80 0.1824
337.90 0.1827
338.00 0.183
338.10 0.1834
338.20 0.1837
338.30 0.1841
338.40 0.1844
338.50 0.1848
338.60 0.1852
338.70 0.1855
338.80 0.1859
338.90 0.1862
339.00 0.1866
339.10 0.1869
339.20 0.1873
339.30 0.1876
339.40 0.1879
339.50 0.1883
339.60 0.1886
339.70 0.189
339.80 0.1893
339.90 0.1897
340.00 0.19
340.10 0.1904
340.20 0.1907
340.30 0.1911
340.40 0.1915
340.50 0.1918
340.60 0.1922
340.70 0.1925
340.80 0.1929
340.90 0.1933
341.00 0.1936
341.10 0.194
341.20 0.1943
341.30 0.1947
341.40 0.195
341.50 0.1954
341.60 0.1957
341.70 0.1961
341.80 0.1965
341.90 0.1968
342.00 0.1972
342.10 0.1975
342.20 0.1979
342.30 0.1983
342.40 0.1986
342.50 0.199
342.60 0.1994
342.70 0.1997
342.80 0.2001
342.90 0.2004
343.00 0.2008
343.10 0.2012
343.20 0.2015
343.30 0.2019
343.40 0.2023
343.50 0.2026
343.60 0.203
343.70 0.2033
343.80 0.2037
343.90 0.2041
344.00 0.2044
344.10 0.2048
344.20 0.2052
344.30 0.2055
344.40 0.2059
344.50 0.2063
344.60 0.2067
344.70 0.207
344.80 0.2074
344.90 0.2078
345.00 0.2082
345.10 0.2085
345.20 0.2089
345.30 0.2093
345.40 0.2096
345.50 0.21
345.60 0.2104
345.70 0.2107
345.80 0.2111
345.90 0.2115
346.00 0.2118
346.10 0.2122
346.20 0.2126
346.30 0.213
346.40 0.2134
346.50 0.2137
346.60 0.2141
346.70 0.2145
346.80 0.2149
346.90 0.2152
347.00 0.2156
347.10 0.216
347.20 0.2164
347.30 0.2168
347.40 0.2171
347.50 0.2175
347.60 0.2179
347.70 0.2183
347.80 0.2186
347.90 0.219
348.00 0.2194
348.10 0.2198
348.20 0.2201
348.30 0.2205
348.40 0.2209
348.50 0.2213
348.60 0.2217
348.70 0.2221
348.80 0.2225
348.90 0.2228
349.00 0.2232
349.10 0.2236
349.20 0.224
349.30 0.2244
349.40 0.2248
349.50 0.2251
349.60 0.2255
349.70 0.2259
349.80 0.2263
349.90 0.2267
350.00 0.227
350.10 0.2274
350.20 0.2278
350.30 0.2282
350.40 0.2286
350.50 0.229
350.60 0.2294
350.70 0.2298
350.80 0.2302
350.90 0.2306
351.00 0.231
351.10 0.2314
351.20 0.2317
351.30 0.2321
351.40 0.2325
351.50 0.2329
351.60 0.2333
351.70 0.2337
351.80 0.2341
351.90 0.2345
352.00 0.2348
352.10 0.2352
352.20 0.2357
352.30 0.2361
352.40 0.2365
352.50 0.2368
352.60 0.2372
352.70 0.2376
352.80 0.238
352.90 0.2384
353.00 0.2388
353.10 0.2392
353.20 0.2396
353.30 0.24
353.40 0.2404
353.50 0.2408
353.60 0.2412
353.70 0.2416
353.80 0.242
353.90 0.2424
354.00 0.2428
354.10 0.2432
354.20 0.2436
354.30 0.244
354.40 0.2444
354.50 0.2448
354.60 0.2452
354.70 0.2456
354.80 0.246
354.90 0.2464
355.00 0.2468
355.10 0.2472
355.20 0.2476
355.30 0.248
355.40 0.2484
355.50 0.2488
355.60 0.2492
355.70 0.2496
355.80 0.25
355.90 0.2504
356.00 0.2508
356.10 0.2513
356.20 0.2517
356.30 0.2521
356.40 0.2525
356.50 0.2529
356.60 0.2533
356.70 0.2537
356.80 0.2541
356.90 0.2546
357.00 0.255
357.10 0.2554
357.20 0.2558
357.30 0.2562
357.40 0.2566
357.50 0.257
357.60 0.2574
357.70 0.2578
357.80 0.2582
357.90 0.2586
358.00 0.259
358.10 0.2594
358.20 0.2599
358.30 0.2603
358.40 0.2607
358.50 0.2611
358.60 0.2615
358.70 0.262
358.80 0.2624
358.90 0.2628
359.00 0.2632
359.10 0.2636
359.20 0.264
359.30 0.2645
359.40 0.2649
359.50 0.2653
359.60 0.2657
359.70 0.2661
359.80 0.2665
359.90 0.2669
360.00 0.2673
360.10 0.2678
360.20 0.2682
360.30 0.2686
360.40 0.269
360.50 0.2695
360.60 0.2699
360.70 0.2703
360.80 0.2707
360.90 0.2712
361.00 0.2716
361.10 0.272
361.20 0.2724
361.30 0.2728
361.40 0.2733
361.50 0.2737
361.60 0.2741
361.70 0.2745
361.80 0.2749
361.90 0.2754
362.00 0.2758
362.10 0.2762
362.20 0.2766
362.30 0.2771
362.40 0.2775
362.50 0.2779
362.60 0.2783
362.70 0.2788
362.80 0.2792
362.90 0.2796
363.00 0.28
363.10 0.2805
363.20 0.2809
363.30 0.2813
363.40 0.2818
363.50 0.2822
363.60 0.2826
363.70 0.2831
363.80 0.2835
363.90 0.2839
364.00 0.2843
364.10 0.2848
364.20 0.2852
364.30 0.2856
364.40 0.2861
364.50 0.2865
364.60 0.2869
364.70 0.2874
364.80 0.2878
364.90 0.2882
365.00 0.2887
365.10 0.2891
365.20 0.2895
365.30 0.29
365.40 0.2904
365.50 0.2908
365.60 0.2913
365.70 0.2917
365.80 0.2921
365.90 0.2926
366.00 0.293
366.10 0.2934
366.20 0.2939
366.30 0.2943
366.40 0.2948
366.50 0.2952
366.60 0.2956
366.70 0.2961
366.80 0.2965
366.90 0.297
367.00 0.2974
367.10 0.2978
367.20 0.2983
367.30 0.2987
367.40 0.2992
367.50 0.2996
367.60 0.3
367.70 0.3005
367.80 0.3009
367.90 0.3013
368.00 0.3018
368.10 0.3022
368.20 0.3027
368.30 0.3031
368.40 0.3036
368.50 0.304
368.60 0.3045
368.70 0.3049
368.80 0.3054
368.90 0.3058
369.00 0.3062
369.10 0.3067
369.20 0.3071
369.30 0.3076
369.40 0.308
369.50 0.3085
369.60 0.3089
369.70 0.3093
369.80 0.3098
369.90 0.3102
370.00 0.3107
370.10 0.3111
370.20 0.3116
370.30 0.312
370.40 0.3125
370.50 0.3129
370.60 0.3134
370.70 0.3138
370.80 0.3143
370.90 0.3147
371.00 0.3152
371.10 0.3156
371.20 0.3161
371.30 0.3165
371.40 0.317
371.50 0.3174
371.60 0.3179
371.70 0.3183
371.80 0.3188
371.90 0.3192
372.00 0.3197
372.10 0.3201
372.20 0.3206
372.30 0.3211
372.40 0.3215
372.50 0.322
372.60 0.3224
372.70 0.3229
372.80 0.3233
372.90 0.3238
373.00 0.3243
373.10 0.3247
373.20 0.3252
373.30 0.3256
373.40 0.3261
373.50 0.3265
373.60 0.327
373.70 0.3274
373.80 0.3279
373.90 0.3283
374.00 0.3288
374.10 0.3293
374.20 0.3297
374.30 0.3302
374.40 0.3307
374.50 0.3311
374.60 0.3316
374.70 0.332
374.80 0.3325
374.90 0.333
375.00 0.3334
375.10 0.3339
375.20 0.3343
375.30 0.3348
375.40 0.3353
375.50 0.3357
375.60 0.3362
375.70 0.3366
375.80 0.3371
375.90 0.3375
376.00 0.338
376.10 0.3385
376.20 0.3389
376.30 0.3394
376.40 0.3399
376.50 0.3403
376.60 0.3408
376.70 0.3413
376.80 0.3417
376.90 0.3422
377.00 0.3427
377.10 0.3431
377.20 0.3436
377.30 0.3441
377.40 0.3445
377.50 0.345
377.60 0.3455
377.70 0.3459
377.80 0.3464
377.90 0.3469
378.00 0.3473
378.10 0.3478
378.20 0.3483
378.30 0.3487
378.40 0.3492
378.50 0.3497
378.60 0.3501
378.70 0.3506
378.80 0.3511
378.90 0.3516
379.00 0.352
379.10 0.3525
379.20 0.353
379.30 0.3534
379.40 0.3539
379.50 0.3544
379.60 0.3549
379.70 0.3553
379.80 0.3558
379.90 0.3563
380.00 0.3567
380.10 0.3572
380.20 0.3577
380.30 0.3582
380.40 0.3586
380.50 0.3591
380.60 0.3596
380.70 0.3601
380.80 0.3605
380.90 0.361
381.00 0.3615
381.10 0.362
381.20 0.3624
381.30 0.3629
381.40 0.3634
381.50 0.3639
381.60 0.3643
381.70 0.3648
381.80 0.3653
381.90 0.3658
382.00 0.3663
382.10 0.3667
382.20 0.3672
382.30 0.3677
382.40 0.3682
382.50 0.3687
382.60 0.3691
382.70 0.3696
382.80 0.3701
382.90 0.3706
383.00 0.3711
383.10 0.3715
383.20 0.372
383.30 0.3725
383.40 0.373
383.50 0.3735
383.60 0.3739
383.70 0.3744
383.80 0.3749
383.90 0.3754
384.00 0.3759
384.10 0.3763
384.20 0.3768
384.30 0.3773
384.40 0.3778
384.50 0.3783
384.60 0.3788
384.70 0.3793
384.80 0.3797
384.90 0.3802
385.00 0.3807
385.10 0.3812
385.20 0.3817
385.30 0.3822
385.40 0.3826
385.50 0.3831
385.60 0.3836
385.70 0.3841
385.80 0.3846
385.90 0.3851
386.00 0.3856
386.10 0.3861
386.20 0.3865
386.30 0.387
386.40 0.3875
386.50 0.388
386.60 0.3885
386.70 0.389
386.80 0.3895
386.90 0.39
387.00 0.3904
387.10 0.3909
387.20 0.3914
387.30 0.3919
387.40 0.3924
387.50 0.3929
387.60 0.3934
387.70 0.3939
387.80 0.3944
387.90 0.3949
388.00 0.3954
388.10 0.3959
388.20 0.3963
388.30 0.3968
388.40 0.3973
388.50 0.3978
388.60 0.3983
388.70 0.3988
388.80 0.3993
388.90 0.3998
389.00 0.4003
389.10 0.4008
389.20 0.4013
389.30 0.4018
389.40 0.4023
389.50 0.4028
389.60 0.4032
389.70 0.4037
389.80 0.4042
389.90 0.4047
390.00 0.4052
390.10 0.4057
390.20 0.4062
390.30 0.4067
390.40 0.4072
390.50 0.4077
390.60 0.4082
390.70 0.4087
390.80 0.4092
390.90 0.4097
391.00 0.4102
391.10 0.4107
391.20 0.4112
391.30 0.4117
391.40 0.4122
391.50 0.4127
391.60 0.4132
391.70 0.4137
391.80 0.4142
391.90 0.4147
392.00 0.4152
392.10 0.4157
392.20 0.4162
392.30 0.4167
392.40 0.4172
392.50 0.4177
392.60 0.4182
392.70 0.4187
392.80 0.4192
392.90 0.4197
393.00 0.4202
393.10 0.4207
393.20 0.4212
393.30 0.4217
393.40 0.4222
393.50 0.4227
393.60 0.4232
393.70 0.4237
393.80 0.4242
393.90 0.4247
394.00 0.4252
394.10 0.4257
394.20 0.4262
394.30 0.4267
394.40 0.4272
394.50 0.4278
394.60 0.4283
394.70 0.4288
394.80 0.4293
394.90 0.4298
395.00 0.4303
395.10 0.4308
395.20 0.4313
395.30 0.4318
395.40 0.4323
395.50 0.4328
395.60 0.4333
395.70 0.4338
395.80 0.4343
395.90 0.4348
396.00 0.4353
396.10 0.4359
396.20 0.4364
396.30 0.4369
396.40 0.4374
396.50 0.4379
396.60 0.4384
396.70 0.4389
396.80 0.4394
396.90 0.4399
397.00 0.4404
397.10 0.4409
397.20 0.4415
397.30 0.442
397.40 0.4425
397.50 0.443
397.60 0.4435
397.70 0.444
397.80 0.4445
397.90 0.445
398.00 0.4455
398.10 0.446
398.20 0.4466
398.30 0.4471
398.40 0.4476
398.50 0.4481
398.60 0.4486
398.70 0.4491
398.80 0.4496
398.90 0.4501
399.00 0.4507
399.10 0.4512
399.20 0.4517
399.30 0.4522
399.40 0.4527
399.50 0.4532
399.60 0.4537
399.70 0.4543
399.80 0.4548
399.90 0.4553
400.00 0.4558
400.10 0.4563
400.20 0.4568
400.30 0.4573
400.40 0.4579
400.50 0.4584
400.60 0.4589
400.70 0.4594
400.80 0.4599
400.90 0.4604
401.00 0.461
401.10 0.4615
401.20 0.462
401.30 0.4625
401.40 0.463
401.50 0.4635
401.60 0.4641
401.70 0.4646
401.80 0.4651
401.90 0.4656
402.00 0.4661
402.10 0.4667
402.20 0.4672
402.30 0.4677
402.40 0.4682
402.50 0.4687
402.60 0.4692
402.70 0.4698
402.80 0.4703
402.90 0.4708
403.00 0.4713
403.10 0.4718
403.20 0.4724
403.30 0.4729
403.40 0.4734
403.50 0.4739
403.60 0.4744
403.70 0.475
403.80 0.4755
403.90 0.476
404.00 0.4765
404.10 0.477
404.20 0.4776
404.30 0.4781
404.40 0.4786
404.50 0.4791
404.60 0.4797
404.70 0.4802
404.80 0.4807
404.90 0.4812
405.00 0.4818
405.10 0.4823
405.20 0.4828
405.30 0.4833
405.40 0.4838
405.50 0.4844
405.60 0.4849
405.70 0.4854
405.80 0.4859
405.90 0.4865
406.00 0.487
406.10 0.4875
406.20 0.488
406.30 0.4886
406.40 0.4891
406.50 0.4896
406.60 0.4901
406.70 0.4907
406.80 0.4912
406.90 0.4917
407.00 0.4922
407.10 0.4928
407.20 0.4933
407.30 0.4938
407.40 0.4943
407.50 0.4949
407.60 0.4954
407.70 0.4959
407.80 0.4965
407.90 0.497
408.00 0.4975
408.10 0.498
408.20 0.4986
408.30 0.4991
408.40 0.4996
408.50 0.5002
408.60 0.5007
408.70 0.5012
408.80 0.5017
408.90 0.5023
409.00 0.5028
409.10 0.5033
409.20 0.5039
409.30 0.5044
409.40 0.5049
409.50 0.5054
409.60 0.506
409.70 0.5065
409.80 0.507
409.90 0.5076
410.00 0.5081
410.10 0.5086
410.20 0.5092
410.30 0.5097
410.40 0.5102
410.50 0.5107
410.60 0.5113
410.70 0.5118
410.80 0.5123
410.90 0.5129
411.00 0.5134
411.10 0.5139
411.20 0.5145
411.30 0.515
411.40 0.5155
411.50 0.5161
411.60 0.5166
411.70 0.5171
411.80 0.5177
411.90 0.5182
412.00 0.5187
412.10 0.5193
412.20 0.5198
412.30 0.5203
412.40 0.5209
412.50 0.5214
412.60 0.5219
412.70 0.5225
412.80 0.523
412.90 0.5235
413.00 0.5241
413.10 0.5246
413.20 0.5251
413.30 0.5257
413.40 0.5262
413.50 0.5267
413.60 0.5273
413.70 0.5278
413.80 0.5283
413.90 0.5289
414.00 0.5294
414.10 0.5299
414.20 0.5305
414.30 0.531
414.40 0.5316
414.50 0.5321
414.60 0.5326
414.70 0.5332
414.80 0.5337
414.90 0.5342
415.00 0.5348
415.10 0.5353
415.20 0.5358
415.30 0.5364
415.40 0.5369
415.50 0.5375
415.60 0.538
415.70 0.5385
415.80 0.5391
415.90 0.5396
416.00 0.5401
416.10 0.5407
416.20 0.5412
416.30 0.5417
416.40 0.5423
416.50 0.5429
416.60 0.5434
416.70 0.5439
416.80 0.5444
416.90 0.545
417.00 0.5455
417.10 0.5461
417.20 0.5466
417.30 0.5471
417.40 0.5477
417.50 0.5482
417.60 0.5488
417.70 0.5493
417.80 0.5498
417.90 0.5504
418.00 0.5509
418.10 0.5515
418.20 0.552
418.30 0.5525
418.40 0.5531
418.50 0.5536
418.60 0.5542
418.70 0.5547
418.80 0.5552
418.90 0.5558
419.00 0.5563
419.10 0.5569
419.20 0.5574
419.30 0.5579
419.40 0.5585
419.50 0.559
419.60 0.5596
419.70 0.5601
419.80 0.5607
419.90 0.5612
420.00 0.5617
420.10 0.5623
420.20 0.5628
420.30 0.5634
420.40 0.5639
420.50 0.5644
420.60 0.565
420.70 0.5655
420.80 0.5661
420.90 0.5666
421.00 0.5671
421.10 0.5677
421.20 0.5683
421.30 0.5688
421.40 0.5694
421.50 0.5699
421.60 0.5704
421.70 0.571
421.80 0.5715
421.90 0.572
422.00 0.5726
422.10 0.5732
422.20 0.5737
422.30 0.5742
422.40 0.5748
422.50 0.5753
422.60 0.5759
422.70 0.5764
422.80 0.577
422.90 0.5775
423.00 0.5781
423.10 0.5786
423.20 0.5791
423.30 0.5797
423.40 0.5803
423.50 0.5808
423.60 0.5813
423.70 0.5819
423.80 0.5824
423.90 0.5829
424.00 0.5835
424.10 0.5841
424.20 0.5846
424.30 0.5851
424.40 0.5857
424.50 0.5862
424.60 0.5868
424.70 0.5873
424.80 0.5879
424.90 0.5884
425.00 0.589
425.10 0.5895
425.20 0.59
425.30 0.5906
425.40 0.5911
425.50 0.5917
425.60 0.5922
425.70 0.5928
425.80 0.5933
425.90 0.5939
426.00 0.5944
426.10 0.595
426.20 0.5955
426.30 0.5961
426.40 0.5967
426.50 0.5972
426.60 0.5977
426.70 0.5983
426.80 0.5988
426.90 0.5994
427.00 0.5999
427.10 0.6005
427.20 0.601
427.30 0.6016
427.40 0.6021
427.50 0.6027
427.60 0.6032
427.70 0.6038
427.80 0.6043
427.90 0.6048
428.00 0.6054
428.10 0.606
428.20 0.6065
428.30 0.6071
428.40 0.6076
428.50 0.6081
428.60 0.6087
428.70 0.6093
428.80 0.6098
428.90 0.6104
429.00 0.6109
429.10 0.6115
429.20 0.612
429.30 0.6125
429.40 0.6131
429.50 0.6137
429.60 0.6142
429.70 0.6147
429.80 0.6153
429.90 0.6158
430.00 0.6164
430.10 0.617
430.20 0.6175
430.30 0.6181
430.40 0.6186
430.50 0.6192
430.60 0.6197
430.70 0.6203
430.80 0.6208
430.90 0.6213
431.00 0.6219
431.10 0.6224
431.20 0.623
431.30 0.6236
431.40 0.6241
431.50 0.6247
431.60 0.6252
431.70 0.6258
431.80 0.6263
431.90 0.6269
432.00 0.6274
432.10 0.628
432.20 0.6285
432.30 0.6291
432.40 0.6296
432.50 0.6302
432.60 0.6307
432.70 0.6313
432.80 0.6318
432.90 0.6324
433.00 0.6329
433.10 0.6335
433.20 0.6341
433.30 0.6346
433.40 0.6351
433.50 0.6357
433.60 0.6363
433.70 0.6368
433.80 0.6374
433.90 0.6379
434.00 0.6385
434.10 0.639
434.20 0.6396
434.30 0.6401
434.40 0.6407
434.50 0.6413
434.60 0.6418
434.70 0.6423
434.80 0.6429
434.90 0.6435
435.00 0.644
435.10 0.6446
435.20 0.6451
435.30 0.6457
435.40 0.6462
435.50 0.6468
435.60 0.6473
435.70 0.6479
435.80 0.6484
435.90 0.649
436.00 0.6496
436.10 0.6501
436.20 0.6507
436.30 0.6512
436.40 0.6518
436.50 0.6523
436.60 0.6529
436.70 0.6534
436.80 0.654
436.90 0.6545
437.00 0.6551
437.10 0.6556
437.20 0.6562
437.30 0.6568
437.40 0.6573
437.50 0.6579
437.60 0.6584
437.70 0.659
437.80 0.6595
437.90 0.6601
438.00 0.6606
438.10 0.6612
438.20 0.6617
438.30 0.6623
438.40 0.6629
438.50 0.6634
438.60 0.664
438.70 0.6645
438.80 0.6651
438.90 0.6656
439.00 0.6662
439.10 0.6667
439.20 0.6673
439.30 0.6678
439.40 0.6684
439.50 0.669
439.60 0.6695
439.70 0.6701
439.80 0.6706
439.90 0.6712
440.00 0.6717
440.10 0.6723
440.20 0.6728
440.30 0.6734
440.40 0.674
440.50 0.6745
440.60 0.6751
440.70 0.6756
440.80 0.6762
440.90 0.6767
441.00 0.6773
441.10 0.6778
441.20 0.6784
441.30 0.679
441.40 0.6795
441.50 0.6801
441.60 0.6806
441.70 0.6812
441.80 0.6817
441.90 0.6823
442.00 0.6828
442.10 0.6834
442.20 0.6839
442.30 0.6845
442.40 0.6851
442.50 0.6856
442.60 0.6862
442.70 0.6867
442.80 0.6873
442.90 0.6878
443.00 0.6884
443.10 0.689
443.20 0.6895
443.30 0.6901
443.40 0.6906
443.50 0.6912
443.60 0.6918
443.70 0.6923
443.80 0.6928
443.90 0.6934
444.00 0.694
444.10 0.6945
444.20 0.6951
444.30 0.6956
444.40 0.6962
444.50 0.6968
444.60 0.6973
444.70 0.6978
444.80 0.6984
444.90 0.699
445.00 0.6996
445.10 0.7001
445.20 0.7006
445.30 0.7012
445.40 0.7018
445.50 0.7023
445.60 0.7029
445.70 0.7034
445.80 0.704
445.90 0.7045
446.00 0.7051
446.10 0.7057
446.20 0.7062
446.30 0.7068
446.40 0.7073
446.50 0.7079
446.60 0.7085
446.70 0.709
446.80 0.7096
446.90 0.7101
447.00 0.7107
447.10 0.7112
447.20 0.7118
447.30 0.7124
447.40 0.7129
447.50 0.7135
447.60 0.714
447.70 0.7146
447.80 0.7151
447.90 0.7157
448.00 0.7163
448.10 0.7168
448.20 0.7174
448.30 0.7179
448.40 0.7185
448.50 0.719
448.60 0.7196
448.70 0.7202
448.80 0.7207
448.90 0.7212
449.00 0.7218
449.10 0.7224
449.20 0.7229
449.30 0.7235
449.40 0.7241
449.50 0.7246
449.60 0.7252
449.70 0.7257
449.80 0.7263
449.90 0.7268
450.00 0.7274
450.10 0.7279
450.20 0.7285
450.30 0.7291
450.40 0.7296
450.50 0.7302
450.60 0.7307
450.70 0.7313
450.80 0.7319
450.90 0.7324
451.00 0.7329
451.10 0.7335
451.20 0.7341
451.30 0.7346
451.40 0.7352
451.50 0.7358
451.60 0.7363
451.70 0.7369
451.80 0.7374
451.90 0.738
452.00 0.7385
452.10 0.7391
452.20 0.7396
452.30 0.7402
452.40 0.7407
452.50 0.7413
452.60 0.7419
452.70 0.7424
452.80 0.743
452.90 0.7435
453.00 0.7441
453.10 0.7446
453.20 0.7452
453.30 0.7458
453.40 0.7463
453.50 0.7469
453.60 0.7474
453.70 0.748
453.80 0.7486
453.90 0.7491
454.00 0.7497
454.10 0.7502
454.20 0.7508
454.30 0.7514
454.40 0.7519
454.50 0.7525
454.60 0.753
454.70 0.7536
454.80 0.7541
454.90 0.7547
455.00 0.7552
455.10 0.7558
455.20 0.7563
455.30 0.7569
455.40 0.7575
455.50 0.758
455.60 0.7586
455.70 0.7591
455.80 0.7597
455.90 0.7602
456.00 0.7608
456.10 0.7614
456.20 0.7619
456.30 0.7625
456.40 0.763
456.50 0.7636
456.60 0.7641
456.70 0.7647
456.80 0.7653
456.90 0.7658
457.00 0.7664
457.10 0.7669
457.20 0.7675
457.30 0.768
457.40 0.7686
457.50 0.7692
457.60 0.7697
457.70 0.7703
457.80 0.7708
457.90 0.7714
458.00 0.7719
458.10 0.7725
458.20 0.773
458.30 0.7736
458.40 0.7741
458.50 0.7747
458.60 0.7753
458.70 0.7758
458.80 0.7764
458.90 0.7769
459.00 0.7775
459.10 0.7781
459.20 0.7786
459.30 0.7792
459.40 0.7797
459.50 0.7803
459.60 0.7808
459.70 0.7814
459.80 0.7819
459.90 0.7825
460.00 0.783
460.10 0.7836
460.20 0.7842
460.30 0.7847
460.40 0.7853
460.50 0.7858
460.60 0.7864
460.70 0.7869
460.80 0.7875
460.90 0.788
461.00 0.7886
461.10 0.7892
461.20 0.7897
461.30 0.7903
461.40 0.7908
461.50 0.7914
461.60 0.7919
461.70 0.7925
461.80 0.7931
461.90 0.7936
462.00 0.7942
462.10 0.7947
462.20 0.7953
462.30 0.7958
462.40 0.7964
462.50 0.7969
462.60 0.7975
462.70 0.7981
462.80 0.7986
462.90 0.7992
463.00 0.7997
463.10 0.8003
463.20 0.8008
463.30 0.8014
463.40 0.8019
463.50 0.8025
463.60 0.8031
463.70 0.8036
463.80 0.8042
463.90 0.8047
464.00 0.8053
464.10 0.8058
464.20 0.8064
464.30 0.8069
464.40 0.8075
464.50 0.808
464.60 0.8086
464.70 0.8091
464.80 0.8097
464.90 0.8102
465.00 0.8108
465.10 0.8113
465.20 0.8119
465.30 0.8125
465.40 0.813
465.50 0.8136
465.60 0.8141
465.70 0.8147
465.80 0.8152
465.90 0.8158
466.00 0.8163
466.10 0.8169
466.20 0.8174
466.30 0.818
466.40 0.8185
466.50 0.8191
466.60 0.8196
466.70 0.8202
466.80 0.8208
466.90 0.8213
467.00 0.8219
467.10 0.8224
467.20 0.823
467.30 0.8235
467.40 0.8241
467.50 0.8246
467.60 0.8252
467.70 0.8257
467.80 0.8263
467.90 0.8268
468.00 0.8274
468.10 0.8279
468.20 0.8285
468.30 0.829
468.40 0.8296
468.50 0.8301
468.60 0.8307
468.70 0.8312
468.80 0.8318
468.90 0.8323
469.00 0.8329
469.10 0.8334
469.20 0.834
469.30 0.8346
469.40 0.8351
469.50 0.8357
469.60 0.8362
469.70 0.8368
469.80 0.8373
469.90 0.8379
470.00 0.8384
470.10 0.839
470.20 0.8395
470.30 0.8401
470.40 0.8406
470.50 0.8412
470.60 0.8417
470.70 0.8423
470.80 0.8428
470.90 0.8434
471.00 0.8439
471.10 0.8445
471.20 0.8451
471.30 0.8456
471.40 0.8462
471.50 0.8467
471.60 0.8473
471.70 0.8478
471.80 0.8483
471.90 0.8489
472.00 0.8494
472.10 0.85
472.20 0.8505
472.30 0.8511
472.40 0.8516
472.50 0.8522
472.60 0.8527
472.70 0.8533
472.80 0.8538
472.90 0.8544
473.00 0.8549
473.10 0.8555
473.20 0.856
473.30 0.8566
473.40 0.8571
473.50 0.8577
473.60 0.8582
473.70 0.8588
473.80 0.8593
473.90 0.8599
474.00 0.8604
474.10 0.861
474.20 0.8615
474.30 0.8621
474.40 0.8626
474.50 0.8632
474.60 0.8637
474.70 0.8643
474.80 0.8648
474.90 0.8654
475.00 0.8659
475.10 0.8665
475.20 0.867
475.30 0.8676
475.40 0.8681
475.50 0.8687
475.60 0.8692
475.70 0.8697
475.80 0.8703
475.90 0.8708
476.00 0.8714
476.10 0.8719
476.20 0.8725
476.30 0.873
476.40 0.8736
476.50 0.8741
476.60 0.8747
476.70 0.8752
476.80 0.8757
476.90 0.8763
477.00 0.8768
477.10 0.8774
477.20 0.8779
477.30 0.8785
477.40 0.879
477.50 0.8796
477.60 0.8801
477.70 0.8807
477.80 0.8812
477.90 0.8818
478.00 0.8823
478.10 0.8828
478.20 0.8834
478.30 0.8839
478.40 0.8845
478.50 0.885
478.60 0.8856
478.70 0.8861
478.80 0.8867
478.90 0.8872
479.00 0.8878
479.10 0.8883
479.20 0.8889
479.30 0.8894
479.40 0.89
479.50 0.8905
479.60 0.891
479.70 0.8916
479.80 0.8921
479.90 0.8927
480.00 0.8932
480.10 0.8937
480.20 0.8943
480.30 0.8948
480.40 0.8954
480.50 0.8959
480.60 0.8965
480.70 0.897
480.80 0.8976
480.90 0.8981
481.00 0.8986
481.10 0.8992
481.20 0.8997
481.30 0.9003
481.40 0.9008
481.50 0.9014
481.60 0.9019
481.70 0.9025
481.80 0.903
481.90 0.9035
482.00 0.9041
482.10 0.9046
482.20 0.9052
482.30 0.9057
482.40 0.9063
482.50 0.9068
482.60 0.9073
482.70 0.9079
482.80 0.9084
482.90 0.909
483.00 0.9095
483.10 0.91
483.20 0.9106
483.30 0.9111
483.40 0.9117
483.50 0.9122
483.60 0.9127
483.70 0.9133
483.80 0.9138
483.90 0.9144
484.00 0.9149
484.10 0.9154
484.20 0.916
484.30 0.9165
484.40 0.9171
484.50 0.9176
484.60 0.9181
484.70 0.9187
484.80 0.9192
484.90 0.9198
485.00 0.9203
485.10 0.9209
485.20 0.9214
485.30 0.9219
485.40 0.9225
485.50 0.923
485.60 0.9235
485.70 0.9241
485.80 0.9246
485.90 0.9252
486.00 0.9257
486.10 0.9263
486.20 0.9268
486.30 0.9273
486.40 0.9279
486.50 0.9284
486.60 0.9289
486.70 0.9295
486.80 0.93
486.90 0.9306
487.00 0.9311
487.10 0.9316
487.20 0.9321
487.30 0.9327
487.40 0.9332
487.50 0.9338
487.60 0.9343
487.70 0.9348
487.80 0.9354
487.90 0.9359
488.00 0.9364
488.10 0.937
488.20 0.9375
488.30 0.9381
488.40 0.9386
488.50 0.9391
488.60 0.9397
488.70 0.9402
488.80 0.9407
488.90 0.9413
489.00 0.9418
489.10 0.9423
489.20 0.9429
489.30 0.9434
489.40 0.9439
489.50 0.9445
489.60 0.945
489.70 0.9456
489.80 0.9461
489.90 0.9466
490.00 0.9472
490.10 0.9477
490.20 0.9482
490.30 0.9488
490.40 0.9493
490.50 0.9498
490.60 0.9504
490.70 0.9509
490.80 0.9514
490.90 0.952
491.00 0.9525
491.10 0.953
491.20 0.9536
491.30 0.9541
491.40 0.9546
491.50 0.9552
491.60 0.9557
491.70 0.9562
491.80 0.9568
491.90 0.9573
492.00 0.9578
492.10 0.9584
492.20 0.9589
492.30 0.9594
492.40 0.96
492.50 0.9605
492.60 0.961
492.70 0.9615
492.80 0.9621
492.90 0.9626
493.00 0.9631
493.10 0.9637
493.20 0.9642
493.30 0.9647
493.40 0.9653
493.50 0.9658
493.60 0.9663
493.70 0.9669
493.80 0.9674
493.90 0.9679
494.00 0.9685
494.10 0.969
494.20 0.9695
494.30 0.9701
494.40 0.9706
494.50 0.9711
494.60 0.9716
494.70 0.9722
494.80 0.9727
494.90 0.9732
495.00 0.9737
495.10 0.9743
495.20 0.9748
495.30 0.9753
495.40 0.9759
495.50 0.9764
495.60 0.9769
495.70 0.9774
495.80 0.978
495.90 0.9785
496.00 0.979
496.10 0.9795
496.20 0.9801
496.30 0.9806
496.40 0.9811
496.50 0.9817
496.60 0.9822
496.70 0.9827
496.80 0.9832
496.90 0.9838
497.00 0.9843
497.10 0.9848
497.20 0.9853
497.30 0.9859
497.40 0.9864
497.50 0.9869
497.60 0.9874
497.70 0.988
497.80 0.9885
497.90 0.989
498.00 0.9895
498.10 0.9901
498.20 0.9906
498.30 0.9911
498.40 0.9916
498.50 0.9922
498.60 0.9927
498.70 0.9932
498.80 0.9937
498.90 0.9943
499.00 0.9948
499.10 0.9953
499.20 0.9958
499.30 0.9963
499.40 0.9969
499.50 0.9974
499.60 0.9979
499.70 0.9984
499.80 0.999
499.90 0.9995
500.00 1
500.10 1.001
500.20 1.001
500.30 1.002
500.40 1.002
500.50 1.003
500.60 1.003
500.70 1.004
500.80 1.004
500.90 1.005
501.00 1.005
501.10 1.006
501.20 1.006
501.30 1.007
501.40 1.007
501.50 1.008
501.60 1.008
501.70 1.009
501.80 1.009
501.90 1.01
502.00 1.01
502.10 1.011
502.20 1.011
502.30 1.012
502.40 1.013
502.50 1.013
502.60 1.014
502.70 1.014
502.80 1.015
502.90 1.015
503.00 1.016
503.10 1.016
503.20 1.017
503.30 1.017
503.40 1.018
503.50 1.018
503.60 1.019
503.70 1.019
503.80 1.02
503.90 1.02
504.00 1.021
504.10 1.021
504.20 1.022
504.30 1.022
504.40 1.023
504.50 1.023
504.60 1.024
504.70 1.024
504.80 1.025
504.90 1.025
505.00 1.026
505.10 1.026
505.20 1.027
505.30 1.027
505.40 1.028
505.50 1.029
505.60 1.029
505.70 1.03
505.80 1.03
505.90 1.031
506.00 1.031
506.10 1.032
506.20 1.032
506.30 1.033
506.40 1.033
506.50 1.034
506.60 1.034
506.70 1.035
506.80 1.035
506.90 1.036
507.00 1.036
507.10 1.037
507.20 1.037
507.30 1.038
507.40 1.038
507.50 1.039
507.60 1.039
507.70 1.04
507.80 1.04
507.90 1.041
508.00 1.041
508.10 1.042
508.20 1.042
508.30 1.043
508.40 1.043
508.50 1.044
508.60 1.044
508.70 1.045
508.80 1.045
508.90 1.046
509.00 1.046
509.10 1.047
509.20 1.047
509.30 1.048
509.40 1.048
509.50 1.049
509.60 1.049
509.70 1.05
509.80 1.05
509.90 1.051
510.00 1.051
510.10 1.052
510.20 1.052
510.30 1.053
510.40 1.053
510.50 1.054
510.60 1.055
510.70 1.055
510.80 1.056
510.90 1.056
511.00 1.057
511.10 1.057
511.20 1.058
511.30 1.058
511.40 1.059
511.50 1.059
511.60 1.06
511.70 1.06
511.80 1.061
511.90 1.061
512.00 1.062
512.10 1.062
512.20 1.063
512.30 1.063
512.40 1.064
512.50 1.064
512.60 1.065
512.70 1.065
512.80 1.066
512.90 1.066
513.00 1.067
513.10 1.067
513.20 1.068
513.30 1.068
513.40 1.069
513.50 1.069
513.60 1.07
513.70 1.07
513.80 1.071
513.90 1.071
514.00 1.072
514.10 1.072
514.20 1.073
514.30 1.073
514.40 1.074
514.50 1.074
514.60 1.075
514.70 1.075
514.80 1.076
514.90 1.076
515.00 1.077
515.10 1.077
515.20 1.078
515.30 1.078
515.40 1.079
515.50 1.079
515.60 1.08
515.70 1.08
515.80 1.081
515.90 1.081
516.00 1.082
516.10 1.082
516.20 1.083
516.30 1.083
516.40 1.084
516.50 1.084
516.60 1.085
516.70 1.085
516.80 1.086
516.90 1.086
517.00 1.087
517.10 1.087
517.20 1.088
517.30 1.088
517.40 1.089
517.50 1.089
517.60 1.09
517.70 1.09
517.80 1.091
517.90 1.091
518.00 1.092
518.10 1.092
518.20 1.092
518.30 1.093
518.40 1.093
518.50 1.094
518.60 1.094
518.70 1.095
518.80 1.095
518.90 1.096
519.00 1.096
519.10 1.097
519.20 1.097
519.30 1.098
519.40 1.098
519.50 1.099
519.60 1.099
519.70 1.1
519.80 1.1
519.90 1.101
520.00 1.101
520.10 1.102
520.20 1.102
520.30 1.103
520.40 1.103
520.50 1.104
520.60 1.104
520.70 1.105
520.80 1.105
520.90 1.106
521.00 1.106
521.10 1.107
521.20 1.107
521.30 1.108
521.40 1.108
521.50 1.109
521.60 1.109
521.70 1.11
521.80 1.11
521.90 1.111
522.00 1.111
522.10 1.112
522.20 1.112
522.30 1.113
522.40 1.113
522.50 1.114
522.60 1.114
522.70 1.115
522.80 1.115
522.90 1.115
523.00 1.116
523.10 1.116
523.20 1.117
523.30 1.117
523.40 1.118
523.50 1.118
523.60 1.119
523.70 1.119
523.80 1.12
523.90 1.12
524.00 1.121
524.10 1.121
524.20 1.122
524.30 1.122
524.40 1.123
524.50 1.123
524.60 1.124
524.70 1.124
524.80 1.125
524.90 1.125
525.00 1.126
525.10 1.126
525.20 1.127
525.30 1.127
525.40 1.128
525.50 1.128
525.60 1.129
525.70 1.129
525.80 1.129
525.90 1.13
526.00 1.13
526.10 1.131
526.20 1.131
526.30 1.132
526.40 1.132
526.50 1.133
526.60 1.133
526.70 1.134
526.80 1.134
526.90 1.135
527.00 1.135
527.10 1.136
527.20 1.136
527.30 1.137
527.40 1.137
527.50 1.138
527.60 1.138
527.70 1.139
527.80 1.139
527.90 1.14
528.00 1.14
528.10 1.14
528.20 1.141
528.30 1.141
528.40 1.142
528.50 1.142
528.60 1.143
528.70 1.143
528.80 1.144
528.90 1.144
529.00 1.145
529.10 1.145
529.20 1.146
529.30 1.146
529.40 1.147
529.50 1.147
529.60 1.148
529.70 1.148
529.80 1.148
529.90 1.149
530.00 1.149
530.10 1.15
530.20 1.15
530.30 1.151
530.40 1.151
530.50 1.152
530.60 1.152
530.70 1.153
530.80 1.153
530.90 1.154
531.00 1.154
531.10 1.155
531.20 1.155
531.30 1.156
531.40 1.156
531.50 1.156
531.60 1.157
531.70 1.157
531.80 1.158
531.90 1.158
532.00 1.159
532.10 1.159
532.20 1.16
532.30 1.16
532.40 1.161
532.50 1.161
532.60 1.162
532.70 1.162
532.80 1.162
532.90 1.163
533.00 1.163
533.10 1.164
533.20 1.164
533.30 1.165
533.40 1.165
533.50 1.166
533.60 1.166
533.70 1.167
533.80 1.167
533.90 1.168
534.00 1.168
534.10 1.169
534.20 1.169
534.30 1.169
534.40 1.17
534.50 1.17
534.60 1.171
534.70 1.171
534.80 1.172
534.90 1.172
535.00 1.173
535.10 1.173
535.20 1.174
535.30 1.174
535.40 1.175
535.50 1.175
535.60 1.175
535.70 1.176
535.80 1.176
535.90 1.177
536.00 1.177
536.10 1.178
536.20 1.178
536.30 1.179
536.40 1.179
536.50 1.18
536.60 1.18
536.70 1.18
536.80 1.181
536.90 1.181
537.00 1.182
537.10 1.182
537.20 1.183
537.30 1.183
537.40 1.184
537.50 1.184
537.60 1.185
537.70 1.185
537.80 1.185
537.90 1.186
538.00 1.186
538.10 1.187
538.20 1.187
538.30 1.188
538.40 1.188
538.50 1.189
538.60 1.189
538.70 1.189
538.80 1.19
538.90 1.19
539.00 1.191
539.10 1.191
539.20 1.192
539.30 1.192
539.40 1.193
539.50 1.193
539.60 1.194
539.70 1.194
539.80 1.194
539.90 1.195
540.00 1.195
540.10 1.196
540.20 1.196
540.30 1.197
540.40 1.197
540.50 1.198
540.60 1.198
540.70 1.198
540.80 1.199
540.90 1.199
541.00 1.2
541.10 1.2
541.20 1.201
541.30 1.201
541.40 1.202
541.50 1.202
541.60 1.202
541.70 1.203
541.80 1.203
541.90 1.204
542.00 1.204
542.10 1.205
542.20 1.205
542.30 1.206
542.40 1.206
542.50 1.206
542.60 1.207
542.70 1.207
542.80 1.208
542.90 1.208
543.00 1.209
543.10 1.209
543.20 1.21
543.30 1.21
543.40 1.21
543.50 1.211
543.60 1.211
543.70 1.212
543.80 1.212
543.90 1.213
544.00 1.213
544.10 1.213
544.20 1.214
544.30 1.214
544.40 1.215
544.50 1.215
544.60 1.216
544.70 1.216
544.80 1.217
544.90 1.217
545.00 1.217
545.10 1.218
545.20 1.218
545.30 1.219
545.40 1.219
545.50 1.22
545.60 1.22
545.70 1.22
545.80 1.221
545.90 1.221
546.00 1.222
546.10 1.222
546.20 1.223
546.30 1.223
546.40 1.223
546.50 1.224
546.60 1.224
546.70 1.225
546.80 1.225
546.90 1.226
547.00 1.226
547.10 1.226
547.20 1.227
547.30 1.227
547.40 1.228
547.50 1.228
547.60 1.229
547.70 1.229
547.80 1.229
547.90 1.23
548.00 1.23
548.10 1.231
548.20 1.231
548.30 1.232
548.40 1.232
548.50 1.232
548.60 1.233
548.70 1.233
548.80 1.234
548.90 1.234
549.00 1.235
549.10 1.235
549.20 1.235
549.30 1.236
549.40 1.236
549.50 1.237
549.60 1.237
549.70 1.238
549.80 1.238
549.90 1.238
550.00 1.239
550.10 1.239
550.20 1.24
550.30 1.24
550.40 1.24
550.50 1.241
550.60 1.241
550.70 1.242
550.80 1.242
550.90 1.243
551.00 1.243
551.10 1.243
551.20 1.244
551.30 1.244
551.40 1.245
551.50 1.245
551.60 1.245
551.70 1.246
551.80 1.246
551.90 1.247
552.00 1.247
552.10 1.248
552.20 1.248
552.30 1.248
552.40 1.249
552.50 1.249
552.60 1.25
552.70 1.25
552.80 1.25
552.90 1.251
553.00 1.251
553.10 1.252
553.20 1.252
553.30 1.252
553.40 1.253
553.50 1.253
553.60 1.254
553.70 1.254
553.80 1.255
553.90 1.255
554.00 1.255
554.10 1.256
554.20 1.256
554.30 1.257
554.40 1.257
554.50 1.257
554.60 1.258
554.70 1.258
554.80 1.259
554.90 1.259
555.00 1.259
555.10 1.26
555.20 1.26
555.30 1.261
555.40 1.261
555.50 1.261
555.60 1.262
555.70 1.262
555.80 1.263
555.90 1.263
556.00 1.263
556.10 1.264
556.20 1.264
556.30 1.265
556.40 1.265
556.50 1.265
556.60 1.266
556.70 1.266
556.80 1.267
556.90 1.267
557.00 1.267
557.10 1.268
557.20 1.268
557.30 1.269
557.40 1.269
557.50 1.269
557.60 1.27
557.70 1.27
557.80 1.271
557.90 1.271
558.00 1.271
558.10 1.272
558.20 1.272
558.30 1.273
558.40 1.273
558.50 1.273
558.60 1.274
558.70 1.274
558.80 1.275
558.90 1.275
559.00 1.275
559.10 1.276
559.20 1.276
559.30 1.277
559.40 1.277
559.50 1.277
559.60 1.278
559.70 1.278
559.80 1.279
559.90 1.279
560.00 1.279
560.10 1.28
560.20 1.28
560.30 1.28
560.40 1.281
560.50 1.281
560.60 1.282
560.70 1.282
560.80 1.282
560.90 1.283
561.00 1.283
561.10 1.284
561.20 1.284
561.30 1.284
561.40 1.285
561.50 1.285
561.60 1.285
561.70 1.286
561.80 1.286
561.90 1.287
562.00 1.287
562.10 1.287
562.20 1.288
562.30 1.288
562.40 1.289
562.50 1.289
562.60 1.289
562.70 1.29
562.80 1.29
562.90 1.29
563.00 1.291
563.10 1.291
563.20 1.292
563.30 1.292
563.40 1.292
563.50 1.293
563.60 1.293
563.70 1.293
563.80 1.294
563.90 1.294
564.00 1.295
564.10 1.295
564.20 1.295
564.30 1.296
564.40 1.296
564.50 1.296
564.60 1.297
564.70 1.297
564.80 1.298
564.90 1.298
565.00 1.298
565.10 1.299
565.20 1.299
565.30 1.299
565.40 1.3
565.50 1.3
565.60 1.301
565.70 1.301
565.80 1.301
565.90 1.302
566.00 1.302
566.10 1.302
566.20 1.303
566.30 1.303
566.40 1.304
566.50 1.304
566.60 1.304
566.70 1.305
566.80 1.305
566.90 1.305
567.00 1.306
567.10 1.306
567.20 1.306
567.30 1.307
567.40 1.307
567.50 1.308
567.60 1.308
567.70 1.308
567.80 1.309
567.90 1.309
568.00 1.309
568.10 1.31
568.20 1.31
568.30 1.31
568.40 1.311
568.50 1.311
568.60 1.312
568.70 1.312
568.80 1.312
568.90 1.313
569.00 1.313
569.10 1.313
569.20 1.314
569.30 1.314
569.40 1.314
569.50 1.315
569.60 1.315
569.70 1.315
569.80 1.316
569.90 1.316
570.00 1.316
570.10 1.317
570.20 1.317
570.30 1.318
570.40 1.318
570.50 1.318
570.60 1.319
570.70 1.319
570.80 1.319
570.90 1.32
571.00 1.32
571.10 1.32
571.20 1.321
571.30 1.321
571.40 1.321
571.50 1.322
571.60 1.322
571.70 1.322
571.80 1.323
571.90 1.323
572.00 1.323
572.10 1.324
572.20 1.324
572.30 1.324
572.40 1.325
572.50 1.325
572.60 1.325
572.70 1.326
572.80 1.326
572.90 1.327
573.00 1.327
573.10 1.327
573.20 1.328
573.30 1.328
573.40 1.328
573.50 1.329
573.60 1.329
573.70 1.329
573.80 1.33
573.90 1.33
574.00 1.33
574.10 1.331
574.20 1.331
574.30 1.331
574.40 1.332
574.50 1.332
574.60 1.332
574.70 1.333
574.80 1.333
574.90 1.333
575.00 1.334
575.10 1.334
575.20 1.334
575.30 1.335
575.40 1.335
575.50 1.335
575.60 1.336
575.70 1.336
575.80 1.336
575.90 1.337
576.00 1.337
576.10 1.337
576.20 1.338
576.30 1.338
576.40 1.338
576.50 1.339
576.60 1.339
576.70 1.339
576.80 1.34
576.90 1.34
577.00 1.34
577.10 1.34
577.20 1.341
577.30 1.341
577.40 1.341
577.50 1.342
577.60 1.342
577.70 1.342
577.80 1.343
577.90 1.343
578.00 1.343
578.10 1.344
578.20 1.344
578.30 1.344
578.40 1.345
578.50 1.345
578.60 1.345
578.70 1.346
578.80 1.346
578.90 1.346
579.00 1.347
579.10 1.347
579.20 1.347
579.30 1.347
579.40 1.348
579.50 1.348
579.60 1.348
579.70 1.349
579.80 1.349
579.90 1.349
580.00 1.35
580.10 1.35
580.20 1.35
580.30 1.351
580.40 1.351
580.50 1.351
580.60 1.352
580.70 1.352
580.80 1.352
580.90 1.352
581.00 1.353
581.10 1.353
581.20 1.353
581.30 1.354
581.40 1.354
581.50 1.354
581.60 1.355
581.70 1.355
581.80 1.355
581.90 1.355
582.00 1.356
582.10 1.356
582.20 1.356
582.30 1.357
582.40 1.357
582.50 1.357
582.60 1.358
582.70 1.358
582.80 1.358
582.90 1.358
583.00 1.359
583.10 1.359
583.20 1.359
583.30 1.36
583.40 1.36
583.50 1.36
583.60 1.36
583.70 1.361
583.80 1.361
583.90 1.361
584.00 1.362
584.10 1.362
584.20 1.362
584.30 1.363
584.40 1.363
584.50 1.363
584.60 1.363
584.70 1.364
584.80 1.364
584.90 1.364
585.00 1.365
585.10 1.365
585.20 1.365
585.30 1.365
585.40 1.366
585.50 1.366
585.60 1.366
585.70 1.366
585.80 1.367
585.90 1.367
586.00 1.367
586.10 1.368
586.20 1.368
586.30 1.368
586.40 1.368
586.50 1.369
586.60 1.369
586.70 1.369
586.80 1.37
586.90 1.37
587.00 1.37
587.10 1.37
587.20 1.371
587.30 1.371
587.40 1.371
587.50 1.371
587.60 1.372
587.70 1.372
587.80 1.372
587.90 1.373
588.00 1.373
588.10 1.373
588.20 1.373
588.30 1.374
588.40 1.374
588.50 1.374
588.60 1.374
588.70 1.375
588.80 1.375
588.90 1.375
589.00 1.375
589.10 1.376
589.20 1.376
589.30 1.376
589.40 1.376
589.50 1.377
589.60 1.377
589.70 1.377
589.80 1.377
589.90 1.378
590.00 1.378
590.10 1.378
590.20 1.378
590.30 1.379
590.40 1.379
590.50 1.379
590.60 1.38
590.70 1.38
590.80 1.38
590.90 1.38
591.00 1.381
591.10 1.381
591.20 1.381
591.30 1.381
591.40 1.382
591.50 1.382
591.60 1.382
591.70 1.382
591.80 1.383
591.90 1.383
592.00 1.383
592.10 1.383
592.20 1.383
592.30 1.384
592.40 1.384
592.50 1.384
592.60 1.384
592.70 1.385
592.80 1.385
592.90 1.385
593.00 1.385
593.10 1.386
593.20 1.386
593.30 1.386
593.40 1.386
593.50 1.387
593.60 1.387
593.70 1.387
593.80 1.387
593.90 1.388
594.00 1.388
594.10 1.388
594.20 1.388
594.30 1.388
594.40 1.389
594.50 1.389
594.60 1.389
594.70 1.389
594.80 1.39
594.90 1.39
595.00 1.39
595.10 1.39
595.20 1.391
595.30 1.391
595.40 1.391
595.50 1.391
595.60 1.391
595.70 1.392
595.80 1.392
595.90 1.392
596.00 1.392
596.10 1.393
596.20 1.393
596.30 1.393
596.40 1.393
596.50 1.393
596.60 1.394
596.70 1.394
596.80 1.394
596.90 1.394
597.00 1.394
597.10 1.395
597.20 1.395
597.30 1.395
597.40 1.395
597.50 1.396
597.60 1.396
597.70 1.396
597.80 1.396
597.90 1.396
598.00 1.397
598.10 1.397
598.20 1.397
598.30 1.397
598.40 1.397
598.50 1.398
598.60 1.398
598.70 1.398
598.80 1.398
598.90 1.398
599.00 1.399
599.10 1.399
599.20 1.399
599.30 1.399
599.40 1.399
599.50 1.4
599.60 1.4
599.70 1.4
599.80 1.4
599.90 1.4
600.00 1.401
600.10 1.401
600.20 1.401
600.30 1.401
600.40 1.401
600.50 1.402
600.60 1.402
600.70 1.402
600.80 1.402
600.90 1.402
601.00 1.403
601.10 1.403
601.20 1.403
601.30 1.403
601.40 1.403
601.50 1.404
601.60 1.404
601.70 1.404
601.80 1.404
601.90 1.404
602.00 1.404
602.10 1.405
602.20 1.405
602.30 1.405
602.40 1.405
602.50 1.405
602.60 1.406
602.70 1.406
602.80 1.406
602.90 1.406
603.00 1.406
603.10 1.406
603.20 1.407
603.30 1.407
603.40 1.407
603.50 1.407
603.60 1.407
603.70 1.407
603.80 1.408
603.90 1.408
604.00 1.408
604.10 1.408
604.20 1.408
604.30 1.408
604.40 1.409
604.50 1.409
604.60 1.409
604.70 1.409
604.80 1.409
604.90 1.409
605.00 1.41
605.10 1.41
605.20 1.41
605.30 1.41
605.40 1.41
605.50 1.41
605.60 1.411
605.70 1.411
605.80 1.411
605.90 1.411
606.00 1.411
606.10 1.411
606.20 1.411
606.30 1.412
606.40 1.412
606.50 1.412
606.60 1.412
606.70 1.412
606.80 1.412
606.90 1.412
607.00 1.413
607.10 1.413
607.20 1.413
607.30 1.413
607.40 1.413
607.50 1.413
607.60 1.413
607.70 1.414
607.80 1.414
607.90 1.414
608.00 1.414
608.10 1.414
608.20 1.414
608.30 1.414
608.40 1.415
608.50 1.415
608.60 1.415
608.70 1.415
608.80 1.415
608.90 1.415
609.00 1.415
609.10 1.416
609.20 1.416
609.30 1.416
609.40 1.416
609.50 1.416
609.60 1.416
609.70 1.416
609.80 1.416
609.90 1.416
610.00 1.417
610.10 1.417
610.20 1.417
610.30 1.417
610.40 1.417
610.50 1.417
610.60 1.417
610.70 1.417
610.80 1.418
610.90 1.418
611.00 1.418
611.10 1.418
611.20 1.418
611.30 1.418
611.40 1.418
611.50 1.418
611.60 1.418
611.70 1.419
611.80 1.419
611.90 1.419
612.00 1.419
612.10 1.419
612.20 1.419
612.30 1.419
612.40 1.419
612.50 1.419
612.60 1.419
612.70 1.42
612.80 1.42
612.90 1.42
613.00 1.42
613.10 1.42
613.20 1.42
613.30 1.42
613.40 1.42
613.50 1.42
613.60 1.42
613.70 1.421
613.80 1.421
613.90 1.421
614.00 1.421
614.10 1.421
614.20 1.421
614.30 1.421
614.40 1.421
614.50 1.421
614.60 1.421
614.70 1.421
614.80 1.421
614.90 1.421
615.00 1.422
615.10 1.422
615.20 1.422
615.30 1.422
615.40 1.422
615.50 1.422
615.60 1.422
615.70 1.422
615.80 1.422
615.90 1.422
616.00 1.422
616.10 1.422
616.20 1.422
616.30 1.422
616.40 1.423
616.50 1.423
616.60 1.423
616.70 1.423
616.80 1.423
616.90 1.423
617.00 1.423
617.10 1.423
617.20 1.423
617.30 1.423
617.40 1.423
617.50 1.423
617.60 1.423
617.70 1.423
617.80 1.423
617.90 1.423
618.00 1.423
618.10 1.423
618.20 1.423
618.30 1.424
618.40 1.424
618.50 1.424
618.60 1.424
618.70 1.424
618.80 1.424
618.90 1.424
619.00 1.424
619.10 1.424
619.20 1.424
619.30 1.424
619.40 1.424
619.50 1.424
619.60 1.424
619.70 1.424
619.80 1.424
619.90 1.424
620.00 1.424
620.10 1.424
620.20 1.424
620.30 1.424
620.40 1.424
620.50 1.424
620.60 1.424
620.70 1.424
620.80 1.424
620.90 1.424
621.00 1.424
621.10 1.424
621.20 1.424
621.30 1.424
621.40 1.424
621.50 1.424
621.60 1.424
621.70 1.424
621.80 1.424
621.90 1.424
622.00 1.424
622.10 1.424
622.20 1.424
622.30 1.424
622.40 1.425
622.50 1.425
622.60 1.425
622.70 1.425
622.80 1.425
622.90 1.425
623.00 1.425
623.10 1.425
623.20 1.425
623.30 1.425
623.40 1.425
623.50 1.425
623.60 1.424
623.70 1.424
623.80 1.424
623.90 1.424
624.00 1.424
624.10 1.424
624.20 1.424
624.30 1.424
624.40 1.424
624.50 1.424
624.60 1.424
624.70 1.424
624.80 1.424
624.90 1.424
625.00 1.424
625.10 1.424
625.20 1.424
625.30 1.424
625.40 1.424
625.50 1.424
625.60 1.424
625.70 1.424
625.80 1.424
625.90 1.424
626.00 1.424
626.10 1.424
626.20 1.424
626.30 1.424
626.40 1.424
626.50 1.424
626.60 1.424
626.70 1.424
626.80 1.424
626.90 1.424
627.00 1.424
627.10 1.424
627.20 1.423
627.30 1.423
627.40 1.423
627.50 1.423
627.60 1.423
627.70 1.423
627.80 1.423
627.90 1.423
628.00 1.423
628.10 1.423
628.20 1.423
628.30 1.423
628.40 1.423
628.50 1.423
628.60 1.423
628.70 1.423
628.80 1.423
628.90 1.423
629.00 1.422
629.10 1.422
629.20 1.422
629.30 1.422
629.40 1.422
629.50 1.422
629.60 1.422
629.70 1.422
629.80 1.422
629.90 1.422
630.00 1.422
630.10 1.422
630.20 1.422
630.30 1.421
630.40 1.421
630.50 1.421
630.60 1.421
630.70 1.421
630.80 1.421
630.90 1.421
631.00 1.421
631.10 1.421
631.20 1.421
631.30 1.421
631.40 1.42
631.50 1.42
631.60 1.42
631.70 1.42
631.80 1.42
631.90 1.42
632.00 1.42
632.10 1.42
632.20 1.42
632.30 1.42
632.40 1.419
632.50 1.419
632.60 1.419
632.70 1.419
632.80 1.419
632.90 1.419
633.00 1.419
633.10 1.419
633.20 1.418
633.30 1.418
633.40 1.418
633.50 1.418
633.60 1.418
633.70 1.418
633.80 1.418
633.90 1.418
634.00 1.417
634.10 1.417
634.20 1.417
634.30 1.417
634.40 1.417
634.50 1.417
634.60 1.417
634.70 1.417
634.80 1.416
634.90 1.416
635.00 1.416
635.10 1.416
635.20 1.416
635.30 1.416
635.40 1.415
635.50 1.415
635.60 1.415
635.70 1.415
635.80 1.415
635.90 1.415
636.00 1.415
636.10 1.414
636.20 1.414
636.30 1.414
636.40 1.414
636.50 1.414
636.60 1.414
636.70 1.413
636.80 1.413
636.90 1.413
637.00 1.413
637.10 1.413
637.20 1.413
637.30 1.412
637.40 1.412
637.50 1.412
637.60 1.412
637.70 1.412
637.80 1.412
637.90 1.411
638.00 1.411
638.10 1.411
638.20 1.411
638.30 1.411
638.40 1.41
638.50 1.41
638.60 1.41
638.70 1.41
638.80 1.41
638.90 1.409
639.00 1.409
639.10 1.409
639.20 1.409
639.30 1.409
639.40 1.408
639.50 1.408
639.60 1.408
639.70 1.408
639.80 1.408
639.90 1.407
640.00 1.407
640.10 1.407
640.20 1.407
640.30 1.407
640.40 1.406
640.50 1.406
640.60 1.406
640.70 1.406
640.80 1.405
640.90 1.405
641.00 1.405
641.10 1.405
641.20 1.405
641.30 1.404
641.40 1.404
641.50 1.404
641.60 1.404
641.70 1.403
641.80 1.403
641.90 1.403
642.00 1.403
642.10 1.402
642.20 1.402
642.30 1.402
642.40 1.402
642.50 1.401
642.60 1.401
642.70 1.401
642.80 1.401
642.90 1.4
643.00 1.4
643.10 1.4
643.20 1.399
643.30 1.399
643.40 1.399
643.50 1.399
643.60 1.398
643.70 1.398
643.80 1.398
643.90 1.398
644.00 1.397
644.10 1.397
644.20 1.397
644.30 1.396
644.40 1.396
644.50 1.396
644.60 1.396
644.70 1.395
644.80 1.395
644.90 1.395
645.00 1.394
645.10 1.394
645.20 1.394
645.30 1.394
645.40 1.393
645.50 1.393
645.60 1.393
645.70 1.392
645.80 1.392
645.90 1.392
646.00 1.391
646.10 1.391
646.20 1.391
646.30 1.39
646.40 1.39
646.50 1.39
646.60 1.39
646.70 1.389
646.80 1.389
646.90 1.389
647.00 1.388
647.10 1.388
647.20 1.388
647.30 1.387
647.40 1.387
647.50 1.387
647.60 1.386
647.70 1.386
647.80 1.386
647.90 1.385
648.00 1.385
648.10 1.385
648.20 1.384
648.30 1.384
648.40 1.384
648.50 1.383
648.60 1.383
648.70 1.383
648.80 1.382
648.90 1.382
649.00 1.381
649.10 1.381
649.20 1.381
649.30 1.38
649.40 1.38
649.50 1.38
649.60 1.379
649.70 1.379
649.80 1.379
649.90 1.378
650.00 1.378
650.10 1.377
650.20 1.377
650.30 1.377
650.40 1.376
650.50 1.376
650.60 1.375
650.70 1.375
650.80 1.375
650.90 1.374
651.00 1.374
651.10 1.374
651.20 1.373
651.30 1.373
651.40 1.372
651.50 1.372
651.60 1.372
651.70 1.371
651.80 1.371
651.90 1.37
652.00 1.37
652.10 1.37
652.20 1.369
652.30 1.369
652.40 1.368
652.50 1.368
652.60 1.367
652.70 1.367
652.80 1.367
652.90 1.366
653.00 1.366
653.10 1.365
653.20 1.365
653.30 1.364
653.40 1.364
653.50 1.364
653.60 1.363
653.70 1.363
653.80 1.362
653.90 1.362
654.00 1.361
654.10 1.361
654.20 1.36
654.30 1.36
654.40 1.36
654.50 1.359
654.60 1.359
654.70 1.358
654.80 1.358
654.90 1.357
655.00 1.357
655.10 1.356
655.20 1.356
655.30 1.355
655.40 1.355
655.50 1.354
655.60 1.354
655.70 1.353
655.80 1.353
655.90 1.353
656.00 1.352
656.10 1.352
656.20 1.351
656.30 1.351
656.40 1.35
656.50 1.35
656.60 1.349
656.70 1.349
656.80 1.348
656.90 1.348
657.00 1.347
657.10 1.347
657.20 1.346
657.30 1.346
657.40 1.345
657.50 1.345
657.60 1.344
657.70 1.344
657.80 1.343
657.90 1.343
658.00 1.342
658.10 1.342
658.20 1.341
658.30 1.34
658.40 1.34
658.50 1.339
658.60 1.339
658.70 1.338
658.80 1.338
658.90 1.337
659.00 1.337
659.10 1.336
659.20 1.336
659.30 1.335
659.40 1.335
659.50 1.334
659.60 1.333
659.70 1.333
659.80 1.332
659.90 1.332
660.00 1.331
660.10 1.331
660.20 1.33
660.30 1.33
660.40 1.329
660.50 1.328
660.60 1.328
660.70 1.327
660.80 1.327
660.90 1.326
661.00 1.326
661.10 1.325
661.20 1.324
661.30 1.324
661.40 1.323
661.50 1.323
661.60 1.322
661.70 1.322
661.80 1.321
661.90 1.32
662.00 1.32
662.10 1.319
662.20 1.319
662.30 1.318
662.40 1.317
662.50 1.317
662.60 1.316
662.70 1.316
662.80 1.315
662.90 1.314
663.00 1.314
663.10 1.313
663.20 1.312
663.30 1.312
663.40 1.311
663.50 1.311
663.60 1.31
663.70 1.309
663.80 1.309
663.90 1.308
664.00 1.307
664.10 1.307
664.20 1.306
664.30 1.306
664.40 1.305
664.50 1.304
664.60 1.304
664.70 1.303
664.80 1.302
664.90 1.302
665.00 1.301
665.10 1.3
665.20 1.3
665.30 1.299
665.40 1.298
665.50 1.298
665.60 1.297
665.70 1.296
665.80 1.296
665.90 1.295
666.00 1.294
666.10 1.294
666.20 1.293
666.30 1.292
666.40 1.292
666.50 1.291
666.60 1.29
666.70 1.29
666.80 1.289
666.90 1.288
667.00 1.287
667.10 1.287
667.20 1.286
667.30 1.285
667.40 1.285
667.50 1.284
667.60 1.283
667.70 1.283
667.80 1.282
667.90 1.281
668.00 1.28
668.10 1.28
668.20 1.279
668.30 1.278
668.40 1.277
668.50 1.277
668.60 1.276
668.70 1.275
668.80 1.275
668.90 1.274
669.00 1.273
669.10 1.272
669.20 1.272
669.30 1.271
669.40 1.27
669.50 1.269
669.60 1.269
669.70 1.268
669.80 1.267
669.90 1.266
670.00 1.266
670.10 1.265
670.20 1.264
670.30 1.263
670.40 1.263
670.50 1.262
670.60 1.261
670.70 1.26
670.80 1.259
670.90 1.259
671.00 1.258
671.10 1.257
671.20 1.256
671.30 1.256
671.40 1.255
671.50 1.254
671.60 1.253
671.70 1.252
671.80 1.252
671.90 1.251
672.00 1.25
672.10 1.249
672.20 1.248
672.30 1.248
672.40 1.247
672.50 1.246
672.60 1.245
672.70 1.244
672.80 1.243
672.90 1.243
673.00 1.242
673.10 1.241
673.20 1.24
673.30 1.239
673.40 1.239
673.50 1.238
673.60 1.237
673.70 1.236
673.80 1.235
673.90 1.234
674.00 1.233
674.10 1.233
674.20 1.232
674.30 1.231
674.40 1.23
674.50 1.229
674.60 1.228
674.70 1.228
674.80 1.227
674.90 1.226
675.00 1.225
675.10 1.224
675.20 1.223
675.30 1.222
675.40 1.222
675.50 1.221
675.60 1.22
675.70 1.219
675.80 1.218
675.90 1.217
676.00 1.216
676.10 1.215
676.20 1.214
676.30 1.214
676.40 1.213
676.50 1.212
676.60 1.211
676.70 1.21
676.80 1.209
676.90 1.208
677.00 1.207
677.10 1.206
677.20 1.205
677.30 1.205
677.40 1.204
677.50 1.203
677.60 1.202
677.70 1.201
677.80 1.2
677.90 1.199
678.00 1.198
678.10 1.197
678.20 1.196
678.30 1.195
678.40 1.194
678.50 1.193
678.60 1.193
678.70 1.192
678.80 1.191
678.90 1.19
679.00 1.189
679.10 1.188
679.20 1.187
679.30 1.186
679.40 1.185
679.50 1.184
679.60 1.183
679.70 1.182
679.80 1.181
679.90 1.18
680.00 1.179
680.10 1.178
680.20 1.177
680.30 1.176
680.40 1.175
680.50 1.174
680.60 1.173
680.70 1.172
680.80 1.171
680.90 1.17
681.00 1.169
681.10 1.168
681.20 1.167
681.30 1.166
681.40 1.165
681.50 1.164
681.60 1.163
681.70 1.162
681.80 1.161
681.90 1.16
682.00 1.159
682.10 1.158
682.20 1.157
682.30 1.156
682.40 1.155
682.50 1.154
682.60 1.153
682.70 1.152
682.80 1.151
682.90 1.15
683.00 1.149
683.10 1.148
683.20 1.147
683.30 1.146
683.40 1.145
683.50 1.144
683.60 1.143
683.70 1.142
683.80 1.141
683.90 1.14
684.00 1.139
684.10 1.138
684.20 1.137
684.30 1.136
684.40 1.135
684.50 1.134
684.60 1.133
684.70 1.132
684.80 1.13
684.90 1.129
685.00 1.128
685.10 1.127
685.20 1.126
685.30 1.125
685.40 1.124
685.50 1.123
685.60 1.122
685.70 1.121
685.80 1.12
685.90 1.119
686.00 1.118
686.10 1.116
686.20 1.115
686.30 1.114
686.40 1.113
686.50 1.112
686.60 1.111
686.70 1.11
686.80 1.109
686.90 1.108
687.00 1.107
687.10 1.106
687.20 1.104
687.30 1.103
687.40 1.102
687.50 1.101
687.60 1.1
687.70 1.099
687.80 1.098
687.90 1.097
688.00 1.096
688.10 1.094
688.20 1.093
688.30 1.092
688.40 1.091
688.50 1.09
688.60 1.089
688.70 1.088
688.80 1.087
688.90 1.085
689.00 1.084
689.10 1.083
689.20 1.082
689.30 1.081
689.40 1.08
689.50 1.078
689.60 1.077
689.70 1.076
689.80 1.075
689.90 1.074
690.00 1.072
690.10 1.071
690.20 1.07
690.30 1.069
690.40 1.068
690.50 1.066
690.60 1.065
690.70 1.064
690.80 1.063
690.90 1.062
691.00 1.06
691.10 1.059
691.20 1.058
691.30 1.057
691.40 1.056
691.50 1.054
691.60 1.053
691.70 1.052
691.80 1.051
691.90 1.05
692.00 1.049
692.10 1.047
692.20 1.046
692.30 1.045
692.40 1.044
692.50 1.043
692.60 1.041
692.70 1.04
692.80 1.039
692.90 1.038
693.00 1.037
693.10 1.036
693.20 1.034
693.30 1.033
693.40 1.032
693.50 1.031
693.60 1.03
693.70 1.028
693.80 1.027
693.90 1.026
694.00 1.025
694.10 1.024
694.20 1.023
694.30 1.021
694.40 1.02
694.50 1.019
694.60 1.018
694.70 1.017
694.80 1.016
694.90 1.014
695.00 1.013
695.10 1.012
695.20 1.011
695.30 1.009
695.40 1.008
695.50 1.007
695.60 1.006
695.70 1.004
695.80 1.003
695.90 1.002
696.00 1.001
696.10 0.9995
696.20 0.9983
696.30 0.997
696.40 0.9958
696.50 0.9946
696.60 0.9933
696.70 0.9921
696.80 0.9908
696.90 0.9896
697.00 0.9884
697.10 0.9871
697.20 0.9859
697.30 0.9847
697.40 0.9834
697.50 0.9822
697.60 0.981
697.70 0.9797
697.80 0.9785
697.90 0.9773
698.00 0.976
698.10 0.9748
698.20 0.9736
698.30 0.9723
698.40 0.9711
698.50 0.9699
698.60 0.9687
698.70 0.9674
698.80 0.9662
698.90 0.965
699.00 0.9638
699.10 0.9625
699.20 0.9613
699.30 0.9601
699.40 0.9589
699.50 0.9577
699.60 0.9564
699.70 0.9552
699.80 0.954
699.90 0.9528
700.00 0.9516
700.10 0.9503
700.20 0.949
700.30 0.9478
700.40 0.9465
700.50 0.9452
700.60 0.9439
700.70 0.9427
700.80 0.9414
700.90 0.9401
701.00 0.9389
701.10 0.9376
701.20 0.9363
701.30 0.9351
701.40 0.9338
701.50 0.9325
701.60 0.9313
701.70 0.93
701.80 0.9288
701.90 0.9275
702.00 0.9262
702.10 0.925
702.20 0.9237
702.30 0.9225
702.40 0.9212
702.50 0.9199
702.60 0.9187
702.70 0.9174
702.80 0.9162
702.90 0.9149
703.00 0.9137
703.10 0.9124
703.20 0.9112
703.30 0.9099
703.40 0.9087
703.50 0.9074
703.60 0.9062
703.70 0.9049
703.80 0.9037
703.90 0.9024
704.00 0.9012
704.10 0.8999
704.20 0.8987
704.30 0.8974
704.40 0.8962
704.50 0.8949
704.60 0.8937
704.70 0.8925
704.80 0.8912
704.90 0.89
705.00 0.8887
705.10 0.8875
705.20 0.8862
705.30 0.885
705.40 0.8837
705.50 0.8825
705.60 0.8812
705.70 0.88
705.80 0.8787
705.90 0.8775
706.00 0.8762
706.10 0.875
706.20 0.8738
706.30 0.8725
706.40 0.8713
706.50 0.87
706.60 0.8688
706.70 0.8675
706.80 0.8663
706.90 0.8651
707.00 0.8638
707.10 0.8626
707.20 0.8614
707.30 0.8601
707.40 0.8589
707.50 0.8576
707.60 0.8564
707.70 0.8552
707.80 0.8539
707.90 0.8527
708.00 0.8515
708.10 0.8502
708.20 0.849
708.30 0.8478
708.40 0.8465
708.50 0.8453
708.60 0.8441
708.70 0.8429
708.80 0.8416
708.90 0.8404
709.00 0.8392
709.10 0.838
709.20 0.8367
709.30 0.8355
709.40 0.8343
709.50 0.8331
709.60 0.8318
709.70 0.8306
709.80 0.8294
709.90 0.8282
710.00 0.827
710.10 0.8258
710.20 0.8246
710.30 0.8234
710.40 0.8222
710.50 0.821
710.60 0.8198
710.70 0.8186
710.80 0.8174
710.90 0.8162
711.00 0.815
711.10 0.8138
711.20 0.8126
711.30 0.8114
711.40 0.8102
711.50 0.809
711.60 0.8078
711.70 0.8066
711.80 0.8054
711.90 0.8042
712.00 0.803
712.10 0.8018
712.20 0.8006
712.30 0.7995
712.40 0.7983
712.50 0.7971
712.60 0.7959
712.70 0.7947
712.80 0.7935
712.90 0.7923
713.00 0.7911
713.10 0.79
713.20 0.7888
713.30 0.7876
713.40 0.7864
713.50 0.7852
713.60 0.7841
713.70 0.7829
713.80 0.7817
713.90 0.7805
714.00 0.7793
714.10 0.7782
714.20 0.777
714.30 0.7758
714.40 0.7746
714.50 0.7735
714.60 0.7723
714.70 0.7711
714.80 0.7699
714.90 0.7688
715.00 0.7676
715.10 0.7665
715.20 0.7653
715.30 0.7642
715.40 0.7631
715.50 0.7619
715.60 0.7608
715.70 0.7597
715.80 0.7586
715.90 0.7574
716.00 0.7563
716.10 0.7552
716.20 0.7541
716.30 0.7529
716.40 0.7518
716.50 0.7507
716.60 0.7496
716.70 0.7485
716.80 0.7473
716.90 0.7462
717.00 0.7451
717.10 0.744
717.20 0.7429
717.30 0.7417
717.40 0.7406
717.50 0.7395
717.60 0.7384
717.70 0.7373
717.80 0.7362
717.90 0.7351
718.00 0.7339
718.10 0.7328
718.20 0.7317
718.30 0.7306
718.40 0.7295
718.50 0.7284
718.60 0.7273
718.70 0.7262
718.80 0.7251
718.90 0.724
719.00 0.7229
719.10 0.7217
719.20 0.7206
719.30 0.7195
719.40 0.7184
719.50 0.7173
719.60 0.7162
719.70 0.7151
719.80 0.714
719.90 0.7129
720.00 0.7118
720.10 0.7108
720.20 0.7098
720.30 0.7088
720.40 0.7077
720.50 0.7067
720.60 0.7057
720.70 0.7047
720.80 0.7037
720.90 0.7026
721.00 0.7016
721.10 0.7006
721.20 0.6996
721.30 0.6986
721.40 0.6976
721.50 0.6966
721.60 0.6955
721.70 0.6945
721.80 0.6935
721.90 0.6925
722.00 0.6915
722.10 0.6905
722.20 0.6895
722.30 0.6885
722.40 0.6875
722.50 0.6865
722.60 0.6854
722.70 0.6844
722.80 0.6834
722.90 0.6824
723.00 0.6814
723.10 0.6804
723.20 0.6794
723.30 0.6784
723.40 0.6774
723.50 0.6764
723.60 0.6754
723.70 0.6744
723.80 0.6734
723.90 0.6724
724.00 0.6714
724.10 0.6704
724.20 0.6694
724.30 0.6684
724.40 0.6674
724.50 0.6664
724.60 0.6654
724.70 0.6644
724.80 0.6634
724.90 0.6624
725.00 0.6614
725.10 0.6605
725.20 0.6596
725.30 0.6587
725.40 0.6578
725.50 0.6569
725.60 0.656
725.70 0.6551
725.80 0.6542
725.90 0.6533
726.00 0.6524
726.10 0.6516
726.20 0.6507
726.30 0.6498
726.40 0.6489
726.50 0.648
726.60 0.6471
726.70 0.6462
726.80 0.6453
726.90 0.6444
727.00 0.6435
727.10 0.6426
727.20 0.6417
727.30 0.6409
727.40 0.64
727.50 0.6391
727.60 0.6382
727.70 0.6373
727.80 0.6364
727.90 0.6355
728.00 0.6346
728.10 0.6338
728.20 0.6329
728.30 0.632
728.40 0.6311
728.50 0.6302
728.60 0.6293
728.70 0.6285
728.80 0.6276
728.90 0.6267
729.00 0.6258
729.10 0.6249
729.20 0.6241
729.30 0.6232
729.40 0.6223
729.50 0.6214
729.60 0.6205
729.70 0.6197
729.80 0.6188
729.90 0.6179
730.00 0.617
730.10 0.6163
730.20 0.6156
730.30 0.6149
730.40 0.6143
730.50 0.6136
730.60 0.6129
730.70 0.6122
730.80 0.6115
730.90 0.6108
731.00 0.6101
731.10 0.6094
731.20 0.6087
731.30 0.608
731.40 0.6073
731.50 0.6067
731.60 0.606
731.70 0.6053
731.80 0.6046
731.90 0.6039
732.00 0.6032
732.10 0.6025
732.20 0.6018
732.30 0.6012
732.40 0.6005
732.50 0.5998
732.60 0.5991
732.70 0.5984
732.80 0.5977
732.90 0.5971
733.00 0.5964
733.10 0.5957
733.20 0.595
733.30 0.5943
733.40 0.5936
733.50 0.593
733.60 0.5923
733.70 0.5916
733.80 0.5909
733.90 0.5902
734.00 0.5896
734.10 0.5889
734.20 0.5882
734.30 0.5875
734.40 0.5868
734.50 0.5862
734.60 0.5855
734.70 0.5848
734.80 0.5841
734.90 0.5834
735.00 0.5828
735.10 0.5821
735.20 0.5814
735.30 0.5807
735.40 0.5801
735.50 0.5794
735.60 0.5787
735.70 0.578
735.80 0.5774
735.90 0.5767
736.00 0.576
736.10 0.5754
736.20 0.5747
736.30 0.574
736.40 0.5733
736.50 0.5727
736.60 0.572
736.70 0.5713
736.80 0.5707
736.90 0.57
737.00 0.5693
737.10 0.5686
737.20 0.568
737.30 0.5673
737.40 0.5666
737.50 0.566
737.60 0.5653
737.70 0.5646
737.80 0.564
737.90 0.5633
738.00 0.5626
738.10 0.562
738.20 0.5613
738.30 0.5606
738.40 0.56
738.50 0.5593
738.60 0.5586
738.70 0.558
738.80 0.5573
738.90 0.5567
739.00 0.556
739.10 0.5553
739.20 0.5547
739.30 0.554
739.40 0.5533
739.50 0.5527
739.60 0.552
739.70 0.5514
739.80 0.5507
739.90 0.55
740.00 0.5494
740.10 0.5489
740.20 0.5485
740.30 0.5481
740.40 0.5476
740.50 0.5472
740.60 0.5467
740.70 0.5463
740.80 0.5458
740.90 0.5454
741.00 0.545
741.10 0.5445
741.20 0.5441
741.30 0.5436
741.40 0.5432
741.50 0.5428
741.60 0.5423
741.70 0.5419
741.80 0.5414
741.90 0.541
742.00 0.5406
742.10 0.5401
742.20 0.5397
742.30 0.5392
742.40 0.5388
742.50 0.5384
742.60 0.5379
742.70 0.5375
742.80 0.5371
742.90 0.5366
743.00 0.5362
743.10 0.5357
743.20 0.5353
743.30 0.5349
743.40 0.5344
743.50 0.534
743.60 0.5336
743.70 0.5331
743.80 0.5327
743.90 0.5323
744.00 0.5318
744.10 0.5314
744.20 0.531
744.30 0.5305
744.40 0.5301
744.50 0.5297
744.60 0.5292
744.70 0.5288
744.80 0.5284
744.90 0.5279
745.00 0.5275
745.10 0.5271
745.20 0.5266
745.30 0.5262
745.40 0.5258
745.50 0.5253
745.60 0.5249
745.70 0.5245
745.80 0.524
745.90 0.5236
746.00 0.5232
746.10 0.5228
746.20 0.5223
746.30 0.5219
746.40 0.5215
746.50 0.521
746.60 0.5206
746.70 0.5202
746.80 0.5197
746.90 0.5193
747.00 0.5189
747.10 0.5185
747.20 0.518
747.30 0.5176
747.40 0.5172
747.50 0.5168
747.60 0.5163
747.70 0.5159
747.80 0.5155
747.90 0.515
748.00 0.5146
748.10 0.5142
748.20 0.5138
748.30 0.5133
748.40 0.5129
748.50 0.5125
748.60 0.5121
748.70 0.5116
748.80 0.5112
748.90 0.5108
749.00 0.5104
749.10 0.5099
749.20 0.5095
749.30 0.5091
749.40 0.5087
749.50 0.5083
749.60 0.5078
749.70 0.5074
749.80 0.507
749.90 0.5066
750.00 0.5061
750.10 0.5058
750.20 0.5056
750.30 0.5053
750.40 0.505
750.50 0.5047
750.60 0.5044
750.70 0.5041
750.80 0.5038
750.90 0.5035
751.00 0.5032
751.10 0.5029
751.20 0.5026
751.30 0.5023
751.40 0.502
751.50 0.5017
751.60 0.5014
751.70 0.5011
751.80 0.5009
751.90 0.5006
752.00 0.5003
752.10 0.5
752.20 0.4997
752.30 0.4994
752.40 0.4991
752.50 0.4988
752.60 0.4985
752.70 0.4982
752.80 0.4979
752.90 0.4976
753.00 0.4973
753.10 0.4971
753.20 0.4968
753.30 0.4965
753.40 0.4962
753.50 0.4959
753.60 0.4956
753.70 0.4953
753.80 0.495
753.90 0.4947
754.00 0.4944
754.10 0.4942
754.20 0.4939
754.30 0.4936
754.40 0.4933
754.50 0.493
754.60 0.4927
754.70 0.4924
754.80 0.4921
754.90 0.4918
755.00 0.4916
755.10 0.4913
755.20 0.491
755.30 0.4907
755.40 0.4904
755.50 0.4901
755.60 0.4898
755.70 0.4895
755.80 0.4893
755.90 0.489
756.00 0.4887
756.10 0.4884
756.20 0.4881
756.30 0.4878
756.40 0.4875
756.50 0.4872
756.60 0.487
756.70 0.4867
756.80 0.4864
756.90 0.4861
757.00 0.4858
757.10 0.4855
757.20 0.4852
757.30 0.485
757.40 0.4847
757.50 0.4844
757.60 0.4841
757.70 0.4838
757.80 0.4835
757.90 0.4833
758.00 0.483
758.10 0.4827
758.20 0.4824
758.30 0.4821
758.40 0.4818
758.50 0.4816
758.60 0.4813
758.70 0.481
758.80 0.4807
758.90 0.4804
759.00 0.4801
759.10 0.4799
759.20 0.4796
759.30 0.4793
759.40 0.479
759.50 0.4787
759.60 0.4784
759.70 0.4782
759.80 0.4779
759.90 0.4776
760.00 0.4773
760.10 0.4771
760.20 0.4769
760.30 0.4767
760.40 0.4765
760.50 0.4763
760.60 0.4761
760.70 0.4758
760.80 0.4756
760.90 0.4754
761.00 0.4752
761.10 0.475
761.20 0.4748
761.30 0.4746
761.40 0.4744
761.50 0.4742
761.60 0.474
761.70 0.4737
761.80 0.4735
761.90 0.4733
762.00 0.4731
762.10 0.4729
762.20 0.4727
762.30 0.4725
762.40 0.4723
762.50 0.4721
762.60 0.4719
762.70 0.4717
762.80 0.4715
762.90 0.4712
763.00 0.471
763.10 0.4708
763.20 0.4706
763.30 0.4704
763.40 0.4702
763.50 0.47
763.60 0.4698
763.70 0.4696
763.80 0.4694
763.90 0.4692
764.00 0.469
764.10 0.4688
764.20 0.4685
764.30 0.4683
764.40 0.4681
764.50 0.4679
764.60 0.4677
764.70 0.4675
764.80 0.4673
764.90 0.4671
765.00 0.4669
765.10 0.4667
765.20 0.4665
765.30 0.4663
765.40 0.4661
765.50 0.4659
765.60 0.4657
765.70 0.4655
765.80 0.4653
765.90 0.465
766.00 0.4648
766.10 0.4646
766.20 0.4644
766.30 0.4642
766.40 0.464
766.50 0.4638
766.60 0.4636
766.70 0.4634
766.80 0.4632
766.90 0.463
767.00 0.4628
767.10 0.4626
767.20 0.4624
767.30 0.4622
767.40 0.462
767.50 0.4618
767.60 0.4616
767.70 0.4614
767.80 0.4612
767.90 0.461
768.00 0.4608
768.10 0.4606
768.20 0.4604
768.30 0.4602
768.40 0.4599
768.50 0.4597
768.60 0.4595
768.70 0.4593
768.80 0.4591
768.90 0.4589
769.00 0.4587
769.10 0.4585
769.20 0.4583
769.30 0.4581
769.40 0.4579
769.50 0.4577
769.60 0.4575
769.70 0.4573
769.80 0.4571
769.90 0.4569
770.00 0.4567
770.10 0.4566
770.20 0.4565
770.30 0.4564
770.40 0.4563
770.50 0.4561
770.60 0.456
770.70 0.4559
770.80 0.4558
770.90 0.4557
771.00 0.4556
771.10 0.4555
771.20 0.4554
771.30 0.4552
771.40 0.4551
771.50 0.455
771.60 0.4549
771.70 0.4548
771.80 0.4547
771.90 0.4546
772.00 0.4545
772.10 0.4543
772.20 0.4542
772.30 0.4541
772.40 0.454
772.50 0.4539
772.60 0.4538
772.70 0.4537
772.80 0.4536
772.90 0.4534
773.00 0.4533
773.10 0.4532
773.20 0.4531
773.30 0.453
773.40 0.4529
773.50 0.4528
773.60 0.4527
773.70 0.4525
773.80 0.4524
773.90 0.4523
774.00 0.4522
774.10 0.4521
774.20 0.452
774.30 0.4519
774.40 0.4518
774.50 0.4517
774.60 0.4515
774.70 0.4514
774.80 0.4513
774.90 0.4512
775.00 0.4511
775.10 0.451
775.20 0.4509
775.30 0.4508
775.40 0.4507
775.50 0.4505
775.60 0.4504
775.70 0.4503
775.80 0.4502
775.90 0.4501
776.00 0.45
776.10 0.4499
776.20 0.4498
776.30 0.4497
776.40 0.4495
776.50 0.4494
776.60 0.4493
776.70 0.4492
776.80 0.4491
776.90 0.449
777.00 0.4489
777.10 0.4488
777.20 0.4487
777.30 0.4485
777.40 0.4484
777.50 0.4483
777.60 0.4482
777.70 0.4481
777.80 0.448
777.90 0.4479
778.00 0.4478
778.10 0.4477
778.20 0.4476
778.30 0.4474
778.40 0.4473
778.50 0.4472
778.60 0.4471
778.70 0.447
778.80 0.4469
778.90 0.4468
779.00 0.4467
779.10 0.4466
779.20 0.4465
779.30 0.4463
779.40 0.4462
779.50 0.4461
779.60 0.446
779.70 0.4459
779.80 0.4458
779.90 0.4457
780.00 0.4456
780.10 0.4456
780.20 0.4456
780.30 0.4456
780.40 0.4456
780.50 0.4456
780.60 0.4456
780.70 0.4456
780.80 0.4456
780.90 0.4456
781.00 0.4455
781.10 0.4455
781.20 0.4455
781.30 0.4455
781.40 0.4455
781.50 0.4455
781.60 0.4455
781.70 0.4455
781.80 0.4455
781.90 0.4455
782.00 0.4455
782.10 0.4455
782.20 0.4455
782.30 0.4455
782.40 0.4455
782.50 0.4455
782.60 0.4455
782.70 0.4455
782.80 0.4455
782.90 0.4455
783.00 0.4455
783.10 0.4455
783.20 0.4455
783.30 0.4455
783.40 0.4455
783.50 0.4455
783.60 0.4455
783.70 0.4455
783.80 0.4454
783.90 0.4454
784.00 0.4454
784.10 0.4454
784.20 0.4454
784.30 0.4454
784.40 0.4454
784.50 0.4454
784.60 0.4454
784.70 0.4454
784.80 0.4454
784.90 0.4454
785.00 0.4454
785.10 0.4454
785.20 0.4454
785.30 0.4454
785.40 0.4454
785.50 0.4454
785.60 0.4454
785.70 0.4454
785.80 0.4454
785.90 0.4454
786.00 0.4454
786.10 0.4454
786.20 0.4453
786.30 0.4453
786.40 0.4453
786.50 0.4453
786.60 0.4453
786.70 0.4453
786.80 0.4453
786.90 0.4453
787.00 0.4453
787.10 0.4453
787.20 0.4453
787.30 0.4453
787.40 0.4453
787.50 0.4453
787.60 0.4453
787.70 0.4453
787.80 0.4453
787.90 0.4453
788.00 0.4453
788.10 0.4453
788.20 0.4453
788.30 0.4453
788.40 0.4453
788.50 0.4453
788.60 0.4452
788.70 0.4452
788.80 0.4452
788.90 0.4452
789.00 0.4452
789.10 0.4452
789.20 0.4452
789.30 0.4452
789.40 0.4452
789.50 0.4452
789.60 0.4452
789.70 0.4452
789.80 0.4452
789.90 0.4452
790.00 0.4452
790.10 0.4452
790.20 0.4453
790.30 0.4453
790.40 0.4453
790.50 0.4454
790.60 0.4454
790.70 0.4455
790.80 0.4455
790.90 0.4455
791.00 0.4456
791.10 0.4456
791.20 0.4457
791.30 0.4457
791.40 0.4457
791.50 0.4458
791.60 0.4458
791.70 0.4459
791.80 0.4459
791.90 0.4459
792.00 0.446
792.10 0.446
792.20 0.4461
792.30 0.4461
792.40 0.4461
792.50 0.4462
792.60 0.4462
792.70 0.4463
792.80 0.4463
792.90 0.4463
793.00 0.4464
793.10 0.4464
793.20 0.4465
793.30 0.4465
793.40 0.4465
793.50 0.4466
793.60 0.4466
793.70 0.4467
793.80 0.4467
793.90 0.4467
794.00 0.4468
794.10 0.4468
794.20 0.4469
794.30 0.4469
794.40 0.4469
794.50 0.447
794.60 0.447
794.70 0.447
794.80 0.4471
794.90 0.4471
795.00 0.4472
795.10 0.4472
795.20 0.4472
795.30 0.4473
795.40 0.4473
795.50 0.4474
795.60 0.4474
795.70 0.4474
795.80 0.4475
795.90 0.4475
796.00 0.4475
796.10 0.4476
796.20 0.4476
796.30 0.4477
796.40 0.4477
796.50 0.4477
796.60 0.4478
796.70 0.4478
796.80 0.4479
796.90 0.4479
797.00 0.4479
797.10 0.448
797.20 0.448
797.30 0.448
797.40 0.4481
797.50 0.4481
797.60 0.4482
797.70 0.4482
797.80 0.4482
797.90 0.4483
798.00 0.4483
798.10 0.4483
798.20 0.4484
798.30 0.4484
798.40 0.4485
798.50 0.4485
798.60 0.4485
798.70 0.4486
798.80 0.4486
798.90 0.4486
799.00 0.4487
799.10 0.4487
799.20 0.4488
799.30 0.4488
799.40 0.4488
799.50 0.4489
799.60 0.4489
799.70 0.4489
799.80 0.449
799.90 0.449
800.00 0.4491
800.10 0.4491
800.20 0.449
800.30 0.449
800.40 0.449
800.50 0.449
800.60 0.449
800.70 0.449
800.80 0.449
800.90 0.449
801.00 0.449
801.10 0.449
801.20 0.449
801.30 0.449
801.40 0.449
801.50 0.449
801.60 0.4489
801.70 0.4489
801.80 0.4489
801.90 0.4489
802.00 0.4489
802.10 0.4489
802.20 0.4489
802.30 0.4489
802.40 0.4489
802.50 0.4489
802.60 0.4489
802.70 0.4489
802.80 0.4489
802.90 0.4489
803.00 0.4488
803.10 0.4488
803.20 0.4488
803.30 0.4488
803.40 0.4488
803.50 0.4488
803.60 0.4488
803.70 0.4488
803.80 0.4488
803.90 0.4488
804.00 0.4488
804.10 0.4488
804.20 0.4488
804.30 0.4488
804.40 0.4487
804.50 0.4487
804.60 0.4487
804.70 0.4487
804.80 0.4487
804.90 0.4487
805.00 0.4487
805.10 0.4487
805.20 0.4487
805.30 0.4487
805.40 0.4487
805.50 0.4487
805.60 0.4487
805.70 0.4487
805.80 0.4486
805.90 0.4486
806.00 0.4486
806.10 0.4486
806.20 0.4486
806.30 0.4486
806.40 0.4486
806.50 0.4486
806.60 0.4486
806.70 0.4486
806.80 0.4486
806.90 0.4486
807.00 0.4486
807.10 0.4485
807.20 0.4485
807.30 0.4485
807.40 0.4485
807.50 0.4485
807.60 0.4485
807.70 0.4485
807.80 0.4485
807.90 0.4485
808.00 0.4485
808.10 0.4485
808.20 0.4485
808.30 0.4485
808.40 0.4484
808.50 0.4484
808.60 0.4484
808.70 0.4484
808.80 0.4484
808.90 0.4484
809.00 0.4484
809.10 0.4484
809.20 0.4484
809.30 0.4484
809.40 0.4484
809.50 0.4484
809.60 0.4484
809.70 0.4483
809.80 0.4483
809.90 0.4483
810.00 0.4483
810.10 0.4483
810.20 0.4482
810.30 0.4481
810.40 0.448
810.50 0.448
810.60 0.4479
810.70 0.4478
810.80 0.4478
810.90 0.4477
811.00 0.4476
811.10 0.4476
811.20 0.4475
811.30 0.4474
811.40 0.4473
811.50 0.4473
811.60 0.4472
811.70 0.4471
811.80 0.4471
811.90 0.447
812.00 0.4469
812.10 0.4469
812.20 0.4468
812.30 0.4467
812.40 0.4467
812.50 0.4466
812.60 0.4465
812.70 0.4464
812.80 0.4464
812.90 0.4463
813.00 0.4462
813.10 0.4462
813.20 0.4461
813.30 0.446
813.40 0.446
813.50 0.4459
813.60 0.4458
813.70 0.4458
813.80 0.4457
813.90 0.4456
814.00 0.4455
814.10 0.4455
814.20 0.4454
814.30 0.4453
814.40 0.4453
814.50 0.4452
814.60 0.4451
814.70 0.4451
814.80 0.445
814.90 0.4449
815.00 0.4449
815.10 0.4448
815.20 0.4447
815.30 0.4447
815.40 0.4446
815.50 0.4445
815.60 0.4444
815.70 0.4444
815.80 0.4443
815.90 0.4442
816.00 0.4442
816.10 0.4441
816.20 0.444
816.30 0.444
816.40 0.4439
816.50 0.4438
816.60 0.4438
816.70 0.4437
816.80 0.4436
816.90 0.4436
817.00 0.4435
817.10 0.4434
817.20 0.4434
817.30 0.4433
817.40 0.4432
817.50 0.4431
817.60 0.4431
817.70 0.443
817.80 0.4429
817.90 0.4429
818.00 0.4428
818.10 0.4427
818.20 0.4427
818.30 0.4426
818.40 0.4425
818.50 0.4425
818.60 0.4424
818.70 0.4423
818.80 0.4423
818.90 0.4422
819.00 0.4421
819.10 0.4421
819.20 0.442
819.30 0.4419
819.40 0.4419
819.50 0.4418
819.60 0.4417
819.70 0.4417
819.80 0.4416
819.90 0.4415
820.00 0.4414
820.10 0.4414
820.20 0.4413
820.30 0.4412
820.40 0.4411
820.50 0.441
820.60 0.4409
820.70 0.4409
820.80 0.4408
820.90 0.4407
821.00 0.4406
821.10 0.4405
821.20 0.4404
821.30 0.4403
821.40 0.4403
821.50 0.4402
821.60 0.4401
821.70 0.44
821.80 0.4399
821.90 0.4398
822.00 0.4397
822.10 0.4396
822.20 0.4396
822.30 0.4395
822.40 0.4394
822.50 0.4393
822.60 0.4392
822.70 0.4391
822.80 0.439
822.90 0.4389
823.00 0.4388
823.10 0.4387
823.20 0.4386
823.30 0.4385
823.40 0.4384
823.50 0.4383
823.60 0.4383
823.70 0.4382
823.80 0.4381
823.90 0.438
824.00 0.4379
824.10 0.4378
824.20 0.4377
824.30 0.4376
824.40 0.4375
824.50 0.4374
824.60 0.4373
824.70 0.4372
824.80 0.4371
824.90 0.4371
825.00 0.437
825.10 0.4369
825.20 0.4368
825.30 0.4367
825.40 0.4366
825.50 0.4365
825.60 0.4364
825.70 0.4363
825.80 0.4362
825.90 0.4361
826.00 0.436
826.10 0.4359
826.20 0.4359
826.30 0.4358
826.40 0.4357
826.50 0.4356
826.60 0.4355
826.70 0.4354
826.80 0.4353
826.90 0.4352
827.00 0.4351
827.10 0.435
827.20 0.4349
827.30 0.4348
827.40 0.4347
827.50 0.4346
827.60 0.4346
827.70 0.4345
827.80 0.4344
827.90 0.4343
828.00 0.4342
828.10 0.4341
828.20 0.434
828.30 0.4339
828.40 0.4338
828.50 0.4337
828.60 0.4336
828.70 0.4335
828.80 0.4334
828.90 0.4333
829.00 0.4332
829.10 0.4331
829.20 0.433
829.30 0.4329
829.40 0.4328
829.50 0.4328
829.60 0.4327
829.70 0.4326
829.80 0.4325
829.90 0.4324
830.00 0.4323
830.10 0.4322
830.20 0.4321
830.30 0.432
830.40 0.4319
830.50 0.4318
830.60 0.4317
830.70 0.4316
830.80 0.4315
830.90 0.4314
831.00 0.4313
831.10 0.4312
831.20 0.4311
831.30 0.4311
831.40 0.431
831.50 0.4309
831.60 0.4308
831.70 0.4307
831.80 0.4306
831.90 0.4305
832.00 0.4304
832.10 0.4303
832.20 0.4302
832.30 0.4301
832.40 0.43
832.50 0.4299
832.60 0.4298
832.70 0.4297
832.80 0.4297
832.90 0.4296
833.00 0.4295
833.10 0.4294
833.20 0.4293
833.30 0.4292
833.40 0.4291
833.50 0.429
833.60 0.4289
833.70 0.4288
833.80 0.4287
833.90 0.4286
834.00 0.4285
834.10 0.4284
834.20 0.4284
834.30 0.4283
834.40 0.4282
834.50 0.4281
834.60 0.428
834.70 0.4279
834.80 0.4278
834.90 0.4277
835.00 0.4276
835.10 0.4275
835.20 0.4274
835.30 0.4273
835.40 0.4272
835.50 0.4272
835.60 0.4271
835.70 0.427
835.80 0.4269
835.90 0.4268
836.00 0.4267
836.10 0.4266
836.20 0.4265
836.30 0.4264
836.40 0.4263
836.50 0.4262
836.60 0.4261
836.70 0.4261
836.80 0.426
836.90 0.4259
837.00 0.4258
837.10 0.4257
837.20 0.4256
837.30 0.4255
837.40 0.4254
837.50 0.4253
837.60 0.4252
837.70 0.4251
837.80 0.425
837.90 0.4249
838.00 0.4248
838.10 0.4248
838.20 0.4247
838.30 0.4246
838.40 0.4245
838.50 0.4244
838.60 0.4243
838.70 0.4242
838.80 0.4241
838.90 0.424
839.00 0.4239
839.10 0.4238
839.20 0.4237
839.30 0.4236
839.40 0.4236
839.50 0.4235
839.60 0.4234
839.70 0.4233
839.80 0.4232
839.90 0.4231
840.00 0.423
840.10 0.4229
840.20 0.4228
840.30 0.4227
840.40 0.4226
840.50 0.4225
840.60 0.4225
840.70 0.4224
840.80 0.4223
840.90 0.4222
841.00 0.4221
841.10 0.422
841.20 0.4219
841.30 0.4218
841.40 0.4217
841.50 0.4216
841.60 0.4215
841.70 0.4214
841.80 0.4214
841.90 0.4213
842.00 0.4212
842.10 0.4211
842.20 0.421
842.30 0.4209
842.40 0.4208
842.50 0.4207
842.60 0.4206
842.70 0.4205
842.80 0.4204
842.90 0.4203
843.00 0.4203
843.10 0.4202
843.20 0.4201
843.30 0.42
843.40 0.4199
843.50 0.4198
843.60 0.4197
843.70 0.4196
843.80 0.4195
843.90 0.4194
844.00 0.4193
844.10 0.4192
844.20 0.4192
844.30 0.4191
844.40 0.419
844.50 0.4189
844.60 0.4188
844.70 0.4187
844.80 0.4186
844.90 0.4185
845.00 0.4184
845.10 0.4183
845.20 0.4182
845.30 0.4181
845.40 0.4181
845.50 0.418
845.60 0.4179
845.70 0.4178
845.80 0.4177
845.90 0.4176
846.00 0.4175
846.10 0.4174
846.20 0.4173
846.30 0.4172
846.40 0.4171
846.50 0.4171
846.60 0.417
846.70 0.4169
846.80 0.4168
846.90 0.4167
847.00 0.4166
847.10 0.4165
847.20 0.4164
847.30 0.4163
847.40 0.4162
847.50 0.4161
847.60 0.416
847.70 0.4159
847.80 0.4158
847.90 0.4157
848.00 0.4156
848.10 0.4155
848.20 0.4154
848.30 0.4154
848.40 0.4153
848.50 0.4152
848.60 0.4151
848.70 0.415
848.80 0.4149
848.90 0.4148
849.00 0.4147
849.10 0.4146
849.20 0.4145
849.30 0.4144
849.40 0.4143
849.50 0.4142
849.60 0.4141
849.70 0.414
849.80 0.4139
849.90 0.4138
850.00 0.4137
850.10 0.4136
850.20 0.4135
850.30 0.4134
850.40 0.4133
850.50 0.4132
850.60 0.4132
850.70 0.4131
850.80 0.413
850.90 0.4129
851.00 0.4128
851.10 0.4127
851.20 0.4126
851.30 0.4125
851.40 0.4124
851.50 0.4123
851.60 0.4122
851.70 0.4121
851.80 0.412
851.90 0.4119
852.00 0.4118
852.10 0.4117
852.20 0.4116
852.30 0.4115
852.40 0.4114
852.50 0.4113
852.60 0.4112
852.70 0.4111
852.80 0.411
852.90 0.4109
853.00 0.4108
853.10 0.4107
853.20 0.4106
853.30 0.4105
853.40 0.4104
853.50 0.4103
853.60 0.4102
853.70 0.4101
853.80 0.41
853.90 0.4099
854.00 0.4098
854.10 0.4097
854.20 0.4096
854.30 0.4095
854.40 0.4094
854.50 0.4093
854.60 0.4092
854.70 0.4091
854.80 0.409
854.90 0.4089
855.00 0.4088
855.10 0.4087
855.20 0.4086
855.30 0.4085
855.40 0.4084
855.50 0.4083
855.60 0.4081
855.70 0.408
855.80 0.4079
855.90 0.4078
856.00 0.4077
856.10 0.4076
856.20 0.4075
856.30 0.4074
856.40 0.4073
856.50 0.4072
856.60 0.4071
856.70 0.407
856.80 0.4069
856.90 0.4068
857.00 0.4067
857.10 0.4066
857.20 0.4065
857.30 0.4064
857.40 0.4063
857.50 0.4062
857.60 0.4061
857.70 0.406
857.80 0.4059
857.90 0.4058
858.00 0.4057
858.10 0.4055
858.20 0.4054
858.30 0.4053
858.40 0.4052
858.50 0.4051
858.60 0.405
858.70 0.4049
858.80 0.4048
858.90 0.4047
859.00 0.4046
859.10 0.4045
859.20 0.4044
859.30 0.4043
859.40 0.4042
859.50 0.404
859.60 0.4039
859.70 0.4038
859.80 0.4037
859.90 0.4036
860.00 0.4035
860.10 0.4034
860.20 0.4033
860.30 0.4032
860.40 0.4031
860.50 0.403
860.60 0.4029
860.70 0.4028
860.80 0.4027
860.90 0.4025
861.00 0.4024
861.10 0.4023
861.20 0.4022
861.30 0.4021
861.40 0.402
861.50 0.4019
861.60 0.4018
861.70 0.4017
861.80 0.4016
861.90 0.4015
862.00 0.4014
862.10 0.4013
862.20 0.4011
862.30 0.401
862.40 0.4009
862.50 0.4008
862.60 0.4007
862.70 0.4006
862.80 0.4005
862.90 0.4004
863.00 0.4002
863.10 0.4001
863.20 0.4
863.30 0.3999
863.40 0.3998
863.50 0.3997
863.60 0.3996
863.70 0.3994
863.80 0.3993
863.90 0.3992
864.00 0.3991
864.10 0.399
864.20 0.3989
864.30 0.3988
864.40 0.3987
864.50 0.3985
864.60 0.3984
864.70 0.3983
864.80 0.3982
864.90 0.3981
865.00 0.398
865.10 0.3979
865.20 0.3977
865.30 0.3976
865.40 0.3975
865.50 0.3974
865.60 0.3973
865.70 0.3972
865.80 0.3971
865.90 0.397
866.00 0.3968
866.10 0.3967
866.20 0.3966
866.30 0.3965
866.40 0.3964
866.50 0.3963
866.60 0.3962
866.70 0.3961
866.80 0.396
866.90 0.3958
867.00 0.3957
867.10 0.3956
867.20 0.3955
867.30 0.3953
867.40 0.3952
867.50 0.3951
867.60 0.395
867.70 0.3948
867.80 0.3947
867.90 0.3946
868.00 0.3944
868.10 0.3943
868.20 0.3942
868.30 0.3941
868.40 0.3939
868.50 0.3938
868.60 0.3937
868.70 0.3936
868.80 0.3934
868.90 0.3933
869.00 0.3932
869.10 0.393
869.20 0.3929
869.30 0.3928
869.40 0.3927
869.50 0.3925
869.60 0.3924
869.70 0.3923
869.80 0.3922
869.90 0.392
870.00 0.3919
870.10 0.3918
870.20 0.3916
870.30 0.3915
870.40 0.3914
870.50 0.3913
870.60 0.3911
870.70 0.391
870.80 0.3909
870.90 0.3908
871.00 0.3906
871.10 0.3905
871.20 0.3904
871.30 0.3903
871.40 0.3901
871.50 0.39
871.60 0.3899
871.70 0.3897
871.80 0.3896
871.90 0.3895
872.00 0.3894
872.10 0.3892
872.20 0.3891
872.30 0.3889
872.40 0.3888
872.50 0.3887
872.60 0.3885
872.70 0.3884
872.80 0.3882
872.90 0.3881
873.00 0.388
873.10 0.3878
873.20 0.3877
873.30 0.3875
873.40 0.3874
873.50 0.3873
873.60 0.3871
873.70 0.387
873.80 0.3868
873.90 0.3867
874.00 0.3866
874.10 0.3864
874.20 0.3863
874.30 0.3861
874.40 0.386
874.50 0.3859
874.60 0.3857
874.70 0.3856
874.80 0.3854
874.90 0.3853
875.00 0.3852
875.10 0.385
875.20 0.3849
875.30 0.3847
875.40 0.3846
875.50 0.3845
875.60 0.3843
875.70 0.3842
875.80 0.3841
875.90 0.3839
876.00 0.3838
876.10 0.3836
876.20 0.3835
876.30 0.3834
876.40 0.3832
876.50 0.3831
876.60 0.3829
876.70 0.3828
876.80 0.3827
876.90 0.3825
877.00 0.3824
877.10 0.3822
877.20 0.3821
877.30 0.3819
877.40 0.3818
877.50 0.3816
877.60 0.3814
877.70 0.3813
877.80 0.3811
877.90 0.381
878.00 0.3808
878.10 0.3807
878.20 0.3805
878.30 0.3803
878.40 0.3802
878.50 0.38
878.60 0.3799
878.70 0.3797
878.80 0.3796
878.90 0.3794
879.00 0.3793
879.10 0.3791
879.20 0.3789
879.30 0.3788
879.40 0.3786
879.50 0.3785
879.60 0.3783
879.70 0.3782
879.80 0.378
879.90 0.3779
880.00 0.3777
880.10 0.3775
880.20 0.3774
880.30 0.3772
880.40 0.3771
880.50 0.3769
880.60 0.3768
880.70 0.3766
880.80 0.3765
880.90 0.3763
881.00 0.3761
881.10 0.376
881.20 0.3758
881.30 0.3757
881.40 0.3755
881.50 0.3754
881.60 0.3752
881.70 0.3751
881.80 0.3749
881.90 0.3748
882.00 0.3746
882.10 0.3744
882.20 0.3743
882.30 0.3741
882.40 0.3739
882.50 0.3737
882.60 0.3736
882.70 0.3734
882.80 0.3732
882.90 0.373
883.00 0.3729
883.10 0.3727
883.20 0.3725
883.30 0.3723
883.40 0.3722
883.50 0.372
883.60 0.3718
883.70 0.3717
883.80 0.3715
883.90 0.3713
884.00 0.3711
884.10 0.371
884.20 0.3708
884.30 0.3706
884.40 0.3704
884.50 0.3703
884.60 0.3701
884.70 0.3699
884.80 0.3698
884.90 0.3696
885.00 0.3694
885.10 0.3692
885.20 0.3691
885.30 0.3689
885.40 0.3687
885.50 0.3685
885.60 0.3684
885.70 0.3682
885.80 0.368
885.90 0.3679
886.00 0.3677
886.10 0.3675
886.20 0.3673
886.30 0.3672
886.40 0.367
886.50 0.3668
886.60 0.3667
886.70 0.3665
886.80 0.3663
886.90 0.3662
887.00 0.366
887.10 0.3658
887.20 0.3656
887.30 0.3654
887.40 0.3652
887.50 0.365
887.60 0.3648
887.70 0.3647
887.80 0.3645
887.90 0.3643
888.00 0.3641
888.10 0.3639
888.20 0.3637
888.30 0.3635
888.40 0.3633
888.50 0.3632
888.60 0.363
888.70 0.3628
888.80 0.3626
888.90 0.3624
889.00 0.3622
889.10 0.362
889.20 0.3618
889.30 0.3617
889.40 0.3615
889.50 0.3613
889.60 0.3611
889.70 0.3609
889.80 0.3607
889.90 0.3605
890.00 0.3604
890.10 0.3602
890.20 0.36
890.30 0.3598
890.40 0.3596
890.50 0.3594
890.60 0.3592
890.70 0.3591
890.80 0.3589
890.90 0.3587
891.00 0.3585
891.10 0.3583
891.20 0.3581
891.30 0.3579
891.40 0.3578
891.50 0.3576
891.60 0.3574
891.70 0.3572
891.80 0.357
891.90 0.3568
892.00 0.3566
892.10 0.3564
892.20 0.3562
892.30 0.356
892.40 0.3558
892.50 0.3556
892.60 0.3554
892.70 0.3552
892.80 0.355
892.90 0.3548
893.00 0.3545
893.10 0.3543
893.20 0.3541
893.30 0.3539
893.40 0.3537
893.50 0.3535
893.60 0.3533
893.70 0.3531
893.80 0.3529
893.90 0.3527
894.00 0.3524
894.10 0.3522
894.20 0.352
894.30 0.3518
894.40 0.3516
894.50 0.3514
894.60 0.3512
894.70 0.351
894.80 0.3508
894.90 0.3506
895.00 0.3504
895.10 0.3502
895.20 0.3499
895.30 0.3497
895.40 0.3495
895.50 0.3493
895.60 0.3491
895.70 0.3489
895.80 0.3487
895.90 0.3485
896.00 0.3483
896.10 0.3481
896.20 0.3479
896.30 0.3477
896.40 0.3475
896.50 0.3472
896.60 0.347
896.70 0.3468
896.80 0.3466
896.90 0.3464
897.00 0.3462
897.10 0.346
897.20 0.3458
897.30 0.3456
897.40 0.3454
897.50 0.3451
897.60 0.3449
897.70 0.3447
897.80 0.3445
897.90 0.3443
898.00 0.3441
898.10 0.3438
898.20 0.3436
898.30 0.3434
898.40 0.3432
898.50 0.343
898.60 0.3428
898.70 0.3426
898.80 0.3423
898.90 0.3421
899.00 0.3419
899.10 0.3417
899.20 0.3415
899.30 0.3413
899.40 0.3411
899.50 0.3408
899.60 0.3406
899.70 0.3404
899.80 0.3402
899.90 0.34
900.00 0.3398
900.10 0.3396
900.20 0.3393
900.30 0.3391
900.40 0.3389
900.50 0.3387
900.60 0.3385
900.70 0.3383
900.80 0.3381
900.90 0.3379
901.00 0.3376
901.10 0.3374
901.20 0.3372
901.30 0.337
901.40 0.3368
901.50 0.3366
901.60 0.3364
901.70 0.3362
901.80 0.3359
901.90 0.3357
902.00 0.3355
902.10 0.3353
902.20 0.3351
902.30 0.3349
902.40 0.3347
902.50 0.3345
902.60 0.3342
902.70 0.334
902.80 0.3338
902.90 0.3336
903.00 0.3334
903.10 0.3332
903.20 0.333
903.30 0.3327
903.40 0.3325
903.50 0.3323
903.60 0.3321
903.70 0.3319
903.80 0.3317
903.90 0.3315
904.00 0.3312
904.10 0.331
904.20 0.3308
904.30 0.3306
904.40 0.3304
904.50 0.3302
904.60 0.33
904.70 0.3298
904.80 0.3295
904.90 0.3293
905.00 0.3291
905.10 0.3289
905.20 0.3287
905.30 0.3285
905.40 0.3283
905.50 0.3281
905.60 0.3278
905.70 0.3276
905.80 0.3274
905.90 0.3272
906.00 0.327
906.10 0.3268
906.20 0.3266
906.30 0.3264
906.40 0.3262
906.50 0.3259
906.60 0.3257
906.70 0.3255
906.80 0.3253
906.90 0.3251
907.00 0.3249
907.10 0.3247
907.20 0.3244
907.30 0.3242
907.40 0.3239
907.50 0.3237
907.60 0.3235
907.70 0.3232
907.80 0.323
907.90 0.3228
908.00 0.3225
908.10 0.3223
908.20 0.3221
908.30 0.3218
908.40 0.3216
908.50 0.3214
908.60 0.3211
908.70 0.3209
908.80 0.3207
908.90 0.3204
909.00 0.3202
909.10 0.32
909.20 0.3197
909.30 0.3195
909.40 0.3192
909.50 0.319
909.60 0.3188
909.70 0.3185
909.80 0.3183
909.90 0.3181
910.00 0.3178
910.10 0.3176
910.20 0.3174
910.30 0.3171
910.40 0.3169
910.50 0.3167
910.60 0.3165
910.70 0.3162
910.80 0.316
910.90 0.3158
911.00 0.3155
911.10 0.3153
911.20 0.3151
911.30 0.3148
911.40 0.3146
911.50 0.3144
911.60 0.3141
911.70 0.3139
911.80 0.3137
911.90 0.3134
912.00 0.3132
912.10 0.313
912.20 0.3127
912.30 0.3124
912.40 0.3122
912.50 0.3119
912.60 0.3117
912.70 0.3114
912.80 0.3112
912.90 0.3109
913.00 0.3107
913.10 0.3104
913.20 0.3102
913.30 0.3099
913.40 0.3097
913.50 0.3094
913.60 0.3092
913.70 0.3089
913.80 0.3087
913.90 0.3084
914.00 0.3082
914.10 0.3079
914.20 0.3077
914.30 0.3074
914.40 0.3072
914.50 0.3069
914.60 0.3067
914.70 0.3064
914.80 0.3062
914.90 0.3059
915.00 0.3057
915.10 0.3054
915.20 0.3052
915.30 0.3049
915.40 0.3047
915.50 0.3044
915.60 0.3042
915.70 0.3039
915.80 0.3037
915.90 0.3034
916.00 0.3032
916.10 0.3029
916.20 0.3027
916.30 0.3024
916.40 0.3022
916.50 0.3019
916.60 0.3017
916.70 0.3014
916.80 0.3012
916.90 0.3009
917.00 0.3007
917.10 0.3004
917.20 0.3002
917.30 0.2999
917.40 0.2997
917.50 0.2994
917.60 0.2992
917.70 0.2989
917.80 0.2987
917.90 0.2984
918.00 0.2982
918.10 0.2979
918.20 0.2977
918.30 0.2974
918.40 0.2971
918.50 0.2969
918.60 0.2966
918.70 0.2964
918.80 0.2961
918.90 0.2959
919.00 0.2956
919.10 0.2954
919.20 0.2951
919.30 0.2949
919.40 0.2946
919.50 0.2944
919.60 0.2941
919.70 0.2939
919.80 0.2936
919.90 0.2934
920.00 0.2931
920.10 0.2929
920.20 0.2926
920.30 0.2924
920.40 0.2921
920.50 0.2919
920.60 0.2916
920.70 0.2914
920.80 0.2911
920.90 0.2909
921.00 0.2906
921.10 0.2904
921.20 0.2901
921.30 0.2899
921.40 0.2896
921.50 0.2894
921.60 0.2891
921.70 0.2889
921.80 0.2886
921.90 0.2884
922.00 0.2881
922.10 0.2878
922.20 0.2876
922.30 0.2873
922.40 0.2871
922.50 0.2868
922.60 0.2866
922.70 0.2863
922.80 0.286
922.90 0.2858
923.00 0.2855
923.10 0.2853
923.20 0.285
923.30 0.2848
923.40 0.2845
923.50 0.2842
923.60 0.284
923.70 0.2837
923.80 0.2835
923.90 0.2832
924.00 0.283
924.10 0.2827
924.20 0.2825
924.30 0.2822
924.40 0.2819
924.50 0.2817
924.60 0.2814
924.70 0.2812
924.80 0.2809
924.90 0.2807
925.00 0.2804
925.10 0.2802
925.20 0.2799
925.30 0.2797
925.40 0.2794
925.50 0.2791
925.60 0.2789
925.70 0.2786
925.80 0.2784
925.90 0.2781
926.00 0.2779
926.10 0.2776
926.20 0.2774
926.30 0.2771
926.40 0.2769
926.50 0.2766
926.60 0.2764
926.70 0.2761
926.80 0.2759
926.90 0.2756
927.00 0.2753
927.10 0.2751
927.20 0.2748
927.30 0.2746
927.40 0.2743
927.50 0.274
927.60 0.2738
927.70 0.2735
927.80 0.2733
927.90 0.273
928.00 0.2727
928.10 0.2725
928.20 0.2722
928.30 0.272
928.40 0.2717
928.50 0.2714
928.60 0.2712
928.70 0.2709
928.80 0.2707
928.90 0.2704
929.00 0.2702
929.10 0.2699
929.20 0.2696
929.30 0.2694
929.40 0.2691
929.50 0.2689
929.60 0.2686
929.70 0.2683
929.80 0.2681
929.90 0.2678
930.00 0.2676
930.10 0.2673
930.20 0.2671
930.30 0.2668
930.40 0.2665
930.50 0.2663
930.60 0.266
930.70 0.2658
930.80 0.2655
930.90 0.2653
931.00 0.265
931.10 0.2647
931.20 0.2645
931.30 0.2642
931.40 0.264
931.50 0.2637
931.60 0.2635
931.70 0.2632
931.80 0.263
931.90 0.2627
932.00 0.2624
932.10 0.2622
932.20 0.2619
932.30 0.2617
932.40 0.2614
932.50 0.2612
932.60 0.2609
932.70 0.2606
932.80 0.2604
932.90 0.2601
933.00 0.2599
933.10 0.2596
933.20 0.2594
933.30 0.2591
933.40 0.2588
933.50 0.2586
933.60 0.2583
933.70 0.2581
933.80 0.2578
933.90 0.2576
934.00 0.2573
934.10 0.2571
934.20 0.2568
934.30 0.2565
934.40 0.2563
934.50 0.256
934.60 0.2558
934.70 0.2555
934.80 0.2553
934.90 0.255
935.00 0.2547
935.10 0.2545
935.20 0.2542
935.30 0.254
935.40 0.2537
935.50 0.2535
935.60 0.2532
935.70 0.2529
935.80 0.2527
935.90 0.2524
936.00 0.2522
936.10 0.2519
936.20 0.2517
936.30 0.2514
936.40 0.2512
936.50 0.2509
936.60 0.2506
936.70 0.2504
936.80 0.2501
936.90 0.2499
937.00 0.2496
937.10 0.2494
937.20 0.2491
937.30 0.2489
937.40 0.2486
937.50 0.2483
937.60 0.2481
937.70 0.2478
937.80 0.2476
937.90 0.2473
938.00 0.2471
938.10 0.2468
938.20 0.2466
938.30 0.2463
938.40 0.246
938.50 0.2458
938.60 0.2455
938.70 0.2453
938.80 0.245
938.90 0.2448
939.00 0.2445
939.10 0.2442
939.20 0.244
939.30 0.2437
939.40 0.2435
939.50 0.2432
939.60 0.243
939.70 0.2427
939.80 0.2425
939.90 0.2422
940.00 0.2419
940.10 0.2417
940.20 0.2414
940.30 0.2412
940.40 0.2409
940.50 0.2407
940.60 0.2404
940.70 0.2402
940.80 0.2399
940.90 0.2397
941.00 0.2394
941.10 0.2391
941.20 0.2389
941.30 0.2386
941.40 0.2384
941.50 0.2381
941.60 0.2379
941.70 0.2376
941.80 0.2374
941.90 0.2371
942.00 0.2369
942.10 0.2366
942.20 0.2364
942.30 0.2361
942.40 0.2359
942.50 0.2356
942.60 0.2354
942.70 0.2351
942.80 0.2349
942.90 0.2346
943.00 0.2344
943.10 0.2341
943.20 0.2339
943.30 0.2336
943.40 0.2334
943.50 0.2331
943.60 0.2329
943.70 0.2326
943.80 0.2324
943.90 0.2321
944.00 0.2319
944.10 0.2316
944.20 0.2314
944.30 0.2311
944.40 0.2309
944.50 0.2306
944.60 0.2304
944.70 0.2301
944.80 0.2299
944.90 0.2296
945.00 0.2294
945.10 0.2291
945.20 0.2289
945.30 0.2286
945.40 0.2284
945.50 0.2281
945.60 0.2279
945.70 0.2276
945.80 0.2274
945.90 0.2271
946.00 0.2269
946.10 0.2266
946.20 0.2264
946.30 0.2261
946.40 0.2259
946.50 0.2256
946.60 0.2254
946.70 0.2252
946.80 0.2249
946.90 0.2247
947.00 0.2244
947.10 0.2242
947.20 0.2239
947.30 0.2237
947.40 0.2234
947.50 0.2232
947.60 0.2229
947.70 0.2227
947.80 0.2224
947.90 0.2222
948.00 0.2219
948.10 0.2217
948.20 0.2214
948.30 0.2212
948.40 0.2209
948.50 0.2207
948.60 0.2205
948.70 0.2202
948.80 0.22
948.90 0.2197
949.00 0.2195
949.10 0.2192
949.20 0.219
949.30 0.2187
949.40 0.2185
949.50 0.2182
949.60 0.218
949.70 0.2178
949.80 0.2175
949.90 0.2173
950.00 0.217
950.10 0.2168
950.20 0.2165
950.30 0.2163
950.40 0.2161
950.50 0.2158
950.60 0.2156
950.70 0.2153
950.80 0.2151
950.90 0.2149
951.00 0.2146
951.10 0.2144
951.20 0.2141
951.30 0.2139
951.40 0.2137
951.50 0.2134
951.60 0.2132
951.70 0.2129
951.80 0.2127
951.90 0.2124
952.00 0.2122
952.10 0.212
952.20 0.2117
952.30 0.2115
952.40 0.2112
952.50 0.211
952.60 0.2108
952.70 0.2105
952.80 0.2103
952.90 0.2101
953.00 0.2098
953.10 0.2096
953.20 0.2093
953.30 0.2091
953.40 0.2089
953.50 0.2086
953.60 0.2084
953.70 0.2082
953.80 0.2079
953.90 0.2077
954.00 0.2074
954.10 0.2072
954.20 0.207
954.30 0.2067
954.40 0.2065
954.50 0.2063
954.60 0.206
954.70 0.2058
954.80 0.2056
954.90 0.2053
955.00 0.2051
955.10 0.2049
955.20 0.2046
955.30 0.2044
955.40 0.2041
955.50 0.2039
955.60 0.2037
955.70 0.2034
955.80 0.2032
955.90 0.203
956.00 0.2027
956.10 0.2025
956.20 0.2022
956.30 0.202
956.40 0.2018
956.50 0.2015
956.60 0.2013
956.70 0.2011
956.80 0.2008
956.90 0.2006
957.00 0.2003
957.10 0.2001
957.20 0.1999
957.30 0.1996
957.40 0.1994
957.50 0.1992
957.60 0.1989
957.70 0.1987
957.80 0.1985
957.90 0.1983
958.00 0.198
958.10 0.1978
958.20 0.1976
958.30 0.1973
958.40 0.1971
958.50 0.1969
958.60 0.1966
958.70 0.1964
958.80 0.1962
958.90 0.196
959.00 0.1957
959.10 0.1955
959.20 0.1953
959.30 0.195
959.40 0.1948
959.50 0.1946
959.60 0.1944
959.70 0.1941
959.80 0.1939
959.90 0.1937
960.00 0.1935
960.10 0.1932
960.20 0.193
960.30 0.1928
960.40 0.1926
960.50 0.1923
960.60 0.1921
960.70 0.1919
960.80 0.1917
960.90 0.1914
961.00 0.1912
961.10 0.191
961.20 0.1908
961.30 0.1905
961.40 0.1903
961.50 0.1901
961.60 0.1899
961.70 0.1896
961.80 0.1894
961.90 0.1892
962.00 0.189
962.10 0.1888
962.20 0.1885
962.30 0.1883
962.40 0.1881
962.50 0.1879
962.60 0.1877
962.70 0.1874
962.80 0.1872
962.90 0.187
963.00 0.1868
963.10 0.1866
963.20 0.1863
963.30 0.1861
963.40 0.1859
963.50 0.1857
963.60 0.1855
963.70 0.1852
963.80 0.185
963.90 0.1848
964.00 0.1846
964.10 0.1844
964.20 0.1841
964.30 0.1839
964.40 0.1837
964.50 0.1835
964.60 0.1833
964.70 0.183
964.80 0.1828
964.90 0.1826
965.00 0.1824
965.10 0.1822
965.20 0.1819
965.30 0.1817
965.40 0.1815
965.50 0.1813
965.60 0.1811
965.70 0.1808
965.80 0.1806
965.90 0.1804
966.00 0.1802
966.10 0.18
966.20 0.1797
966.30 0.1795
966.40 0.1793
966.50 0.1791
966.60 0.1789
966.70 0.1787
966.80 0.1785
966.90 0.1782
967.00 0.178
967.10 0.1778
967.20 0.1776
967.30 0.1774
967.40 0.1772
967.50 0.177
967.60 0.1768
967.70 0.1766
967.80 0.1764
967.90 0.1761
968.00 0.1759
968.10 0.1757
968.20 0.1755
968.30 0.1753
968.40 0.1751
968.50 0.1749
968.60 0.1747
968.70 0.1745
968.80 0.1743
968.90 0.1741
969.00 0.1739
969.10 0.1737
969.20 0.1735
969.30 0.1732
969.40 0.173
969.50 0.1728
969.60 0.1726
969.70 0.1724
969.80 0.1722
969.90 0.172
970.00 0.1718
970.10 0.1716
970.20 0.1714
970.30 0.1712
970.40 0.171
970.50 0.1708
970.60 0.1706
970.70 0.1704
970.80 0.1702
970.90 0.17
971.00 0.1698
971.10 0.1696
971.20 0.1694
971.30 0.1692
971.40 0.169
971.50 0.1688
971.60 0.1686
971.70 0.1684
971.80 0.1682
971.90 0.168
972.00 0.1678
972.10 0.1676
972.20 0.1674
972.30 0.1672
972.40 0.167
972.50 0.1668
972.60 0.1666
972.70 0.1664
972.80 0.1662
972.90 0.166
973.00 0.1658
973.10 0.1656
973.20 0.1654
973.30 0.1652
973.40 0.165
973.50 0.1648
973.60 0.1646
973.70 0.1644
973.80 0.1642
973.90 0.164
974.00 0.1639
974.10 0.1637
974.20 0.1635
974.30 0.1633
974.40 0.1631
974.50 0.1629
974.60 0.1627
974.70 0.1625
974.80 0.1623
974.90 0.1621
975.00 0.1619
975.10 0.1617
975.20 0.1615
975.30 0.1613
975.40 0.1611
975.50 0.1609
975.60 0.1608
975.70 0.1606
975.80 0.1604
975.90 0.1602
976.00 0.16
976.10 0.1598
976.20 0.1596
976.30 0.1594
976.40 0.1592
976.50 0.159
976.60 0.1588
976.70 0.1586
976.80 0.1585
976.90 0.1583
977.00 0.1581
977.10 0.1579
977.20 0.1577
977.30 0.1575
977.40 0.1573
977.50 0.1572
977.60 0.157
977.70 0.1568
977.80 0.1566
977.90 0.1564
978.00 0.1563
978.10 0.1561
978.20 0.1559
978.30 0.1557
978.40 0.1555
978.50 0.1553
978.60 0.1552
978.70 0.155
978.80 0.1548
978.90 0.1546
979.00 0.1544
979.10 0.1543
979.20 0.1541
979.30 0.1539
979.40 0.1537
979.50 0.1535
979.60 0.1534
979.70 0.1532
979.80 0.153
979.90 0.1528
980.00 0.1526
980.10 0.1525
980.20 0.1523
980.30 0.1521
980.40 0.1519
980.50 0.1517
980.60 0.1516
980.70 0.1514
980.80 0.1512
980.90 0.151
981.00 0.1508
981.10 0.1507
981.20 0.1505
981.30 0.1503
981.40 0.1501
981.50 0.1499
981.60 0.1498
981.70 0.1496
981.80 0.1494
981.90 0.1492
982.00 0.149
982.10 0.1489
982.20 0.1487
982.30 0.1485
982.40 0.1484
982.50 0.1482
982.60 0.148
982.70 0.1478
982.80 0.1477
982.90 0.1475
983.00 0.1473
983.10 0.1472
983.20 0.147
983.30 0.1468
983.40 0.1466
983.50 0.1465
983.60 0.1463
983.70 0.1461
983.80 0.146
983.90 0.1458
984.00 0.1456
984.10 0.1454
984.20 0.1453
984.30 0.1451
984.40 0.1449
984.50 0.1448
984.60 0.1446
984.70 0.1444
984.80 0.1443
984.90 0.1441
985.00 0.144
985.10 0.1438
985.20 0.1436
985.30 0.1435
985.40 0.1433
985.50 0.1432
985.60 0.143
985.70 0.1428
985.80 0.1427
985.90 0.1425
986.00 0.1424
986.10 0.1422
986.20 0.142
986.30 0.1419
986.40 0.1417
986.50 0.1416
986.60 0.1414
986.70 0.1412
986.80 0.1411
986.90 0.1409
987.00 0.1408
987.10 0.1406
987.20 0.1404
987.30 0.1403
987.40 0.1401
987.50 0.1399
987.60 0.1398
987.70 0.1396
987.80 0.1394
987.90 0.1393
988.00 0.1391
988.10 0.139
988.20 0.1388
988.30 0.1386
988.40 0.1385
988.50 0.1383
988.60 0.1381
988.70 0.138
988.80 0.1378
988.90 0.1376
989.00 0.1375
989.10 0.1373
989.20 0.1371
989.30 0.137
989.40 0.1368
989.50 0.1366
989.60 0.1365
989.70 0.1363
989.80 0.1362
989.90 0.136
990.00 0.1358
990.10 0.1357
990.20 0.1355
990.30 0.1353
990.40 0.1352
990.50 0.135
990.60 0.1349
990.70 0.1347
990.80 0.1345
990.90 0.1344
991.00 0.1342
991.10 0.134
991.20 0.1339
991.30 0.1337
991.40 0.1335
991.50 0.1334
991.60 0.1332
991.70 0.1331
991.80 0.1329
991.90 0.1327
992.00 0.1326
992.10 0.1324
992.20 0.1322
992.30 0.1321
992.40 0.1319
992.50 0.1318
992.60 0.1316
992.70 0.1314
992.80 0.1313
992.90 0.1311
993.00 0.1309
993.10 0.1308
993.20 0.1306
993.30 0.1305
993.40 0.1303
993.50 0.1301
993.60 0.13
993.70 0.1298
993.80 0.1297
993.90 0.1295
994.00 0.1293
994.10 0.1292
994.20 0.129
994.30 0.1289
994.40 0.1287
994.50 0.1285
994.60 0.1284
994.70 0.1282
994.80 0.128
994.90 0.1278
995.00 0.1276
995.10 0.1274
995.20 0.1272
995.30 0.127
995.40 0.1268
995.50 0.1266
995.60 0.1264
995.70 0.1263
995.80 0.1261
995.90 0.1259
996.00 0.1258
996.10 0.1256
996.20 0.1255
996.30 0.1253
996.40 0.1252
996.50 0.125
996.60 0.1249
996.70 0.1247
996.80 0.1245
996.90 0.1244
997.00 0.1242
997.10 0.1241
997.20 0.1239
997.30 0.1238
997.40 0.1236
997.50 0.1235
997.60 0.1233
997.70 0.1232
997.80 0.123
997.90 0.1229
998.00 0.1227
998.10 0.1226
998.20 0.1224
998.30 0.1223
998.40 0.1222
998.50 0.122
998.60 0.1219
998.70 0.1217
998.80 0.1216
998.90 0.1214
999.00 0.1213
999.10 0.1211
999.20 0.121
999.30 0.1208
999.40 0.1207
999.50 0.1205
999.60 0.1204
999.70 0.1203
999.80 0.1201
999.90 0.12
1000.00 0.1198
1000.10 0.1197
1000.20 0.1195
1000.30 0.1194
1000.40 0.1193
1000.50 0.1191
1000.60 0.119
1000.70 0.1188
1000.80 0.1187
1000.90 0.1186
1001.00 0.1184
1001.10 0.1183
1001.20 0.1181
1001.30 0.118
1001.40 0.1179
1001.50 0.1177
1001.60 0.1176
1001.70 0.1175
1001.80 0.1173
1001.90 0.1172
1002.00 0.117
1002.10 0.1169
1002.20 0.1168
1002.30 0.1166
1002.40 0.1165
1002.50 0.1164
1002.60 0.1162
1002.70 0.1161
1002.80 0.116
1002.90 0.1158
1003.00 0.1157
1003.10 0.1156
1003.20 0.1154
1003.30 0.1153
1003.40 0.1152
1003.50 0.115
1003.60 0.1149
1003.70 0.1148
1003.80 0.1146
1003.90 0.1145
1004.00 0.1144
1004.10 0.1143
1004.20 0.1141
1004.30 0.114
1004.40 0.1139
1004.50 0.1138
1004.60 0.1136
1004.70 0.1135
1004.80 0.1134
1004.90 0.1132
1005.00 0.113
1005.10 0.1129
1005.20 0.1128
1005.30 0.1126
1005.40 0.1125
1005.50 0.1124
1005.60 0.1123
1005.70 0.1121
1005.80 0.112
1005.90 0.1119
1006.00 0.1118
1006.10 0.1116
1006.20 0.1115
1006.30 0.1114
1006.40 0.1113
1006.50 0.1112
1006.60 0.111
1006.70 0.1109
1006.80 0.1108
1006.90 0.1107
1007.00 0.1106
1007.10 0.1104
1007.20 0.1103
1007.30 0.1102
1007.40 0.1101
1007.50 0.11
1007.60 0.1099
1007.70 0.1097
1007.80 0.1096
1007.90 0.1095
1008.00 0.1094
1008.10 0.1093
1008.20 0.1092
1008.30 0.1091
1008.40 0.1089
1008.50 0.1088
1008.60 0.1087
1008.70 0.1086
1008.80 0.1085
1008.90 0.1084
1009.00 0.1083
1009.10 0.1082
1009.20 0.108
1009.30 0.1079
1009.40 0.1078
1009.50 0.1077
1009.60 0.1076
1009.70 0.1075
1009.80 0.1074
1009.90 0.1073
1010.00 0.1072
1010.10 0.1071
1010.20 0.1069
1010.30 0.1068
1010.40 0.1067
1010.50 0.1066
1010.60 0.1065
1010.70 0.1064
1010.80 0.1063
1010.90 0.1062
1011.00 0.1061
1011.10 0.106
1011.20 0.1059
1011.30 0.1058
1011.40 0.1057
1011.50 0.1056
1011.60 0.1055
1011.70 0.1054
1011.80 0.1053
1011.90 0.1051
1012.00 0.105
1012.10 0.1049
1012.20 0.1048
1012.30 0.1047
1012.40 0.1046
1012.50 0.1045
1012.60 0.1045
1012.70 0.1044
1012.80 0.1043
1012.90 0.1042
1013.00 0.1041
1013.10 0.104
1013.20 0.1039
1013.30 0.1038
1013.40 0.1037
1013.50 0.1036
1013.60 0.1035
1013.70 0.1034
1013.80 0.1033
1013.90 0.1032
1014.00 0.1031
1014.10 0.103
1014.20 0.1029
1014.30 0.1028
1014.40 0.1027
1014.50 0.1026
1014.60 0.1025
1014.70 0.1024
1014.80 0.1023
1014.90 0.1023
1015.00 0.1022
1015.10 0.1021
1015.20 0.102
1015.30 0.1019
1015.40 0.1018
1015.50 0.1018
1015.60 0.1017
1015.70 0.1016
1015.80 0.1015
1015.90 0.1014
1016.00 0.1014
1016.10 0.1013
1016.20 0.1012
1016.30 0.1011
1016.40 0.101
1016.50 0.1009
1016.60 0.1009
1016.70 0.1008
1016.80 0.1007
1016.90 0.1006
1017.00 0.1005
1017.10 0.1004
1017.20 0.1003
1017.30 0.1002
1017.40 0.1002
1017.50 0.1001
1017.60 0.09998
1017.70 0.09989
1017.80 0.0998
1017.90 0.09971
1018.00 0.09963
1018.10 0.09954
1018.20 0.09945
1018.30 0.09936
1018.40 0.09927
1018.50 0.09919
1018.60 0.0991
1018.70 0.09901
1018.80 0.09893
1018.90 0.09884
1019.00 0.09876
1019.10 0.09867
1019.20 0.09858
1019.30 0.0985
1019.40 0.09841
1019.50 0.09833
1019.60 0.09824
1019.70 0.09816
1019.80 0.09807
1019.90 0.09799
1020.00 0.0979
1020.10 0.09782
1020.20 0.09773
1020.30 0.09765
1020.40 0.09756
1020.50 0.09748
1020.60 0.09739
1020.70 0.09731
1020.80 0.09722
1020.90 0.09714
1021.00 0.09706
1021.10 0.09697
1021.20 0.09689
1021.30 0.09681
1021.40 0.09673
1021.50 0.09664
1021.60 0.09656
1021.70 0.09648
1021.80 0.0964
1021.90 0.09631
1022.00 0.09623
1022.10 0.09615
1022.20 0.09607
1022.30 0.09599
1022.40 0.09591
1022.50 0.09583
1022.60 0.09574
1022.70 0.09566
1022.80 0.09558
1022.90 0.0955
1023.00 0.09542
1023.10 0.09534
1023.20 0.09526
1023.30 0.09518
1023.40 0.0951
1023.50 0.09502
1023.60 0.09494
1023.70 0.09486
1023.80 0.09478
1023.90 0.0947
1024.00 0.09462
1024.10 0.09454
1024.20 0.09446
1024.30 0.09438
1024.40 0.0943
1024.50 0.09422
1024.60 0.09414
1024.70 0.09406
1024.80 0.09398
1024.90 0.0939
1025.00 0.09382
1025.10 0.09374
1025.20 0.09367
1025.30 0.09359
1025.40 0.09351
1025.50 0.09343
1025.60 0.09335
1025.70 0.09327
1025.80 0.0932
1025.90 0.09312
1026.00 0.09304
1026.10 0.09296
1026.20 0.09288
1026.30 0.09281
1026.40 0.09273
1026.50 0.09265
1026.60 0.09257
1026.70 0.0925
1026.80 0.09242
1026.90 0.09234
1027.00 0.09226
1027.10 0.09219
1027.20 0.09212
1027.30 0.09205
1027.40 0.09197
1027.50 0.0919
1027.60 0.09183
1027.70 0.09176
1027.80 0.09169
1027.90 0.09161
1028.00 0.09154
1028.10 0.09147
1028.20 0.0914
1028.30 0.09133
1028.40 0.09125
1028.50 0.09118
1028.60 0.09111
1028.70 0.09104
1028.80 0.09097
1028.90 0.09089
1029.00 0.09082
1029.10 0.09075
1029.20 0.09068
1029.30 0.09061
1029.40 0.09054
1029.50 0.09046
1029.60 0.09039
1029.70 0.09032
1029.80 0.09025
1029.90 0.09018
1030.00 0.09011
1030.10 0.09004
1030.20 0.08996
1030.30 0.08989
1030.40 0.08982
1030.50 0.08975
1030.60 0.08968
1030.70 0.08961
1030.80 0.08954
1030.90 0.08946
1031.00 0.08939
1031.10 0.08932
1031.20 0.08925
1031.30 0.08918
1031.40 0.08911
1031.50 0.08904
1031.60 0.08897
1031.70 0.0889
1031.80 0.08882
1031.90 0.08875
1032.00 0.08868
1032.10 0.08862
1032.20 0.08855
1032.30 0.08849
1032.40 0.08842
1032.50 0.08835
1032.60 0.08829
1032.70 0.08822
1032.80 0.08816
1032.90 0.08809
1033.00 0.08803
1033.10 0.08796
1033.20 0.08789
1033.30 0.08783
1033.40 0.08776
1033.50 0.0877
1033.60 0.08763
1033.70 0.08757
1033.80 0.0875
1033.90 0.08744
1034.00 0.08737
1034.10 0.08731
1034.20 0.08724
1034.30 0.08718
1034.40 0.08711
1034.50 0.08705
1034.60 0.08698
1034.70 0.08691
1034.80 0.08685
1034.90 0.08678
1035.00 0.08672
1035.10 0.08665
1035.20 0.08659
1035.30 0.08652
1035.40 0.08646
1035.50 0.08639
1035.60 0.08633
1035.70 0.08626
1035.80 0.0862
1035.90 0.08613
1036.00 0.08607
1036.10 0.086
1036.20 0.08594
1036.30 0.08588
1036.40 0.08581
1036.50 0.08575
1036.60 0.08568
1036.70 0.08562
1036.80 0.08555
1036.90 0.08549
1037.00 0.08542
1037.10 0.08536
1037.20 0.08531
1037.30 0.08525
1037.40 0.08519
1037.50 0.08513
1037.60 0.08507
1037.70 0.08502
1037.80 0.08496
1037.90 0.0849
1038.00 0.08484
1038.10 0.08478
1038.20 0.08473
1038.30 0.08467
1038.40 0.08461
1038.50 0.08455
1038.60 0.08449
1038.70 0.08444
1038.80 0.08438
1038.90 0.08432
1039.00 0.08426
1039.10 0.0842
1039.20 0.08415
1039.30 0.08409
1039.40 0.08403
1039.50 0.08397
1039.60 0.08392
1039.70 0.08386
1039.80 0.0838
1039.90 0.08374
1040.00 0.08369
1040.10 0.08363
1040.20 0.08357
1040.30 0.08351
1040.40 0.08346
1040.50 0.0834
1040.60 0.08334
1040.70 0.08328
1040.80 0.08323
1040.90 0.08317
1041.00 0.08311
1041.10 0.08305
1041.20 0.083
1041.30 0.08294
1041.40 0.08288
1041.50 0.08283
1041.60 0.08277
1041.70 0.08271
1041.80 0.08265
1041.90 0.0826
1042.00 0.08254
1042.10 0.08249
1042.20 0.08244
1042.30 0.08239
1042.40 0.08233
1042.50 0.08228
1042.60 0.08223
1042.70 0.08218
1042.80 0.08213
1042.90 0.08208
1043.00 0.08203
1043.10 0.08198
1043.20 0.08193
1043.30 0.08188
1043.40 0.08182
1043.50 0.08177
1043.60 0.08172
1043.70 0.08167
1043.80 0.08162
1043.90 0.08157
1044.00 0.08152
1044.10 0.08147
1044.20 0.08142
1044.30 0.08137
1044.40 0.08132
1044.50 0.08127
1044.60 0.08122
1044.70 0.08116
1044.80 0.08111
1044.90 0.08106
1045.00 0.08101
1045.10 0.08096
1045.20 0.08091
1045.30 0.08086
1045.40 0.08081
1045.50 0.08076
1045.60 0.08071
1045.70 0.08066
1045.80 0.08061
1045.90 0.08056
1046.00 0.08051
1046.10 0.08046
1046.20 0.08041
1046.30 0.08036
1046.40 0.08031
1046.50 0.08026
1046.60 0.08021
1046.70 0.08016
1046.80 0.0801
1046.90 0.08005
1047.00 0.08
1047.10 0.07996
1047.20 0.07992
1047.30 0.07987
1047.40 0.07983
1047.50 0.07978
1047.60 0.07974
1047.70 0.07969
1047.80 0.07965
1047.90 0.0796
1048.00 0.07956
1048.10 0.07952
1048.20 0.07947
1048.30 0.07943
1048.40 0.07938
1048.50 0.07934
1048.60 0.07929
1048.70 0.07925
1048.80 0.0792
1048.90 0.07916
1049.00 0.07912
1049.10 0.07907
1049.20 0.07903
1049.30 0.07898
1049.40 0.07894
1049.50 0.0789
1049.60 0.07885
1049.70 0.07881
1049.80 0.07876
1049.90 0.07872
1050.00 0.07867
1050.10 0.07863
1050.20 0.07859
1050.30 0.07854
1050.40 0.0785
1050.50 0.07845
1050.60 0.07841
1050.70 0.07837
1050.80 0.07832
1050.90 0.07828
1051.00 0.07823
1051.10 0.07819
1051.20 0.07815
1051.30 0.0781
1051.40 0.07806
1051.50 0.07802
1051.60 0.07797
1051.70 0.07793
1051.80 0.07788
1051.90 0.07784
1052.00 0.0778
1052.10 0.07776
1052.20 0.07772
1052.30 0.07768
1052.40 0.07764
1052.50 0.0776
1052.60 0.07756
1052.70 0.07752
1052.80 0.07749
1052.90 0.07745
1053.00 0.07741
1053.10 0.07737
1053.20 0.07733
1053.30 0.07729
1053.40 0.07725
1053.50 0.07722
1053.60 0.07718
1053.70 0.07714
1053.80 0.0771
1053.90 0.07706
1054.00 0.07702
1054.10 0.07698
1054.20 0.07695
1054.30 0.07691
1054.40 0.07687
1054.50 0.07683
1054.60 0.07679
1054.70 0.07675
1054.80 0.07671
1054.90 0.07668
1055.00 0.07664
1055.10 0.0766
1055.20 0.07656
1055.30 0.07652
1055.40 0.07648
1055.50 0.07645
1055.60 0.07641
1055.70 0.07637
1055.80 0.07633
1055.90 0.07629
1056.00 0.07625
1056.10 0.07622
1056.20 0.07618
1056.30 0.07614
1056.40 0.0761
1056.50 0.07606
1056.60 0.07603
1056.70 0.07599
1056.80 0.07595
1056.90 0.07591
1057.00 0.07587
1057.10 0.07584
1057.20 0.07581
1057.30 0.07577
1057.40 0.07574
1057.50 0.07571
1057.60 0.07567
1057.70 0.07564
1057.80 0.07561
1057.90 0.07557
1058.00 0.07554
1058.10 0.07551
1058.20 0.07547
1058.30 0.07544
1058.40 0.07541
1058.50 0.07537
1058.60 0.07534
1058.70 0.07531
1058.80 0.07528
1058.90 0.07524
1059.00 0.07521
1059.10 0.07518
1059.20 0.07514
1059.30 0.07511
1059.40 0.07508
1059.50 0.07504
1059.60 0.07501
1059.70 0.07498
1059.80 0.07494
1059.90 0.07491
1060.00 0.07488
1060.10 0.07485
1060.20 0.07481
1060.30 0.07478
1060.40 0.07475
1060.50 0.07471
1060.60 0.07468
1060.70 0.07465
1060.80 0.07462
1060.90 0.07458
1061.00 0.07455
1061.10 0.07452
1061.20 0.07448
1061.30 0.07445
1061.40 0.07442
1061.50 0.07439
1061.60 0.07435
1061.70 0.07432
1061.80 0.07429
1061.90 0.07425
1062.00 0.07422
1062.10 0.07419
1062.20 0.07417
1062.30 0.07414
1062.40 0.07411
1062.50 0.07408
1062.60 0.07405
1062.70 0.07403
1062.80 0.074
1062.90 0.07397
1063.00 0.07394
1063.10 0.07391
1063.20 0.07389
1063.30 0.07386
1063.40 0.07383
1063.50 0.0738
1063.60 0.07377
1063.70 0.07374
1063.80 0.07372
1063.90 0.07369
1064.00 0.07366
1064.10 0.07363
1064.20 0.07361
1064.30 0.07358
1064.40 0.07355
1064.50 0.07352
1064.60 0.07349
1064.70 0.07347
1064.80 0.07344
1064.90 0.07341
1065.00 0.07338
1065.10 0.07335
1065.20 0.07333
1065.30 0.0733
1065.40 0.07327
1065.50 0.07324
1065.60 0.07321
1065.70 0.07319
1065.80 0.07316
1065.90 0.07313
1066.00 0.0731
1066.10 0.07308
1066.20 0.07305
1066.30 0.07302
1066.40 0.07299
1066.50 0.07296
1066.60 0.07294
1066.70 0.07291
1066.80 0.07288
1066.90 0.07285
1067.00 0.07283
1067.10 0.0728
1067.20 0.07278
1067.30 0.07276
1067.40 0.07273
1067.50 0.07271
1067.60 0.07268
1067.70 0.07266
1067.80 0.07264
1067.90 0.07261
1068.00 0.07259
1068.10 0.07257
1068.20 0.07254
1068.30 0.07252
1068.40 0.07249
1068.50 0.07247
1068.60 0.07245
1068.70 0.07242
1068.80 0.0724
1068.90 0.07238
1069.00 0.07235
1069.10 0.07233
1069.20 0.07231
1069.30 0.07228
1069.40 0.07226
1069.50 0.07223
1069.60 0.07221
1069.70 0.07219
1069.80 0.07216
1069.90 0.07214
1070.00 0.07212
1070.10 0.07209
1070.20 0.07207
1070.30 0.07205
1070.40 0.07202
1070.50 0.072
1070.60 0.07198
1070.70 0.07195
1070.80 0.07193
1070.90 0.07191
1071.00 0.07188
1071.10 0.07186
1071.20 0.07184
1071.30 0.07181
1071.40 0.07179
1071.50 0.07177
1071.60 0.07174
1071.70 0.07172
1071.80 0.07169
1071.90 0.07167
1072.00 0.07165
1072.10 0.07163
1072.20 0.07161
1072.30 0.07159
1072.40 0.07157
1072.50 0.07155
1072.60 0.07153
1072.70 0.07151
1072.80 0.07149
1072.90 0.07147
1073.00 0.07145
1073.10 0.07143
1073.20 0.07141
1073.30 0.0714
1073.40 0.07138
1073.50 0.07136
1073.60 0.07134
1073.70 0.07132
1073.80 0.07131
1073.90 0.07129
1074.00 0.07127
1074.10 0.07126
1074.20 0.07124
1074.30 0.07122
1074.40 0.07121
1074.50 0.07119
1074.60 0.07117
1074.70 0.07116
1074.80 0.07114
1074.90 0.07112
1075.00 0.07111
1075.10 0.07109
1075.20 0.07107
1075.30 0.07106
1075.40 0.07104
1075.50 0.07102
1075.60 0.07101
1075.70 0.07099
1075.80 0.07097
1075.90 0.07096
1076.00 0.07094
1076.10 0.07092
1076.20 0.07091
1076.30 0.07089
1076.40 0.07087
1076.50 0.07086
1076.60 0.07084
1076.70 0.07082
1076.80 0.07081
1076.90 0.07079
1077.00 0.07077
1077.10 0.07076
1077.20 0.07074
1077.30 0.07073
1077.40 0.07071
1077.50 0.0707
1077.60 0.07069
1077.70 0.07067
1077.80 0.07066
1077.90 0.07065
1078.00 0.07063
1078.10 0.07062
1078.20 0.07061
1078.30 0.0706
1078.40 0.07058
1078.50 0.07057
1078.60 0.07056
1078.70 0.07054
1078.80 0.07053
1078.90 0.07052
1079.00 0.0705
1079.10 0.07049
1079.20 0.07048
1079.30 0.07046
1079.40 0.07045
1079.50 0.07044
1079.60 0.07043
1079.70 0.07042
1079.80 0.07041
1079.90 0.0704
1080.00 0.07039
1080.10 0.07038
1080.20 0.07037
1080.30 0.07036
1080.40 0.07035
1080.50 0.07034
1080.60 0.07033
1080.70 0.07032
1080.80 0.07031
1080.90 0.0703
1081.00 0.07029
1081.10 0.07028
1081.20 0.07027
1081.30 0.07026
1081.40 0.07025
1081.50 0.07024
1081.60 0.07023
1081.70 0.07022
1081.80 0.07021
1081.90 0.0702
1082.00 0.07019
1082.10 0.07019
1082.20 0.07018
1082.30 0.07017
1082.40 0.07016
1082.50 0.07015
1082.60 0.07014
1082.70 0.07013
1082.80 0.07012
1082.90 0.07011
1083.00 0.0701
1083.10 0.0701
1083.20 0.07009
1083.30 0.07008
1083.40 0.07007
1083.50 0.07006
1083.60 0.07005
1083.70 0.07004
1083.80 0.07004
1083.90 0.07003
1084.00 0.07002
1084.10 0.07001
1084.20 0.07001
1084.30 0.07
1084.40 0.06999
1084.50 0.06998
1084.60 0.06998
1084.70 0.06997
1084.80 0.06996
1084.90 0.06996
1085.00 0.06995
1085.10 0.06994
1085.20 0.06994
1085.30 0.06993
1085.40 0.06993
1085.50 0.06992
1085.60 0.06991
1085.70 0.06991
1085.80 0.0699
1085.90 0.06989
1086.00 0.06989
1086.10 0.06988
1086.20 0.06987
1086.30 0.06987
1086.40 0.06986
1086.50 0.06985
1086.60 0.06985
1086.70 0.06984
1086.80 0.06984
1086.90 0.06983
1087.00 0.06983
1087.10 0.06982
1087.20 0.06982
1087.30 0.06981
1087.40 0.06981
1087.50 0.06981
1087.60 0.0698
1087.70 0.0698
1087.80 0.06979
1087.90 0.06979
1088.00 0.06978
1088.10 0.06978
1088.20 0.06977
1088.30 0.06977
1088.40 0.06977
1088.50 0.06976
1088.60 0.06976
1088.70 0.06976
1088.80 0.06975
1088.90 0.06975
1089.00 0.06975
1089.10 0.06974
1089.20 0.06974
1089.30 0.06974
1089.40 0.06974
1089.50 0.06973
1089.60 0.06973
1089.70 0.06973
1089.80 0.06972
1089.90 0.06972
1090.00 0.06972
1090.10 0.06972
1090.20 0.06971
1090.30 0.06971
1090.40 0.06971
1090.50 0.0697
1090.60 0.0697
1090.70 0.0697
1090.80 0.0697
1090.90 0.0697
1091.00 0.0697
1091.10 0.0697
1091.20 0.06969
1091.30 0.06969
1091.40 0.06969
1091.50 0.06969
1091.60 0.06969
1091.70 0.06969
1091.80 0.06969
1091.90 0.06968
1092.00 0.06968
1092.10 0.06968
1092.20 0.06968
1092.30 0.06968
1092.40 0.06968
1092.50 0.06968
1092.60 0.06968
1092.70 0.06968
1092.80 0.0697
1092.90 0.06972
1093.00 0.06973
1093.10 0.06974
1093.20 0.06974
1093.30 0.06974
1093.40 0.06974
1093.50 0.06974
1093.60 0.06974
1093.70 0.06974
1093.80 0.06974
1093.90 0.06974
1094.00 0.06974
1094.10 0.06975
1094.20 0.06975
1094.30 0.06975
1094.40 0.06975
1094.50 0.06975
1094.60 0.06975
1094.70 0.06975
1094.80 0.06975
1094.90 0.06975
1095.00 0.06975
1095.10 0.06976
1095.20 0.06976
1095.30 0.06976
1095.40 0.06976
1095.50 0.06976
1095.60 0.06976
1095.70 0.06976
1095.80 0.06977
1095.90 0.06977
1096.00 0.06977
1096.10 0.06977
1096.20 0.06977
1096.30 0.06977
1096.40 0.06978
1096.50 0.06978
1096.60 0.06978
1096.70 0.06978
1096.80 0.06978
1096.90 0.06978
1097.00 0.06979
1097.10 0.06979
1097.20 0.06979
1097.30 0.06979
1097.40 0.0698
1097.50 0.0698
1097.60 0.0698
1097.70 0.0698
1097.80 0.06981
1097.90 0.06981
1098.00 0.06981
1098.10 0.06982
1098.20 0.06982
1098.30 0.06982
1098.40 0.06982
1098.50 0.06983
1098.60 0.06983
1098.70 0.06983
1098.80 0.06984
1098.90 0.06984
1099.00 0.06984
1099.10 0.06985
1099.20 0.06985
1099.30 0.06985
1099.40 0.06986
1099.50 0.06986
1099.60 0.06986
1099.70 0.06987
1099.80 0.06987
1099.90 0.06987
1100.00 0.06988
1100.10 0.06988
1100.20 0.06988
1100.30 0.06989
1100.40 0.06989
1100.50 0.06989
1100.60 0.0699
1100.70 0.0699
1100.80 0.06991
1100.90 0.06991
1101.00 0.06992
1101.10 0.06992
1101.20 0.06992
1101.30 0.06993
1101.40 0.06993
1101.50 0.06994
1101.60 0.06994
1101.70 0.06995
1101.80 0.06995
1101.90 0.06995
1102.00 0.06996
1102.10 0.06996
1102.20 0.06997
1102.30 0.06997
1102.40 0.06998
1102.50 0.06998
1102.60 0.06999
1102.70 0.06999
1102.80 0.07
1102.90 0.07
1103.00 0.07001
1103.10 0.07001
1103.20 0.07002
1103.30 0.07002
1103.40 0.07003
1103.50 0.07003
1103.60 0.07004
1103.70 0.07005
1103.80 0.07005
1103.90 0.07006
1104.00 0.07007
1104.10 0.07007
1104.20 0.07008
1104.30 0.07009
1104.40 0.07009
1104.50 0.0701
1104.60 0.07011
1104.70 0.07011
1104.80 0.07012
1104.90 0.07013
1105.00 0.07013
1105.10 0.07014
1105.20 0.07015
1105.30 0.07015
1105.40 0.07016
1105.50 0.07017
1105.60 0.07017
1105.70 0.07018
1105.80 0.07019
1105.90 0.07019
1106.00 0.0702
1106.10 0.07021
1106.20 0.07021
1106.30 0.07022
1106.40 0.07023
1106.50 0.07023
1106.60 0.07024
1106.70 0.07025
1106.80 0.07025
1106.90 0.07026
1107.00 0.07027
1107.10 0.07027
1107.20 0.07028
1107.30 0.07029
1107.40 0.07029
1107.50 0.0703
1107.60 0.07031
1107.70 0.07032
1107.80 0.07033
1107.90 0.07033
1108.00 0.07034
1108.10 0.07035
1108.20 0.07036
1108.30 0.07036
1108.40 0.07037
1108.50 0.07038
1108.60 0.07039
1108.70 0.07039
1108.80 0.0704
1108.90 0.07041
1109.00 0.07042
1109.10 0.07042
1109.20 0.07043
1109.30 0.07044
1109.40 0.07045
1109.50 0.07045
1109.60 0.07046
1109.70 0.07047
1109.80 0.07048
1109.90 0.07049
1110.00 0.0705
1110.10 0.07051
1110.20 0.07051
1110.30 0.07052
1110.40 0.07053
1110.50 0.07054
1110.60 0.07055
1110.70 0.07056
1110.80 0.07057
1110.90 0.07057
1111.00 0.07058
1111.10 0.07059
1111.20 0.0706
1111.30 0.07061
1111.40 0.07062
1111.50 0.07063
1111.60 0.07063
1111.70 0.07064
1111.80 0.07065
1111.90 0.07066
1112.00 0.07067
1112.10 0.07068
1112.20 0.07069
1112.30 0.0707
1112.40 0.07071
1112.50 0.07072
1112.60 0.07073
1112.70 0.07073
1112.80 0.07074
1112.90 0.07075
1113.00 0.07076
1113.10 0.07077
1113.20 0.07078
1113.30 0.07079
1113.40 0.0708
1113.50 0.07081
1113.60 0.07082
1113.70 0.07083
1113.80 0.07084
1113.90 0.07085
1114.00 0.07086
1114.10 0.07087
1114.20 0.07088
1114.30 0.07089
1114.40 0.0709
1114.50 0.07091
1114.60 0.07092
1114.70 0.07094
1114.80 0.07095
1114.90 0.07096
1115.00 0.07097
1115.10 0.07098
1115.20 0.07099
1115.30 0.071
1115.40 0.07101
1115.50 0.07102
1115.60 0.07103
1115.70 0.07104
1115.80 0.07105
1115.90 0.07106
1116.00 0.07107
1116.10 0.07108
1116.20 0.07109
1116.30 0.0711
1116.40 0.07111
1116.50 0.07112
1116.60 0.07113
1116.70 0.07114
1116.80 0.07115
1116.90 0.07116
1117.00 0.07117
1117.10 0.07119
1117.20 0.0712
1117.30 0.07121
1117.40 0.07122
1117.50 0.07124
1117.60 0.07125
1117.70 0.07126
1117.80 0.07127
1117.90 0.07128
1118.00 0.0713
1118.10 0.07131
1118.20 0.07132
1118.30 0.07133
1118.40 0.07135
1118.50 0.07136
1118.60 0.07137
1118.70 0.07138
1118.80 0.07139
1118.90 0.07141
1119.00 0.07142
1119.10 0.07143
1119.20 0.07144
1119.30 0.07146
1119.40 0.07147
1119.50 0.07148
1119.60 0.07149
1119.70 0.0715
1119.80 0.07152
1119.90 0.07153
1120.00 0.07154
1120.10 0.07155
1120.20 0.07156
1120.30 0.07158
1120.40 0.07159
1120.50 0.0716
1120.60 0.07161
1120.70 0.07163
1120.80 0.07164
1120.90 0.07165
1121.00 0.07166
1121.10 0.07167
1121.20 0.07169
1121.30 0.0717
1121.40 0.07171
1121.50 0.07172
1121.60 0.07173
1121.70 0.07175
1121.80 0.07176
1121.90 0.07177
1122.00 0.07178
1122.10 0.0718
1122.20 0.07181
1122.30 0.07183
1122.40 0.07184
1122.50 0.07185
1122.60 0.07187
1122.70 0.07188
1122.80 0.0719
1122.90 0.07191
1123.00 0.07193
1123.10 0.07194
1123.20 0.07195
1123.30 0.07197
1123.40 0.07198
1123.50 0.072
1123.60 0.07201
1123.70 0.07203
1123.80 0.07204
1123.90 0.07205
1124.00 0.07207
1124.10 0.07208
1124.20 0.0721
1124.30 0.07211
1124.40 0.07212
1124.50 0.07214
1124.60 0.07215
1124.70 0.07217
1124.80 0.07218
1124.90 0.0722
1125.00 0.07221
1125.10 0.07222
1125.20 0.07224
1125.30 0.07225
1125.40 0.07227
1125.50 0.07228
1125.60 0.07229
1125.70 0.07231
1125.80 0.07232
1125.90 0.07234
1126.00 0.07235
1126.10 0.07237
1126.20 0.07238
1126.30 0.07239
1126.40 0.07241
1126.50 0.07242
1126.60 0.07244
1126.70 0.07245
1126.80 0.07246
1126.90 0.07248
1127.00 0.07249
1127.10 0.07251
1127.20 0.07253
1127.30 0.07255
1127.40 0.07256
1127.50 0.07258
1127.60 0.0726
1127.70 0.07262
1127.80 0.07263
1127.90 0.07265
1128.00 0.07267
1128.10 0.07269
1128.20 0.0727
1128.30 0.07272
1128.40 0.07274
1128.50 0.07276
1128.60 0.07278
1128.70 0.07279
1128.80 0.07281
1128.90 0.07283
1129.00 0.07285
1129.10 0.07286
1129.20 0.07288
1129.30 0.0729
1129.40 0.07292
1129.50 0.07293
1129.60 0.07295
1129.70 0.07297
1129.80 0.07299
1129.90 0.073
1130.00 0.07302
1130.10 0.07304
1130.20 0.07306
1130.30 0.07307
1130.40 0.07309
1130.50 0.07311
1130.60 0.07313
1130.70 0.07314
1130.80 0.07316
1130.90 0.07318
1131.00 0.0732
1131.10 0.07321
1131.20 0.07323
1131.30 0.07325
1131.40 0.07327
1131.50 0.07328
1131.60 0.0733
1131.70 0.07332
1131.80 0.07334
1131.90 0.07335
1132.00 0.07337
1132.10 0.07339
1132.20 0.0734
1132.30 0.07342
1132.40 0.07344
1132.50 0.07345
1132.60 0.07347
1132.70 0.07349
1132.80 0.0735
1132.90 0.07352
1133.00 0.07354
1133.10 0.07355
1133.20 0.07357
1133.30 0.07359
1133.40 0.0736
1133.50 0.07362
1133.60 0.07364
1133.70 0.07365
1133.80 0.07367
1133.90 0.07369
1134.00 0.0737
1134.10 0.07372
1134.20 0.07374
1134.30 0.07375
1134.40 0.07377
1134.50 0.07379
1134.60 0.0738
1134.70 0.07382
1134.80 0.07383
1134.90 0.07385
1135.00 0.07387
1135.10 0.07388
1135.20 0.0739
1135.30 0.07392
1135.40 0.07393
1135.50 0.07395
1135.60 0.07397
1135.70 0.07398
1135.80 0.074
1135.90 0.07402
1136.00 0.07403
1136.10 0.07405
1136.20 0.07406
1136.30 0.07408
1136.40 0.0741
1136.50 0.07411
1136.60 0.07413
1136.70 0.07415
1136.80 0.07416
1136.90 0.07418
1137.00 0.0742
1137.10 0.07421
1137.20 0.07423
1137.30 0.07425
1137.40 0.07426
1137.50 0.07428
1137.60 0.0743
1137.70 0.07431
1137.80 0.07433
1137.90 0.07435
1138.00 0.07436
1138.10 0.07438
1138.20 0.0744
1138.30 0.07441
1138.40 0.07443
1138.50 0.07445
1138.60 0.07447
1138.70 0.07448
1138.80 0.0745
1138.90 0.07452
1139.00 0.07453
1139.10 0.07455
1139.20 0.07457
1139.30 0.07458
1139.40 0.0746
1139.50 0.07462
1139.60 0.07463
1139.70 0.07465
1139.80 0.07467
1139.90 0.07468
1140.00 0.0747
1140.10 0.07472
1140.20 0.07473
1140.30 0.07475
1140.40 0.07477
1140.50 0.07478
1140.60 0.0748
1140.70 0.07482
1140.80 0.07483
1140.90 0.07485
1141.00 0.07487
1141.10 0.07488
1141.20 0.0749
1141.30 0.07492
1141.40 0.07493
1141.50 0.07495
1141.60 0.07497
1141.70 0.07498
1141.80 0.075
1141.90 0.07502
1142.00 0.07503
1142.10 0.07505
1142.20 0.07507
1142.30 0.07509
1142.40 0.0751
1142.50 0.07512
1142.60 0.07514
1142.70 0.07516
1142.80 0.07518
1142.90 0.0752
1143.00 0.07521
1143.10 0.07523
1143.20 0.07525
1143.30 0.07527
1143.40 0.07529
1143.50 0.0753
1143.60 0.07532
1143.70 0.07534
1143.80 0.07536
1143.90 0.07538
1144.00 0.07539
1144.10 0.07541
1144.20 0.07543
1144.30 0.07545
1144.40 0.07547
1144.50 0.07548
1144.60 0.0755
1144.70 0.07552
1144.80 0.07554
1144.90 0.07555
1145.00 0.07557
1145.10 0.07559
1145.20 0.07561
1145.30 0.07563
1145.40 0.07564
1145.50 0.07566
1145.60 0.07568
1145.70 0.0757
1145.80 0.07572
1145.90 0.07573
1146.00 0.07575
1146.10 0.07577
1146.20 0.07579
1146.30 0.0758
1146.40 0.07582
1146.50 0.07584
1146.60 0.07586
1146.70 0.07588
1146.80 0.07589
1146.90 0.07591
1147.00 0.07593
1147.10 0.07594
1147.20 0.07596
1147.30 0.07597
1147.40 0.07599
1147.50 0.076
1147.60 0.07602
1147.70 0.07603
1147.80 0.07604
1147.90 0.07606
1148.00 0.07607
1148.10 0.07609
1148.20 0.0761
1148.30 0.07612
1148.40 0.07613
1148.50 0.07614
1148.60 0.07616
1148.70 0.07617
1148.80 0.07619
1148.90 0.0762
1149.00 0.07622
1149.10 0.07623
1149.20 0.07624
1149.30 0.07626
1149.40 0.07627
1149.50 0.07629
1149.60 0.0763
1149.70 0.07631
1149.80 0.07633
1149.90 0.07634
1150.00 0.07636
1150.10 0.07637
1150.20 0.07639
1150.30 0.0764
1150.40 0.07641
1150.50 0.07643
1150.60 0.07644
1150.70 0.07646
1150.80 0.07647
1150.90 0.07648
1151.00 0.0765
1151.10 0.07651
1151.20 0.07653
1151.30 0.07654
1151.40 0.07655
1151.50 0.07657
1151.60 0.07658
1151.70 0.0766
1151.80 0.07661
1151.90 0.07663
1152.00 0.07664
1152.10 0.07665
1152.20 0.07667
1152.30 0.07668
1152.40 0.07669
1152.50 0.07671
1152.60 0.07672
1152.70 0.07674
1152.80 0.07675
1152.90 0.07676
1153.00 0.07678
1153.10 0.07679
1153.20 0.0768
1153.30 0.07682
1153.40 0.07683
1153.50 0.07684
1153.60 0.07686
1153.70 0.07687
1153.80 0.07689
1153.90 0.0769
1154.00 0.07691
1154.10 0.07693
1154.20 0.07694
1154.30 0.07695
1154.40 0.07697
1154.50 0.07698
1154.60 0.07699
1154.70 0.07701
1154.80 0.07702
1154.90 0.07704
1155.00 0.07705
1155.10 0.07706
1155.20 0.07708
1155.30 0.07709
1155.40 0.0771
1155.50 0.07712
1155.60 0.07713
1155.70 0.07714
1155.80 0.07716
1155.90 0.07717
1156.00 0.07718
1156.10 0.0772
1156.20 0.07721
1156.30 0.07723
1156.40 0.07724
1156.50 0.07725
1156.60 0.07727
1156.70 0.07728
1156.80 0.07729
1156.90 0.07731
1157.00 0.07732
1157.10 0.07733
1157.20 0.07734
1157.30 0.07735
1157.40 0.07736
1157.50 0.07737
1157.60 0.07738
1157.70 0.07739
1157.80 0.0774
1157.90 0.0774
1158.00 0.07741
1158.10 0.07742
1158.20 0.07743
1158.30 0.07744
1158.40 0.07745
1158.50 0.07746
1158.60 0.07747
1158.70 0.07748
1158.80 0.07749
1158.90 0.0775
1159.00 0.07751
1159.10 0.07752
1159.20 0.07753
1159.30 0.07754
1159.40 0.07754
1159.50 0.07755
1159.60 0.07756
1159.70 0.07757
1159.80 0.07758
1159.90 0.07759
1160.00 0.0776
1160.10 0.07761
1160.20 0.07762
1160.30 0.07763
1160.40 0.07764
1160.50 0.07765
1160.60 0.07766
1160.70 0.07767
1160.80 0.07767
1160.90 0.07768
1161.00 0.07769
1161.10 0.0777
1161.20 0.07771
1161.30 0.07772
1161.40 0.07773
1161.50 0.07774
1161.60 0.07775
1161.70 0.07776
1161.80 0.07777
1161.90 0.07778
1162.00 0.07779
1162.10 0.07779
1162.20 0.0778
1162.30 0.0778
1162.40 0.07781
1162.50 0.07782
1162.60 0.07782
1162.70 0.07783
1162.80 0.07783
1162.90 0.07784
1163.00 0.07785
1163.10 0.07785
1163.20 0.07786
1163.30 0.07786
1163.40 0.07787
1163.50 0.07788
1163.60 0.07788
1163.70 0.07789
1163.80 0.0779
1163.90 0.0779
1164.00 0.07791
1164.10 0.07791
1164.20 0.07792
1164.30 0.07793
1164.40 0.07793
1164.50 0.07794
1164.60 0.07794
1164.70 0.07795
1164.80 0.07796
1164.90 0.07796
1165.00 0.07797
1165.10 0.07797
1165.20 0.07798
1165.30 0.07799
1165.40 0.07799
1165.50 0.078
1165.60 0.078
1165.70 0.07801
1165.80 0.07802
1165.90 0.07802
1166.00 0.07803
1166.10 0.07803
1166.20 0.07804
1166.30 0.07805
1166.40 0.07805
1166.50 0.07806
1166.60 0.07806
1166.70 0.07807
1166.80 0.07808
1166.90 0.07808
1167.00 0.07809
1167.10 0.07809
1167.20 0.0781
1167.30 0.0781
1167.40 0.0781
1167.50 0.07811
1167.60 0.07811
1167.70 0.07812
1167.80 0.07812
1167.90 0.07812
1168.00 0.07813
1168.10 0.07813
1168.20 0.07814
1168.30 0.07814
1168.40 0.07814
1168.50 0.07815
1168.60 0.07815
1168.70 0.07815
1168.80 0.07816
1168.90 0.07816
1169.00 0.07817
1169.10 0.07817
1169.20 0.07817
1169.30 0.07818
1169.40 0.07818
1169.50 0.07819
1169.60 0.07819
1169.70 0.07819
1169.80 0.0782
1169.90 0.0782
1170.00 0.07821
1170.10 0.07821
1170.20 0.07821
1170.30 0.07822
1170.40 0.07822
1170.50 0.07822
1170.60 0.07823
1170.70 0.07823
1170.80 0.07824
1170.90 0.07824
1171.00 0.07824
1171.10 0.07825
1171.20 0.07825
1171.30 0.07826
1171.40 0.07826
1171.50 0.07826
1171.60 0.07827
1171.70 0.07827
1171.80 0.07827
1171.90 0.07828
1172.00 0.07828
1172.10 0.07828
1172.20 0.07828
1172.30 0.07828
1172.40 0.07828
1172.50 0.07827
1172.60 0.07827
1172.70 0.07827
1172.80 0.07827
1172.90 0.07827
1173.00 0.07827
1173.10 0.07827
1173.20 0.07826
1173.30 0.07826
1173.40 0.07826
1173.50 0.07826
1173.60 0.07826
1173.70 0.07826
1173.80 0.07825
1173.90 0.07825
1174.00 0.07825
1174.10 0.07825
1174.20 0.07825
1174.30 0.07825
1174.40 0.07825
1174.50 0.07824
1174.60 0.07824
1174.70 0.07824
1174.80 0.07824
1174.90 0.07824
1175.00 0.07824
1175.10 0.07823
1175.20 0.07823
1175.30 0.07823
1175.40 0.07823
1175.50 0.07823
1175.60 0.07823
1175.70 0.07823
1175.80 0.07822
1175.90 0.07822
1176.00 0.07822
1176.10 0.07822
1176.20 0.07822
1176.30 0.07822
1176.40 0.07821
1176.50 0.07821
1176.60 0.07821
1176.70 0.07821
1176.80 0.07821
1176.90 0.07821
1177.00 0.07821
1177.10 0.0782
1177.20 0.07819
1177.30 0.07819
1177.40 0.07818
1177.50 0.07818
1177.60 0.07817
1177.70 0.07816
1177.80 0.07816
1177.90 0.07815
1178.00 0.07815
1178.10 0.07814
1178.20 0.07814
1178.30 0.07813
1178.40 0.07812
1178.50 0.07812
1178.60 0.07811
1178.70 0.07811
1178.80 0.0781
1178.90 0.07809
1179.00 0.07809
1179.10 0.07808
1179.20 0.07808
1179.30 0.07807
1179.40 0.07807
1179.50 0.07806
1179.60 0.07805
1179.70 0.07805
1179.80 0.07804
1179.90 0.07804
1180.00 0.07803
1180.10 0.07802
1180.20 0.07802
1180.30 0.07801
1180.40 0.07801
1180.50 0.078
1180.60 0.078
1180.70 0.07799
1180.80 0.07798
1180.90 0.07798
1181.00 0.07797
1181.10 0.07797
1181.20 0.07796
1181.30 0.07795
1181.40 0.07795
1181.50 0.07794
1181.60 0.07794
1181.70 0.07793
1181.80 0.07793
1181.90 0.07792
1182.00 0.07791
1182.10 0.0779
1182.20 0.07789
1182.30 0.07788
1182.40 0.07787
1182.50 0.07786
1182.60 0.07784
1182.70 0.07783
1182.80 0.07782
1182.90 0.07781
1183.00 0.0778
1183.10 0.07778
1183.20 0.07777
1183.30 0.07776
1183.40 0.07775
1183.50 0.07774
1183.60 0.07773
1183.70 0.07771
1183.80 0.0777
1183.90 0.07769
1184.00 0.07768
1184.10 0.07767
1184.20 0.07766
1184.30 0.07764
1184.40 0.07763
1184.50 0.07762
1184.60 0.07761
1184.70 0.0776
1184.80 0.07759
1184.90 0.07758
1185.00 0.07756
1185.10 0.07755
1185.20 0.07754
1185.30 0.07753
1185.40 0.07752
1185.50 0.07751
1185.60 0.07749
1185.70 0.07748
1185.80 0.07747
1185.90 0.07746
1186.00 0.07745
1186.10 0.07744
1186.20 0.07742
1186.30 0.07741
1186.40 0.0774
1186.50 0.07739
1186.60 0.07738
1186.70 0.07737
1186.80 0.07735
1186.90 0.07734
1187.00 0.07733
1187.10 0.07732
1187.20 0.07731
1187.30 0.0773
1187.40 0.07729
1187.50 0.07728
1187.60 0.07727
1187.70 0.07726
1187.80 0.07724
1187.90 0.07723
1188.00 0.07722
1188.10 0.07721
1188.20 0.0772
1188.30 0.07719
1188.40 0.07718
1188.50 0.07717
1188.60 0.07716
1188.70 0.07715
1188.80 0.07714
1188.90 0.07712
1189.00 0.07711
1189.10 0.0771
1189.20 0.07709
1189.30 0.07708
1189.40 0.07707
1189.50 0.07706
1189.60 0.07705
1189.70 0.07704
1189.80 0.07703
1189.90 0.07702
1190.00 0.07701
1190.10 0.07699
1190.20 0.07698
1190.30 0.07697
1190.40 0.07696
1190.50 0.07695
1190.60 0.07694
1190.70 0.07693
1190.80 0.07692
1190.90 0.07691
1191.00 0.0769
1191.10 0.07689
1191.20 0.07688
1191.30 0.07686
1191.40 0.07685
1191.50 0.07684
1191.60 0.07683
1191.70 0.07682
1191.80 0.07681
1191.90 0.0768
1192.00 0.07679
1192.10 0.07678
1192.20 0.07676
1192.30 0.07675
1192.40 0.07674
1192.50 0.07673
1192.60 0.07672
1192.70 0.0767
1192.80 0.07669
1192.90 0.07668
1193.00 0.07667
1193.10 0.07665
1193.20 0.07664
1193.30 0.07663
1193.40 0.07662
1193.50 0.0766
1193.60 0.07659
1193.70 0.07658
1193.80 0.07657
1193.90 0.07656
1194.00 0.07654
1194.10 0.07653
1194.20 0.07652
1194.30 0.07651
1194.40 0.07649
1194.50 0.07648
1194.60 0.07647
1194.70 0.07646
1194.80 0.07644
1194.90 0.07643
1195.00 0.07642
1195.10 0.07641
1195.20 0.0764
1195.30 0.07638
1195.40 0.07637
1195.50 0.07636
1195.60 0.07635
1195.70 0.07633
1195.80 0.07632
1195.90 0.07631
1196.00 0.0763
1196.10 0.07629
1196.20 0.07627
1196.30 0.07626
1196.40 0.07625
1196.50 0.07624
1196.60 0.07622
1196.70 0.07621
1196.80 0.0762
1196.90 0.07619
1197.00 0.07618
1197.10 0.07616
1197.20 0.07614
1197.30 0.07613
1197.40 0.07611
1197.50 0.07609
1197.60 0.07608
1197.70 0.07606
1197.80 0.07605
1197.90 0.07603
1198.00 0.07601
1198.10 0.076
1198.20 0.07598
1198.30 0.07597
1198.40 0.07595
1198.50 0.07593
1198.60 0.07592
1198.70 0.0759
1198.80 0.07589
1198.90 0.07587
1199.00 0.07585
1199.10 0.07584
1199.20 0.07582
1199.30 0.07581
1199.40 0.07579
1199.50 0.07577
1199.60 0.07576
1199.70 0.07574
1199.80 0.07573
1199.90 0.07571
1200.00 0
