# Version 2.1 - nm, norm@500 to 1, cut digits, bergeron_70000_90.dat_70000
# Wavelength(nm)  Flambda(ergs/cm^s/s/nm)
300.00 6.583
300.10 6.575
300.20 6.567
300.30 6.559
300.40 6.551
300.50 6.543
300.60 6.535
300.70 6.527
300.80 6.519
300.90 6.511
301.00 6.503
301.10 6.495
301.20 6.487
301.30 6.479
301.40 6.471
301.50 6.463
301.60 6.455
301.70 6.447
301.80 6.439
301.90 6.431
302.00 6.423
302.10 6.415
302.20 6.407
302.30 6.4
302.40 6.392
302.50 6.384
302.60 6.376
302.70 6.368
302.80 6.36
302.90 6.353
303.00 6.345
303.10 6.337
303.20 6.329
303.30 6.322
303.40 6.314
303.50 6.306
303.60 6.298
303.70 6.291
303.80 6.283
303.90 6.275
304.00 6.268
304.10 6.26
304.20 6.253
304.30 6.245
304.40 6.237
304.50 6.23
304.60 6.222
304.70 6.215
304.80 6.207
304.90 6.199
305.00 6.192
305.10 6.184
305.20 6.177
305.30 6.169
305.40 6.162
305.50 6.154
305.60 6.147
305.70 6.139
305.80 6.132
305.90 6.125
306.00 6.117
306.10 6.11
306.20 6.102
306.30 6.095
306.40 6.088
306.50 6.08
306.60 6.073
306.70 6.065
306.80 6.058
306.90 6.051
307.00 6.044
307.10 6.036
307.20 6.029
307.30 6.022
307.40 6.014
307.50 6.007
307.60 6
307.70 5.993
307.80 5.985
307.90 5.978
308.00 5.971
308.10 5.964
308.20 5.957
308.30 5.949
308.40 5.942
308.50 5.935
308.60 5.928
308.70 5.921
308.80 5.914
308.90 5.907
309.00 5.9
309.10 5.892
309.20 5.885
309.30 5.878
309.40 5.871
309.50 5.864
309.60 5.857
309.70 5.85
309.80 5.843
309.90 5.836
310.00 5.829
310.10 5.822
310.20 5.815
310.30 5.808
310.40 5.801
310.50 5.794
310.60 5.787
310.70 5.781
310.80 5.774
310.90 5.767
311.00 5.76
311.10 5.753
311.20 5.746
311.30 5.739
311.40 5.732
311.50 5.726
311.60 5.719
311.70 5.712
311.80 5.705
311.90 5.698
312.00 5.692
312.10 5.685
312.20 5.678
312.30 5.671
312.40 5.665
312.50 5.658
312.60 5.651
312.70 5.644
312.80 5.638
312.90 5.631
313.00 5.624
313.10 5.618
313.20 5.611
313.30 5.604
313.40 5.598
313.50 5.591
313.60 5.584
313.70 5.578
313.80 5.571
313.90 5.565
314.00 5.558
314.10 5.551
314.20 5.545
314.30 5.538
314.40 5.532
314.50 5.525
314.60 5.519
314.70 5.512
314.80 5.506
314.90 5.499
315.00 5.493
315.10 5.486
315.20 5.48
315.30 5.473
315.40 5.467
315.50 5.46
315.60 5.454
315.70 5.448
315.80 5.441
315.90 5.435
316.00 5.428
316.10 5.422
316.20 5.416
316.30 5.409
316.40 5.403
316.50 5.396
316.60 5.39
316.70 5.384
316.80 5.378
316.90 5.371
317.00 5.365
317.10 5.359
317.20 5.352
317.30 5.346
317.40 5.34
317.50 5.334
317.60 5.327
317.70 5.321
317.80 5.315
317.90 5.309
318.00 5.302
318.10 5.296
318.20 5.29
318.30 5.284
318.40 5.278
318.50 5.272
318.60 5.265
318.70 5.259
318.80 5.253
318.90 5.247
319.00 5.241
319.10 5.235
319.20 5.229
319.30 5.223
319.40 5.217
319.50 5.21
319.60 5.204
319.70 5.198
319.80 5.192
319.90 5.186
320.00 5.18
320.10 5.174
320.20 5.168
320.30 5.162
320.40 5.156
320.50 5.15
320.60 5.144
320.70 5.138
320.80 5.132
320.90 5.126
321.00 5.12
321.10 5.114
321.20 5.109
321.30 5.103
321.40 5.097
321.50 5.091
321.60 5.085
321.70 5.079
321.80 5.073
321.90 5.067
322.00 5.062
322.10 5.056
322.20 5.05
322.30 5.044
322.40 5.038
322.50 5.032
322.60 5.027
322.70 5.021
322.80 5.015
322.90 5.009
323.00 5.003
323.10 4.998
323.20 4.992
323.30 4.986
323.40 4.98
323.50 4.975
323.60 4.969
323.70 4.963
323.80 4.958
323.90 4.952
324.00 4.946
324.10 4.94
324.20 4.935
324.30 4.929
324.40 4.923
324.50 4.918
324.60 4.912
324.70 4.907
324.80 4.901
324.90 4.895
325.00 4.89
325.10 4.884
325.20 4.879
325.30 4.873
325.40 4.867
325.50 4.862
325.60 4.856
325.70 4.851
325.80 4.845
325.90 4.84
326.00 4.834
326.10 4.829
326.20 4.823
326.30 4.818
326.40 4.812
326.50 4.807
326.60 4.801
326.70 4.796
326.80 4.79
326.90 4.785
327.00 4.779
327.10 4.774
327.20 4.768
327.30 4.763
327.40 4.758
327.50 4.752
327.60 4.747
327.70 4.741
327.80 4.736
327.90 4.731
328.00 4.725
328.10 4.72
328.20 4.714
328.30 4.709
328.40 4.704
328.50 4.698
328.60 4.693
328.70 4.688
328.80 4.683
328.90 4.677
329.00 4.672
329.10 4.667
329.20 4.661
329.30 4.656
329.40 4.651
329.50 4.646
329.60 4.64
329.70 4.635
329.80 4.63
329.90 4.625
330.00 4.619
330.10 4.614
330.20 4.609
330.30 4.604
330.40 4.599
330.50 4.593
330.60 4.588
330.70 4.583
330.80 4.578
330.90 4.573
331.00 4.568
331.10 4.563
331.20 4.557
331.30 4.552
331.40 4.547
331.50 4.542
331.60 4.537
331.70 4.532
331.80 4.527
331.90 4.522
332.00 4.517
332.10 4.511
332.20 4.506
332.30 4.501
332.40 4.496
332.50 4.491
332.60 4.486
332.70 4.481
332.80 4.476
332.90 4.471
333.00 4.466
333.10 4.461
333.20 4.456
333.30 4.451
333.40 4.446
333.50 4.441
333.60 4.436
333.70 4.431
333.80 4.426
333.90 4.421
334.00 4.416
334.10 4.412
334.20 4.407
334.30 4.402
334.40 4.397
334.50 4.392
334.60 4.387
334.70 4.382
334.80 4.377
334.90 4.372
335.00 4.368
335.10 4.363
335.20 4.358
335.30 4.353
335.40 4.348
335.50 4.343
335.60 4.338
335.70 4.334
335.80 4.329
335.90 4.324
336.00 4.319
336.10 4.314
336.20 4.31
336.30 4.305
336.40 4.3
336.50 4.295
336.60 4.291
336.70 4.286
336.80 4.281
336.90 4.276
337.00 4.272
337.10 4.267
337.20 4.262
337.30 4.258
337.40 4.253
337.50 4.248
337.60 4.243
337.70 4.239
337.80 4.234
337.90 4.229
338.00 4.225
338.10 4.22
338.20 4.215
338.30 4.211
338.40 4.206
338.50 4.201
338.60 4.197
338.70 4.192
338.80 4.188
338.90 4.183
339.00 4.178
339.10 4.174
339.20 4.169
339.30 4.165
339.40 4.16
339.50 4.155
339.60 4.151
339.70 4.146
339.80 4.142
339.90 4.137
340.00 4.133
340.10 4.128
340.20 4.124
340.30 4.119
340.40 4.115
340.50 4.11
340.60 4.106
340.70 4.101
340.80 4.097
340.90 4.092
341.00 4.088
341.10 4.083
341.20 4.079
341.30 4.074
341.40 4.07
341.50 4.065
341.60 4.061
341.70 4.056
341.80 4.052
341.90 4.048
342.00 4.043
342.10 4.039
342.20 4.034
342.30 4.03
342.40 4.026
342.50 4.021
342.60 4.017
342.70 4.012
342.80 4.008
342.90 4.004
343.00 3.999
343.10 3.995
343.20 3.991
343.30 3.986
343.40 3.982
343.50 3.978
343.60 3.973
343.70 3.969
343.80 3.965
343.90 3.96
344.00 3.956
344.10 3.952
344.20 3.947
344.30 3.943
344.40 3.939
344.50 3.935
344.60 3.93
344.70 3.926
344.80 3.922
344.90 3.918
345.00 3.913
345.10 3.909
345.20 3.905
345.30 3.901
345.40 3.897
345.50 3.892
345.60 3.888
345.70 3.884
345.80 3.88
345.90 3.875
346.00 3.871
346.10 3.867
346.20 3.863
346.30 3.859
346.40 3.855
346.50 3.851
346.60 3.846
346.70 3.842
346.80 3.838
346.90 3.834
347.00 3.83
347.10 3.826
347.20 3.822
347.30 3.817
347.40 3.813
347.50 3.809
347.60 3.805
347.70 3.801
347.80 3.797
347.90 3.793
348.00 3.789
348.10 3.785
348.20 3.781
348.30 3.777
348.40 3.773
348.50 3.769
348.60 3.765
348.70 3.761
348.80 3.757
348.90 3.752
349.00 3.748
349.10 3.744
349.20 3.74
349.30 3.736
349.40 3.732
349.50 3.728
349.60 3.724
349.70 3.72
349.80 3.716
349.90 3.712
350.00 3.709
350.10 3.705
350.20 3.701
350.30 3.697
350.40 3.693
350.50 3.689
350.60 3.685
350.70 3.681
350.80 3.677
350.90 3.673
351.00 3.669
351.10 3.665
351.20 3.661
351.30 3.658
351.40 3.654
351.50 3.65
351.60 3.646
351.70 3.642
351.80 3.638
351.90 3.634
352.00 3.63
352.10 3.627
352.20 3.623
352.30 3.619
352.40 3.615
352.50 3.611
352.60 3.607
352.70 3.604
352.80 3.6
352.90 3.596
353.00 3.592
353.10 3.588
353.20 3.584
353.30 3.581
353.40 3.577
353.50 3.573
353.60 3.569
353.70 3.566
353.80 3.562
353.90 3.558
354.00 3.554
354.10 3.55
354.20 3.547
354.30 3.543
354.40 3.539
354.50 3.536
354.60 3.532
354.70 3.528
354.80 3.524
354.90 3.521
355.00 3.517
355.10 3.513
355.20 3.51
355.30 3.506
355.40 3.502
355.50 3.498
355.60 3.495
355.70 3.491
355.80 3.487
355.90 3.484
356.00 3.48
356.10 3.476
356.20 3.473
356.30 3.469
356.40 3.466
356.50 3.462
356.60 3.458
356.70 3.455
356.80 3.451
356.90 3.447
357.00 3.444
357.10 3.44
357.20 3.437
357.30 3.433
357.40 3.429
357.50 3.426
357.60 3.422
357.70 3.419
357.80 3.415
357.90 3.411
358.00 3.408
358.10 3.404
358.20 3.401
358.30 3.397
358.40 3.394
358.50 3.39
358.60 3.387
358.70 3.383
358.80 3.38
358.90 3.376
359.00 3.373
359.10 3.369
359.20 3.366
359.30 3.362
359.40 3.359
359.50 3.355
359.60 3.352
359.70 3.348
359.80 3.345
359.90 3.341
360.00 3.338
360.10 3.334
360.20 3.331
360.30 3.327
360.40 3.324
360.50 3.32
360.60 3.317
360.70 3.313
360.80 3.31
360.90 3.307
361.00 3.303
361.10 3.3
361.20 3.296
361.30 3.293
361.40 3.289
361.50 3.286
361.60 3.283
361.70 3.279
361.80 3.276
361.90 3.272
362.00 3.269
362.10 3.266
362.20 3.262
362.30 3.259
362.40 3.256
362.50 3.252
362.60 3.249
362.70 3.246
362.80 3.242
362.90 3.239
363.00 3.235
363.10 3.232
363.20 3.229
363.30 3.225
363.40 3.222
363.50 3.219
363.60 3.216
363.70 3.212
363.80 3.209
363.90 3.206
364.00 3.202
364.10 3.199
364.20 3.196
364.30 3.192
364.40 3.189
364.50 3.186
364.60 3.183
364.70 3.179
364.80 3.176
364.90 3.173
365.00 3.17
365.10 3.166
365.20 3.163
365.30 3.16
365.40 3.157
365.50 3.153
365.60 3.15
365.70 3.147
365.80 3.144
365.90 3.14
366.00 3.137
366.10 3.134
366.20 3.131
366.30 3.128
366.40 3.124
366.50 3.121
366.60 3.118
366.70 3.115
366.80 3.111
366.90 3.108
367.00 3.105
367.10 3.102
367.20 3.099
367.30 3.096
367.40 3.092
367.50 3.089
367.60 3.086
367.70 3.083
367.80 3.08
367.90 3.076
368.00 3.073
368.10 3.07
368.20 3.067
368.30 3.064
368.40 3.06
368.50 3.057
368.60 3.054
368.70 3.051
368.80 3.048
368.90 3.044
369.00 3.041
369.10 3.038
369.20 3.035
369.30 3.032
369.40 3.028
369.50 3.025
369.60 3.022
369.70 3.019
369.80 3.016
369.90 3.013
370.00 3.009
370.10 3.006
370.20 3.003
370.30 3
370.40 2.997
370.50 2.994
370.60 2.991
370.70 2.988
370.80 2.984
370.90 2.981
371.00 2.978
371.10 2.975
371.20 2.972
371.30 2.969
371.40 2.966
371.50 2.963
371.60 2.96
371.70 2.957
371.80 2.953
371.90 2.95
372.00 2.947
372.10 2.944
372.20 2.941
372.30 2.939
372.40 2.936
372.50 2.933
372.60 2.93
372.70 2.927
372.80 2.924
372.90 2.921
373.00 2.918
373.10 2.915
373.20 2.912
373.30 2.909
373.40 2.906
373.50 2.904
373.60 2.901
373.70 2.898
373.80 2.895
373.90 2.892
374.00 2.889
374.10 2.886
374.20 2.883
374.30 2.88
374.40 2.877
374.50 2.874
374.60 2.871
374.70 2.868
374.80 2.865
374.90 2.862
375.00 2.859
375.10 2.856
375.20 2.854
375.30 2.851
375.40 2.848
375.50 2.845
375.60 2.842
375.70 2.839
375.80 2.836
375.90 2.833
376.00 2.83
376.10 2.827
376.20 2.824
376.30 2.821
376.40 2.818
376.50 2.816
376.60 2.813
376.70 2.81
376.80 2.807
376.90 2.804
377.00 2.801
377.10 2.798
377.20 2.796
377.30 2.793
377.40 2.79
377.50 2.787
377.60 2.784
377.70 2.782
377.80 2.779
377.90 2.776
378.00 2.773
378.10 2.77
378.20 2.768
378.30 2.765
378.40 2.762
378.50 2.759
378.60 2.757
378.70 2.754
378.80 2.751
378.90 2.748
379.00 2.746
379.10 2.743
379.20 2.74
379.30 2.737
379.40 2.735
379.50 2.732
379.60 2.729
379.70 2.726
379.80 2.724
379.90 2.721
380.00 2.718
380.10 2.716
380.20 2.713
380.30 2.71
380.40 2.708
380.50 2.705
380.60 2.702
380.70 2.7
380.80 2.697
380.90 2.694
381.00 2.692
381.10 2.689
381.20 2.686
381.30 2.684
381.40 2.681
381.50 2.678
381.60 2.676
381.70 2.673
381.80 2.671
381.90 2.668
382.00 2.665
382.10 2.663
382.20 2.66
382.30 2.658
382.40 2.655
382.50 2.652
382.60 2.65
382.70 2.647
382.80 2.645
382.90 2.642
383.00 2.64
383.10 2.637
383.20 2.634
383.30 2.632
383.40 2.629
383.50 2.627
383.60 2.624
383.70 2.622
383.80 2.619
383.90 2.617
384.00 2.614
384.10 2.612
384.20 2.609
384.30 2.607
384.40 2.604
384.50 2.602
384.60 2.6
384.70 2.597
384.80 2.595
384.90 2.592
385.00 2.59
385.10 2.587
385.20 2.585
385.30 2.582
385.40 2.58
385.50 2.578
385.60 2.575
385.70 2.573
385.80 2.57
385.90 2.568
386.00 2.565
386.10 2.563
386.20 2.561
386.30 2.558
386.40 2.556
386.50 2.553
386.60 2.551
386.70 2.548
386.80 2.546
386.90 2.544
387.00 2.541
387.10 2.539
387.20 2.536
387.30 2.534
387.40 2.531
387.50 2.529
387.60 2.527
387.70 2.524
387.80 2.522
387.90 2.519
388.00 2.517
388.10 2.515
388.20 2.512
388.30 2.51
388.40 2.508
388.50 2.505
388.60 2.503
388.70 2.501
388.80 2.498
388.90 2.496
389.00 2.494
389.10 2.492
389.20 2.489
389.30 2.487
389.40 2.485
389.50 2.483
389.60 2.481
389.70 2.479
389.80 2.476
389.90 2.474
390.00 2.472
390.10 2.47
390.20 2.468
390.30 2.466
390.40 2.464
390.50 2.461
390.60 2.459
390.70 2.457
390.80 2.455
390.90 2.453
391.00 2.451
391.10 2.449
391.20 2.446
391.30 2.444
391.40 2.442
391.50 2.44
391.60 2.438
391.70 2.435
391.80 2.433
391.90 2.431
392.00 2.429
392.10 2.426
392.20 2.424
392.30 2.422
392.40 2.42
392.50 2.417
392.60 2.415
392.70 2.413
392.80 2.41
392.90 2.408
393.00 2.406
393.10 2.403
393.20 2.401
393.30 2.399
393.40 2.396
393.50 2.394
393.60 2.391
393.70 2.389
393.80 2.387
393.90 2.384
394.00 2.382
394.10 2.379
394.20 2.377
394.30 2.374
394.40 2.372
394.50 2.369
394.60 2.367
394.70 2.364
394.80 2.362
394.90 2.359
395.00 2.356
395.10 2.354
395.20 2.351
395.30 2.349
395.40 2.346
395.50 2.344
395.60 2.341
395.70 2.338
395.80 2.336
395.90 2.333
396.00 2.331
396.10 2.328
396.20 2.326
396.30 2.323
396.40 2.32
396.50 2.318
396.60 2.316
396.70 2.313
396.80 2.311
396.90 2.309
397.00 2.306
397.10 2.305
397.20 2.303
397.30 2.301
397.40 2.3
397.50 2.298
397.60 2.297
397.70 2.295
397.80 2.294
397.90 2.293
398.00 2.291
398.10 2.29
398.20 2.289
398.30 2.287
398.40 2.286
398.50 2.284
398.60 2.283
398.70 2.282
398.80 2.28
398.90 2.279
399.00 2.278
399.10 2.276
399.20 2.275
399.30 2.273
399.40 2.272
399.50 2.27
399.60 2.269
399.70 2.267
399.80 2.266
399.90 2.264
400.00 2.263
400.10 2.261
400.20 2.26
400.30 2.258
400.40 2.256
400.50 2.255
400.60 2.253
400.70 2.251
400.80 2.25
400.90 2.248
401.00 2.246
401.10 2.244
401.20 2.243
401.30 2.241
401.40 2.239
401.50 2.237
401.60 2.235
401.70 2.234
401.80 2.232
401.90 2.23
402.00 2.228
402.10 2.226
402.20 2.224
402.30 2.222
402.40 2.22
402.50 2.218
402.60 2.216
402.70 2.214
402.80 2.212
402.90 2.209
403.00 2.207
403.10 2.205
403.20 2.203
403.30 2.201
403.40 2.198
403.50 2.196
403.60 2.194
403.70 2.192
403.80 2.189
403.90 2.187
404.00 2.184
404.10 2.182
404.20 2.18
404.30 2.177
404.40 2.175
404.50 2.172
404.60 2.169
404.70 2.167
404.80 2.164
404.90 2.162
405.00 2.159
405.10 2.156
405.20 2.154
405.30 2.151
405.40 2.148
405.50 2.145
405.60 2.142
405.70 2.14
405.80 2.137
405.90 2.134
406.00 2.131
406.10 2.128
406.20 2.125
406.30 2.122
406.40 2.119
406.50 2.116
406.60 2.112
406.70 2.109
406.80 2.106
406.90 2.103
407.00 2.1
407.10 2.096
407.20 2.093
407.30 2.09
407.40 2.086
407.50 2.083
407.60 2.079
407.70 2.076
407.80 2.072
407.90 2.069
408.00 2.065
408.10 2.062
408.20 2.058
408.30 2.055
408.40 2.051
408.50 2.048
408.60 2.044
408.70 2.041
408.80 2.037
408.90 2.034
409.00 2.03
409.10 2.027
409.20 2.024
409.30 2.02
409.40 2.017
409.50 2.015
409.60 2.012
409.70 2.009
409.80 2.007
409.90 2.006
410.00 2.005
410.10 2.004
410.20 2.002
410.30 2
410.40 1.998
410.50 1.995
410.60 1.994
410.70 1.993
410.80 1.992
410.90 1.991
411.00 1.991
411.10 1.991
411.20 1.99
411.30 1.99
411.40 1.99
411.50 1.99
411.60 1.99
411.70 1.99
411.80 1.991
411.90 1.991
412.00 1.991
412.10 1.991
412.20 1.991
412.30 1.991
412.40 1.991
412.50 1.991
412.60 1.991
412.70 1.991
412.80 1.991
412.90 1.991
413.00 1.991
413.10 1.99
413.20 1.99
413.30 1.99
413.40 1.99
413.50 1.99
413.60 1.989
413.70 1.989
413.80 1.989
413.90 1.988
414.00 1.988
414.10 1.987
414.20 1.987
414.30 1.987
414.40 1.986
414.50 1.985
414.60 1.985
414.70 1.984
414.80 1.984
414.90 1.983
415.00 1.982
415.10 1.982
415.20 1.981
415.30 1.98
415.40 1.979
415.50 1.978
415.60 1.978
415.70 1.977
415.80 1.976
415.90 1.975
416.00 1.974
416.10 1.973
416.20 1.972
416.30 1.971
416.40 1.97
416.50 1.969
416.60 1.968
416.70 1.967
416.80 1.966
416.90 1.965
417.00 1.964
417.10 1.963
417.20 1.961
417.30 1.96
417.40 1.959
417.50 1.958
417.60 1.957
417.70 1.955
417.80 1.954
417.90 1.953
418.00 1.952
418.10 1.95
418.20 1.949
418.30 1.948
418.40 1.946
418.50 1.945
418.60 1.944
418.70 1.942
418.80 1.941
418.90 1.939
419.00 1.938
419.10 1.937
419.20 1.935
419.30 1.934
419.40 1.932
419.50 1.931
419.60 1.929
419.70 1.928
419.80 1.926
419.90 1.925
420.00 1.923
420.10 1.922
420.20 1.92
420.30 1.918
420.40 1.917
420.50 1.915
420.60 1.914
420.70 1.912
420.80 1.91
420.90 1.909
421.00 1.907
421.10 1.906
421.20 1.904
421.30 1.902
421.40 1.901
421.50 1.899
421.60 1.897
421.70 1.895
421.80 1.894
421.90 1.892
422.00 1.89
422.10 1.888
422.20 1.887
422.30 1.885
422.40 1.883
422.50 1.881
422.60 1.88
422.70 1.878
422.80 1.876
422.90 1.874
423.00 1.872
423.10 1.87
423.20 1.869
423.30 1.867
423.40 1.865
423.50 1.863
423.60 1.861
423.70 1.859
423.80 1.857
423.90 1.855
424.00 1.853
424.10 1.851
424.20 1.849
424.30 1.847
424.40 1.845
424.50 1.843
424.60 1.841
424.70 1.839
424.80 1.837
424.90 1.835
425.00 1.833
425.10 1.831
425.20 1.829
425.30 1.827
425.40 1.824
425.50 1.822
425.60 1.82
425.70 1.818
425.80 1.816
425.90 1.813
426.00 1.811
426.10 1.809
426.20 1.807
426.30 1.804
426.40 1.802
426.50 1.8
426.60 1.797
426.70 1.795
426.80 1.792
426.90 1.79
427.00 1.787
427.10 1.785
427.20 1.782
427.30 1.78
427.40 1.777
427.50 1.775
427.60 1.772
427.70 1.769
427.80 1.767
427.90 1.764
428.00 1.761
428.10 1.758
428.20 1.756
428.30 1.753
428.40 1.75
428.50 1.747
428.60 1.744
428.70 1.741
428.80 1.738
428.90 1.735
429.00 1.732
429.10 1.729
429.20 1.726
429.30 1.722
429.40 1.719
429.50 1.716
429.60 1.713
429.70 1.709
429.80 1.706
429.90 1.702
430.00 1.699
430.10 1.695
430.20 1.692
430.30 1.688
430.40 1.684
430.50 1.681
430.60 1.677
430.70 1.673
430.80 1.669
430.90 1.665
431.00 1.661
431.10 1.657
431.20 1.653
431.30 1.649
431.40 1.645
431.50 1.641
431.60 1.637
431.70 1.632
431.80 1.628
431.90 1.624
432.00 1.619
432.10 1.615
432.20 1.61
432.30 1.606
432.40 1.601
432.50 1.597
432.60 1.592
432.70 1.588
432.80 1.583
432.90 1.579
433.00 1.574
433.10 1.57
433.20 1.565
433.30 1.56
433.40 1.555
433.50 1.551
433.60 1.546
433.70 1.54
433.80 1.534
433.90 1.527
434.00 1.523
434.10 1.522
434.20 1.524
434.30 1.528
434.40 1.532
434.50 1.535
434.60 1.537
434.70 1.539
434.80 1.542
434.90 1.544
435.00 1.546
435.10 1.548
435.20 1.55
435.30 1.552
435.40 1.554
435.50 1.555
435.60 1.557
435.70 1.559
435.80 1.561
435.90 1.563
436.00 1.564
436.10 1.566
436.20 1.568
436.30 1.569
436.40 1.571
436.50 1.572
436.60 1.574
436.70 1.575
436.80 1.576
436.90 1.578
437.00 1.579
437.10 1.58
437.20 1.581
437.30 1.582
437.40 1.583
437.50 1.584
437.60 1.585
437.70 1.586
437.80 1.587
437.90 1.587
438.00 1.588
438.10 1.589
438.20 1.589
438.30 1.59
438.40 1.59
438.50 1.591
438.60 1.591
438.70 1.592
438.80 1.592
438.90 1.592
439.00 1.592
439.10 1.592
439.20 1.593
439.30 1.593
439.40 1.593
439.50 1.593
439.60 1.593
439.70 1.593
439.80 1.593
439.90 1.593
440.00 1.592
440.10 1.592
440.20 1.592
440.30 1.592
440.40 1.591
440.50 1.591
440.60 1.591
440.70 1.59
440.80 1.59
440.90 1.59
441.00 1.589
441.10 1.589
441.20 1.588
441.30 1.588
441.40 1.587
441.50 1.587
441.60 1.586
441.70 1.585
441.80 1.585
441.90 1.584
442.00 1.583
442.10 1.583
442.20 1.582
442.30 1.581
442.40 1.581
442.50 1.58
442.60 1.579
442.70 1.578
442.80 1.578
442.90 1.577
443.00 1.576
443.10 1.575
443.20 1.574
443.30 1.573
443.40 1.573
443.50 1.572
443.60 1.571
443.70 1.57
443.80 1.569
443.90 1.568
444.00 1.567
444.10 1.566
444.20 1.565
444.30 1.564
444.40 1.563
444.50 1.562
444.60 1.561
444.70 1.56
444.80 1.559
444.90 1.558
445.00 1.557
445.10 1.556
445.20 1.555
445.30 1.554
445.40 1.553
445.50 1.552
445.60 1.551
445.70 1.55
445.80 1.549
445.90 1.548
446.00 1.547
446.10 1.545
446.20 1.544
446.30 1.543
446.40 1.542
446.50 1.541
446.60 1.54
446.70 1.539
446.80 1.538
446.90 1.537
447.00 1.536
447.10 1.534
447.20 1.533
447.30 1.532
447.40 1.531
447.50 1.53
447.60 1.529
447.70 1.528
447.80 1.526
447.90 1.525
448.00 1.524
448.10 1.523
448.20 1.522
448.30 1.521
448.40 1.519
448.50 1.518
448.60 1.517
448.70 1.516
448.80 1.515
448.90 1.514
449.00 1.512
449.10 1.511
449.20 1.51
449.30 1.509
449.40 1.508
449.50 1.507
449.60 1.505
449.70 1.504
449.80 1.503
449.90 1.502
450.00 1.501
450.10 1.499
450.20 1.498
450.30 1.497
450.40 1.496
450.50 1.495
450.60 1.493
450.70 1.492
450.80 1.491
450.90 1.49
451.00 1.489
451.10 1.488
451.20 1.486
451.30 1.485
451.40 1.484
451.50 1.483
451.60 1.482
451.70 1.48
451.80 1.479
451.90 1.478
452.00 1.477
452.10 1.476
452.20 1.474
452.30 1.473
452.40 1.472
452.50 1.471
452.60 1.47
452.70 1.468
452.80 1.467
452.90 1.466
453.00 1.465
453.10 1.464
453.20 1.462
453.30 1.461
453.40 1.46
453.50 1.459
453.60 1.458
453.70 1.456
453.80 1.455
453.90 1.454
454.00 1.453
454.10 1.452
454.20 1.45
454.30 1.449
454.40 1.448
454.50 1.447
454.60 1.446
454.70 1.444
454.80 1.443
454.90 1.442
455.00 1.441
455.10 1.44
455.20 1.439
455.30 1.437
455.40 1.436
455.50 1.435
455.60 1.434
455.70 1.433
455.80 1.431
455.90 1.43
456.00 1.429
456.10 1.428
456.20 1.427
456.30 1.425
456.40 1.424
456.50 1.423
456.60 1.422
456.70 1.421
456.80 1.42
456.90 1.418
457.00 1.417
457.10 1.416
457.20 1.415
457.30 1.414
457.40 1.412
457.50 1.411
457.60 1.41
457.70 1.409
457.80 1.408
457.90 1.407
458.00 1.405
458.10 1.404
458.20 1.403
458.30 1.402
458.40 1.401
458.50 1.4
458.60 1.398
458.70 1.397
458.80 1.396
458.90 1.395
459.00 1.394
459.10 1.393
459.20 1.391
459.30 1.39
459.40 1.389
459.50 1.388
459.60 1.387
459.70 1.386
459.80 1.384
459.90 1.383
460.00 1.382
460.10 1.381
460.20 1.38
460.30 1.379
460.40 1.377
460.50 1.376
460.60 1.375
460.70 1.374
460.80 1.373
460.90 1.372
461.00 1.371
461.10 1.369
461.20 1.368
461.30 1.367
461.40 1.366
461.50 1.365
461.60 1.364
461.70 1.362
461.80 1.361
461.90 1.36
462.00 1.359
462.10 1.358
462.20 1.357
462.30 1.356
462.40 1.354
462.50 1.353
462.60 1.352
462.70 1.351
462.80 1.35
462.90 1.349
463.00 1.348
463.10 1.346
463.20 1.345
463.30 1.344
463.40 1.343
463.50 1.342
463.60 1.341
463.70 1.34
463.80 1.338
463.90 1.337
464.00 1.336
464.10 1.335
464.20 1.334
464.30 1.333
464.40 1.332
464.50 1.331
464.60 1.329
464.70 1.328
464.80 1.327
464.90 1.326
465.00 1.325
465.10 1.324
465.20 1.323
465.30 1.322
465.40 1.32
465.50 1.319
465.60 1.318
465.70 1.317
465.80 1.316
465.90 1.315
466.00 1.314
466.10 1.312
466.20 1.311
466.30 1.31
466.40 1.309
466.50 1.308
466.60 1.307
466.70 1.306
466.80 1.305
466.90 1.303
467.00 1.302
467.10 1.301
467.20 1.3
467.30 1.299
467.40 1.298
467.50 1.297
467.60 1.296
467.70 1.294
467.80 1.293
467.90 1.292
468.00 1.291
468.10 1.29
468.20 1.289
468.30 1.288
468.40 1.287
468.50 1.285
468.60 1.284
468.70 1.283
468.80 1.282
468.90 1.281
469.00 1.28
469.10 1.279
469.20 1.278
469.30 1.276
469.40 1.275
469.50 1.274
469.60 1.273
469.70 1.272
469.80 1.271
469.90 1.27
470.00 1.269
470.10 1.267
470.20 1.266
470.30 1.265
470.40 1.264
470.50 1.263
470.60 1.262
470.70 1.261
470.80 1.259
470.90 1.258
471.00 1.257
471.10 1.256
471.20 1.255
471.30 1.254
471.40 1.253
471.50 1.251
471.60 1.25
471.70 1.249
471.80 1.248
471.90 1.247
472.00 1.246
472.10 1.245
472.20 1.243
472.30 1.242
472.40 1.241
472.50 1.24
472.60 1.239
472.70 1.237
472.80 1.236
472.90 1.235
473.00 1.234
473.10 1.233
473.20 1.232
473.30 1.23
473.40 1.229
473.50 1.228
473.60 1.227
473.70 1.226
473.80 1.224
473.90 1.223
474.00 1.222
474.10 1.221
474.20 1.22
474.30 1.218
474.40 1.217
474.50 1.216
474.60 1.215
474.70 1.213
474.80 1.212
474.90 1.211
475.00 1.21
475.10 1.209
475.20 1.207
475.30 1.206
475.40 1.205
475.50 1.203
475.60 1.202
475.70 1.201
475.80 1.2
475.90 1.198
476.00 1.197
476.10 1.196
476.20 1.194
476.30 1.193
476.40 1.192
476.50 1.19
476.60 1.189
476.70 1.188
476.80 1.186
476.90 1.185
477.00 1.184
477.10 1.182
477.20 1.181
477.30 1.179
477.40 1.178
477.50 1.176
477.60 1.175
477.70 1.173
477.80 1.172
477.90 1.171
478.00 1.169
478.10 1.168
478.20 1.166
478.30 1.164
478.40 1.163
478.50 1.161
478.60 1.16
478.70 1.158
478.80 1.156
478.90 1.155
479.00 1.153
479.10 1.152
479.20 1.15
479.30 1.148
479.40 1.146
479.50 1.145
479.60 1.143
479.70 1.141
479.80 1.139
479.90 1.138
480.00 1.136
480.10 1.134
480.20 1.132
480.30 1.13
480.40 1.128
480.50 1.126
480.60 1.124
480.70 1.122
480.80 1.12
480.90 1.118
481.00 1.116
481.10 1.114
481.20 1.112
481.30 1.109
481.40 1.107
481.50 1.105
481.60 1.102
481.70 1.1
481.80 1.098
481.90 1.095
482.00 1.093
482.10 1.091
482.20 1.088
482.30 1.085
482.40 1.083
482.50 1.08
482.60 1.077
482.70 1.075
482.80 1.072
482.90 1.069
483.00 1.066
483.10 1.064
483.20 1.061
483.30 1.057
483.40 1.054
483.50 1.051
483.60 1.048
483.70 1.045
483.80 1.042
483.90 1.038
484.00 1.035
484.10 1.032
484.20 1.029
484.30 1.025
484.40 1.022
484.50 1.018
484.60 1.015
484.70 1.011
484.80 1.008
484.90 1.004
485.00 1
485.10 0.9968
485.20 0.9933
485.30 0.9898
485.40 0.9865
485.50 0.9832
485.60 0.9805
485.70 0.978
485.80 0.9774
485.90 0.9777
486.00 0.9822
486.10 0.9919
486.20 0.988
486.30 0.9772
486.40 0.9739
486.50 0.972
486.60 0.9721
486.70 0.9731
486.80 0.9746
486.90 0.9764
487.00 0.9783
487.10 0.9803
487.20 0.9823
487.30 0.9844
487.40 0.9864
487.50 0.9885
487.60 0.9905
487.70 0.9925
487.80 0.9944
487.90 0.9963
488.00 0.9982
488.10 1
488.20 1.002
488.30 1.003
488.40 1.005
488.50 1.006
488.60 1.008
488.70 1.009
488.80 1.011
488.90 1.012
489.00 1.014
489.10 1.015
489.20 1.017
489.30 1.018
489.40 1.019
489.50 1.02
489.60 1.021
489.70 1.022
489.80 1.023
489.90 1.024
490.00 1.025
490.10 1.026
490.20 1.026
490.30 1.027
490.40 1.028
490.50 1.028
490.60 1.029
490.70 1.029
490.80 1.03
490.90 1.03
491.00 1.031
491.10 1.032
491.20 1.032
491.30 1.032
491.40 1.032
491.50 1.033
491.60 1.033
491.70 1.033
491.80 1.033
491.90 1.033
492.00 1.034
492.10 1.034
492.20 1.034
492.30 1.034
492.40 1.034
492.50 1.034
492.60 1.034
492.70 1.034
492.80 1.034
492.90 1.034
493.00 1.034
493.10 1.034
493.20 1.034
493.30 1.033
493.40 1.033
493.50 1.033
493.60 1.033
493.70 1.032
493.80 1.032
493.90 1.032
494.00 1.032
494.10 1.032
494.20 1.031
494.30 1.031
494.40 1.03
494.50 1.03
494.60 1.03
494.70 1.029
494.80 1.029
494.90 1.029
495.00 1.028
495.10 1.028
495.20 1.027
495.30 1.027
495.40 1.027
495.50 1.026
495.60 1.026
495.70 1.025
495.80 1.025
495.90 1.024
496.00 1.024
496.10 1.023
496.20 1.023
496.30 1.022
496.40 1.022
496.50 1.021
496.60 1.021
496.70 1.02
496.80 1.02
496.90 1.019
497.00 1.018
497.10 1.018
497.20 1.017
497.30 1.017
497.40 1.016
497.50 1.016
497.60 1.015
497.70 1.014
497.80 1.014
497.90 1.013
498.00 1.013
498.10 1.012
498.20 1.011
498.30 1.011
498.40 1.01
498.50 1.01
498.60 1.009
498.70 1.008
498.80 1.008
498.90 1.007
499.00 1.006
499.10 1.006
499.20 1.005
499.30 1.005
499.40 1.004
499.50 1.003
499.60 1.003
499.70 1.002
499.80 1.001
499.90 1.001
500.00 1
500.10 0.9994
500.20 0.9987
500.30 0.998
500.40 0.9973
500.50 0.9967
500.60 0.996
500.70 0.9953
500.80 0.9947
500.90 0.994
501.00 0.9933
501.10 0.9927
501.20 0.992
501.30 0.9913
501.40 0.9906
501.50 0.9899
501.60 0.9893
501.70 0.9886
501.80 0.9879
501.90 0.9872
502.00 0.9865
502.10 0.9859
502.20 0.9852
502.30 0.9845
502.40 0.9838
502.50 0.9831
502.60 0.9824
502.70 0.9817
502.80 0.981
502.90 0.9804
503.00 0.9797
503.10 0.979
503.20 0.9783
503.30 0.9776
503.40 0.9769
503.50 0.9762
503.60 0.9755
503.70 0.9748
503.80 0.9741
503.90 0.9734
504.00 0.9727
504.10 0.972
504.20 0.9714
504.30 0.9707
504.40 0.97
504.50 0.9693
504.60 0.9686
504.70 0.9679
504.80 0.9672
504.90 0.9665
505.00 0.9658
505.10 0.9651
505.20 0.9644
505.30 0.9637
505.40 0.963
505.50 0.9623
505.60 0.9616
505.70 0.9609
505.80 0.9602
505.90 0.9595
506.00 0.9588
506.10 0.9581
506.20 0.9574
506.30 0.9567
506.40 0.956
506.50 0.9553
506.60 0.9546
506.70 0.9539
506.80 0.9533
506.90 0.9526
507.00 0.9519
507.10 0.9512
507.20 0.9505
507.30 0.9498
507.40 0.9491
507.50 0.9484
507.60 0.9477
507.70 0.947
507.80 0.9463
507.90 0.9456
508.00 0.9449
508.10 0.9442
508.20 0.9435
508.30 0.9429
508.40 0.9422
508.50 0.9415
508.60 0.9408
508.70 0.9401
508.80 0.9394
508.90 0.9387
509.00 0.938
509.10 0.9373
509.20 0.9366
509.30 0.936
509.40 0.9353
509.50 0.9346
509.60 0.9339
509.70 0.9332
509.80 0.9325
509.90 0.9318
510.00 0.9312
510.10 0.9305
510.20 0.9298
510.30 0.9291
510.40 0.9284
510.50 0.9277
510.60 0.927
510.70 0.9264
510.80 0.9257
510.90 0.925
511.00 0.9243
511.10 0.9236
511.20 0.9229
511.30 0.9223
511.40 0.9216
511.50 0.9209
511.60 0.9202
511.70 0.9196
511.80 0.9189
511.90 0.9182
512.00 0.9175
512.10 0.9168
512.20 0.9162
512.30 0.9155
512.40 0.9148
512.50 0.9141
512.60 0.9135
512.70 0.9128
512.80 0.9121
512.90 0.9114
513.00 0.9108
513.10 0.9101
513.20 0.9094
513.30 0.9088
513.40 0.9081
513.50 0.9074
513.60 0.9067
513.70 0.9061
513.80 0.9054
513.90 0.9047
514.00 0.9041
514.10 0.9034
514.20 0.9027
514.30 0.9021
514.40 0.9014
514.50 0.9007
514.60 0.9001
514.70 0.8994
514.80 0.8987
514.90 0.8981
515.00 0.8974
515.10 0.8968
515.20 0.8961
515.30 0.8954
515.40 0.8948
515.50 0.8941
515.60 0.8935
515.70 0.8928
515.80 0.8921
515.90 0.8915
516.00 0.8908
516.10 0.8902
516.20 0.8895
516.30 0.8888
516.40 0.8882
516.50 0.8875
516.60 0.8869
516.70 0.8862
516.80 0.8856
516.90 0.8849
517.00 0.8843
517.10 0.8836
517.20 0.883
517.30 0.8823
517.40 0.8817
517.50 0.881
517.60 0.8804
517.70 0.8797
517.80 0.8791
517.90 0.8784
518.00 0.8778
518.10 0.8771
518.20 0.8765
518.30 0.8758
518.40 0.8752
518.50 0.8745
518.60 0.8739
518.70 0.8733
518.80 0.8726
518.90 0.872
519.00 0.8713
519.10 0.8707
519.20 0.8701
519.30 0.8694
519.40 0.8688
519.50 0.8681
519.60 0.8675
519.70 0.8669
519.80 0.8662
519.90 0.8656
520.00 0.8649
520.10 0.8643
520.20 0.8637
520.30 0.863
520.40 0.8624
520.50 0.8618
520.60 0.8611
520.70 0.8605
520.80 0.8599
520.90 0.8592
521.00 0.8586
521.10 0.858
521.20 0.8573
521.30 0.8567
521.40 0.8561
521.50 0.8555
521.60 0.8548
521.70 0.8542
521.80 0.8536
521.90 0.853
522.00 0.8523
522.10 0.8517
522.20 0.8511
522.30 0.8505
522.40 0.8498
522.50 0.8492
522.60 0.8486
522.70 0.848
522.80 0.8473
522.90 0.8467
523.00 0.8461
523.10 0.8455
523.20 0.8449
523.30 0.8442
523.40 0.8436
523.50 0.843
523.60 0.8424
523.70 0.8418
523.80 0.8412
523.90 0.8405
524.00 0.8399
524.10 0.8393
524.20 0.8387
524.30 0.8381
524.40 0.8375
524.50 0.8369
524.60 0.8363
524.70 0.8356
524.80 0.835
524.90 0.8344
525.00 0.8338
525.10 0.8332
525.20 0.8326
525.30 0.832
525.40 0.8314
525.50 0.8308
525.60 0.8302
525.70 0.8296
525.80 0.829
525.90 0.8283
526.00 0.8277
526.10 0.8271
526.20 0.8265
526.30 0.8259
526.40 0.8253
526.50 0.8247
526.60 0.8241
526.70 0.8235
526.80 0.8229
526.90 0.8223
527.00 0.8217
527.10 0.8211
527.20 0.8205
527.30 0.8199
527.40 0.8193
527.50 0.8187
527.60 0.8181
527.70 0.8176
527.80 0.817
527.90 0.8164
528.00 0.8158
528.10 0.8152
528.20 0.8146
528.30 0.814
528.40 0.8134
528.50 0.8128
528.60 0.8122
528.70 0.8116
528.80 0.811
528.90 0.8105
529.00 0.8099
529.10 0.8093
529.20 0.8087
529.30 0.8081
529.40 0.8075
529.50 0.8069
529.60 0.8063
529.70 0.8058
529.80 0.8052
529.90 0.8046
530.00 0.804
530.10 0.8034
530.20 0.8028
530.30 0.8023
530.40 0.8017
530.50 0.8011
530.60 0.8005
530.70 0.7999
530.80 0.7994
530.90 0.7988
531.00 0.7982
531.10 0.7976
531.20 0.797
531.30 0.7965
531.40 0.7959
531.50 0.7953
531.60 0.7947
531.70 0.7942
531.80 0.7936
531.90 0.793
532.00 0.7924
532.10 0.7919
532.20 0.7913
532.30 0.7907
532.40 0.7902
532.50 0.7896
532.60 0.789
532.70 0.7885
532.80 0.7879
532.90 0.7873
533.00 0.7867
533.10 0.7862
533.20 0.7856
533.30 0.785
533.40 0.7845
533.50 0.7839
533.60 0.7834
533.70 0.7828
533.80 0.7822
533.90 0.7817
534.00 0.7811
534.10 0.7805
534.20 0.78
534.30 0.7794
534.40 0.7788
534.50 0.7783
534.60 0.7777
534.70 0.7772
534.80 0.7766
534.90 0.7761
535.00 0.7755
535.10 0.7749
535.20 0.7744
535.30 0.7738
535.40 0.7733
535.50 0.7727
535.60 0.7722
535.70 0.7716
535.80 0.771
535.90 0.7705
536.00 0.7699
536.10 0.7694
536.20 0.7688
536.30 0.7683
536.40 0.7677
536.50 0.7672
536.60 0.7666
536.70 0.7661
536.80 0.7655
536.90 0.765
537.00 0.7644
537.10 0.7639
537.20 0.7633
537.30 0.7628
537.40 0.7622
537.50 0.7617
537.60 0.7612
537.70 0.7606
537.80 0.7601
537.90 0.7595
538.00 0.759
538.10 0.7584
538.20 0.7579
538.30 0.7574
538.40 0.7568
538.50 0.7563
538.60 0.7557
538.70 0.7552
538.80 0.7547
538.90 0.7541
539.00 0.7536
539.10 0.753
539.20 0.7525
539.30 0.752
539.40 0.7514
539.50 0.7509
539.60 0.7504
539.70 0.7498
539.80 0.7493
539.90 0.7487
540.00 0.7482
540.10 0.7477
540.20 0.7471
540.30 0.7466
540.40 0.7461
540.50 0.7456
540.60 0.745
540.70 0.7445
540.80 0.744
540.90 0.7434
541.00 0.7429
541.10 0.7424
541.20 0.7418
541.30 0.7413
541.40 0.7408
541.50 0.7403
541.60 0.7397
541.70 0.7392
541.80 0.7387
541.90 0.7382
542.00 0.7376
542.10 0.7371
542.20 0.7366
542.30 0.7361
542.40 0.7355
542.50 0.735
542.60 0.7345
542.70 0.734
542.80 0.7335
542.90 0.7329
543.00 0.7324
543.10 0.7319
543.20 0.7314
543.30 0.7309
543.40 0.7303
543.50 0.7298
543.60 0.7293
543.70 0.7288
543.80 0.7283
543.90 0.7278
544.00 0.7272
544.10 0.7267
544.20 0.7262
544.30 0.7257
544.40 0.7252
544.50 0.7247
544.60 0.7242
544.70 0.7236
544.80 0.7231
544.90 0.7226
545.00 0.7221
545.10 0.7216
545.20 0.7211
545.30 0.7206
545.40 0.7201
545.50 0.7196
545.60 0.7191
545.70 0.7186
545.80 0.718
545.90 0.7175
546.00 0.717
546.10 0.7165
546.20 0.716
546.30 0.7155
546.40 0.715
546.50 0.7145
546.60 0.714
546.70 0.7135
546.80 0.713
546.90 0.7125
547.00 0.712
547.10 0.7115
547.20 0.711
547.30 0.7105
547.40 0.71
547.50 0.7095
547.60 0.709
547.70 0.7085
547.80 0.708
547.90 0.7075
548.00 0.707
548.10 0.7065
548.20 0.706
548.30 0.7055
548.40 0.705
548.50 0.7045
548.60 0.704
548.70 0.7035
548.80 0.703
548.90 0.7025
549.00 0.702
549.10 0.7015
549.20 0.7011
549.30 0.7006
549.40 0.7001
549.50 0.6996
549.60 0.6991
549.70 0.6986
549.80 0.6981
549.90 0.6976
550.00 0.6971
550.10 0.6966
550.20 0.6962
550.30 0.6957
550.40 0.6952
550.50 0.6947
550.60 0.6942
550.70 0.6937
550.80 0.6932
550.90 0.6928
551.00 0.6923
551.10 0.6918
551.20 0.6913
551.30 0.6908
551.40 0.6903
551.50 0.6899
551.60 0.6894
551.70 0.6889
551.80 0.6884
551.90 0.6879
552.00 0.6874
552.10 0.687
552.20 0.6865
552.30 0.686
552.40 0.6855
552.50 0.6851
552.60 0.6846
552.70 0.6841
552.80 0.6836
552.90 0.6831
553.00 0.6827
553.10 0.6822
553.20 0.6817
553.30 0.6812
553.40 0.6808
553.50 0.6803
553.60 0.6798
553.70 0.6793
553.80 0.6789
553.90 0.6784
554.00 0.6779
554.10 0.6775
554.20 0.677
554.30 0.6765
554.40 0.676
554.50 0.6756
554.60 0.6751
554.70 0.6746
554.80 0.6742
554.90 0.6737
555.00 0.6732
555.10 0.6728
555.20 0.6723
555.30 0.6718
555.40 0.6714
555.50 0.6709
555.60 0.6704
555.70 0.67
555.80 0.6695
555.90 0.669
556.00 0.6686
556.10 0.6681
556.20 0.6676
556.30 0.6672
556.40 0.6667
556.50 0.6663
556.60 0.6658
556.70 0.6653
556.80 0.6649
556.90 0.6644
557.00 0.6639
557.10 0.6635
557.20 0.663
557.30 0.6626
557.40 0.6621
557.50 0.6617
557.60 0.6612
557.70 0.6607
557.80 0.6603
557.90 0.6598
558.00 0.6594
558.10 0.6589
558.20 0.6585
558.30 0.658
558.40 0.6575
558.50 0.6571
558.60 0.6566
558.70 0.6562
558.80 0.6557
558.90 0.6553
559.00 0.6548
559.10 0.6544
559.20 0.6539
559.30 0.6535
559.40 0.653
559.50 0.6526
559.60 0.6521
559.70 0.6517
559.80 0.6512
559.90 0.6508
560.00 0.6503
560.10 0.6499
560.20 0.6494
560.30 0.649
560.40 0.6485
560.50 0.6481
560.60 0.6476
560.70 0.6472
560.80 0.6468
560.90 0.6463
561.00 0.6459
561.10 0.6454
561.20 0.645
561.30 0.6445
561.40 0.6441
561.50 0.6436
561.60 0.6432
561.70 0.6428
561.80 0.6423
561.90 0.6419
562.00 0.6414
562.10 0.641
562.20 0.6406
562.30 0.6401
562.40 0.6397
562.50 0.6392
562.60 0.6388
562.70 0.6384
562.80 0.6379
562.90 0.6375
563.00 0.6371
563.10 0.6366
563.20 0.6362
563.30 0.6357
563.40 0.6353
563.50 0.6349
563.60 0.6344
563.70 0.634
563.80 0.6336
563.90 0.6331
564.00 0.6327
564.10 0.6323
564.20 0.6318
564.30 0.6314
564.40 0.631
564.50 0.6305
564.60 0.6301
564.70 0.6297
564.80 0.6293
564.90 0.6288
565.00 0.6284
565.10 0.628
565.20 0.6275
565.30 0.6271
565.40 0.6267
565.50 0.6263
565.60 0.6258
565.70 0.6254
565.80 0.625
565.90 0.6245
566.00 0.6241
566.10 0.6237
566.20 0.6233
566.30 0.6228
566.40 0.6224
566.50 0.622
566.60 0.6216
566.70 0.6211
566.80 0.6207
566.90 0.6203
567.00 0.6199
567.10 0.6195
567.20 0.619
567.30 0.6186
567.40 0.6182
567.50 0.6178
567.60 0.6174
567.70 0.6169
567.80 0.6165
567.90 0.6161
568.00 0.6157
568.10 0.6153
568.20 0.6148
568.30 0.6144
568.40 0.614
568.50 0.6136
568.60 0.6132
568.70 0.6128
568.80 0.6123
568.90 0.6119
569.00 0.6115
569.10 0.6111
569.20 0.6107
569.30 0.6103
569.40 0.6099
569.50 0.6094
569.60 0.609
569.70 0.6086
569.80 0.6082
569.90 0.6078
570.00 0.6074
570.10 0.607
570.20 0.6066
570.30 0.6061
570.40 0.6057
570.50 0.6053
570.60 0.6049
570.70 0.6045
570.80 0.6041
570.90 0.6037
571.00 0.6033
571.10 0.6029
571.20 0.6025
571.30 0.6021
571.40 0.6017
571.50 0.6012
571.60 0.6008
571.70 0.6004
571.80 0.6
571.90 0.5996
572.00 0.5992
572.10 0.5988
572.20 0.5984
572.30 0.598
572.40 0.5976
572.50 0.5972
572.60 0.5968
572.70 0.5964
572.80 0.596
572.90 0.5956
573.00 0.5952
573.10 0.5948
573.20 0.5944
573.30 0.594
573.40 0.5936
573.50 0.5932
573.60 0.5928
573.70 0.5924
573.80 0.592
573.90 0.5916
574.00 0.5912
574.10 0.5908
574.20 0.5904
574.30 0.59
574.40 0.5896
574.50 0.5892
574.60 0.5888
574.70 0.5884
574.80 0.588
574.90 0.5876
575.00 0.5872
575.10 0.5868
575.20 0.5864
575.30 0.586
575.40 0.5857
575.50 0.5853
575.60 0.5849
575.70 0.5845
575.80 0.5841
575.90 0.5837
576.00 0.5833
576.10 0.5829
576.20 0.5825
576.30 0.5821
576.40 0.5817
576.50 0.5813
576.60 0.581
576.70 0.5806
576.80 0.5802
576.90 0.5798
577.00 0.5794
577.10 0.579
577.20 0.5786
577.30 0.5782
577.40 0.5779
577.50 0.5775
577.60 0.5771
577.70 0.5767
577.80 0.5763
577.90 0.5759
578.00 0.5755
578.10 0.5752
578.20 0.5748
578.30 0.5744
578.40 0.574
578.50 0.5736
578.60 0.5732
578.70 0.5729
578.80 0.5725
578.90 0.5721
579.00 0.5717
579.10 0.5713
579.20 0.5709
579.30 0.5706
579.40 0.5702
579.50 0.5698
579.60 0.5694
579.70 0.569
579.80 0.5687
579.90 0.5683
580.00 0.5679
580.10 0.5675
580.20 0.5672
580.30 0.5668
580.40 0.5664
580.50 0.566
580.60 0.5656
580.70 0.5653
580.80 0.5649
580.90 0.5645
581.00 0.5641
581.10 0.5638
581.20 0.5634
581.30 0.563
581.40 0.5626
581.50 0.5623
581.60 0.5619
581.70 0.5615
581.80 0.5611
581.90 0.5608
582.00 0.5604
582.10 0.56
582.20 0.5597
582.30 0.5593
582.40 0.5589
582.50 0.5585
582.60 0.5582
582.70 0.5578
582.80 0.5574
582.90 0.5571
583.00 0.5567
583.10 0.5563
583.20 0.556
583.30 0.5556
583.40 0.5552
583.50 0.5549
583.60 0.5545
583.70 0.5541
583.80 0.5538
583.90 0.5534
584.00 0.553
584.10 0.5527
584.20 0.5523
584.30 0.5519
584.40 0.5516
584.50 0.5512
584.60 0.5508
584.70 0.5505
584.80 0.5501
584.90 0.5497
585.00 0.5494
585.10 0.549
585.20 0.5486
585.30 0.5483
585.40 0.5479
585.50 0.5476
585.60 0.5472
585.70 0.5468
585.80 0.5465
585.90 0.5461
586.00 0.5458
586.10 0.5454
586.20 0.545
586.30 0.5447
586.40 0.5443
586.50 0.544
586.60 0.5436
586.70 0.5432
586.80 0.5429
586.90 0.5425
587.00 0.5422
587.10 0.5418
587.20 0.5415
587.30 0.5411
587.40 0.5407
587.50 0.5404
587.60 0.54
587.70 0.5397
587.80 0.5393
587.90 0.539
588.00 0.5386
588.10 0.5383
588.20 0.5379
588.30 0.5376
588.40 0.5372
588.50 0.5368
588.60 0.5365
588.70 0.5361
588.80 0.5358
588.90 0.5354
589.00 0.5351
589.10 0.5347
589.20 0.5344
589.30 0.534
589.40 0.5337
589.50 0.5333
589.60 0.533
589.70 0.5326
589.80 0.5323
589.90 0.5319
590.00 0.5316
590.10 0.5312
590.20 0.5309
590.30 0.5305
590.40 0.5302
590.50 0.5298
590.60 0.5295
590.70 0.5292
590.80 0.5288
590.90 0.5285
591.00 0.5281
591.10 0.5278
591.20 0.5274
591.30 0.5271
591.40 0.5267
591.50 0.5264
591.60 0.526
591.70 0.5257
591.80 0.5254
591.90 0.525
592.00 0.5247
592.10 0.5243
592.20 0.524
592.30 0.5236
592.40 0.5233
592.50 0.523
592.60 0.5226
592.70 0.5223
592.80 0.5219
592.90 0.5216
593.00 0.5213
593.10 0.5209
593.20 0.5206
593.30 0.5202
593.40 0.5199
593.50 0.5196
593.60 0.5192
593.70 0.5189
593.80 0.5185
593.90 0.5182
594.00 0.5179
594.10 0.5175
594.20 0.5172
594.30 0.5169
594.40 0.5165
594.50 0.5162
594.60 0.5159
594.70 0.5155
594.80 0.5152
594.90 0.5148
595.00 0.5145
595.10 0.5142
595.20 0.5138
595.30 0.5135
595.40 0.5132
595.50 0.5128
595.60 0.5125
595.70 0.5122
595.80 0.5118
595.90 0.5115
596.00 0.5112
596.10 0.5108
596.20 0.5105
596.30 0.5102
596.40 0.5099
596.50 0.5095
596.60 0.5092
596.70 0.5089
596.80 0.5085
596.90 0.5082
597.00 0.5079
597.10 0.5075
597.20 0.5072
597.30 0.5069
597.40 0.5066
597.50 0.5062
597.60 0.5059
597.70 0.5056
597.80 0.5052
597.90 0.5049
598.00 0.5046
598.10 0.5043
598.20 0.5039
598.30 0.5036
598.40 0.5033
598.50 0.503
598.60 0.5026
598.70 0.5023
598.80 0.502
598.90 0.5017
599.00 0.5013
599.10 0.501
599.20 0.5007
599.30 0.5004
599.40 0.5
599.50 0.4997
599.60 0.4994
599.70 0.4991
599.80 0.4988
599.90 0.4984
600.00 0.4981
600.10 0.4978
600.20 0.4975
600.30 0.4971
600.40 0.4968
600.50 0.4965
600.60 0.4962
600.70 0.4959
600.80 0.4955
600.90 0.4952
601.00 0.4949
601.10 0.4946
601.20 0.4943
601.30 0.494
601.40 0.4936
601.50 0.4933
601.60 0.493
601.70 0.4927
601.80 0.4924
601.90 0.492
602.00 0.4917
602.10 0.4914
602.20 0.4911
602.30 0.4908
602.40 0.4905
602.50 0.4902
602.60 0.4898
602.70 0.4895
602.80 0.4892
602.90 0.4889
603.00 0.4886
603.10 0.4883
603.20 0.488
603.30 0.4876
603.40 0.4873
603.50 0.487
603.60 0.4867
603.70 0.4864
603.80 0.4861
603.90 0.4858
604.00 0.4855
604.10 0.4851
604.20 0.4848
604.30 0.4845
604.40 0.4842
604.50 0.4839
604.60 0.4836
604.70 0.4833
604.80 0.483
604.90 0.4827
605.00 0.4824
605.10 0.482
605.20 0.4817
605.30 0.4814
605.40 0.4811
605.50 0.4808
605.60 0.4805
605.70 0.4802
605.80 0.4799
605.90 0.4796
606.00 0.4793
606.10 0.479
606.20 0.4787
606.30 0.4784
606.40 0.4781
606.50 0.4777
606.60 0.4774
606.70 0.4771
606.80 0.4768
606.90 0.4765
607.00 0.4762
607.10 0.4759
607.20 0.4756
607.30 0.4753
607.40 0.475
607.50 0.4747
607.60 0.4744
607.70 0.4741
607.80 0.4738
607.90 0.4735
608.00 0.4732
608.10 0.4729
608.20 0.4726
608.30 0.4723
608.40 0.472
608.50 0.4717
608.60 0.4714
608.70 0.4711
608.80 0.4708
608.90 0.4705
609.00 0.4702
609.10 0.4699
609.20 0.4696
609.30 0.4693
609.40 0.469
609.50 0.4687
609.60 0.4684
609.70 0.4681
609.80 0.4678
609.90 0.4675
610.00 0.4672
610.10 0.4669
610.20 0.4666
610.30 0.4663
610.40 0.466
610.50 0.4657
610.60 0.4654
610.70 0.4651
610.80 0.4648
610.90 0.4645
611.00 0.4642
611.10 0.4639
611.20 0.4637
611.30 0.4634
611.40 0.4631
611.50 0.4628
611.60 0.4625
611.70 0.4622
611.80 0.4619
611.90 0.4616
612.00 0.4613
612.10 0.461
612.20 0.4607
612.30 0.4604
612.40 0.4601
612.50 0.4598
612.60 0.4596
612.70 0.4593
612.80 0.459
612.90 0.4587
613.00 0.4584
613.10 0.4581
613.20 0.4578
613.30 0.4575
613.40 0.4572
613.50 0.4569
613.60 0.4567
613.70 0.4564
613.80 0.4561
613.90 0.4558
614.00 0.4555
614.10 0.4552
614.20 0.4549
614.30 0.4546
614.40 0.4543
614.50 0.4541
614.60 0.4538
614.70 0.4535
614.80 0.4532
614.90 0.4529
615.00 0.4526
615.10 0.4523
615.20 0.4521
615.30 0.4518
615.40 0.4515
615.50 0.4512
615.60 0.4509
615.70 0.4506
615.80 0.4503
615.90 0.4501
616.00 0.4498
616.10 0.4495
616.20 0.4492
616.30 0.4489
616.40 0.4486
616.50 0.4484
616.60 0.4481
616.70 0.4478
616.80 0.4475
616.90 0.4472
617.00 0.4469
617.10 0.4467
617.20 0.4464
617.30 0.4461
617.40 0.4458
617.50 0.4455
617.60 0.4453
617.70 0.445
617.80 0.4447
617.90 0.4444
618.00 0.4441
618.10 0.4439
618.20 0.4436
618.30 0.4433
618.40 0.443
618.50 0.4427
618.60 0.4425
618.70 0.4422
618.80 0.4419
618.90 0.4416
619.00 0.4414
619.10 0.4411
619.20 0.4408
619.30 0.4405
619.40 0.4402
619.50 0.44
619.60 0.4397
619.70 0.4394
619.80 0.4391
619.90 0.4389
620.00 0.4386
620.10 0.4383
620.20 0.438
620.30 0.4378
620.40 0.4375
620.50 0.4372
620.60 0.4369
620.70 0.4367
620.80 0.4364
620.90 0.4361
621.00 0.4358
621.10 0.4356
621.20 0.4353
621.30 0.435
621.40 0.4347
621.50 0.4345
621.60 0.4342
621.70 0.4339
621.80 0.4337
621.90 0.4334
622.00 0.4331
622.10 0.4328
622.20 0.4326
622.30 0.4323
622.40 0.432
622.50 0.4318
622.60 0.4315
622.70 0.4312
622.80 0.4309
622.90 0.4307
623.00 0.4304
623.10 0.4301
623.20 0.4299
623.30 0.4296
623.40 0.4293
623.50 0.4291
623.60 0.4288
623.70 0.4285
623.80 0.4283
623.90 0.428
624.00 0.4277
624.10 0.4274
624.20 0.4272
624.30 0.4269
624.40 0.4266
624.50 0.4264
624.60 0.4261
624.70 0.4258
624.80 0.4256
624.90 0.4253
625.00 0.425
625.10 0.4248
625.20 0.4245
625.30 0.4243
625.40 0.424
625.50 0.4237
625.60 0.4235
625.70 0.4232
625.80 0.4229
625.90 0.4227
626.00 0.4224
626.10 0.4221
626.20 0.4219
626.30 0.4216
626.40 0.4213
626.50 0.4211
626.60 0.4208
626.70 0.4205
626.80 0.4203
626.90 0.42
627.00 0.4198
627.10 0.4195
627.20 0.4192
627.30 0.419
627.40 0.4187
627.50 0.4184
627.60 0.4182
627.70 0.4179
627.80 0.4177
627.90 0.4174
628.00 0.4171
628.10 0.4169
628.20 0.4166
628.30 0.4164
628.40 0.4161
628.50 0.4158
628.60 0.4156
628.70 0.4153
628.80 0.4151
628.90 0.4148
629.00 0.4145
629.10 0.4143
629.20 0.414
629.30 0.4138
629.40 0.4135
629.50 0.4132
629.60 0.413
629.70 0.4127
629.80 0.4125
629.90 0.4122
630.00 0.4119
630.10 0.4117
630.20 0.4114
630.30 0.4112
630.40 0.4109
630.50 0.4107
630.60 0.4104
630.70 0.4101
630.80 0.4099
630.90 0.4096
631.00 0.4094
631.10 0.4091
631.20 0.4089
631.30 0.4086
631.40 0.4084
631.50 0.4081
631.60 0.4078
631.70 0.4076
631.80 0.4073
631.90 0.4071
632.00 0.4068
632.10 0.4066
632.20 0.4063
632.30 0.406
632.40 0.4058
632.50 0.4055
632.60 0.4053
632.70 0.405
632.80 0.4048
632.90 0.4045
633.00 0.4043
633.10 0.404
633.20 0.4038
633.30 0.4035
633.40 0.4032
633.50 0.403
633.60 0.4027
633.70 0.4025
633.80 0.4022
633.90 0.402
634.00 0.4017
634.10 0.4015
634.20 0.4012
634.30 0.401
634.40 0.4007
634.50 0.4005
634.60 0.4002
634.70 0.4
634.80 0.3997
634.90 0.3994
635.00 0.3992
635.10 0.3989
635.20 0.3987
635.30 0.3984
635.40 0.3982
635.50 0.3979
635.60 0.3977
635.70 0.3974
635.80 0.3972
635.90 0.3969
636.00 0.3967
636.10 0.3964
636.20 0.3962
636.30 0.3959
636.40 0.3957
636.50 0.3954
636.60 0.3952
636.70 0.3949
636.80 0.3947
636.90 0.3944
637.00 0.3941
637.10 0.3939
637.20 0.3936
637.30 0.3934
637.40 0.3931
637.50 0.3929
637.60 0.3926
637.70 0.3924
637.80 0.3921
637.90 0.3919
638.00 0.3916
638.10 0.3914
638.20 0.3911
638.30 0.3909
638.40 0.3906
638.50 0.3904
638.60 0.3901
638.70 0.3899
638.80 0.3896
638.90 0.3894
639.00 0.3891
639.10 0.3888
639.20 0.3886
639.30 0.3883
639.40 0.3881
639.50 0.3878
639.60 0.3876
639.70 0.3873
639.80 0.3871
639.90 0.3868
640.00 0.3866
640.10 0.3863
640.20 0.3861
640.30 0.3858
640.40 0.3855
640.50 0.3853
640.60 0.385
640.70 0.3848
640.80 0.3845
640.90 0.3843
641.00 0.384
641.10 0.3838
641.20 0.3835
641.30 0.3832
641.40 0.383
641.50 0.3827
641.60 0.3825
641.70 0.3822
641.80 0.3819
641.90 0.3817
642.00 0.3814
642.10 0.3812
642.20 0.3809
642.30 0.3807
642.40 0.3804
642.50 0.3801
642.60 0.3799
642.70 0.3796
642.80 0.3793
642.90 0.3791
643.00 0.3788
643.10 0.3785
643.20 0.3783
643.30 0.378
643.40 0.3778
643.50 0.3775
643.60 0.3772
643.70 0.3769
643.80 0.3767
643.90 0.3764
644.00 0.3761
644.10 0.3759
644.20 0.3756
644.30 0.3753
644.40 0.375
644.50 0.3748
644.60 0.3745
644.70 0.3742
644.80 0.3739
644.90 0.3737
645.00 0.3734
645.10 0.3731
645.20 0.3728
645.30 0.3725
645.40 0.3723
645.50 0.372
645.60 0.3717
645.70 0.3714
645.80 0.3711
645.90 0.3708
646.00 0.3705
646.10 0.3702
646.20 0.3699
646.30 0.3696
646.40 0.3693
646.50 0.369
646.60 0.3687
646.70 0.3684
646.80 0.3681
646.90 0.3678
647.00 0.3675
647.10 0.3672
647.20 0.3669
647.30 0.3666
647.40 0.3663
647.50 0.3659
647.60 0.3656
647.70 0.3653
647.80 0.3649
647.90 0.3646
648.00 0.3643
648.10 0.3639
648.20 0.3636
648.30 0.3633
648.40 0.3629
648.50 0.3626
648.60 0.3622
648.70 0.3618
648.80 0.3615
648.90 0.3611
649.00 0.3608
649.10 0.3604
649.20 0.36
649.30 0.3597
649.40 0.3593
649.50 0.3589
649.60 0.3585
649.70 0.3581
649.80 0.3577
649.90 0.3573
650.00 0.3569
650.10 0.3565
650.20 0.356
650.30 0.3556
650.40 0.3552
650.50 0.3547
650.60 0.3542
650.70 0.3538
650.80 0.3533
650.90 0.3529
651.00 0.3524
651.10 0.3519
651.20 0.3515
651.30 0.351
651.40 0.3505
651.50 0.3499
651.60 0.3494
651.70 0.3488
651.80 0.3483
651.90 0.3478
652.00 0.3472
652.10 0.3467
652.20 0.3461
652.30 0.3456
652.40 0.3449
652.50 0.3443
652.60 0.3437
652.70 0.343
652.80 0.3424
652.90 0.3418
653.00 0.3411
653.10 0.3405
653.20 0.3398
653.30 0.3392
653.40 0.3384
653.50 0.3377
653.60 0.3369
653.70 0.3362
653.80 0.3354
653.90 0.3347
654.00 0.3339
654.10 0.3332
654.20 0.3324
654.30 0.3317
654.40 0.3308
654.50 0.33
654.60 0.3292
654.70 0.3284
654.80 0.3275
654.90 0.3267
655.00 0.3259
655.10 0.325
655.20 0.3242
655.30 0.3234
655.40 0.3226
655.50 0.3218
655.60 0.3211
655.70 0.3204
655.80 0.32
655.90 0.3198
656.00 0.3206
656.10 0.3219
656.20 0.3312
656.30 0.3437
656.40 0.3256
656.50 0.3204
656.60 0.3192
656.70 0.3182
656.80 0.3183
656.90 0.3184
657.00 0.3187
657.10 0.3191
657.20 0.3195
657.30 0.3199
657.40 0.3204
657.50 0.3209
657.60 0.3213
657.70 0.3218
657.80 0.3222
657.90 0.3227
658.00 0.3231
658.10 0.3236
658.20 0.324
658.30 0.3244
658.40 0.3248
658.50 0.3251
658.60 0.3255
658.70 0.3259
658.80 0.3262
658.90 0.3266
659.00 0.3269
659.10 0.3273
659.20 0.3276
659.30 0.328
659.40 0.3282
659.50 0.3284
659.60 0.3287
659.70 0.3289
659.80 0.3291
659.90 0.3293
660.00 0.3296
660.10 0.3298
660.20 0.33
660.30 0.3303
660.40 0.3304
660.50 0.3305
660.60 0.3306
660.70 0.3308
660.80 0.3309
660.90 0.331
661.00 0.3311
661.10 0.3313
661.20 0.3314
661.30 0.3315
661.40 0.3315
661.50 0.3316
661.60 0.3316
661.70 0.3317
661.80 0.3317
661.90 0.3318
662.00 0.3318
662.10 0.3318
662.20 0.3319
662.30 0.3319
662.40 0.3319
662.50 0.3319
662.60 0.3319
662.70 0.3318
662.80 0.3318
662.90 0.3318
663.00 0.3318
663.10 0.3318
663.20 0.3317
663.30 0.3317
663.40 0.3316
663.50 0.3316
663.60 0.3315
663.70 0.3315
663.80 0.3314
663.90 0.3313
664.00 0.3313
664.10 0.3312
664.20 0.3311
664.30 0.3311
664.40 0.331
664.50 0.3309
664.60 0.3308
664.70 0.3307
664.80 0.3306
664.90 0.3305
665.00 0.3304
665.10 0.3303
665.20 0.3302
665.30 0.3301
665.40 0.33
665.50 0.3299
665.60 0.3298
665.70 0.3296
665.80 0.3295
665.90 0.3294
666.00 0.3293
666.10 0.3292
666.20 0.329
666.30 0.3289
666.40 0.3288
666.50 0.3287
666.60 0.3285
666.70 0.3284
666.80 0.3283
666.90 0.3281
667.00 0.328
667.10 0.3279
667.20 0.3277
667.30 0.3276
667.40 0.3274
667.50 0.3273
667.60 0.3271
667.70 0.327
667.80 0.3269
667.90 0.3267
668.00 0.3266
668.10 0.3264
668.20 0.3263
668.30 0.3261
668.40 0.326
668.50 0.3258
668.60 0.3257
668.70 0.3255
668.80 0.3253
668.90 0.3252
669.00 0.325
669.10 0.3249
669.20 0.3247
669.30 0.3246
669.40 0.3244
669.50 0.3243
669.60 0.3241
669.70 0.3239
669.80 0.3238
669.90 0.3236
670.00 0.3235
670.10 0.3233
670.20 0.3231
670.30 0.323
670.40 0.3228
670.50 0.3226
670.60 0.3225
670.70 0.3223
670.80 0.3221
670.90 0.322
671.00 0.3218
671.10 0.3217
671.20 0.3215
671.30 0.3213
671.40 0.3212
671.50 0.321
671.60 0.3208
671.70 0.3207
671.80 0.3205
671.90 0.3203
672.00 0.3202
672.10 0.32
672.20 0.3198
672.30 0.3197
672.40 0.3195
672.50 0.3193
672.60 0.3191
672.70 0.319
672.80 0.3188
672.90 0.3186
673.00 0.3185
673.10 0.3183
673.20 0.3181
673.30 0.318
673.40 0.3178
673.50 0.3176
673.60 0.3174
673.70 0.3173
673.80 0.3171
673.90 0.3169
674.00 0.3168
674.10 0.3166
674.20 0.3164
674.30 0.3163
674.40 0.3161
674.50 0.3159
674.60 0.3157
674.70 0.3156
674.80 0.3154
674.90 0.3152
675.00 0.3151
675.10 0.3149
675.20 0.3147
675.30 0.3145
675.40 0.3144
675.50 0.3142
675.60 0.314
675.70 0.3139
675.80 0.3137
675.90 0.3135
676.00 0.3133
676.10 0.3132
676.20 0.313
676.30 0.3128
676.40 0.3127
676.50 0.3125
676.60 0.3123
676.70 0.3121
676.80 0.312
676.90 0.3118
677.00 0.3116
677.10 0.3114
677.20 0.3113
677.30 0.3111
677.40 0.3109
677.50 0.3108
677.60 0.3106
677.70 0.3104
677.80 0.3102
677.90 0.3101
678.00 0.3099
678.10 0.3097
678.20 0.3096
678.30 0.3094
678.40 0.3092
678.50 0.309
678.60 0.3089
678.70 0.3087
678.80 0.3085
678.90 0.3084
679.00 0.3082
679.10 0.308
679.20 0.3078
679.30 0.3077
679.40 0.3075
679.50 0.3073
679.60 0.3072
679.70 0.307
679.80 0.3068
679.90 0.3067
680.00 0.3065
680.10 0.3063
680.20 0.3061
680.30 0.306
680.40 0.3058
680.50 0.3056
680.60 0.3055
680.70 0.3053
680.80 0.3051
680.90 0.3049
681.00 0.3048
681.10 0.3046
681.20 0.3044
681.30 0.3043
681.40 0.3041
681.50 0.3039
681.60 0.3038
681.70 0.3036
681.80 0.3034
681.90 0.3033
682.00 0.3031
682.10 0.3029
682.20 0.3027
682.30 0.3026
682.40 0.3024
682.50 0.3022
682.60 0.3021
682.70 0.3019
682.80 0.3017
682.90 0.3016
683.00 0.3014
683.10 0.3012
683.20 0.3011
683.30 0.3009
683.40 0.3007
683.50 0.3006
683.60 0.3004
683.70 0.3002
683.80 0.3001
683.90 0.2999
684.00 0.2997
684.10 0.2995
684.20 0.2994
684.30 0.2992
684.40 0.299
684.50 0.2989
684.60 0.2987
684.70 0.2985
684.80 0.2984
684.90 0.2982
685.00 0.298
685.10 0.2979
685.20 0.2977
685.30 0.2975
685.40 0.2974
685.50 0.2972
685.60 0.297
685.70 0.2969
685.80 0.2967
685.90 0.2965
686.00 0.2964
686.10 0.2962
686.20 0.2961
686.30 0.2959
686.40 0.2957
686.50 0.2956
686.60 0.2954
686.70 0.2952
686.80 0.2951
686.90 0.2949
687.00 0.2947
687.10 0.2946
687.20 0.2944
687.30 0.2942
687.40 0.2941
687.50 0.2939
687.60 0.2937
687.70 0.2936
687.80 0.2934
687.90 0.2933
688.00 0.2931
688.10 0.2929
688.20 0.2928
688.30 0.2926
688.40 0.2924
688.50 0.2923
688.60 0.2921
688.70 0.2919
688.80 0.2918
688.90 0.2916
689.00 0.2915
689.10 0.2913
689.20 0.2911
689.30 0.291
689.40 0.2908
689.50 0.2906
689.60 0.2905
689.70 0.2903
689.80 0.2902
689.90 0.29
690.00 0.2898
690.10 0.2897
690.20 0.2895
690.30 0.2894
690.40 0.2892
690.50 0.289
690.60 0.2889
690.70 0.2887
690.80 0.2885
690.90 0.2884
691.00 0.2882
691.10 0.2881
691.20 0.2879
691.30 0.2877
691.40 0.2876
691.50 0.2874
691.60 0.2873
691.70 0.2871
691.80 0.2869
691.90 0.2868
692.00 0.2866
692.10 0.2865
692.20 0.2863
692.30 0.2861
692.40 0.286
692.50 0.2858
692.60 0.2857
692.70 0.2855
692.80 0.2854
692.90 0.2852
693.00 0.285
693.10 0.2849
693.20 0.2847
693.30 0.2846
693.40 0.2844
693.50 0.2842
693.60 0.2841
693.70 0.2839
693.80 0.2838
693.90 0.2836
694.00 0.2834
694.10 0.2833
694.20 0.2831
694.30 0.283
694.40 0.2828
694.50 0.2827
694.60 0.2825
694.70 0.2823
694.80 0.2822
694.90 0.282
695.00 0.2819
695.10 0.2817
695.20 0.2816
695.30 0.2814
695.40 0.2812
695.50 0.2811
695.60 0.2809
695.70 0.2808
695.80 0.2806
695.90 0.2805
696.00 0.2803
696.10 0.2802
696.20 0.28
696.30 0.2798
696.40 0.2797
696.50 0.2795
696.60 0.2794
696.70 0.2792
696.80 0.2791
696.90 0.2789
697.00 0.2788
697.10 0.2786
697.20 0.2785
697.30 0.2783
697.40 0.2781
697.50 0.278
697.60 0.2778
697.70 0.2777
697.80 0.2775
697.90 0.2774
698.00 0.2772
698.10 0.2771
698.20 0.2769
698.30 0.2768
698.40 0.2766
698.50 0.2765
698.60 0.2763
698.70 0.2762
698.80 0.276
698.90 0.2758
699.00 0.2757
699.10 0.2755
699.20 0.2754
699.30 0.2752
699.40 0.2751
699.50 0.2749
699.60 0.2748
699.70 0.2746
699.80 0.2745
699.90 0.2743
700.00 0.2742
700.10 0.274
700.20 0.2739
700.30 0.2737
700.40 0.2736
700.50 0.2734
700.60 0.2733
700.70 0.2731
700.80 0.273
700.90 0.2728
701.00 0.2727
701.10 0.2725
701.20 0.2724
701.30 0.2722
701.40 0.2721
701.50 0.2719
701.60 0.2718
701.70 0.2716
701.80 0.2715
701.90 0.2713
702.00 0.2712
702.10 0.271
702.20 0.2709
702.30 0.2707
702.40 0.2706
702.50 0.2704
702.60 0.2703
702.70 0.2701
702.80 0.27
702.90 0.2698
703.00 0.2697
703.10 0.2695
703.20 0.2694
703.30 0.2692
703.40 0.2691
703.50 0.2689
703.60 0.2688
703.70 0.2686
703.80 0.2685
703.90 0.2683
704.00 0.2682
704.10 0.268
704.20 0.2679
704.30 0.2677
704.40 0.2676
704.50 0.2675
704.60 0.2673
704.70 0.2672
704.80 0.267
704.90 0.2669
705.00 0.2667
705.10 0.2666
705.20 0.2664
705.30 0.2663
705.40 0.2661
705.50 0.266
705.60 0.2658
705.70 0.2657
705.80 0.2655
705.90 0.2654
706.00 0.2653
706.10 0.2651
706.20 0.265
706.30 0.2648
706.40 0.2647
706.50 0.2645
706.60 0.2644
706.70 0.2642
706.80 0.2641
706.90 0.264
707.00 0.2638
707.10 0.2637
707.20 0.2635
707.30 0.2634
707.40 0.2632
707.50 0.2631
707.60 0.2629
707.70 0.2628
707.80 0.2627
707.90 0.2625
708.00 0.2624
708.10 0.2622
708.20 0.2621
708.30 0.2619
708.40 0.2618
708.50 0.2617
708.60 0.2615
708.70 0.2614
708.80 0.2612
708.90 0.2611
709.00 0.2609
709.10 0.2608
709.20 0.2607
709.30 0.2605
709.40 0.2604
709.50 0.2602
709.60 0.2601
709.70 0.2599
709.80 0.2598
709.90 0.2597
710.00 0.2595
710.10 0.2594
710.20 0.2592
710.30 0.2591
710.40 0.2589
710.50 0.2588
710.60 0.2587
710.70 0.2585
710.80 0.2584
710.90 0.2582
711.00 0.2581
711.10 0.258
711.20 0.2578
711.30 0.2577
711.40 0.2575
711.50 0.2574
711.60 0.2573
711.70 0.2571
711.80 0.257
711.90 0.2568
712.00 0.2567
712.10 0.2566
712.20 0.2564
712.30 0.2563
712.40 0.2561
712.50 0.256
712.60 0.2559
712.70 0.2557
712.80 0.2556
712.90 0.2554
713.00 0.2553
713.10 0.2552
713.20 0.255
713.30 0.2549
713.40 0.2548
713.50 0.2546
713.60 0.2545
713.70 0.2543
713.80 0.2542
713.90 0.2541
714.00 0.2539
714.10 0.2538
714.20 0.2536
714.30 0.2535
714.40 0.2534
714.50 0.2532
714.60 0.2531
714.70 0.253
714.80 0.2528
714.90 0.2527
715.00 0.2525
715.10 0.2524
715.20 0.2523
715.30 0.2521
715.40 0.252
715.50 0.2519
715.60 0.2517
715.70 0.2516
715.80 0.2515
715.90 0.2513
716.00 0.2512
716.10 0.251
716.20 0.2509
716.30 0.2508
716.40 0.2506
716.50 0.2505
716.60 0.2504
716.70 0.2502
716.80 0.2501
716.90 0.25
717.00 0.2498
717.10 0.2497
717.20 0.2496
717.30 0.2494
717.40 0.2493
717.50 0.2492
717.60 0.249
717.70 0.2489
717.80 0.2488
717.90 0.2486
718.00 0.2485
718.10 0.2483
718.20 0.2482
718.30 0.2481
718.40 0.2479
718.50 0.2478
718.60 0.2477
718.70 0.2475
718.80 0.2474
718.90 0.2473
719.00 0.2471
719.10 0.247
719.20 0.2469
719.30 0.2467
719.40 0.2466
719.50 0.2465
719.60 0.2463
719.70 0.2462
719.80 0.2461
719.90 0.2459
720.00 0.2458
720.10 0.2457
720.20 0.2455
720.30 0.2454
720.40 0.2453
720.50 0.2451
720.60 0.245
720.70 0.2449
720.80 0.2448
720.90 0.2446
721.00 0.2445
721.10 0.2444
721.20 0.2442
721.30 0.2441
721.40 0.244
721.50 0.2438
721.60 0.2437
721.70 0.2436
721.80 0.2434
721.90 0.2433
722.00 0.2432
722.10 0.2431
722.20 0.2429
722.30 0.2428
722.40 0.2427
722.50 0.2425
722.60 0.2424
722.70 0.2423
722.80 0.2421
722.90 0.242
723.00 0.2419
723.10 0.2417
723.20 0.2416
723.30 0.2415
723.40 0.2414
723.50 0.2412
723.60 0.2411
723.70 0.241
723.80 0.2408
723.90 0.2407
724.00 0.2406
724.10 0.2405
724.20 0.2403
724.30 0.2402
724.40 0.2401
724.50 0.2399
724.60 0.2398
724.70 0.2397
724.80 0.2396
724.90 0.2394
725.00 0.2393
725.10 0.2392
725.20 0.239
725.30 0.2389
725.40 0.2388
725.50 0.2387
725.60 0.2385
725.70 0.2384
725.80 0.2383
725.90 0.2381
726.00 0.238
726.10 0.2379
726.20 0.2378
726.30 0.2376
726.40 0.2375
726.50 0.2374
726.60 0.2373
726.70 0.2371
726.80 0.237
726.90 0.2369
727.00 0.2368
727.10 0.2366
727.20 0.2365
727.30 0.2364
727.40 0.2363
727.50 0.2361
727.60 0.236
727.70 0.2359
727.80 0.2357
727.90 0.2356
728.00 0.2355
728.10 0.2354
728.20 0.2352
728.30 0.2351
728.40 0.235
728.50 0.2349
728.60 0.2347
728.70 0.2346
728.80 0.2345
728.90 0.2344
729.00 0.2342
729.10 0.2341
729.20 0.234
729.30 0.2339
729.40 0.2337
729.50 0.2336
729.60 0.2335
729.70 0.2334
729.80 0.2332
729.90 0.2331
730.00 0.233
730.10 0.2329
730.20 0.2327
730.30 0.2326
730.40 0.2325
730.50 0.2324
730.60 0.2323
730.70 0.2321
730.80 0.232
730.90 0.2319
731.00 0.2318
731.10 0.2316
731.20 0.2315
731.30 0.2314
731.40 0.2313
731.50 0.2312
731.60 0.231
731.70 0.2309
731.80 0.2308
731.90 0.2307
732.00 0.2305
732.10 0.2304
732.20 0.2303
732.30 0.2302
732.40 0.2301
732.50 0.2299
732.60 0.2298
732.70 0.2297
732.80 0.2296
732.90 0.2295
733.00 0.2293
733.10 0.2292
733.20 0.2291
733.30 0.229
733.40 0.2289
733.50 0.2287
733.60 0.2286
733.70 0.2285
733.80 0.2284
733.90 0.2282
734.00 0.2281
734.10 0.228
734.20 0.2279
734.30 0.2278
734.40 0.2276
734.50 0.2275
734.60 0.2274
734.70 0.2273
734.80 0.2272
734.90 0.227
735.00 0.2269
735.10 0.2268
735.20 0.2267
735.30 0.2266
735.40 0.2264
735.50 0.2263
735.60 0.2262
735.70 0.2261
735.80 0.226
735.90 0.2258
736.00 0.2257
736.10 0.2256
736.20 0.2255
736.30 0.2254
736.40 0.2253
736.50 0.2251
736.60 0.225
736.70 0.2249
736.80 0.2248
736.90 0.2247
737.00 0.2245
737.10 0.2244
737.20 0.2243
737.30 0.2242
737.40 0.2241
737.50 0.2239
737.60 0.2238
737.70 0.2237
737.80 0.2236
737.90 0.2235
738.00 0.2234
738.10 0.2232
738.20 0.2231
738.30 0.223
738.40 0.2229
738.50 0.2228
738.60 0.2226
738.70 0.2225
738.80 0.2224
738.90 0.2223
739.00 0.2222
739.10 0.2221
739.20 0.2219
739.30 0.2218
739.40 0.2217
739.50 0.2216
739.60 0.2215
739.70 0.2214
739.80 0.2212
739.90 0.2211
740.00 0.221
740.10 0.2209
740.20 0.2208
740.30 0.2207
740.40 0.2205
740.50 0.2204
740.60 0.2203
740.70 0.2202
740.80 0.2201
740.90 0.22
741.00 0.2199
741.10 0.2197
741.20 0.2196
741.30 0.2195
741.40 0.2194
741.50 0.2193
741.60 0.2192
741.70 0.2191
741.80 0.2189
741.90 0.2188
742.00 0.2187
742.10 0.2186
742.20 0.2185
742.30 0.2184
742.40 0.2183
742.50 0.2181
742.60 0.218
742.70 0.2179
742.80 0.2178
742.90 0.2177
743.00 0.2176
743.10 0.2175
743.20 0.2174
743.30 0.2172
743.40 0.2171
743.50 0.217
743.60 0.2169
743.70 0.2168
743.80 0.2167
743.90 0.2166
744.00 0.2164
744.10 0.2163
744.20 0.2162
744.30 0.2161
744.40 0.216
744.50 0.2159
744.60 0.2158
744.70 0.2157
744.80 0.2155
744.90 0.2154
745.00 0.2153
745.10 0.2152
745.20 0.2151
745.30 0.215
745.40 0.2149
745.50 0.2148
745.60 0.2146
745.70 0.2145
745.80 0.2144
745.90 0.2143
746.00 0.2142
746.10 0.2141
746.20 0.214
746.30 0.2139
746.40 0.2138
746.50 0.2136
746.60 0.2135
746.70 0.2134
746.80 0.2133
746.90 0.2132
747.00 0.2131
747.10 0.213
747.20 0.2129
747.30 0.2128
747.40 0.2126
747.50 0.2125
747.60 0.2124
747.70 0.2123
747.80 0.2122
747.90 0.2121
748.00 0.212
748.10 0.2119
748.20 0.2118
748.30 0.2116
748.40 0.2115
748.50 0.2114
748.60 0.2113
748.70 0.2112
748.80 0.2111
748.90 0.211
749.00 0.2109
749.10 0.2108
749.20 0.2107
749.30 0.2105
749.40 0.2104
749.50 0.2103
749.60 0.2102
749.70 0.2101
749.80 0.21
749.90 0.2099
750.00 0.2098
750.10 0.2097
750.20 0.2096
750.30 0.2094
750.40 0.2093
750.50 0.2092
750.60 0.2091
750.70 0.209
750.80 0.2089
750.90 0.2088
751.00 0.2087
751.10 0.2086
751.20 0.2085
751.30 0.2084
751.40 0.2083
751.50 0.2082
751.60 0.2081
751.70 0.2079
751.80 0.2078
751.90 0.2077
752.00 0.2076
752.10 0.2075
752.20 0.2074
752.30 0.2073
752.40 0.2072
752.50 0.2071
752.60 0.207
752.70 0.2069
752.80 0.2068
752.90 0.2067
753.00 0.2066
753.10 0.2065
753.20 0.2063
753.30 0.2062
753.40 0.2061
753.50 0.206
753.60 0.2059
753.70 0.2058
753.80 0.2057
753.90 0.2056
754.00 0.2055
754.10 0.2054
754.20 0.2053
754.30 0.2052
754.40 0.2051
754.50 0.205
754.60 0.2049
754.70 0.2048
754.80 0.2047
754.90 0.2046
755.00 0.2044
755.10 0.2043
755.20 0.2042
755.30 0.2041
755.40 0.204
755.50 0.2039
755.60 0.2038
755.70 0.2037
755.80 0.2036
755.90 0.2035
756.00 0.2034
756.10 0.2033
756.20 0.2032
756.30 0.2031
756.40 0.203
756.50 0.2029
756.60 0.2028
756.70 0.2027
756.80 0.2026
756.90 0.2025
757.00 0.2024
757.10 0.2022
757.20 0.2021
757.30 0.202
757.40 0.2019
757.50 0.2018
757.60 0.2017
757.70 0.2016
757.80 0.2015
757.90 0.2014
758.00 0.2013
758.10 0.2012
758.20 0.2011
758.30 0.201
758.40 0.2009
758.50 0.2008
758.60 0.2007
758.70 0.2006
758.80 0.2005
758.90 0.2004
759.00 0.2003
759.10 0.2002
759.20 0.2001
759.30 0.2
759.40 0.1999
759.50 0.1998
759.60 0.1997
759.70 0.1996
759.80 0.1995
759.90 0.1993
760.00 0.1992
760.10 0.1991
760.20 0.199
760.30 0.1989
760.40 0.1988
760.50 0.1987
760.60 0.1986
760.70 0.1985
760.80 0.1984
760.90 0.1983
761.00 0.1982
761.10 0.1981
761.20 0.198
761.30 0.1979
761.40 0.1978
761.50 0.1977
761.60 0.1976
761.70 0.1975
761.80 0.1974
761.90 0.1973
762.00 0.1972
762.10 0.1971
762.20 0.197
762.30 0.1969
762.40 0.1968
762.50 0.1967
762.60 0.1966
762.70 0.1965
762.80 0.1964
762.90 0.1963
763.00 0.1962
763.10 0.1961
763.20 0.196
763.30 0.1959
763.40 0.1958
763.50 0.1957
763.60 0.1956
763.70 0.1955
763.80 0.1954
763.90 0.1953
764.00 0.1952
764.10 0.1951
764.20 0.195
764.30 0.1949
764.40 0.1948
764.50 0.1947
764.60 0.1946
764.70 0.1945
764.80 0.1944
764.90 0.1944
765.00 0.1943
765.10 0.1942
765.20 0.1941
765.30 0.194
765.40 0.1939
765.50 0.1938
765.60 0.1937
765.70 0.1936
765.80 0.1935
765.90 0.1934
766.00 0.1933
766.10 0.1932
766.20 0.1931
766.30 0.193
766.40 0.1929
766.50 0.1928
766.60 0.1927
766.70 0.1926
766.80 0.1925
766.90 0.1924
767.00 0.1923
767.10 0.1922
767.20 0.1921
767.30 0.192
767.40 0.1919
767.50 0.1918
767.60 0.1917
767.70 0.1916
767.80 0.1915
767.90 0.1914
768.00 0.1913
768.10 0.1912
768.20 0.1911
768.30 0.191
768.40 0.1909
768.50 0.1908
768.60 0.1907
768.70 0.1906
768.80 0.1905
768.90 0.1904
769.00 0.1903
769.10 0.1902
769.20 0.1901
769.30 0.19
769.40 0.19
769.50 0.1899
769.60 0.1898
769.70 0.1897
769.80 0.1896
769.90 0.1895
770.00 0.1894
770.10 0.1893
770.20 0.1892
770.30 0.1891
770.40 0.189
770.50 0.1889
770.60 0.1888
770.70 0.1887
770.80 0.1886
770.90 0.1885
771.00 0.1884
771.10 0.1883
771.20 0.1882
771.30 0.1881
771.40 0.188
771.50 0.188
771.60 0.1879
771.70 0.1878
771.80 0.1877
771.90 0.1876
772.00 0.1875
772.10 0.1874
772.20 0.1873
772.30 0.1872
772.40 0.1871
772.50 0.187
772.60 0.1869
772.70 0.1868
772.80 0.1867
772.90 0.1866
773.00 0.1865
773.10 0.1865
773.20 0.1864
773.30 0.1863
773.40 0.1862
773.50 0.1861
773.60 0.186
773.70 0.1859
773.80 0.1858
773.90 0.1857
774.00 0.1856
774.10 0.1855
774.20 0.1854
774.30 0.1853
774.40 0.1852
774.50 0.1851
774.60 0.1851
774.70 0.185
774.80 0.1849
774.90 0.1848
775.00 0.1847
775.10 0.1846
775.20 0.1845
775.30 0.1844
775.40 0.1843
775.50 0.1842
775.60 0.1841
775.70 0.184
775.80 0.1839
775.90 0.1839
776.00 0.1838
776.10 0.1837
776.20 0.1836
776.30 0.1835
776.40 0.1834
776.50 0.1833
776.60 0.1832
776.70 0.1831
776.80 0.183
776.90 0.1829
777.00 0.1828
777.10 0.1827
777.20 0.1827
777.30 0.1826
777.40 0.1825
777.50 0.1824
777.60 0.1823
777.70 0.1822
777.80 0.1821
777.90 0.182
778.00 0.1819
778.10 0.1818
778.20 0.1817
778.30 0.1816
778.40 0.1816
778.50 0.1815
778.60 0.1814
778.70 0.1813
778.80 0.1812
778.90 0.1811
779.00 0.181
779.10 0.1809
779.20 0.1808
779.30 0.1807
779.40 0.1806
779.50 0.1806
779.60 0.1805
779.70 0.1804
779.80 0.1803
779.90 0.1802
780.00 0.1801
780.10 0.18
780.20 0.1799
780.30 0.1798
780.40 0.1797
780.50 0.1797
780.60 0.1796
780.70 0.1795
780.80 0.1794
780.90 0.1793
781.00 0.1792
781.10 0.1791
781.20 0.179
781.30 0.1789
781.40 0.1789
781.50 0.1788
781.60 0.1787
781.70 0.1786
781.80 0.1785
781.90 0.1784
782.00 0.1783
782.10 0.1782
782.20 0.1782
782.30 0.1781
782.40 0.178
782.50 0.1779
782.60 0.1778
782.70 0.1777
782.80 0.1776
782.90 0.1775
783.00 0.1774
783.10 0.1774
783.20 0.1773
783.30 0.1772
783.40 0.1771
783.50 0.177
783.60 0.1769
783.70 0.1768
783.80 0.1767
783.90 0.1767
784.00 0.1766
784.10 0.1765
784.20 0.1764
784.30 0.1763
784.40 0.1762
784.50 0.1761
784.60 0.176
784.70 0.176
784.80 0.1759
784.90 0.1758
785.00 0.1757
785.10 0.1756
785.20 0.1755
785.30 0.1754
785.40 0.1754
785.50 0.1753
785.60 0.1752
785.70 0.1751
785.80 0.175
785.90 0.1749
786.00 0.1748
786.10 0.1747
786.20 0.1747
786.30 0.1746
786.40 0.1745
786.50 0.1744
786.60 0.1743
786.70 0.1742
786.80 0.1741
786.90 0.1741
787.00 0.174
787.10 0.1739
787.20 0.1738
787.30 0.1737
787.40 0.1736
787.50 0.1735
787.60 0.1734
787.70 0.1734
787.80 0.1733
787.90 0.1732
788.00 0.1731
788.10 0.173
788.20 0.1729
788.30 0.1728
788.40 0.1728
788.50 0.1727
788.60 0.1726
788.70 0.1725
788.80 0.1724
788.90 0.1723
789.00 0.1722
789.10 0.1722
789.20 0.1721
789.30 0.172
789.40 0.1719
789.50 0.1718
789.60 0.1717
789.70 0.1717
789.80 0.1716
789.90 0.1715
790.00 0.1714
790.10 0.1713
790.20 0.1712
790.30 0.1711
790.40 0.1711
790.50 0.171
790.60 0.1709
790.70 0.1708
790.80 0.1707
790.90 0.1706
791.00 0.1706
791.10 0.1705
791.20 0.1704
791.30 0.1703
791.40 0.1702
791.50 0.1701
791.60 0.1701
791.70 0.17
791.80 0.1699
791.90 0.1698
792.00 0.1697
792.10 0.1696
792.20 0.1696
792.30 0.1695
792.40 0.1694
792.50 0.1693
792.60 0.1692
792.70 0.1691
792.80 0.1691
792.90 0.169
793.00 0.1689
793.10 0.1688
793.20 0.1687
793.30 0.1687
793.40 0.1686
793.50 0.1685
793.60 0.1684
793.70 0.1683
793.80 0.1682
793.90 0.1682
794.00 0.1681
794.10 0.168
794.20 0.1679
794.30 0.1678
794.40 0.1677
794.50 0.1677
794.60 0.1676
794.70 0.1675
794.80 0.1674
794.90 0.1673
795.00 0.1673
795.10 0.1672
795.20 0.1671
795.30 0.167
795.40 0.1669
795.50 0.1668
795.60 0.1668
795.70 0.1667
795.80 0.1666
795.90 0.1665
796.00 0.1664
796.10 0.1664
796.20 0.1663
796.30 0.1662
796.40 0.1661
796.50 0.166
796.60 0.166
796.70 0.1659
796.80 0.1658
796.90 0.1657
797.00 0.1656
797.10 0.1655
797.20 0.1655
797.30 0.1654
797.40 0.1653
797.50 0.1652
797.60 0.1651
797.70 0.1651
797.80 0.165
797.90 0.1649
798.00 0.1648
798.10 0.1647
798.20 0.1647
798.30 0.1646
798.40 0.1645
798.50 0.1644
798.60 0.1643
798.70 0.1643
798.80 0.1642
798.90 0.1641
799.00 0.164
799.10 0.1639
799.20 0.1638
799.30 0.1638
799.40 0.1637
799.50 0.1636
799.60 0.1635
799.70 0.1634
799.80 0.1634
799.90 0.1633
800.00 0.1632
800.10 0.1631
800.20 0.163
800.30 0.163
800.40 0.1629
800.50 0.1628
800.60 0.1627
800.70 0.1627
800.80 0.1626
800.90 0.1625
801.00 0.1624
801.10 0.1623
801.20 0.1623
801.30 0.1622
801.40 0.1621
801.50 0.162
801.60 0.162
801.70 0.1619
801.80 0.1618
801.90 0.1617
802.00 0.1616
802.10 0.1616
802.20 0.1615
802.30 0.1614
802.40 0.1613
802.50 0.1612
802.60 0.1612
802.70 0.1611
802.80 0.161
802.90 0.1609
803.00 0.1609
803.10 0.1608
803.20 0.1607
803.30 0.1606
803.40 0.1606
803.50 0.1605
803.60 0.1604
803.70 0.1603
803.80 0.1602
803.90 0.1602
804.00 0.1601
804.10 0.16
804.20 0.1599
804.30 0.1599
804.40 0.1598
804.50 0.1597
804.60 0.1596
804.70 0.1595
804.80 0.1595
804.90 0.1594
805.00 0.1593
805.10 0.1592
805.20 0.1592
805.30 0.1591
805.40 0.159
805.50 0.1589
805.60 0.1589
805.70 0.1588
805.80 0.1587
805.90 0.1586
806.00 0.1585
806.10 0.1585
806.20 0.1584
806.30 0.1583
806.40 0.1582
806.50 0.1582
806.60 0.1581
806.70 0.158
806.80 0.1579
806.90 0.1579
807.00 0.1578
807.10 0.1577
807.20 0.1576
807.30 0.1576
807.40 0.1575
807.50 0.1574
807.60 0.1573
807.70 0.1572
807.80 0.1572
807.90 0.1571
808.00 0.157
808.10 0.1569
808.20 0.1569
808.30 0.1568
808.40 0.1567
808.50 0.1566
808.60 0.1566
808.70 0.1565
808.80 0.1564
808.90 0.1563
809.00 0.1563
809.10 0.1562
809.20 0.1561
809.30 0.156
809.40 0.156
809.50 0.1559
809.60 0.1558
809.70 0.1557
809.80 0.1557
809.90 0.1556
810.00 0.1555
810.10 0.1554
810.20 0.1554
810.30 0.1553
810.40 0.1552
810.50 0.1551
810.60 0.1551
810.70 0.155
810.80 0.1549
810.90 0.1548
811.00 0.1548
811.10 0.1547
811.20 0.1546
811.30 0.1545
811.40 0.1545
811.50 0.1544
811.60 0.1543
811.70 0.1542
811.80 0.1542
811.90 0.1541
812.00 0.154
812.10 0.154
812.20 0.1539
812.30 0.1538
812.40 0.1537
812.50 0.1537
812.60 0.1536
812.70 0.1535
812.80 0.1534
812.90 0.1534
813.00 0.1533
813.10 0.1532
813.20 0.1531
813.30 0.1531
813.40 0.153
813.50 0.1529
813.60 0.1529
813.70 0.1528
813.80 0.1527
813.90 0.1526
814.00 0.1526
814.10 0.1525
814.20 0.1524
814.30 0.1523
814.40 0.1523
814.50 0.1522
814.60 0.1521
814.70 0.1521
814.80 0.152
814.90 0.1519
815.00 0.1518
815.10 0.1518
815.20 0.1517
815.30 0.1516
815.40 0.1515
815.50 0.1515
815.60 0.1514
815.70 0.1513
815.80 0.1513
815.90 0.1512
816.00 0.1511
816.10 0.151
816.20 0.151
816.30 0.1509
816.40 0.1508
816.50 0.1508
816.60 0.1507
816.70 0.1506
816.80 0.1505
816.90 0.1505
817.00 0.1504
817.10 0.1503
817.20 0.1503
817.30 0.1502
817.40 0.1501
817.50 0.15
817.60 0.15
817.70 0.1499
817.80 0.1498
817.90 0.1497
818.00 0.1497
818.10 0.1496
818.20 0.1495
818.30 0.1495
818.40 0.1494
818.50 0.1493
818.60 0.1492
818.70 0.1492
818.80 0.1491
818.90 0.149
819.00 0.149
819.10 0.1489
819.20 0.1488
819.30 0.1487
819.40 0.1487
819.50 0.1486
819.60 0.1485
819.70 0.1485
819.80 0.1484
819.90 0.1483
820.00 0.1483
820.10 0.1482
820.20 0.1481
820.30 0.148
820.40 0.148
820.50 0.1479
820.60 0.1478
820.70 0.1478
820.80 0.1477
820.90 0.1476
821.00 0.1475
821.10 0.1475
821.20 0.1474
821.30 0.1473
821.40 0.1473
821.50 0.1472
821.60 0.1471
821.70 0.1471
821.80 0.147
821.90 0.1469
822.00 0.1468
822.10 0.1468
822.20 0.1467
822.30 0.1466
822.40 0.1466
822.50 0.1465
822.60 0.1464
822.70 0.1464
822.80 0.1463
822.90 0.1462
823.00 0.1462
823.10 0.1461
823.20 0.146
823.30 0.146
823.40 0.1459
823.50 0.1458
823.60 0.1457
823.70 0.1457
823.80 0.1456
823.90 0.1455
824.00 0.1455
824.10 0.1454
824.20 0.1453
824.30 0.1453
824.40 0.1452
824.50 0.1451
824.60 0.1451
824.70 0.145
824.80 0.1449
824.90 0.1449
825.00 0.1448
825.10 0.1447
825.20 0.1446
825.30 0.1446
825.40 0.1445
825.50 0.1444
825.60 0.1444
825.70 0.1443
825.80 0.1442
825.90 0.1442
826.00 0.1441
826.10 0.144
826.20 0.144
826.30 0.1439
826.40 0.1438
826.50 0.1438
826.60 0.1437
826.70 0.1436
826.80 0.1436
826.90 0.1435
827.00 0.1434
827.10 0.1434
827.20 0.1433
827.30 0.1432
827.40 0.1432
827.50 0.1431
827.60 0.143
827.70 0.143
827.80 0.1429
827.90 0.1428
828.00 0.1428
828.10 0.1427
828.20 0.1426
828.30 0.1426
828.40 0.1425
828.50 0.1424
828.60 0.1424
828.70 0.1423
828.80 0.1422
828.90 0.1422
829.00 0.1421
829.10 0.142
829.20 0.142
829.30 0.1419
829.40 0.1418
829.50 0.1418
829.60 0.1417
829.70 0.1416
829.80 0.1416
829.90 0.1415
830.00 0.1414
830.10 0.1414
830.20 0.1413
830.30 0.1412
830.40 0.1412
830.50 0.1411
830.60 0.141
830.70 0.141
830.80 0.1409
830.90 0.1408
831.00 0.1408
831.10 0.1407
831.20 0.1406
831.30 0.1406
831.40 0.1405
831.50 0.1404
831.60 0.1404
831.70 0.1403
831.80 0.1402
831.90 0.1402
832.00 0.1401
832.10 0.14
832.20 0.14
832.30 0.1399
832.40 0.1398
832.50 0.1398
832.60 0.1397
832.70 0.1396
832.80 0.1396
832.90 0.1395
833.00 0.1394
833.10 0.1394
833.20 0.1393
833.30 0.1392
833.40 0.1392
833.50 0.1391
833.60 0.1391
833.70 0.139
833.80 0.1389
833.90 0.1389
834.00 0.1388
834.10 0.1387
834.20 0.1387
834.30 0.1386
834.40 0.1385
834.50 0.1385
834.60 0.1384
834.70 0.1383
834.80 0.1383
834.90 0.1382
835.00 0.1381
835.10 0.1381
835.20 0.138
835.30 0.138
835.40 0.1379
835.50 0.1378
835.60 0.1378
835.70 0.1377
835.80 0.1376
835.90 0.1376
836.00 0.1375
836.10 0.1374
836.20 0.1374
836.30 0.1373
836.40 0.1372
836.50 0.1372
836.60 0.1371
836.70 0.1371
836.80 0.137
836.90 0.1369
837.00 0.1369
837.10 0.1368
837.20 0.1367
837.30 0.1367
837.40 0.1366
837.50 0.1365
837.60 0.1365
837.70 0.1364
837.80 0.1364
837.90 0.1363
838.00 0.1362
838.10 0.1362
838.20 0.1361
838.30 0.136
838.40 0.136
838.50 0.1359
838.60 0.1358
838.70 0.1358
838.80 0.1357
838.90 0.1357
839.00 0.1356
839.10 0.1355
839.20 0.1355
839.30 0.1354
839.40 0.1353
839.50 0.1353
839.60 0.1352
839.70 0.1352
839.80 0.1351
839.90 0.135
840.00 0.135
840.10 0.1349
840.20 0.1348
840.30 0.1348
840.40 0.1347
840.50 0.1347
840.60 0.1346
840.70 0.1345
840.80 0.1345
840.90 0.1344
841.00 0.1343
841.10 0.1343
841.20 0.1342
841.30 0.1342
841.40 0.1341
841.50 0.134
841.60 0.134
841.70 0.1339
841.80 0.1338
841.90 0.1338
842.00 0.1337
842.10 0.1337
842.20 0.1336
842.30 0.1335
842.40 0.1335
842.50 0.1334
842.60 0.1333
842.70 0.1333
842.80 0.1332
842.90 0.1332
843.00 0.1331
843.10 0.133
843.20 0.133
843.30 0.1329
843.40 0.1329
843.50 0.1328
843.60 0.1327
843.70 0.1327
843.80 0.1326
843.90 0.1325
844.00 0.1325
844.10 0.1324
844.20 0.1324
844.30 0.1323
844.40 0.1322
844.50 0.1322
844.60 0.1321
844.70 0.1321
844.80 0.132
844.90 0.1319
845.00 0.1319
845.10 0.1318
845.20 0.1317
845.30 0.1317
845.40 0.1316
845.50 0.1316
845.60 0.1315
845.70 0.1314
845.80 0.1314
845.90 0.1313
846.00 0.1313
846.10 0.1312
846.20 0.1311
846.30 0.1311
846.40 0.131
846.50 0.131
846.60 0.1309
846.70 0.1308
846.80 0.1308
846.90 0.1307
847.00 0.1307
847.10 0.1306
847.20 0.1305
847.30 0.1305
847.40 0.1304
847.50 0.1304
847.60 0.1303
847.70 0.1302
847.80 0.1302
847.90 0.1301
848.00 0.1301
848.10 0.13
848.20 0.1299
848.30 0.1299
848.40 0.1298
848.50 0.1298
848.60 0.1297
848.70 0.1296
848.80 0.1296
848.90 0.1295
849.00 0.1295
849.10 0.1294
849.20 0.1293
849.30 0.1293
849.40 0.1292
849.50 0.1292
849.60 0.1291
849.70 0.129
849.80 0.129
849.90 0.1289
850.00 0.1289
850.10 0.1288
850.20 0.1287
850.30 0.1287
850.40 0.1286
850.50 0.1286
850.60 0.1285
850.70 0.1284
850.80 0.1284
850.90 0.1283
851.00 0.1283
851.10 0.1282
851.20 0.1282
851.30 0.1281
851.40 0.128
851.50 0.128
851.60 0.1279
851.70 0.1279
851.80 0.1278
851.90 0.1277
852.00 0.1277
852.10 0.1276
852.20 0.1276
852.30 0.1275
852.40 0.1274
852.50 0.1274
852.60 0.1273
852.70 0.1273
852.80 0.1272
852.90 0.1272
853.00 0.1271
853.10 0.127
853.20 0.127
853.30 0.1269
853.40 0.1269
853.50 0.1268
853.60 0.1268
853.70 0.1267
853.80 0.1266
853.90 0.1266
854.00 0.1265
854.10 0.1265
854.20 0.1264
854.30 0.1263
854.40 0.1263
854.50 0.1262
854.60 0.1262
854.70 0.1261
854.80 0.1261
854.90 0.126
855.00 0.1259
855.10 0.1259
855.20 0.1258
855.30 0.1258
855.40 0.1257
855.50 0.1257
855.60 0.1256
855.70 0.1255
855.80 0.1255
855.90 0.1254
856.00 0.1254
856.10 0.1253
856.20 0.1253
856.30 0.1252
856.40 0.1251
856.50 0.1251
856.60 0.125
856.70 0.125
856.80 0.1249
856.90 0.1249
857.00 0.1248
857.10 0.1247
857.20 0.1247
857.30 0.1246
857.40 0.1246
857.50 0.1245
857.60 0.1245
857.70 0.1244
857.80 0.1243
857.90 0.1243
858.00 0.1242
858.10 0.1242
858.20 0.1241
858.30 0.1241
858.40 0.124
858.50 0.124
858.60 0.1239
858.70 0.1238
858.80 0.1238
858.90 0.1237
859.00 0.1237
859.10 0.1236
859.20 0.1236
859.30 0.1235
859.40 0.1234
859.50 0.1234
859.60 0.1233
859.70 0.1233
859.80 0.1232
859.90 0.1232
860.00 0.1231
860.10 0.1231
860.20 0.123
860.30 0.1229
860.40 0.1229
860.50 0.1228
860.60 0.1228
860.70 0.1227
860.80 0.1227
860.90 0.1226
861.00 0.1226
861.10 0.1225
861.20 0.1224
861.30 0.1224
861.40 0.1223
861.50 0.1223
861.60 0.1222
861.70 0.1222
861.80 0.1221
861.90 0.1221
862.00 0.122
862.10 0.122
862.20 0.1219
862.30 0.1218
862.40 0.1218
862.50 0.1217
862.60 0.1217
862.70 0.1216
862.80 0.1216
862.90 0.1215
863.00 0.1215
863.10 0.1214
863.20 0.1213
863.30 0.1213
863.40 0.1212
863.50 0.1212
863.60 0.1211
863.70 0.1211
863.80 0.121
863.90 0.121
864.00 0.1209
864.10 0.1209
864.20 0.1208
864.30 0.1207
864.40 0.1207
864.50 0.1206
864.60 0.1206
864.70 0.1205
864.80 0.1205
864.90 0.1204
865.00 0.1204
865.10 0.1203
865.20 0.1203
865.30 0.1202
865.40 0.1201
865.50 0.1201
865.60 0.12
865.70 0.12
865.80 0.1199
865.90 0.1199
866.00 0.1198
866.10 0.1198
866.20 0.1197
866.30 0.1197
866.40 0.1196
866.50 0.1195
866.60 0.1195
866.70 0.1194
866.80 0.1194
866.90 0.1193
867.00 0.1193
867.10 0.1192
867.20 0.1192
867.30 0.1191
867.40 0.1191
867.50 0.119
867.60 0.119
867.70 0.1189
867.80 0.1188
867.90 0.1188
868.00 0.1187
868.10 0.1187
868.20 0.1186
868.30 0.1186
868.40 0.1185
868.50 0.1185
868.60 0.1184
868.70 0.1184
868.80 0.1183
868.90 0.1183
869.00 0.1182
869.10 0.1182
869.20 0.1181
869.30 0.1181
869.40 0.118
869.50 0.1179
869.60 0.1179
869.70 0.1178
869.80 0.1178
869.90 0.1177
870.00 0.1177
870.10 0.1176
870.20 0.1176
870.30 0.1175
870.40 0.1175
870.50 0.1174
870.60 0.1174
870.70 0.1173
870.80 0.1173
870.90 0.1172
871.00 0.1172
871.10 0.1171
871.20 0.117
871.30 0.117
871.40 0.1169
871.50 0.1169
871.60 0.1168
871.70 0.1168
871.80 0.1167
871.90 0.1167
872.00 0.1166
872.10 0.1166
872.20 0.1165
872.30 0.1165
872.40 0.1164
872.50 0.1164
872.60 0.1163
872.70 0.1163
872.80 0.1162
872.90 0.1162
873.00 0.1161
873.10 0.1161
873.20 0.116
873.30 0.116
873.40 0.1159
873.50 0.1158
873.60 0.1158
873.70 0.1157
873.80 0.1157
873.90 0.1156
874.00 0.1156
874.10 0.1155
874.20 0.1155
874.30 0.1154
874.40 0.1154
874.50 0.1153
874.60 0.1153
874.70 0.1152
874.80 0.1152
874.90 0.1151
875.00 0.1151
875.10 0.115
875.20 0.115
875.30 0.1149
875.40 0.1149
875.50 0.1148
875.60 0.1148
875.70 0.1147
875.80 0.1147
875.90 0.1146
876.00 0.1146
876.10 0.1145
876.20 0.1145
876.30 0.1144
876.40 0.1144
876.50 0.1143
876.60 0.1143
876.70 0.1142
876.80 0.1141
876.90 0.1141
877.00 0.114
877.10 0.114
877.20 0.1139
877.30 0.1139
877.40 0.1138
877.50 0.1138
877.60 0.1137
877.70 0.1137
877.80 0.1136
877.90 0.1136
878.00 0.1135
878.10 0.1135
878.20 0.1134
878.30 0.1134
878.40 0.1133
878.50 0.1133
878.60 0.1132
878.70 0.1132
878.80 0.1131
878.90 0.1131
879.00 0.113
879.10 0.113
879.20 0.1129
879.30 0.1129
879.40 0.1128
879.50 0.1128
879.60 0.1127
879.70 0.1127
879.80 0.1126
879.90 0.1126
880.00 0.1125
880.10 0.1125
880.20 0.1124
880.30 0.1124
880.40 0.1123
880.50 0.1123
880.60 0.1122
880.70 0.1122
880.80 0.1121
880.90 0.1121
881.00 0.112
881.10 0.112
881.20 0.1119
881.30 0.1119
881.40 0.1118
881.50 0.1118
881.60 0.1117
881.70 0.1117
881.80 0.1116
881.90 0.1116
882.00 0.1115
882.10 0.1115
882.20 0.1114
882.30 0.1114
882.40 0.1113
882.50 0.1113
882.60 0.1112
882.70 0.1112
882.80 0.1112
882.90 0.1111
883.00 0.1111
883.10 0.111
883.20 0.111
883.30 0.1109
883.40 0.1109
883.50 0.1108
883.60 0.1108
883.70 0.1107
883.80 0.1107
883.90 0.1106
884.00 0.1106
884.10 0.1105
884.20 0.1105
884.30 0.1104
884.40 0.1104
884.50 0.1103
884.60 0.1103
884.70 0.1102
884.80 0.1102
884.90 0.1101
885.00 0.1101
885.10 0.11
885.20 0.11
885.30 0.1099
885.40 0.1099
885.50 0.1098
885.60 0.1098
885.70 0.1097
885.80 0.1097
885.90 0.1096
886.00 0.1096
886.10 0.1095
886.20 0.1095
886.30 0.1094
886.40 0.1094
886.50 0.1093
886.60 0.1093
886.70 0.1093
886.80 0.1092
886.90 0.1092
887.00 0.1091
887.10 0.1091
887.20 0.109
887.30 0.109
887.40 0.1089
887.50 0.1089
887.60 0.1088
887.70 0.1088
887.80 0.1087
887.90 0.1087
888.00 0.1086
888.10 0.1086
888.20 0.1085
888.30 0.1085
888.40 0.1084
888.50 0.1084
888.60 0.1083
888.70 0.1083
888.80 0.1082
888.90 0.1082
889.00 0.1082
889.10 0.1081
889.20 0.1081
889.30 0.108
889.40 0.108
889.50 0.1079
889.60 0.1079
889.70 0.1078
889.80 0.1078
889.90 0.1077
890.00 0.1077
890.10 0.1076
890.20 0.1076
890.30 0.1075
890.40 0.1075
890.50 0.1074
890.60 0.1074
890.70 0.1074
890.80 0.1073
890.90 0.1073
891.00 0.1072
891.10 0.1072
891.20 0.1071
891.30 0.1071
891.40 0.107
891.50 0.107
891.60 0.1069
891.70 0.1069
891.80 0.1068
891.90 0.1068
892.00 0.1067
892.10 0.1067
892.20 0.1066
892.30 0.1066
892.40 0.1066
892.50 0.1065
892.60 0.1065
892.70 0.1064
892.80 0.1064
892.90 0.1063
893.00 0.1063
893.10 0.1062
893.20 0.1062
893.30 0.1061
893.40 0.1061
893.50 0.106
893.60 0.106
893.70 0.106
893.80 0.1059
893.90 0.1059
894.00 0.1058
894.10 0.1058
894.20 0.1057
894.30 0.1057
894.40 0.1056
894.50 0.1056
894.60 0.1055
894.70 0.1055
894.80 0.1054
894.90 0.1054
895.00 0.1054
895.10 0.1053
895.20 0.1053
895.30 0.1052
895.40 0.1052
895.50 0.1051
895.60 0.1051
895.70 0.105
895.80 0.105
895.90 0.1049
896.00 0.1049
896.10 0.1048
896.20 0.1048
896.30 0.1048
896.40 0.1047
896.50 0.1047
896.60 0.1046
896.70 0.1046
896.80 0.1045
896.90 0.1045
897.00 0.1044
897.10 0.1044
897.20 0.1043
897.30 0.1043
897.40 0.1043
897.50 0.1042
897.60 0.1042
897.70 0.1041
897.80 0.1041
897.90 0.104
898.00 0.104
898.10 0.1039
898.20 0.1039
898.30 0.1039
898.40 0.1038
898.50 0.1038
898.60 0.1037
898.70 0.1037
898.80 0.1036
898.90 0.1036
899.00 0.1035
899.10 0.1035
899.20 0.1034
899.30 0.1034
899.40 0.1034
899.50 0.1033
899.60 0.1033
899.70 0.1032
899.80 0.1032
899.90 0.1031
900.00 0.1031
900.10 0.103
900.20 0.103
900.30 0.103
900.40 0.1029
900.50 0.1029
900.60 0.1028
900.70 0.1028
900.80 0.1027
900.90 0.1027
901.00 0.1026
901.10 0.1026
901.20 0.1026
901.30 0.1025
901.40 0.1025
901.50 0.1024
901.60 0.1024
901.70 0.1023
901.80 0.1023
901.90 0.1022
902.00 0.1022
902.10 0.1022
902.20 0.1021
902.30 0.1021
902.40 0.102
902.50 0.102
902.60 0.1019
902.70 0.1019
902.80 0.1018
902.90 0.1018
903.00 0.1018
903.10 0.1017
903.20 0.1017
903.30 0.1016
903.40 0.1016
903.50 0.1015
903.60 0.1015
903.70 0.1015
903.80 0.1014
903.90 0.1014
904.00 0.1013
904.10 0.1013
904.20 0.1012
904.30 0.1012
904.40 0.1011
904.50 0.1011
904.60 0.1011
904.70 0.101
904.80 0.101
904.90 0.1009
905.00 0.1009
905.10 0.1008
905.20 0.1008
905.30 0.1008
905.40 0.1007
905.50 0.1007
905.60 0.1006
905.70 0.1006
905.80 0.1005
905.90 0.1005
906.00 0.1005
906.10 0.1004
906.20 0.1004
906.30 0.1003
906.40 0.1003
906.50 0.1002
906.60 0.1002
906.70 0.1001
906.80 0.1001
906.90 0.1001
907.00 0.1
907.10 0.09998
907.20 0.09993
907.30 0.09989
907.40 0.09985
907.50 0.09981
907.60 0.09976
907.70 0.09972
907.80 0.09968
907.90 0.09964
908.00 0.09959
908.10 0.09955
908.20 0.09951
908.30 0.09946
908.40 0.09942
908.50 0.09938
908.60 0.09934
908.70 0.09929
908.80 0.09925
908.90 0.09921
909.00 0.09917
909.10 0.09912
909.20 0.09908
909.30 0.09904
909.40 0.099
909.50 0.09895
909.60 0.09891
909.70 0.09887
909.80 0.09883
909.90 0.09879
910.00 0.09874
910.10 0.0987
910.20 0.09866
910.30 0.09862
910.40 0.09857
910.50 0.09853
910.60 0.09849
910.70 0.09845
910.80 0.09841
910.90 0.09836
911.00 0.09832
911.10 0.09828
911.20 0.09824
911.30 0.09819
911.40 0.09815
911.50 0.09811
911.60 0.09807
911.70 0.09803
911.80 0.09798
911.90 0.09794
912.00 0.0979
912.10 0.09786
912.20 0.09782
912.30 0.09778
912.40 0.09773
912.50 0.09769
912.60 0.09765
912.70 0.09761
912.80 0.09757
912.90 0.09753
913.00 0.09748
913.10 0.09744
913.20 0.0974
913.30 0.09736
913.40 0.09732
913.50 0.09728
913.60 0.09724
913.70 0.09719
913.80 0.09715
913.90 0.09711
914.00 0.09707
914.10 0.09703
914.20 0.09699
914.30 0.09695
914.40 0.09691
914.50 0.09686
914.60 0.09682
914.70 0.09678
914.80 0.09674
914.90 0.0967
915.00 0.09666
915.10 0.09662
915.20 0.09658
915.30 0.09654
915.40 0.09649
915.50 0.09645
915.60 0.09641
915.70 0.09637
915.80 0.09633
915.90 0.09629
916.00 0.09625
916.10 0.09621
916.20 0.09617
916.30 0.09613
916.40 0.09608
916.50 0.09604
916.60 0.096
916.70 0.09596
916.80 0.09592
916.90 0.09588
917.00 0.09584
917.10 0.0958
917.20 0.09576
917.30 0.09572
917.40 0.09568
917.50 0.09564
917.60 0.0956
917.70 0.09556
917.80 0.09552
917.90 0.09548
918.00 0.09544
918.10 0.0954
918.20 0.09536
918.30 0.09531
918.40 0.09527
918.50 0.09523
918.60 0.09519
918.70 0.09515
918.80 0.09511
918.90 0.09507
919.00 0.09503
919.10 0.09499
919.20 0.09495
919.30 0.09491
919.40 0.09487
919.50 0.09483
919.60 0.09479
919.70 0.09475
919.80 0.09471
919.90 0.09467
920.00 0.09463
920.10 0.09459
920.20 0.09455
920.30 0.09451
920.40 0.09447
920.50 0.09443
920.60 0.09439
920.70 0.09435
920.80 0.09431
920.90 0.09427
921.00 0.09423
921.10 0.0942
921.20 0.09416
921.30 0.09412
921.40 0.09408
921.50 0.09404
921.60 0.094
921.70 0.09396
921.80 0.09392
921.90 0.09388
922.00 0.09384
922.10 0.0938
922.20 0.09376
922.30 0.09372
922.40 0.09368
922.50 0.09364
922.60 0.0936
922.70 0.09356
922.80 0.09352
922.90 0.09348
923.00 0.09344
923.10 0.0934
923.20 0.09336
923.30 0.09333
923.40 0.09329
923.50 0.09325
923.60 0.09321
923.70 0.09317
923.80 0.09313
923.90 0.09309
924.00 0.09305
924.10 0.09301
924.20 0.09297
924.30 0.09293
924.40 0.09289
924.50 0.09286
924.60 0.09282
924.70 0.09278
924.80 0.09274
924.90 0.0927
925.00 0.09266
925.10 0.09262
925.20 0.09258
925.30 0.09254
925.40 0.0925
925.50 0.09246
925.60 0.09243
925.70 0.09239
925.80 0.09235
925.90 0.09231
926.00 0.09227
926.10 0.09223
926.20 0.09219
926.30 0.09215
926.40 0.09211
926.50 0.09208
926.60 0.09204
926.70 0.092
926.80 0.09196
926.90 0.09192
927.00 0.09188
927.10 0.09184
927.20 0.09181
927.30 0.09177
927.40 0.09173
927.50 0.09169
927.60 0.09165
927.70 0.09161
927.80 0.09158
927.90 0.09154
928.00 0.0915
928.10 0.09146
928.20 0.09142
928.30 0.09138
928.40 0.09135
928.50 0.09131
928.60 0.09127
928.70 0.09123
928.80 0.09119
928.90 0.09115
929.00 0.09112
929.10 0.09108
929.20 0.09104
929.30 0.091
929.40 0.09096
929.50 0.09093
929.60 0.09089
929.70 0.09085
929.80 0.09081
929.90 0.09077
930.00 0.09074
930.10 0.0907
930.20 0.09066
930.30 0.09062
930.40 0.09058
930.50 0.09055
930.60 0.09051
930.70 0.09047
930.80 0.09043
930.90 0.09039
931.00 0.09036
931.10 0.09032
931.20 0.09028
931.30 0.09024
931.40 0.09021
931.50 0.09017
931.60 0.09013
931.70 0.09009
931.80 0.09005
931.90 0.09002
932.00 0.08998
932.10 0.08994
932.20 0.0899
932.30 0.08987
932.40 0.08983
932.50 0.08979
932.60 0.08975
932.70 0.08972
932.80 0.08968
932.90 0.08964
933.00 0.0896
933.10 0.08957
933.20 0.08953
933.30 0.08949
933.40 0.08946
933.50 0.08942
933.60 0.08938
933.70 0.08934
933.80 0.08931
933.90 0.08927
934.00 0.08923
934.10 0.08919
934.20 0.08916
934.30 0.08912
934.40 0.08908
934.50 0.08905
934.60 0.08901
934.70 0.08897
934.80 0.08893
934.90 0.0889
935.00 0.08886
935.10 0.08882
935.20 0.08879
935.30 0.08875
935.40 0.08871
935.50 0.08868
935.60 0.08864
935.70 0.0886
935.80 0.08857
935.90 0.08853
936.00 0.08849
936.10 0.08845
936.20 0.08842
936.30 0.08838
936.40 0.08834
936.50 0.08831
936.60 0.08827
936.70 0.08823
936.80 0.0882
936.90 0.08816
937.00 0.08812
937.10 0.08809
937.20 0.08805
937.30 0.08801
937.40 0.08798
937.50 0.08794
937.60 0.0879
937.70 0.08787
937.80 0.08783
937.90 0.08779
938.00 0.08776
938.10 0.08772
938.20 0.08769
938.30 0.08765
938.40 0.08761
938.50 0.08758
938.60 0.08754
938.70 0.0875
938.80 0.08747
938.90 0.08743
939.00 0.08739
939.10 0.08736
939.20 0.08732
939.30 0.08729
939.40 0.08725
939.50 0.08721
939.60 0.08718
939.70 0.08714
939.80 0.0871
939.90 0.08707
940.00 0.08703
940.10 0.087
940.20 0.08696
940.30 0.08692
940.40 0.08689
940.50 0.08685
940.60 0.08682
940.70 0.08678
940.80 0.08674
940.90 0.08671
941.00 0.08667
941.10 0.08664
941.20 0.0866
941.30 0.08656
941.40 0.08653
941.50 0.08649
941.60 0.08646
941.70 0.08642
941.80 0.08638
941.90 0.08635
942.00 0.08631
942.10 0.08628
942.20 0.08624
942.30 0.08621
942.40 0.08617
942.50 0.08613
942.60 0.0861
942.70 0.08606
942.80 0.08603
942.90 0.08599
943.00 0.08596
943.10 0.08592
943.20 0.08588
943.30 0.08585
943.40 0.08581
943.50 0.08578
943.60 0.08574
943.70 0.08571
943.80 0.08567
943.90 0.08564
944.00 0.0856
944.10 0.08557
944.20 0.08553
944.30 0.08549
944.40 0.08546
944.50 0.08542
944.60 0.08539
944.70 0.08535
944.80 0.08532
944.90 0.08528
945.00 0.08525
945.10 0.08521
945.20 0.08518
945.30 0.08514
945.40 0.08511
945.50 0.08507
945.60 0.08504
945.70 0.085
945.80 0.08497
945.90 0.08493
946.00 0.0849
946.10 0.08486
946.20 0.08483
946.30 0.08479
946.40 0.08476
946.50 0.08472
946.60 0.08469
946.70 0.08465
946.80 0.08462
946.90 0.08458
947.00 0.08455
947.10 0.08451
947.20 0.08448
947.30 0.08444
947.40 0.08441
947.50 0.08437
947.60 0.08434
947.70 0.0843
947.80 0.08427
947.90 0.08423
948.00 0.0842
948.10 0.08416
948.20 0.08413
948.30 0.08409
948.40 0.08406
948.50 0.08403
948.60 0.08399
948.70 0.08396
948.80 0.08392
948.90 0.08389
949.00 0.08385
949.10 0.08382
949.20 0.08378
949.30 0.08375
949.40 0.08371
949.50 0.08368
949.60 0.08365
949.70 0.08361
949.80 0.08358
949.90 0.08354
950.00 0.08351
950.10 0.08347
950.20 0.08344
950.30 0.08341
950.40 0.08337
950.50 0.08334
950.60 0.0833
950.70 0.08327
950.80 0.08324
950.90 0.0832
951.00 0.08317
951.10 0.08313
951.20 0.0831
951.30 0.08307
951.40 0.08303
951.50 0.083
951.60 0.08296
951.70 0.08293
951.80 0.0829
951.90 0.08286
952.00 0.08283
952.10 0.0828
952.20 0.08276
952.30 0.08273
952.40 0.08269
952.50 0.08266
952.60 0.08263
952.70 0.08259
952.80 0.08256
952.90 0.08253
953.00 0.08249
953.10 0.08246
953.20 0.08243
953.30 0.08239
953.40 0.08236
953.50 0.08233
953.60 0.08229
953.70 0.08226
953.80 0.08223
953.90 0.08219
954.00 0.08216
954.10 0.08213
954.20 0.0821
954.30 0.08206
954.40 0.08203
954.50 0.082
954.60 0.08196
954.70 0.08193
954.80 0.0819
954.90 0.08186
955.00 0.08183
955.10 0.0818
955.20 0.08176
955.30 0.08173
955.40 0.0817
955.50 0.08166
955.60 0.08163
955.70 0.0816
955.80 0.08156
955.90 0.08153
956.00 0.0815
956.10 0.08146
956.20 0.08143
956.30 0.0814
956.40 0.08136
956.50 0.08133
956.60 0.0813
956.70 0.08126
956.80 0.08123
956.90 0.0812
957.00 0.08116
957.10 0.08113
957.20 0.0811
957.30 0.08107
957.40 0.08103
957.50 0.081
957.60 0.08097
957.70 0.08093
957.80 0.0809
957.90 0.08087
958.00 0.08084
958.10 0.0808
958.20 0.08077
958.30 0.08074
958.40 0.08071
958.50 0.08067
958.60 0.08064
958.70 0.08061
958.80 0.08058
958.90 0.08054
959.00 0.08051
959.10 0.08048
959.20 0.08045
959.30 0.08041
959.40 0.08038
959.50 0.08035
959.60 0.08032
959.70 0.08028
959.80 0.08025
959.90 0.08022
960.00 0.08019
960.10 0.08016
960.20 0.08012
960.30 0.08009
960.40 0.08006
960.50 0.08003
960.60 0.08
960.70 0.07996
960.80 0.07993
960.90 0.0799
961.00 0.07987
961.10 0.07983
961.20 0.0798
961.30 0.07977
961.40 0.07974
961.50 0.07971
961.60 0.07967
961.70 0.07964
961.80 0.07961
961.90 0.07958
962.00 0.07955
962.10 0.07952
962.20 0.07948
962.30 0.07945
962.40 0.07942
962.50 0.07939
962.60 0.07936
962.70 0.07932
962.80 0.07929
962.90 0.07926
963.00 0.07923
963.10 0.0792
963.20 0.07917
963.30 0.07913
963.40 0.0791
963.50 0.07907
963.60 0.07904
963.70 0.07901
963.80 0.07898
963.90 0.07894
964.00 0.07891
964.10 0.07888
964.20 0.07885
964.30 0.07882
964.40 0.07879
964.50 0.07876
964.60 0.07872
964.70 0.07869
964.80 0.07866
964.90 0.07863
965.00 0.0786
965.10 0.07857
965.20 0.07854
965.30 0.0785
965.40 0.07847
965.50 0.07844
965.60 0.07841
965.70 0.07838
965.80 0.07835
965.90 0.07832
966.00 0.07828
966.10 0.07825
966.20 0.07822
966.30 0.07819
966.40 0.07816
966.50 0.07813
966.60 0.0781
966.70 0.07807
966.80 0.07803
966.90 0.078
967.00 0.07797
967.10 0.07794
967.20 0.07791
967.30 0.07788
967.40 0.07785
967.50 0.07782
967.60 0.07779
967.70 0.07775
967.80 0.07772
967.90 0.07769
968.00 0.07766
968.10 0.07763
968.20 0.0776
968.30 0.07757
968.40 0.07754
968.50 0.07751
968.60 0.07748
968.70 0.07744
968.80 0.07741
968.90 0.07738
969.00 0.07735
969.10 0.07732
969.20 0.07729
969.30 0.07726
969.40 0.07723
969.50 0.0772
969.60 0.07717
969.70 0.07714
969.80 0.0771
969.90 0.07707
970.00 0.07704
970.10 0.07701
970.20 0.07698
970.30 0.07695
970.40 0.07692
970.50 0.07689
970.60 0.07686
970.70 0.07683
970.80 0.0768
970.90 0.07677
971.00 0.07674
971.10 0.07671
971.20 0.07667
971.30 0.07664
971.40 0.07661
971.50 0.07658
971.60 0.07655
971.70 0.07652
971.80 0.07649
971.90 0.07646
972.00 0.07643
972.10 0.0764
972.20 0.07637
972.30 0.07634
972.40 0.07631
972.50 0.07628
972.60 0.07625
972.70 0.07622
972.80 0.07618
972.90 0.07615
973.00 0.07612
973.10 0.07609
973.20 0.07606
973.30 0.07603
973.40 0.076
973.50 0.07597
973.60 0.07594
973.70 0.07591
973.80 0.07588
973.90 0.07585
974.00 0.07582
974.10 0.07579
974.20 0.07576
974.30 0.07573
974.40 0.0757
974.50 0.07567
974.60 0.07564
974.70 0.07561
974.80 0.07558
974.90 0.07555
975.00 0.07552
975.10 0.07549
975.20 0.07546
975.30 0.07543
975.40 0.0754
975.50 0.07536
975.60 0.07533
975.70 0.0753
975.80 0.07527
975.90 0.07524
976.00 0.07521
976.10 0.07518
976.20 0.07515
976.30 0.07512
976.40 0.07509
976.50 0.07506
976.60 0.07503
976.70 0.075
976.80 0.07497
976.90 0.07494
977.00 0.07491
977.10 0.07488
977.20 0.07485
977.30 0.07482
977.40 0.07479
977.50 0.07476
977.60 0.07473
977.70 0.0747
977.80 0.07467
977.90 0.07464
978.00 0.07461
978.10 0.07458
978.20 0.07455
978.30 0.07452
978.40 0.07449
978.50 0.07446
978.60 0.07443
978.70 0.0744
978.80 0.07437
978.90 0.07434
979.00 0.07431
979.10 0.07428
979.20 0.07425
979.30 0.07422
979.40 0.07419
979.50 0.07416
979.60 0.07413
979.70 0.0741
979.80 0.07407
979.90 0.07404
980.00 0.07401
980.10 0.07398
980.20 0.07395
980.30 0.07392
980.40 0.0739
980.50 0.07387
980.60 0.07384
980.70 0.07381
980.80 0.07378
980.90 0.07375
981.00 0.07372
981.10 0.07369
981.20 0.07366
981.30 0.07363
981.40 0.0736
981.50 0.07357
981.60 0.07354
981.70 0.07351
981.80 0.07348
981.90 0.07345
982.00 0.07342
982.10 0.07339
982.20 0.07336
982.30 0.07333
982.40 0.0733
982.50 0.07327
982.60 0.07324
982.70 0.07321
982.80 0.07318
982.90 0.07315
983.00 0.07312
983.10 0.07309
983.20 0.07307
983.30 0.07304
983.40 0.07301
983.50 0.07298
983.60 0.07295
983.70 0.07292
983.80 0.07289
983.90 0.07286
984.00 0.07283
984.10 0.0728
984.20 0.07277
984.30 0.07274
984.40 0.07271
984.50 0.07268
984.60 0.07265
984.70 0.07262
984.80 0.07259
984.90 0.07256
985.00 0.07254
985.10 0.07251
985.20 0.07248
985.30 0.07245
985.40 0.07242
985.50 0.07239
985.60 0.07236
985.70 0.07233
985.80 0.0723
985.90 0.07227
986.00 0.07224
986.10 0.07221
986.20 0.07218
986.30 0.07215
986.40 0.07212
986.50 0.0721
986.60 0.07207
986.70 0.07204
986.80 0.07201
986.90 0.07198
987.00 0.07195
987.10 0.07192
987.20 0.07189
987.30 0.07186
987.40 0.07183
987.50 0.0718
987.60 0.07177
987.70 0.07175
987.80 0.07172
987.90 0.07169
988.00 0.07166
988.10 0.07163
988.20 0.0716
988.30 0.07157
988.40 0.07154
988.50 0.07151
988.60 0.07148
988.70 0.07145
988.80 0.07143
988.90 0.0714
989.00 0.07137
989.10 0.07134
989.20 0.07131
989.30 0.07128
989.40 0.07125
989.50 0.07122
989.60 0.07119
989.70 0.07116
989.80 0.07113
989.90 0.07111
990.00 0.07108
990.10 0.07105
990.20 0.07102
990.30 0.07099
990.40 0.07096
990.50 0.07093
990.60 0.0709
990.70 0.07087
990.80 0.07085
990.90 0.07082
991.00 0.07079
991.10 0.07076
991.20 0.07073
991.30 0.0707
991.40 0.07067
991.50 0.07064
991.60 0.07061
991.70 0.07059
991.80 0.07056
991.90 0.07053
992.00 0.0705
992.10 0.07047
992.20 0.07044
992.30 0.07041
992.40 0.07038
992.50 0.07036
992.60 0.07033
992.70 0.0703
992.80 0.07027
992.90 0.07024
993.00 0.07021
993.10 0.07018
993.20 0.07016
993.30 0.07013
993.40 0.0701
993.50 0.07007
993.60 0.07004
993.70 0.07001
993.80 0.06998
993.90 0.06995
994.00 0.06993
994.10 0.0699
994.20 0.06987
994.30 0.06984
994.40 0.06981
994.50 0.06978
994.60 0.06975
994.70 0.06973
994.80 0.0697
994.90 0.06967
995.00 0.06964
995.10 0.06961
995.20 0.06958
995.30 0.06956
995.40 0.06953
995.50 0.0695
995.60 0.06947
995.70 0.06944
995.80 0.06941
995.90 0.06939
996.00 0.06936
996.10 0.06933
996.20 0.0693
996.30 0.06927
996.40 0.06924
996.50 0.06922
996.60 0.06919
996.70 0.06916
996.80 0.06913
996.90 0.0691
997.00 0.06908
997.10 0.06905
997.20 0.06902
997.30 0.06899
997.40 0.06896
997.50 0.06893
997.60 0.06891
997.70 0.06888
997.80 0.06885
997.90 0.06882
998.00 0.0688
998.10 0.06877
998.20 0.06874
998.30 0.06871
998.40 0.06868
998.50 0.06866
998.60 0.06863
998.70 0.0686
998.80 0.06857
998.90 0.06855
999.00 0.06852
999.10 0.06849
999.20 0.06846
999.30 0.06843
999.40 0.06841
999.50 0.06838
999.60 0.06835
999.70 0.06832
999.80 0.06829
999.90 0.06827
1000.00 0.06824
1000.10 0.06821
1000.20 0.06818
1000.30 0.06815
1000.40 0.06812
1000.50 0.06809
1000.60 0.06806
1000.70 0.06803
1000.80 0.06801
1000.90 0.06798
1001.00 0.06795
1001.10 0.06792
1001.20 0.06789
1001.30 0.06786
1001.40 0.06783
1001.50 0.0678
1001.60 0.06778
1001.70 0.06775
1001.80 0.06772
1001.90 0.0677
1002.00 0.06767
1002.10 0.06764
1002.20 0.06762
1002.30 0.06759
1002.40 0.06757
1002.50 0.06754
1002.60 0.06752
1002.70 0.06749
1002.80 0.06746
1002.90 0.06744
1003.00 0.06741
1003.10 0.06739
1003.20 0.06736
1003.30 0.06734
1003.40 0.06731
1003.50 0.06729
1003.60 0.06726
1003.70 0.06724
1003.80 0.06721
1003.90 0.06719
1004.00 0.06717
1004.10 0.06714
1004.20 0.06712
1004.30 0.06709
1004.40 0.06707
1004.50 0.06704
1004.60 0.06702
1004.70 0.06699
1004.80 0.06697
1004.90 0.06694
1005.00 0.06692
1005.10 0.06689
1005.20 0.06686
1005.30 0.06684
1005.40 0.06681
1005.50 0.06678
1005.60 0.06676
1005.70 0.06673
1005.80 0.0667
1005.90 0.06668
1006.00 0.06665
1006.10 0.06662
1006.20 0.06659
1006.30 0.06657
1006.40 0.06654
1006.50 0.06651
1006.60 0.06649
1006.70 0.06646
1006.80 0.06643
1006.90 0.06641
1007.00 0.06638
1007.10 0.06636
1007.20 0.06633
1007.30 0.0663
1007.40 0.06628
1007.50 0.06625
1007.60 0.06623
1007.70 0.0662
1007.80 0.06618
1007.90 0.06615
1008.00 0.06613
1008.10 0.0661
1008.20 0.06608
1008.30 0.06605
1008.40 0.06603
1008.50 0.066
1008.60 0.06598
1008.70 0.06595
1008.80 0.06593
1008.90 0.0659
1009.00 0.06588
1009.10 0.06585
1009.20 0.06583
1009.30 0.0658
1009.40 0.06578
1009.50 0.06575
1009.60 0.06573
1009.70 0.0657
1009.80 0.06568
1009.90 0.06565
1010.00 0.06563
1010.10 0.06561
1010.20 0.06558
1010.30 0.06556
1010.40 0.06553
1010.50 0.06551
1010.60 0.06548
1010.70 0.06546
1010.80 0.06544
1010.90 0.06541
1011.00 0.06539
1011.10 0.06536
1011.20 0.06534
1011.30 0.06532
1011.40 0.06529
1011.50 0.06527
1011.60 0.06524
1011.70 0.06522
1011.80 0.0652
1011.90 0.06517
1012.00 0.06515
1012.10 0.06512
1012.20 0.0651
1012.30 0.06508
1012.40 0.06505
1012.50 0.06503
1012.60 0.06501
1012.70 0.06498
1012.80 0.06496
1012.90 0.06493
1013.00 0.06491
1013.10 0.06489
1013.20 0.06486
1013.30 0.06484
1013.40 0.06482
1013.50 0.06479
1013.60 0.06477
1013.70 0.06475
1013.80 0.06472
1013.90 0.0647
1014.00 0.06467
1014.10 0.06465
1014.20 0.06463
1014.30 0.0646
1014.40 0.06458
1014.50 0.06456
1014.60 0.06453
1014.70 0.06451
1014.80 0.06449
1014.90 0.06446
1015.00 0.06444
1015.10 0.06442
1015.20 0.06439
1015.30 0.06437
1015.40 0.06435
1015.50 0.06432
1015.60 0.0643
1015.70 0.06428
1015.80 0.06425
1015.90 0.06423
1016.00 0.06421
1016.10 0.06418
1016.20 0.06416
1016.30 0.06414
1016.40 0.06411
1016.50 0.06409
1016.60 0.06407
1016.70 0.06404
1016.80 0.06402
1016.90 0.064
1017.00 0.06397
1017.10 0.06395
1017.20 0.06393
1017.30 0.0639
1017.40 0.06388
1017.50 0.06386
1017.60 0.06383
1017.70 0.06381
1017.80 0.06379
1017.90 0.06376
1018.00 0.06374
1018.10 0.06372
1018.20 0.06369
1018.30 0.06367
1018.40 0.06365
1018.50 0.06362
1018.60 0.0636
1018.70 0.06358
1018.80 0.06355
1018.90 0.06353
1019.00 0.06351
1019.10 0.06349
1019.20 0.06346
1019.30 0.06344
1019.40 0.06342
1019.50 0.06339
1019.60 0.06337
1019.70 0.06335
1019.80 0.06332
1019.90 0.0633
1020.00 0.06328
1020.10 0.06325
1020.20 0.06323
1020.30 0.06321
1020.40 0.06318
1020.50 0.06316
1020.60 0.06314
1020.70 0.06312
1020.80 0.06309
1020.90 0.06307
1021.00 0.06305
1021.10 0.06302
1021.20 0.063
1021.30 0.06298
1021.40 0.06295
1021.50 0.06293
1021.60 0.06291
1021.70 0.06288
1021.80 0.06286
1021.90 0.06284
1022.00 0.06282
1022.10 0.06279
1022.20 0.06277
1022.30 0.06275
1022.40 0.06272
1022.50 0.0627
1022.60 0.06268
1022.70 0.06265
1022.80 0.06263
1022.90 0.06261
1023.00 0.06259
1023.10 0.06256
1023.20 0.06254
1023.30 0.06252
1023.40 0.06249
1023.50 0.06247
1023.60 0.06245
1023.70 0.06243
1023.80 0.0624
1023.90 0.06238
1024.00 0.06236
1024.10 0.06233
1024.20 0.06231
1024.30 0.06229
1024.40 0.06226
1024.50 0.06224
1024.60 0.06222
1024.70 0.0622
1024.80 0.06217
1024.90 0.06215
1025.00 0.06213
1025.10 0.0621
1025.20 0.06208
1025.30 0.06206
1025.40 0.06204
1025.50 0.06201
1025.60 0.06199
1025.70 0.06197
1025.80 0.06194
1025.90 0.06192
1026.00 0.0619
1026.10 0.06188
1026.20 0.06185
1026.30 0.06183
1026.40 0.06181
1026.50 0.06179
1026.60 0.06176
1026.70 0.06174
1026.80 0.06172
1026.90 0.06169
1027.00 0.06167
1027.10 0.06165
1027.20 0.06163
1027.30 0.0616
1027.40 0.06158
1027.50 0.06156
1027.60 0.06153
1027.70 0.06151
1027.80 0.06149
1027.90 0.06147
1028.00 0.06144
1028.10 0.06142
1028.20 0.0614
1028.30 0.06138
1028.40 0.06135
1028.50 0.06133
1028.60 0.06131
1028.70 0.06129
1028.80 0.06126
1028.90 0.06124
1029.00 0.06122
1029.10 0.06119
1029.20 0.06117
1029.30 0.06115
1029.40 0.06113
1029.50 0.0611
1029.60 0.06108
1029.70 0.06106
1029.80 0.06104
1029.90 0.06101
1030.00 0.06099
1030.10 0.06097
1030.20 0.06095
1030.30 0.06092
1030.40 0.0609
1030.50 0.06088
1030.60 0.06086
1030.70 0.06083
1030.80 0.06081
1030.90 0.06079
1031.00 0.06077
1031.10 0.06074
1031.20 0.06072
1031.30 0.0607
1031.40 0.06068
1031.50 0.06065
1031.60 0.06063
1031.70 0.06061
1031.80 0.06059
1031.90 0.06056
1032.00 0.06054
1032.10 0.06052
1032.20 0.0605
1032.30 0.06047
1032.40 0.06045
1032.50 0.06043
1032.60 0.06041
1032.70 0.06038
1032.80 0.06036
1032.90 0.06034
1033.00 0.06032
1033.10 0.06029
1033.20 0.06027
1033.30 0.06025
1033.40 0.06023
1033.50 0.0602
1033.60 0.06018
1033.70 0.06016
1033.80 0.06014
1033.90 0.06012
1034.00 0.06009
1034.10 0.06007
1034.20 0.06005
1034.30 0.06003
1034.40 0.06
1034.50 0.05998
1034.60 0.05996
1034.70 0.05994
1034.80 0.05991
1034.90 0.05989
1035.00 0.05987
1035.10 0.05985
1035.20 0.05983
1035.30 0.0598
1035.40 0.05978
1035.50 0.05976
1035.60 0.05974
1035.70 0.05971
1035.80 0.05969
1035.90 0.05967
1036.00 0.05965
1036.10 0.05963
1036.20 0.0596
1036.30 0.05958
1036.40 0.05956
1036.50 0.05954
1036.60 0.05951
1036.70 0.05949
1036.80 0.05947
1036.90 0.05945
1037.00 0.05943
1037.10 0.0594
1037.20 0.05938
1037.30 0.05936
1037.40 0.05934
1037.50 0.05932
1037.60 0.05929
1037.70 0.05927
1037.80 0.05925
1037.90 0.05923
1038.00 0.05921
1038.10 0.05918
1038.20 0.05916
1038.30 0.05914
1038.40 0.05912
1038.50 0.0591
1038.60 0.05907
1038.70 0.05905
1038.80 0.05903
1038.90 0.05901
1039.00 0.05899
1039.10 0.05896
1039.20 0.05894
1039.30 0.05892
1039.40 0.0589
1039.50 0.05888
1039.60 0.05885
1039.70 0.05883
1039.80 0.05881
1039.90 0.05879
1040.00 0.05877
1040.10 0.05874
1040.20 0.05872
1040.30 0.0587
1040.40 0.05868
1040.50 0.05866
1040.60 0.05863
1040.70 0.05861
1040.80 0.05859
1040.90 0.05857
1041.00 0.05855
1041.10 0.05852
1041.20 0.0585
1041.30 0.05848
1041.40 0.05846
1041.50 0.05844
1041.60 0.05842
1041.70 0.05839
1041.80 0.05837
1041.90 0.05835
1042.00 0.05833
1042.10 0.05831
1042.20 0.05829
1042.30 0.05826
1042.40 0.05824
1042.50 0.05822
1042.60 0.0582
1042.70 0.05818
1042.80 0.05815
1042.90 0.05813
1043.00 0.05811
1043.10 0.05809
1043.20 0.05807
1043.30 0.05805
1043.40 0.05802
1043.50 0.058
1043.60 0.05798
1043.70 0.05796
1043.80 0.05794
1043.90 0.05792
1044.00 0.05789
1044.10 0.05787
1044.20 0.05785
1044.30 0.05783
1044.40 0.05781
1044.50 0.05779
1044.60 0.05776
1044.70 0.05774
1044.80 0.05772
1044.90 0.0577
1045.00 0.05768
1045.10 0.05766
1045.20 0.05764
1045.30 0.05761
1045.40 0.05759
1045.50 0.05757
1045.60 0.05755
1045.70 0.05753
1045.80 0.05751
1045.90 0.05748
1046.00 0.05746
1046.10 0.05744
1046.20 0.05742
1046.30 0.0574
1046.40 0.05738
1046.50 0.05736
1046.60 0.05733
1046.70 0.05731
1046.80 0.05729
1046.90 0.05727
1047.00 0.05725
1047.10 0.05723
1047.20 0.05721
1047.30 0.05718
1047.40 0.05716
1047.50 0.05714
1047.60 0.05712
1047.70 0.0571
1047.80 0.05708
1047.90 0.05706
1048.00 0.05703
1048.10 0.05701
1048.20 0.05699
1048.30 0.05697
1048.40 0.05695
1048.50 0.05693
1048.60 0.05691
1048.70 0.05688
1048.80 0.05686
1048.90 0.05684
1049.00 0.05682
1049.10 0.0568
1049.20 0.05678
1049.30 0.05676
1049.40 0.05674
1049.50 0.05671
1049.60 0.05669
1049.70 0.05667
1049.80 0.05665
1049.90 0.05663
1050.00 0.05661
1050.10 0.05659
1050.20 0.05657
1050.30 0.05654
1050.40 0.05652
1050.50 0.0565
1050.60 0.05648
1050.70 0.05646
1050.80 0.05644
1050.90 0.05642
1051.00 0.0564
1051.10 0.05637
1051.20 0.05635
1051.30 0.05633
1051.40 0.05631
1051.50 0.05629
1051.60 0.05627
1051.70 0.05625
1051.80 0.05623
1051.90 0.05621
1052.00 0.05618
1052.10 0.05616
1052.20 0.05614
1052.30 0.05612
1052.40 0.0561
1052.50 0.05608
1052.60 0.05606
1052.70 0.05604
1052.80 0.05602
1052.90 0.056
1053.00 0.05597
1053.10 0.05595
1053.20 0.05593
1053.30 0.05591
1053.40 0.05589
1053.50 0.05587
1053.60 0.05585
1053.70 0.05583
1053.80 0.05581
1053.90 0.05578
1054.00 0.05576
1054.10 0.05574
1054.20 0.05572
1054.30 0.0557
1054.40 0.05568
1054.50 0.05566
1054.60 0.05564
1054.70 0.05562
1054.80 0.0556
1054.90 0.05558
1055.00 0.05555
1055.10 0.05553
1055.20 0.05551
1055.30 0.05549
1055.40 0.05547
1055.50 0.05545
1055.60 0.05543
1055.70 0.05541
1055.80 0.05539
1055.90 0.05537
1056.00 0.05535
1056.10 0.05532
1056.20 0.0553
1056.30 0.05528
1056.40 0.05526
1056.50 0.05524
1056.60 0.05522
1056.70 0.0552
1056.80 0.05518
1056.90 0.05516
1057.00 0.05514
1057.10 0.05512
1057.20 0.0551
1057.30 0.05508
1057.40 0.05505
1057.50 0.05503
1057.60 0.05501
1057.70 0.05499
1057.80 0.05497
1057.90 0.05495
1058.00 0.05493
1058.10 0.05491
1058.20 0.05489
1058.30 0.05487
1058.40 0.05485
1058.50 0.05483
1058.60 0.0548
1058.70 0.05478
1058.80 0.05476
1058.90 0.05474
1059.00 0.05472
1059.10 0.0547
1059.20 0.05468
1059.30 0.05466
1059.40 0.05464
1059.50 0.05462
1059.60 0.0546
1059.70 0.05458
1059.80 0.05456
1059.90 0.05454
1060.00 0.05452
1060.10 0.05449
1060.20 0.05447
1060.30 0.05445
1060.40 0.05443
1060.50 0.05441
1060.60 0.05439
1060.70 0.05437
1060.80 0.05435
1060.90 0.05433
1061.00 0.05431
1061.10 0.05429
1061.20 0.05427
1061.30 0.05425
1061.40 0.05423
1061.50 0.05421
1061.60 0.05419
1061.70 0.05417
1061.80 0.05414
1061.90 0.05412
1062.00 0.0541
1062.10 0.05408
1062.20 0.05406
1062.30 0.05404
1062.40 0.05402
1062.50 0.054
1062.60 0.05398
1062.70 0.05396
1062.80 0.05394
1062.90 0.05392
1063.00 0.0539
1063.10 0.05388
1063.20 0.05386
1063.30 0.05384
1063.40 0.05382
1063.50 0.0538
1063.60 0.05377
1063.70 0.05375
1063.80 0.05373
1063.90 0.05371
1064.00 0.05369
1064.10 0.05367
1064.20 0.05365
1064.30 0.05363
1064.40 0.05361
1064.50 0.05359
1064.60 0.05357
1064.70 0.05355
1064.80 0.05353
1064.90 0.05351
1065.00 0.05349
1065.10 0.05347
1065.20 0.05345
1065.30 0.05343
1065.40 0.05341
1065.50 0.05339
1065.60 0.05337
1065.70 0.05334
1065.80 0.05332
1065.90 0.0533
1066.00 0.05328
1066.10 0.05326
1066.20 0.05324
1066.30 0.05322
1066.40 0.0532
1066.50 0.05318
1066.60 0.05316
1066.70 0.05314
1066.80 0.05312
1066.90 0.0531
1067.00 0.05308
1067.10 0.05306
1067.20 0.05304
1067.30 0.05302
1067.40 0.053
1067.50 0.05298
1067.60 0.05296
1067.70 0.05294
1067.80 0.05292
1067.90 0.0529
1068.00 0.05288
1068.10 0.05286
1068.20 0.05283
1068.30 0.05281
1068.40 0.05279
1068.50 0.05277
1068.60 0.05275
1068.70 0.05273
1068.80 0.05271
1068.90 0.05269
1069.00 0.05267
1069.10 0.05265
1069.20 0.05263
1069.30 0.05261
1069.40 0.05259
1069.50 0.05257
1069.60 0.05255
1069.70 0.05253
1069.80 0.05251
1069.90 0.05249
1070.00 0.05247
1070.10 0.05245
1070.20 0.05243
1070.30 0.05241
1070.40 0.05239
1070.50 0.05237
1070.60 0.05235
1070.70 0.05233
1070.80 0.05231
1070.90 0.05229
1071.00 0.05227
1071.10 0.05225
1071.20 0.05222
1071.30 0.0522
1071.40 0.05218
1071.50 0.05216
1071.60 0.05214
1071.70 0.05212
1071.80 0.0521
1071.90 0.05208
1072.00 0.05206
1072.10 0.05204
1072.20 0.05202
1072.30 0.052
1072.40 0.05198
1072.50 0.05196
1072.60 0.05194
1072.70 0.05192
1072.80 0.0519
1072.90 0.05188
1073.00 0.05186
1073.10 0.05184
1073.20 0.05182
1073.30 0.0518
1073.40 0.05178
1073.50 0.05176
1073.60 0.05174
1073.70 0.05172
1073.80 0.0517
1073.90 0.05168
1074.00 0.05166
1074.10 0.05164
1074.20 0.05162
1074.30 0.05159
1074.40 0.05157
1074.50 0.05155
1074.60 0.05153
1074.70 0.05151
1074.80 0.05149
1074.90 0.05147
1075.00 0.05145
1075.10 0.05143
1075.20 0.05141
1075.30 0.05139
1075.40 0.05137
1075.50 0.05135
1075.60 0.05133
1075.70 0.05131
1075.80 0.05129
1075.90 0.05127
1076.00 0.05125
1076.10 0.05123
1076.20 0.05121
1076.30 0.05119
1076.40 0.05117
1076.50 0.05115
1076.60 0.05113
1076.70 0.05111
1076.80 0.05109
1076.90 0.05107
1077.00 0.05105
1077.10 0.05103
1077.20 0.05101
1077.30 0.05099
1077.40 0.05097
1077.50 0.05095
1077.60 0.05092
1077.70 0.0509
1077.80 0.05088
1077.90 0.05086
1078.00 0.05084
1078.10 0.05082
1078.20 0.0508
1078.30 0.05078
1078.40 0.05076
1078.50 0.05074
1078.60 0.05072
1078.70 0.0507
1078.80 0.05068
1078.90 0.05066
1079.00 0.05064
1079.10 0.05062
1079.20 0.0506
1079.30 0.05058
1079.40 0.05056
1079.50 0.05054
1079.60 0.05052
1079.70 0.0505
1079.80 0.05048
1079.90 0.05046
1080.00 0.05044
1080.10 0.05041
1080.20 0.05039
1080.30 0.05037
1080.40 0.05035
1080.50 0.05033
1080.60 0.05031
1080.70 0.05029
1080.80 0.05027
1080.90 0.05025
1081.00 0.05023
1081.10 0.05021
1081.20 0.05019
1081.30 0.05017
1081.40 0.05015
1081.50 0.05013
1081.60 0.05011
1081.70 0.05009
1081.80 0.05007
1081.90 0.05005
1082.00 0.05003
1082.10 0.05001
1082.20 0.04999
1082.30 0.04997
1082.40 0.04995
1082.50 0.04993
1082.60 0.0499
1082.70 0.04988
1082.80 0.04986
1082.90 0.04984
1083.00 0.04982
1083.10 0.0498
1083.20 0.04978
1083.30 0.04976
1083.40 0.04974
1083.50 0.04972
1083.60 0.0497
1083.70 0.04968
1083.80 0.04966
1083.90 0.04964
1084.00 0.04962
1084.10 0.0496
1084.20 0.04958
1084.30 0.04956
1084.40 0.04954
1084.50 0.04952
1084.60 0.0495
1084.70 0.04948
1084.80 0.04946
1084.90 0.04944
1085.00 0.04942
1085.10 0.0494
1085.20 0.04938
1085.30 0.04936
1085.40 0.04933
1085.50 0.04931
1085.60 0.04929
1085.70 0.04927
1085.80 0.04925
1085.90 0.04923
1086.00 0.04921
1086.10 0.04919
1086.20 0.04917
1086.30 0.04915
1086.40 0.04913
1086.50 0.04911
1086.60 0.04909
1086.70 0.04907
1086.80 0.04905
1086.90 0.04903
1087.00 0.04901
1087.10 0.04899
1087.20 0.04897
1087.30 0.04895
1087.40 0.04893
1087.50 0.04891
1087.60 0.04889
1087.70 0.04887
1087.80 0.04885
1087.90 0.04883
1088.00 0.04881
1088.10 0.04879
1088.20 0.04877
1088.30 0.04875
1088.40 0.04873
1088.50 0.04871
1088.60 0.04869
1088.70 0.04867
1088.80 0.04865
1088.90 0.04863
1089.00 0.04861
1089.10 0.04859
1089.20 0.04857
1089.30 0.04855
1089.40 0.04853
1089.50 0.04851
1089.60 0.04849
1089.70 0.04847
1089.80 0.04845
1089.90 0.04843
1090.00 0.04841
1090.10 0.04839
1090.20 0.04837
1090.30 0.04835
1090.40 0.04833
1090.50 0.04831
1090.60 0.04829
1090.70 0.04827
1090.80 0.04825
1090.90 0.04823
1091.00 0.04821
1091.10 0.04819
1091.20 0.04817
1091.30 0.04815
1091.40 0.04813
1091.50 0.04811
1091.60 0.04809
1091.70 0.04807
1091.80 0.04805
1091.90 0.04803
1092.00 0.04801
1092.10 0.048
1092.20 0.04798
1092.30 0.04796
1092.40 0.04794
1092.50 0.04792
1092.60 0.0479
1092.70 0.04788
1092.80 0.04786
1092.90 0.04784
1093.00 0.04782
1093.10 0.0478
1093.20 0.04778
1093.30 0.04777
1093.40 0.04775
1093.50 0.04774
1093.60 0.04773
1093.70 0.04772
1093.80 0.0477
1093.90 0.04769
1094.00 0.04767
1094.10 0.04765
1094.20 0.04763
1094.30 0.04761
1094.40 0.04759
1094.50 0.04758
1094.60 0.04756
1094.70 0.04755
1094.80 0.04753
1094.90 0.04752
1095.00 0.0475
1095.10 0.04749
1095.20 0.04747
1095.30 0.04746
1095.40 0.04744
1095.50 0.04743
1095.60 0.04742
1095.70 0.0474
1095.80 0.04739
1095.90 0.04737
1096.00 0.04736
1096.10 0.04735
1096.20 0.04733
1096.30 0.04732
1096.40 0.0473
1096.50 0.04729
1096.60 0.04727
1096.70 0.04726
1096.80 0.04725
1096.90 0.04723
1097.00 0.04722
1097.10 0.0472
1097.20 0.04719
1097.30 0.04718
1097.40 0.04716
1097.50 0.04715
1097.60 0.04713
1097.70 0.04712
1097.80 0.04711
1097.90 0.04709
1098.00 0.04708
1098.10 0.04706
1098.20 0.04705
1098.30 0.04704
1098.40 0.04702
1098.50 0.04701
1098.60 0.04699
1098.70 0.04698
1098.80 0.04697
1098.90 0.04695
1099.00 0.04694
1099.10 0.04692
1099.20 0.04691
1099.30 0.0469
1099.40 0.04688
1099.50 0.04687
1099.60 0.04685
1099.70 0.04684
1099.80 0.04683
1099.90 0.04681
1100.00 0.0468
1100.10 0.04678
1100.20 0.04677
1100.30 0.04676
1100.40 0.04674
1100.50 0.04673
1100.60 0.04671
1100.70 0.0467
1100.80 0.04669
1100.90 0.04667
1101.00 0.04666
1101.10 0.04664
1101.20 0.04663
1101.30 0.04662
1101.40 0.0466
1101.50 0.04659
1101.60 0.04657
1101.70 0.04656
1101.80 0.04655
1101.90 0.04653
1102.00 0.04652
1102.10 0.0465
1102.20 0.04649
1102.30 0.04648
1102.40 0.04646
1102.50 0.04645
1102.60 0.04644
1102.70 0.04642
1102.80 0.04641
1102.90 0.04639
1103.00 0.04638
1103.10 0.04637
1103.20 0.04635
1103.30 0.04634
1103.40 0.04632
1103.50 0.04631
1103.60 0.0463
1103.70 0.04628
1103.80 0.04627
1103.90 0.04625
1104.00 0.04624
1104.10 0.04623
1104.20 0.04621
1104.30 0.0462
1104.40 0.04618
1104.50 0.04617
1104.60 0.04616
1104.70 0.04614
1104.80 0.04613
1104.90 0.04611
1105.00 0.0461
1105.10 0.04609
1105.20 0.04607
1105.30 0.04606
1105.40 0.04604
1105.50 0.04603
1105.60 0.04602
1105.70 0.046
1105.80 0.04599
1105.90 0.04597
1106.00 0.04596
1106.10 0.04595
1106.20 0.04593
1106.30 0.04592
1106.40 0.0459
1106.50 0.04589
1106.60 0.04588
1106.70 0.04586
1106.80 0.04585
1106.90 0.04583
1107.00 0.04582
1107.10 0.04581
1107.20 0.04579
1107.30 0.04578
1107.40 0.04576
1107.50 0.04575
1107.60 0.04574
1107.70 0.04572
1107.80 0.04571
1107.90 0.04569
1108.00 0.04568
1108.10 0.04566
1108.20 0.04565
1108.30 0.04564
1108.40 0.04562
1108.50 0.04561
1108.60 0.04559
1108.70 0.04558
1108.80 0.04556
1108.90 0.04555
1109.00 0.04554
1109.10 0.04552
1109.20 0.04551
1109.30 0.04549
1109.40 0.04548
1109.50 0.04547
1109.60 0.04545
1109.70 0.04544
1109.80 0.04542
1109.90 0.04541
1110.00 0.04539
1110.10 0.04538
1110.20 0.04537
1110.30 0.04535
1110.40 0.04534
1110.50 0.04532
1110.60 0.04531
1110.70 0.04529
1110.80 0.04528
1110.90 0.04527
1111.00 0.04525
1111.10 0.04524
1111.20 0.04522
1111.30 0.04521
1111.40 0.04519
1111.50 0.04518
1111.60 0.04517
1111.70 0.04515
1111.80 0.04514
1111.90 0.04512
1112.00 0.04511
1112.10 0.04509
1112.20 0.04508
1112.30 0.04507
1112.40 0.04505
1112.50 0.04504
1112.60 0.04502
1112.70 0.04501
1112.80 0.04499
1112.90 0.04498
1113.00 0.04496
1113.10 0.04495
1113.20 0.04494
1113.30 0.04492
1113.40 0.04491
1113.50 0.04489
1113.60 0.04488
1113.70 0.04486
1113.80 0.04485
1113.90 0.04483
1114.00 0.04482
1114.10 0.04481
1114.20 0.04479
1114.30 0.04478
1114.40 0.04476
1114.50 0.04475
1114.60 0.04473
1114.70 0.04472
1114.80 0.0447
1114.90 0.04469
1115.00 0.04468
1115.10 0.04466
1115.20 0.04465
1115.30 0.04463
1115.40 0.04462
1115.50 0.0446
1115.60 0.04459
1115.70 0.04457
1115.80 0.04456
1115.90 0.04454
1116.00 0.04453
1116.10 0.04452
1116.20 0.0445
1116.30 0.04449
1116.40 0.04447
1116.50 0.04446
1116.60 0.04444
1116.70 0.04443
1116.80 0.04442
1116.90 0.0444
1117.00 0.04439
1117.10 0.04437
1117.20 0.04436
1117.30 0.04434
1117.40 0.04433
1117.50 0.04431
1117.60 0.0443
1117.70 0.04428
1117.80 0.04427
1117.90 0.04425
1118.00 0.04424
1118.10 0.04423
1118.20 0.04421
1118.30 0.0442
1118.40 0.04418
1118.50 0.04417
1118.60 0.04415
1118.70 0.04414
1118.80 0.04412
1118.90 0.04411
1119.00 0.04409
1119.10 0.04408
1119.20 0.04407
1119.30 0.04405
1119.40 0.04404
1119.50 0.04402
1119.60 0.04401
1119.70 0.04399
1119.80 0.04398
1119.90 0.04396
1120.00 0.04395
1120.10 0.04393
1120.20 0.04392
1120.30 0.04391
1120.40 0.04389
1120.50 0.04388
1120.60 0.04386
1120.70 0.04385
1120.80 0.04383
1120.90 0.04382
1121.00 0.0438
1121.10 0.04379
1121.20 0.04378
1121.30 0.04376
1121.40 0.04375
1121.50 0.04373
1121.60 0.04372
1121.70 0.0437
1121.80 0.04369
1121.90 0.04367
1122.00 0.04366
1122.10 0.04365
1122.20 0.04363
1122.30 0.04362
1122.40 0.0436
1122.50 0.04359
1122.60 0.04357
1122.70 0.04356
1122.80 0.04354
1122.90 0.04353
1123.00 0.04351
1123.10 0.0435
1123.20 0.04349
1123.30 0.04347
1123.40 0.04346
1123.50 0.04344
1123.60 0.04343
1123.70 0.04341
1123.80 0.0434
1123.90 0.04338
1124.00 0.04337
1124.10 0.04335
1124.20 0.04334
1124.30 0.04333
1124.40 0.04331
1124.50 0.0433
1124.60 0.04328
1124.70 0.04327
1124.80 0.04325
1124.90 0.04324
1125.00 0.04322
1125.10 0.04321
1125.20 0.0432
1125.30 0.04318
1125.40 0.04317
1125.50 0.04315
1125.60 0.04314
1125.70 0.04312
1125.80 0.04311
1125.90 0.04309
1126.00 0.04308
1126.10 0.04307
1126.20 0.04305
1126.30 0.04304
1126.40 0.04302
1126.50 0.04301
1126.60 0.04299
1126.70 0.04298
1126.80 0.04296
1126.90 0.04295
1127.00 0.04294
1127.10 0.04292
1127.20 0.04291
1127.30 0.04289
1127.40 0.04288
1127.50 0.04286
1127.60 0.04285
1127.70 0.04283
1127.80 0.04282
1127.90 0.04281
1128.00 0.04279
1128.10 0.04278
1128.20 0.04276
1128.30 0.04275
1128.40 0.04273
1128.50 0.04272
1128.60 0.0427
1128.70 0.04269
1128.80 0.04268
1128.90 0.04266
1129.00 0.04265
1129.10 0.04263
1129.20 0.04262
1129.30 0.0426
1129.40 0.04259
1129.50 0.04258
1129.60 0.04256
1129.70 0.04255
1129.80 0.04253
1129.90 0.04252
1130.00 0.0425
1130.10 0.04249
1130.20 0.04247
1130.30 0.04246
1130.40 0.04245
1130.50 0.04243
1130.60 0.04242
1130.70 0.0424
1130.80 0.04239
1130.90 0.04237
1131.00 0.04236
1131.10 0.04235
1131.20 0.04233
1131.30 0.04232
1131.40 0.0423
1131.50 0.04229
1131.60 0.04227
1131.70 0.04226
1131.80 0.04225
1131.90 0.04223
1132.00 0.04222
1132.10 0.0422
1132.20 0.04219
1132.30 0.04217
1132.40 0.04216
1132.50 0.04215
1132.60 0.04213
1132.70 0.04212
1132.80 0.0421
1132.90 0.04209
1133.00 0.04207
1133.10 0.04206
1133.20 0.04205
1133.30 0.04203
1133.40 0.04202
1133.50 0.042
1133.60 0.04199
1133.70 0.04197
1133.80 0.04196
1133.90 0.04195
1134.00 0.04193
1134.10 0.04192
1134.20 0.0419
1134.30 0.04189
1134.40 0.04188
1134.50 0.04186
1134.60 0.04185
1134.70 0.04183
1134.80 0.04182
1134.90 0.0418
1135.00 0.04179
1135.10 0.04178
1135.20 0.04176
1135.30 0.04175
1135.40 0.04173
1135.50 0.04172
1135.60 0.04171
1135.70 0.04169
1135.80 0.04168
1135.90 0.04166
1136.00 0.04165
1136.10 0.04164
1136.20 0.04162
1136.30 0.04161
1136.40 0.04159
1136.50 0.04158
1136.60 0.04156
1136.70 0.04155
1136.80 0.04154
1136.90 0.04152
1137.00 0.04151
1137.10 0.04149
1137.20 0.04148
1137.30 0.04147
1137.40 0.04145
1137.50 0.04144
1137.60 0.04142
1137.70 0.04141
1137.80 0.0414
1137.90 0.04138
1138.00 0.04137
1138.10 0.04135
1138.20 0.04134
1138.30 0.04133
1138.40 0.04131
1138.50 0.0413
1138.60 0.04128
1138.70 0.04127
1138.80 0.04126
1138.90 0.04124
1139.00 0.04123
1139.10 0.04121
1139.20 0.0412
1139.30 0.04119
1139.40 0.04117
1139.50 0.04116
1139.60 0.04114
1139.70 0.04113
1139.80 0.04112
1139.90 0.0411
1140.00 0.04109
1140.10 0.04107
1140.20 0.04106
1140.30 0.04105
1140.40 0.04103
1140.50 0.04102
1140.60 0.041
1140.70 0.04099
1140.80 0.04098
1140.90 0.04096
1141.00 0.04095
1141.10 0.04093
1141.20 0.04092
1141.30 0.04091
1141.40 0.04089
1141.50 0.04088
1141.60 0.04087
1141.70 0.04085
1141.80 0.04084
1141.90 0.04082
1142.00 0.04081
1142.10 0.0408
1142.20 0.04078
1142.30 0.04077
1142.40 0.04075
1142.50 0.04074
1142.60 0.04073
1142.70 0.04071
1142.80 0.0407
1142.90 0.04069
1143.00 0.04067
1143.10 0.04066
1143.20 0.04064
1143.30 0.04063
1143.40 0.04062
1143.50 0.0406
1143.60 0.04059
1143.70 0.04058
1143.80 0.04056
1143.90 0.04055
1144.00 0.04053
1144.10 0.04052
1144.20 0.04051
1144.30 0.04049
1144.40 0.04048
1144.50 0.04047
1144.60 0.04045
1144.70 0.04044
1144.80 0.04042
1144.90 0.04041
1145.00 0.0404
1145.10 0.04038
1145.20 0.04037
1145.30 0.04036
1145.40 0.04034
1145.50 0.04033
1145.60 0.04031
1145.70 0.0403
1145.80 0.04029
1145.90 0.04027
1146.00 0.04026
1146.10 0.04025
1146.20 0.04023
1146.30 0.04022
1146.40 0.04021
1146.50 0.04019
1146.60 0.04018
1146.70 0.04016
1146.80 0.04015
1146.90 0.04014
1147.00 0.04012
1147.10 0.04011
1147.20 0.0401
1147.30 0.04008
1147.40 0.04007
1147.50 0.04006
1147.60 0.04004
1147.70 0.04003
1147.80 0.04002
1147.90 0.04
1148.00 0.03999
1148.10 0.03997
1148.20 0.03996
1148.30 0.03995
1148.40 0.03993
1148.50 0.03992
1148.60 0.03991
1148.70 0.03989
1148.80 0.03988
1148.90 0.03987
1149.00 0.03985
1149.10 0.03984
1149.20 0.03983
1149.30 0.03981
1149.40 0.0398
1149.50 0.03979
1149.60 0.03977
1149.70 0.03976
1149.80 0.03975
1149.90 0.03973
1150.00 0.03972
1150.10 0.0397
1150.20 0.03969
1150.30 0.03968
1150.40 0.03966
1150.50 0.03965
1150.60 0.03964
1150.70 0.03962
1150.80 0.03961
1150.90 0.0396
1151.00 0.03958
1151.10 0.03957
1151.20 0.03956
1151.30 0.03954
1151.40 0.03953
1151.50 0.03952
1151.60 0.0395
1151.70 0.03949
1151.80 0.03948
1151.90 0.03946
1152.00 0.03945
1152.10 0.03944
1152.20 0.03942
1152.30 0.03941
1152.40 0.0394
1152.50 0.03938
1152.60 0.03937
1152.70 0.03936
1152.80 0.03934
1152.90 0.03933
1153.00 0.03932
1153.10 0.0393
1153.20 0.03929
1153.30 0.03928
1153.40 0.03926
1153.50 0.03925
1153.60 0.03924
1153.70 0.03922
1153.80 0.03921
1153.90 0.0392
1154.00 0.03918
1154.10 0.03917
1154.20 0.03916
1154.30 0.03914
1154.40 0.03913
1154.50 0.03912
1154.60 0.03911
1154.70 0.03909
1154.80 0.03908
1154.90 0.03907
1155.00 0.03905
1155.10 0.03904
1155.20 0.03903
1155.30 0.03901
1155.40 0.039
1155.50 0.03899
1155.60 0.03897
1155.70 0.03896
1155.80 0.03895
1155.90 0.03893
1156.00 0.03892
1156.10 0.03891
1156.20 0.03889
1156.30 0.03888
1156.40 0.03887
1156.50 0.03885
1156.60 0.03884
1156.70 0.03883
1156.80 0.03882
1156.90 0.0388
1157.00 0.03879
1157.10 0.03878
1157.20 0.03876
1157.30 0.03875
1157.40 0.03874
1157.50 0.03872
1157.60 0.03871
1157.70 0.0387
1157.80 0.03868
1157.90 0.03867
1158.00 0.03866
1158.10 0.03865
1158.20 0.03863
1158.30 0.03862
1158.40 0.03861
1158.50 0.03859
1158.60 0.03858
1158.70 0.03857
1158.80 0.03855
1158.90 0.03854
1159.00 0.03853
1159.10 0.03852
1159.20 0.0385
1159.30 0.03849
1159.40 0.03848
1159.50 0.03846
1159.60 0.03845
1159.70 0.03844
1159.80 0.03842
1159.90 0.03841
1160.00 0.0384
1160.10 0.03839
1160.20 0.03837
1160.30 0.03836
1160.40 0.03835
1160.50 0.03833
1160.60 0.03832
1160.70 0.03831
1160.80 0.0383
1160.90 0.03828
1161.00 0.03827
1161.10 0.03826
1161.20 0.03824
1161.30 0.03823
1161.40 0.03822
1161.50 0.03821
1161.60 0.03819
1161.70 0.03818
1161.80 0.03817
1161.90 0.03815
1162.00 0.03814
1162.10 0.03813
1162.20 0.03812
1162.30 0.0381
1162.40 0.03809
1162.50 0.03808
1162.60 0.03806
1162.70 0.03805
1162.80 0.03804
1162.90 0.03803
1163.00 0.03801
1163.10 0.038
1163.20 0.03799
1163.30 0.03797
1163.40 0.03796
1163.50 0.03795
1163.60 0.03794
1163.70 0.03792
1163.80 0.03791
1163.90 0.0379
1164.00 0.03789
1164.10 0.03787
1164.20 0.03786
1164.30 0.03785
1164.40 0.03783
1164.50 0.03782
1164.60 0.03781
1164.70 0.0378
1164.80 0.03778
1164.90 0.03777
1165.00 0.03776
1165.10 0.03775
1165.20 0.03773
1165.30 0.03772
1165.40 0.03771
1165.50 0.0377
1165.60 0.03768
1165.70 0.03767
1165.80 0.03766
1165.90 0.03764
1166.00 0.03763
1166.10 0.03762
1166.20 0.03761
1166.30 0.03759
1166.40 0.03758
1166.50 0.03757
1166.60 0.03756
1166.70 0.03754
1166.80 0.03753
1166.90 0.03752
1167.00 0.03751
1167.10 0.03749
1167.20 0.03748
1167.30 0.03747
1167.40 0.03746
1167.50 0.03744
1167.60 0.03743
1167.70 0.03742
1167.80 0.03741
1167.90 0.03739
1168.00 0.03738
1168.10 0.03737
1168.20 0.03736
1168.30 0.03734
1168.40 0.03733
1168.50 0.03732
1168.60 0.03731
1168.70 0.03729
1168.80 0.03728
1168.90 0.03727
1169.00 0.03726
1169.10 0.03724
1169.20 0.03723
1169.30 0.03722
1169.40 0.03721
1169.50 0.03719
1169.60 0.03718
1169.70 0.03717
1169.80 0.03716
1169.90 0.03714
1170.00 0.03713
1170.10 0.03712
1170.20 0.03711
1170.30 0.03709
1170.40 0.03708
1170.50 0.03707
1170.60 0.03706
1170.70 0.03704
1170.80 0.03703
1170.90 0.03702
1171.00 0.03701
1171.10 0.03699
1171.20 0.03698
1171.30 0.03697
1171.40 0.03696
1171.50 0.03694
1171.60 0.03693
1171.70 0.03692
1171.80 0.03691
1171.90 0.0369
1172.00 0.03688
1172.10 0.03687
1172.20 0.03686
1172.30 0.03685
1172.40 0.03683
1172.50 0.03682
1172.60 0.03681
1172.70 0.0368
1172.80 0.03678
1172.90 0.03677
1173.00 0.03676
1173.10 0.03675
1173.20 0.03674
1173.30 0.03672
1173.40 0.03671
1173.50 0.0367
1173.60 0.03669
1173.70 0.03667
1173.80 0.03666
1173.90 0.03665
1174.00 0.03664
1174.10 0.03663
1174.20 0.03661
1174.30 0.0366
1174.40 0.03659
1174.50 0.03658
1174.60 0.03656
1174.70 0.03655
1174.80 0.03654
1174.90 0.03653
1175.00 0.03652
1175.10 0.0365
1175.20 0.03649
1175.30 0.03648
1175.40 0.03647
1175.50 0.03645
1175.60 0.03644
1175.70 0.03643
1175.80 0.03642
1175.90 0.03641
1176.00 0.03639
1176.10 0.03638
1176.20 0.03637
1176.30 0.03636
1176.40 0.03635
1176.50 0.03633
1176.60 0.03632
1176.70 0.03631
1176.80 0.0363
1176.90 0.03628
1177.00 0.03627
1177.10 0.03626
1177.20 0.03625
1177.30 0.03624
1177.40 0.03622
1177.50 0.03621
1177.60 0.0362
1177.70 0.03619
1177.80 0.03618
1177.90 0.03616
1178.00 0.03615
1178.10 0.03614
1178.20 0.03613
1178.30 0.03612
1178.40 0.0361
1178.50 0.03609
1178.60 0.03608
1178.70 0.03607
1178.80 0.03606
1178.90 0.03604
1179.00 0.03603
1179.10 0.03602
1179.20 0.03601
1179.30 0.036
1179.40 0.03598
1179.50 0.03597
1179.60 0.03596
1179.70 0.03595
1179.80 0.03594
1179.90 0.03592
1180.00 0.03591
1180.10 0.0359
1180.20 0.03589
1180.30 0.03588
1180.40 0.03587
1180.50 0.03585
1180.60 0.03584
1180.70 0.03583
1180.80 0.03582
1180.90 0.03581
1181.00 0.03579
1181.10 0.03578
1181.20 0.03577
1181.30 0.03576
1181.40 0.03575
1181.50 0.03573
1181.60 0.03572
1181.70 0.03571
1181.80 0.0357
1181.90 0.03569
1182.00 0.03567
1182.10 0.03566
1182.20 0.03565
1182.30 0.03564
1182.40 0.03563
1182.50 0.03562
1182.60 0.0356
1182.70 0.03559
1182.80 0.03558
1182.90 0.03557
1183.00 0.03556
1183.10 0.03555
1183.20 0.03553
1183.30 0.03552
1183.40 0.03551
1183.50 0.0355
1183.60 0.03549
1183.70 0.03547
1183.80 0.03546
1183.90 0.03545
1184.00 0.03544
1184.10 0.03543
1184.20 0.03542
1184.30 0.0354
1184.40 0.03539
1184.50 0.03538
1184.60 0.03537
1184.70 0.03536
1184.80 0.03535
1184.90 0.03533
1185.00 0.03532
1185.10 0.03531
1185.20 0.0353
1185.30 0.03529
1185.40 0.03528
1185.50 0.03526
1185.60 0.03525
1185.70 0.03524
1185.80 0.03523
1185.90 0.03522
1186.00 0.03521
1186.10 0.03519
1186.20 0.03518
1186.30 0.03517
1186.40 0.03516
1186.50 0.03515
1186.60 0.03514
1186.70 0.03512
1186.80 0.03511
1186.90 0.0351
1187.00 0.03509
1187.10 0.03508
1187.20 0.03507
1187.30 0.03505
1187.40 0.03504
1187.50 0.03503
1187.60 0.03502
1187.70 0.03501
1187.80 0.035
1187.90 0.03498
1188.00 0.03497
1188.10 0.03496
1188.20 0.03495
1188.30 0.03494
1188.40 0.03493
1188.50 0.03492
1188.60 0.0349
1188.70 0.03489
1188.80 0.03488
1188.90 0.03487
1189.00 0.03486
1189.10 0.03485
1189.20 0.03483
1189.30 0.03482
1189.40 0.03481
1189.50 0.0348
1189.60 0.03479
1189.70 0.03478
1189.80 0.03477
1189.90 0.03475
1190.00 0.03474
1190.10 0.03473
1190.20 0.03472
1190.30 0.03471
1190.40 0.0347
1190.50 0.03469
1190.60 0.03467
1190.70 0.03466
1190.80 0.03465
1190.90 0.03464
1191.00 0.03463
1191.10 0.03462
1191.20 0.03461
1191.30 0.03459
1191.40 0.03458
1191.50 0.03457
1191.60 0.03456
1191.70 0.03455
1191.80 0.03454
1191.90 0.03453
1192.00 0.03451
1192.10 0.0345
1192.20 0.03449
1192.30 0.03448
1192.40 0.03447
1192.50 0.03446
1192.60 0.03445
1192.70 0.03443
1192.80 0.03442
1192.90 0.03441
1193.00 0.0344
1193.10 0.03439
1193.20 0.03438
1193.30 0.03437
1193.40 0.03436
1193.50 0.03434
1193.60 0.03433
1193.70 0.03432
1193.80 0.03431
1193.90 0.0343
1194.00 0.03429
1194.10 0.03428
1194.20 0.03427
1194.30 0.03425
1194.40 0.03424
1194.50 0.03423
1194.60 0.03422
1194.70 0.03421
1194.80 0.0342
1194.90 0.03419
1195.00 0.03418
1195.10 0.03416
1195.20 0.03415
1195.30 0.03414
1195.40 0.03413
1195.50 0.03412
1195.60 0.03411
1195.70 0.0341
1195.80 0.03409
1195.90 0.03407
1196.00 0.03406
1196.10 0.03405
1196.20 0.03404
1196.30 0.03403
1196.40 0.03402
1196.50 0.03401
1196.60 0.034
1196.70 0.03398
1196.80 0.03397
1196.90 0.03396
1197.00 0.03395
1197.10 0.03394
1197.20 0.03393
1197.30 0.03392
1197.40 0.03391
1197.50 0.0339
1197.60 0.03388
1197.70 0.03387
1197.80 0.03386
1197.90 0.03385
1198.00 0.03384
1198.10 0.03383
1198.20 0.03382
1198.30 0.03381
1198.40 0.0338
1198.50 0.03378
1198.60 0.03377
1198.70 0.03376
1198.80 0.03375
1198.90 0.03374
1199.00 0.03373
1199.10 0.03372
1199.20 0.03371
1199.30 0.0337
1199.40 0.03368
1199.50 0.03367
1199.60 0.03366
1199.70 0.03365
1199.80 0.03364
1199.90 0.03363
1200.00 0
