# Version 2.1 - nm, norm@500 to 1, cut digits, bergeron_60000_70.dat_60000
# Wavelength(nm)  Flambda(ergs/cm^s/s/nm)
300.00 6.39
300.10 6.382
300.20 6.374
300.30 6.366
300.40 6.359
300.50 6.351
300.60 6.343
300.70 6.335
300.80 6.328
300.90 6.32
301.00 6.312
301.10 6.305
301.20 6.297
301.30 6.289
301.40 6.282
301.50 6.274
301.60 6.266
301.70 6.259
301.80 6.251
301.90 6.244
302.00 6.236
302.10 6.229
302.20 6.221
302.30 6.213
302.40 6.206
302.50 6.198
302.60 6.191
302.70 6.183
302.80 6.176
302.90 6.168
303.00 6.161
303.10 6.154
303.20 6.146
303.30 6.139
303.40 6.131
303.50 6.124
303.60 6.116
303.70 6.109
303.80 6.102
303.90 6.094
304.00 6.087
304.10 6.08
304.20 6.072
304.30 6.065
304.40 6.058
304.50 6.05
304.60 6.043
304.70 6.036
304.80 6.029
304.90 6.021
305.00 6.014
305.10 6.007
305.20 6
305.30 5.993
305.40 5.985
305.50 5.978
305.60 5.971
305.70 5.964
305.80 5.957
305.90 5.95
306.00 5.942
306.10 5.935
306.20 5.928
306.30 5.921
306.40 5.914
306.50 5.907
306.60 5.9
306.70 5.893
306.80 5.886
306.90 5.879
307.00 5.872
307.10 5.865
307.20 5.858
307.30 5.851
307.40 5.844
307.50 5.837
307.60 5.83
307.70 5.823
307.80 5.816
307.90 5.809
308.00 5.802
308.10 5.795
308.20 5.788
308.30 5.781
308.40 5.775
308.50 5.768
308.60 5.761
308.70 5.754
308.80 5.747
308.90 5.74
309.00 5.734
309.10 5.727
309.20 5.72
309.30 5.713
309.40 5.706
309.50 5.7
309.60 5.693
309.70 5.686
309.80 5.679
309.90 5.673
310.00 5.666
310.10 5.659
310.20 5.653
310.30 5.646
310.40 5.639
310.50 5.632
310.60 5.626
310.70 5.619
310.80 5.613
310.90 5.606
311.00 5.599
311.10 5.593
311.20 5.586
311.30 5.58
311.40 5.573
311.50 5.566
311.60 5.56
311.70 5.553
311.80 5.547
311.90 5.54
312.00 5.534
312.10 5.527
312.20 5.521
312.30 5.514
312.40 5.508
312.50 5.501
312.60 5.495
312.70 5.488
312.80 5.482
312.90 5.475
313.00 5.469
313.10 5.463
313.20 5.456
313.30 5.45
313.40 5.443
313.50 5.437
313.60 5.431
313.70 5.424
313.80 5.418
313.90 5.412
314.00 5.405
314.10 5.399
314.20 5.393
314.30 5.386
314.40 5.38
314.50 5.374
314.60 5.368
314.70 5.361
314.80 5.355
314.90 5.349
315.00 5.343
315.10 5.336
315.20 5.33
315.30 5.324
315.40 5.318
315.50 5.312
315.60 5.305
315.70 5.299
315.80 5.293
315.90 5.287
316.00 5.281
316.10 5.275
316.20 5.268
316.30 5.262
316.40 5.256
316.50 5.25
316.60 5.244
316.70 5.238
316.80 5.232
316.90 5.226
317.00 5.22
317.10 5.214
317.20 5.208
317.30 5.202
317.40 5.196
317.50 5.19
317.60 5.184
317.70 5.178
317.80 5.172
317.90 5.166
318.00 5.16
318.10 5.154
318.20 5.148
318.30 5.142
318.40 5.136
318.50 5.13
318.60 5.124
318.70 5.118
318.80 5.112
318.90 5.106
319.00 5.1
319.10 5.095
319.20 5.089
319.30 5.083
319.40 5.077
319.50 5.071
319.60 5.065
319.70 5.059
319.80 5.054
319.90 5.048
320.00 5.042
320.10 5.036
320.20 5.03
320.30 5.025
320.40 5.019
320.50 5.013
320.60 5.007
320.70 5.002
320.80 4.996
320.90 4.99
321.00 4.984
321.10 4.979
321.20 4.973
321.30 4.967
321.40 4.962
321.50 4.956
321.60 4.95
321.70 4.945
321.80 4.939
321.90 4.933
322.00 4.928
322.10 4.922
322.20 4.916
322.30 4.911
322.40 4.905
322.50 4.9
322.60 4.894
322.70 4.889
322.80 4.883
322.90 4.877
323.00 4.872
323.10 4.866
323.20 4.861
323.30 4.855
323.40 4.85
323.50 4.844
323.60 4.839
323.70 4.833
323.80 4.828
323.90 4.822
324.00 4.817
324.10 4.811
324.20 4.806
324.30 4.8
324.40 4.795
324.50 4.789
324.60 4.784
324.70 4.779
324.80 4.773
324.90 4.768
325.00 4.762
325.10 4.757
325.20 4.752
325.30 4.746
325.40 4.741
325.50 4.735
325.60 4.73
325.70 4.725
325.80 4.719
325.90 4.714
326.00 4.709
326.10 4.703
326.20 4.698
326.30 4.693
326.40 4.688
326.50 4.682
326.60 4.677
326.70 4.672
326.80 4.666
326.90 4.661
327.00 4.656
327.10 4.651
327.20 4.645
327.30 4.64
327.40 4.635
327.50 4.63
327.60 4.625
327.70 4.619
327.80 4.614
327.90 4.609
328.00 4.604
328.10 4.599
328.20 4.594
328.30 4.588
328.40 4.583
328.50 4.578
328.60 4.573
328.70 4.568
328.80 4.563
328.90 4.558
329.00 4.553
329.10 4.547
329.20 4.542
329.30 4.537
329.40 4.532
329.50 4.527
329.60 4.522
329.70 4.517
329.80 4.512
329.90 4.507
330.00 4.502
330.10 4.497
330.20 4.492
330.30 4.487
330.40 4.482
330.50 4.477
330.60 4.472
330.70 4.467
330.80 4.462
330.90 4.457
331.00 4.452
331.10 4.447
331.20 4.442
331.30 4.437
331.40 4.432
331.50 4.427
331.60 4.422
331.70 4.417
331.80 4.413
331.90 4.408
332.00 4.403
332.10 4.398
332.20 4.393
332.30 4.388
332.40 4.383
332.50 4.378
332.60 4.374
332.70 4.369
332.80 4.364
332.90 4.359
333.00 4.354
333.10 4.349
333.20 4.345
333.30 4.34
333.40 4.335
333.50 4.33
333.60 4.325
333.70 4.321
333.80 4.316
333.90 4.311
334.00 4.306
334.10 4.302
334.20 4.297
334.30 4.292
334.40 4.287
334.50 4.283
334.60 4.278
334.70 4.273
334.80 4.269
334.90 4.264
335.00 4.259
335.10 4.254
335.20 4.25
335.30 4.245
335.40 4.24
335.50 4.236
335.60 4.231
335.70 4.226
335.80 4.222
335.90 4.217
336.00 4.212
336.10 4.208
336.20 4.203
336.30 4.199
336.40 4.194
336.50 4.189
336.60 4.185
336.70 4.18
336.80 4.176
336.90 4.171
337.00 4.167
337.10 4.162
337.20 4.157
337.30 4.153
337.40 4.148
337.50 4.144
337.60 4.139
337.70 4.135
337.80 4.13
337.90 4.126
338.00 4.121
338.10 4.117
338.20 4.112
338.30 4.108
338.40 4.103
338.50 4.099
338.60 4.094
338.70 4.09
338.80 4.085
338.90 4.081
339.00 4.077
339.10 4.072
339.20 4.068
339.30 4.063
339.40 4.059
339.50 4.054
339.60 4.05
339.70 4.046
339.80 4.041
339.90 4.037
340.00 4.032
340.10 4.028
340.20 4.024
340.30 4.019
340.40 4.015
340.50 4.011
340.60 4.006
340.70 4.002
340.80 3.998
340.90 3.993
341.00 3.989
341.10 3.985
341.20 3.98
341.30 3.976
341.40 3.972
341.50 3.967
341.60 3.963
341.70 3.959
341.80 3.955
341.90 3.95
342.00 3.946
342.10 3.942
342.20 3.937
342.30 3.933
342.40 3.929
342.50 3.925
342.60 3.921
342.70 3.916
342.80 3.912
342.90 3.908
343.00 3.904
343.10 3.899
343.20 3.895
343.30 3.891
343.40 3.887
343.50 3.883
343.60 3.879
343.70 3.874
343.80 3.87
343.90 3.866
344.00 3.862
344.10 3.858
344.20 3.854
344.30 3.849
344.40 3.845
344.50 3.841
344.60 3.837
344.70 3.833
344.80 3.829
344.90 3.825
345.00 3.821
345.10 3.817
345.20 3.813
345.30 3.808
345.40 3.804
345.50 3.8
345.60 3.796
345.70 3.792
345.80 3.788
345.90 3.784
346.00 3.78
346.10 3.776
346.20 3.772
346.30 3.768
346.40 3.764
346.50 3.76
346.60 3.756
346.70 3.752
346.80 3.748
346.90 3.744
347.00 3.74
347.10 3.736
347.20 3.732
347.30 3.728
347.40 3.724
347.50 3.72
347.60 3.716
347.70 3.712
347.80 3.708
347.90 3.704
348.00 3.7
348.10 3.696
348.20 3.692
348.30 3.689
348.40 3.685
348.50 3.681
348.60 3.677
348.70 3.673
348.80 3.669
348.90 3.665
349.00 3.661
349.10 3.657
349.20 3.654
349.30 3.65
349.40 3.646
349.50 3.642
349.60 3.638
349.70 3.634
349.80 3.63
349.90 3.627
350.00 3.623
350.10 3.619
350.20 3.615
350.30 3.611
350.40 3.607
350.50 3.604
350.60 3.6
350.70 3.596
350.80 3.592
350.90 3.588
351.00 3.585
351.10 3.581
351.20 3.577
351.30 3.573
351.40 3.57
351.50 3.566
351.60 3.562
351.70 3.558
351.80 3.555
351.90 3.551
352.00 3.547
352.10 3.543
352.20 3.54
352.30 3.536
352.40 3.532
352.50 3.529
352.60 3.525
352.70 3.521
352.80 3.517
352.90 3.514
353.00 3.51
353.10 3.506
353.20 3.503
353.30 3.499
353.40 3.495
353.50 3.492
353.60 3.488
353.70 3.484
353.80 3.481
353.90 3.477
354.00 3.473
354.10 3.47
354.20 3.466
354.30 3.463
354.40 3.459
354.50 3.455
354.60 3.452
354.70 3.448
354.80 3.445
354.90 3.441
355.00 3.437
355.10 3.434
355.20 3.43
355.30 3.427
355.40 3.423
355.50 3.42
355.60 3.416
355.70 3.412
355.80 3.409
355.90 3.405
356.00 3.402
356.10 3.398
356.20 3.395
356.30 3.391
356.40 3.388
356.50 3.384
356.60 3.381
356.70 3.377
356.80 3.374
356.90 3.37
357.00 3.367
357.10 3.363
357.20 3.36
357.30 3.356
357.40 3.353
357.50 3.349
357.60 3.346
357.70 3.342
357.80 3.339
357.90 3.335
358.00 3.332
358.10 3.328
358.20 3.325
358.30 3.322
358.40 3.318
358.50 3.315
358.60 3.311
358.70 3.308
358.80 3.305
358.90 3.301
359.00 3.298
359.10 3.294
359.20 3.291
359.30 3.288
359.40 3.284
359.50 3.281
359.60 3.277
359.70 3.274
359.80 3.271
359.90 3.267
360.00 3.264
360.10 3.26
360.20 3.257
360.30 3.254
360.40 3.25
360.50 3.247
360.60 3.244
360.70 3.24
360.80 3.237
360.90 3.234
361.00 3.231
361.10 3.227
361.20 3.224
361.30 3.221
361.40 3.217
361.50 3.214
361.60 3.211
361.70 3.207
361.80 3.204
361.90 3.201
362.00 3.198
362.10 3.194
362.20 3.191
362.30 3.188
362.40 3.184
362.50 3.181
362.60 3.178
362.70 3.175
362.80 3.171
362.90 3.168
363.00 3.165
363.10 3.162
363.20 3.159
363.30 3.155
363.40 3.152
363.50 3.149
363.60 3.146
363.70 3.142
363.80 3.139
363.90 3.136
364.00 3.133
364.10 3.13
364.20 3.126
364.30 3.123
364.40 3.12
364.50 3.117
364.60 3.114
364.70 3.111
364.80 3.107
364.90 3.104
365.00 3.101
365.10 3.098
365.20 3.095
365.30 3.092
365.40 3.089
365.50 3.085
365.60 3.082
365.70 3.079
365.80 3.076
365.90 3.073
366.00 3.07
366.10 3.067
366.20 3.063
366.30 3.06
366.40 3.057
366.50 3.054
366.60 3.051
366.70 3.047
366.80 3.044
366.90 3.041
367.00 3.038
367.10 3.035
367.20 3.032
367.30 3.028
367.40 3.025
367.50 3.022
367.60 3.019
367.70 3.016
367.80 3.013
367.90 3.009
368.00 3.006
368.10 3.003
368.20 3
368.30 2.997
368.40 2.994
368.50 2.991
368.60 2.988
368.70 2.984
368.80 2.981
368.90 2.978
369.00 2.975
369.10 2.972
369.20 2.969
369.30 2.966
369.40 2.963
369.50 2.96
369.60 2.957
369.70 2.954
369.80 2.951
369.90 2.947
370.00 2.944
370.10 2.941
370.20 2.938
370.30 2.935
370.40 2.932
370.50 2.929
370.60 2.926
370.70 2.923
370.80 2.92
370.90 2.917
371.00 2.914
371.10 2.911
371.20 2.908
371.30 2.905
371.40 2.902
371.50 2.899
371.60 2.896
371.70 2.893
371.80 2.89
371.90 2.887
372.00 2.884
372.10 2.881
372.20 2.879
372.30 2.876
372.40 2.873
372.50 2.87
372.60 2.867
372.70 2.864
372.80 2.861
372.90 2.859
373.00 2.856
373.10 2.853
373.20 2.85
373.30 2.847
373.40 2.844
373.50 2.842
373.60 2.839
373.70 2.836
373.80 2.833
373.90 2.83
374.00 2.827
374.10 2.825
374.20 2.822
374.30 2.819
374.40 2.817
374.50 2.814
374.60 2.811
374.70 2.809
374.80 2.806
374.90 2.803
375.00 2.801
375.10 2.798
375.20 2.795
375.30 2.793
375.40 2.79
375.50 2.787
375.60 2.785
375.70 2.782
375.80 2.779
375.90 2.777
376.00 2.774
376.10 2.771
376.20 2.769
376.30 2.766
376.40 2.763
376.50 2.761
376.60 2.758
376.70 2.755
376.80 2.752
376.90 2.75
377.00 2.747
377.10 2.745
377.20 2.743
377.30 2.74
377.40 2.738
377.50 2.736
377.60 2.734
377.70 2.731
377.80 2.729
377.90 2.727
378.00 2.725
378.10 2.722
378.20 2.719
378.30 2.717
378.40 2.714
378.50 2.711
378.60 2.708
378.70 2.706
378.80 2.703
378.90 2.7
379.00 2.698
379.10 2.695
379.20 2.692
379.30 2.689
379.40 2.687
379.50 2.684
379.60 2.681
379.70 2.678
379.80 2.676
379.90 2.673
380.00 2.67
380.10 2.669
380.20 2.667
380.30 2.666
380.40 2.664
380.50 2.663
380.60 2.661
380.70 2.66
380.80 2.659
380.90 2.657
381.00 2.656
381.10 2.653
381.20 2.651
381.30 2.649
381.40 2.646
381.50 2.644
381.60 2.641
381.70 2.638
381.80 2.635
381.90 2.632
382.00 2.628
382.10 2.625
382.20 2.621
382.30 2.616
382.40 2.612
382.50 2.607
382.60 2.603
382.70 2.598
382.80 2.593
382.90 2.589
383.00 2.584
383.10 2.579
383.20 2.575
383.30 2.57
383.40 2.566
383.50 2.562
383.60 2.56
383.70 2.56
383.80 2.561
383.90 2.562
384.00 2.563
384.10 2.564
384.20 2.565
384.30 2.566
384.40 2.566
384.50 2.567
384.60 2.567
384.70 2.568
384.80 2.568
384.90 2.568
385.00 2.567
385.10 2.567
385.20 2.566
385.30 2.565
385.40 2.564
385.50 2.563
385.60 2.561
385.70 2.56
385.80 2.558
385.90 2.556
386.00 2.553
386.10 2.55
386.20 2.548
386.30 2.544
386.40 2.541
386.50 2.537
386.60 2.533
386.70 2.529
386.80 2.525
386.90 2.52
387.00 2.515
387.10 2.51
387.20 2.504
387.30 2.498
387.40 2.492
387.50 2.485
387.60 2.478
387.70 2.471
387.80 2.464
387.90 2.456
388.00 2.448
388.10 2.44
388.20 2.431
388.30 2.423
388.40 2.414
388.50 2.405
388.60 2.397
388.70 2.39
388.80 2.384
388.90 2.381
389.00 2.38
389.10 2.381
389.20 2.385
389.30 2.389
389.40 2.394
389.50 2.398
389.60 2.403
389.70 2.408
389.80 2.412
389.90 2.416
390.00 2.42
390.10 2.424
390.20 2.427
390.30 2.43
390.40 2.433
390.50 2.435
390.60 2.438
390.70 2.44
390.80 2.441
390.90 2.443
391.00 2.444
391.10 2.445
391.20 2.446
391.30 2.446
391.40 2.447
391.50 2.447
391.60 2.447
391.70 2.446
391.80 2.446
391.90 2.445
392.00 2.444
392.10 2.443
392.20 2.442
392.30 2.441
392.40 2.439
392.50 2.438
392.60 2.436
392.70 2.434
392.80 2.432
392.90 2.429
393.00 2.427
393.10 2.424
393.20 2.421
393.30 2.418
393.40 2.415
393.50 2.412
393.60 2.408
393.70 2.404
393.80 2.4
393.90 2.396
394.00 2.392
394.10 2.387
394.20 2.382
394.30 2.377
394.40 2.372
394.50 2.366
394.60 2.36
394.70 2.354
394.80 2.347
394.90 2.34
395.00 2.333
395.10 2.325
395.20 2.317
395.30 2.309
395.40 2.3
395.50 2.29
395.60 2.281
395.70 2.27
395.80 2.26
395.90 2.248
396.00 2.237
396.10 2.225
396.20 2.212
396.30 2.199
396.40 2.186
396.50 2.172
396.60 2.158
396.70 2.144
396.80 2.13
396.90 2.117
397.00 2.104
397.10 2.112
397.20 2.121
397.30 2.131
397.40 2.142
397.50 2.152
397.60 2.161
397.70 2.171
397.80 2.18
397.90 2.189
398.00 2.197
398.10 2.204
398.20 2.212
398.30 2.218
398.40 2.224
398.50 2.23
398.60 2.236
398.70 2.241
398.80 2.245
398.90 2.249
399.00 2.253
399.10 2.256
399.20 2.259
399.30 2.262
399.40 2.264
399.50 2.266
399.60 2.268
399.70 2.27
399.80 2.271
399.90 2.272
400.00 2.273
400.10 2.273
400.20 2.274
400.30 2.274
400.40 2.274
400.50 2.274
400.60 2.274
400.70 2.274
400.80 2.274
400.90 2.273
401.00 2.273
401.10 2.272
401.20 2.271
401.30 2.27
401.40 2.269
401.50 2.268
401.60 2.267
401.70 2.266
401.80 2.264
401.90 2.263
402.00 2.262
402.10 2.26
402.20 2.259
402.30 2.257
402.40 2.256
402.50 2.254
402.60 2.252
402.70 2.251
402.80 2.249
402.90 2.247
403.00 2.245
403.10 2.243
403.20 2.241
403.30 2.239
403.40 2.237
403.50 2.235
403.60 2.233
403.70 2.231
403.80 2.229
403.90 2.227
404.00 2.224
404.10 2.222
404.20 2.22
404.30 2.218
404.40 2.215
404.50 2.213
404.60 2.21
404.70 2.208
404.80 2.205
404.90 2.203
405.00 2.2
405.10 2.197
405.20 2.195
405.30 2.192
405.40 2.189
405.50 2.186
405.60 2.183
405.70 2.18
405.80 2.177
405.90 2.173
406.00 2.17
406.10 2.167
406.20 2.163
406.30 2.159
406.40 2.156
406.50 2.152
406.60 2.148
406.70 2.143
406.80 2.139
406.90 2.135
407.00 2.13
407.10 2.125
407.20 2.12
407.30 2.114
407.40 2.109
407.50 2.103
407.60 2.097
407.70 2.09
407.80 2.084
407.90 2.076
408.00 2.069
408.10 2.061
408.20 2.053
408.30 2.044
408.40 2.035
408.50 2.025
408.60 2.015
408.70 2.004
408.80 1.992
408.90 1.98
409.00 1.968
409.10 1.954
409.20 1.941
409.30 1.926
409.40 1.911
409.50 1.895
409.60 1.878
409.70 1.861
409.80 1.843
409.90 1.825
410.00 1.808
410.10 1.798
410.20 1.796
410.30 1.8
410.40 1.81
410.50 1.825
410.60 1.839
410.70 1.854
410.80 1.867
410.90 1.88
411.00 1.892
411.10 1.903
411.20 1.914
411.30 1.924
411.40 1.933
411.50 1.942
411.60 1.949
411.70 1.957
411.80 1.964
411.90 1.97
412.00 1.975
412.10 1.981
412.20 1.985
412.30 1.99
412.40 1.993
412.50 1.997
412.60 2
412.70 2.002
412.80 2.005
412.90 2.007
413.00 2.009
413.10 2.01
413.20 2.012
413.30 2.013
413.40 2.014
413.50 2.015
413.60 2.015
413.70 2.015
413.80 2.016
413.90 2.016
414.00 2.016
414.10 2.016
414.20 2.015
414.30 2.015
414.40 2.015
414.50 2.014
414.60 2.014
414.70 2.013
414.80 2.012
414.90 2.011
415.00 2.01
415.10 2.009
415.20 2.008
415.30 2.007
415.40 2.006
415.50 2.005
415.60 2.004
415.70 2.003
415.80 2.002
415.90 2
416.00 1.999
416.10 1.998
416.20 1.996
416.30 1.995
416.40 1.994
416.50 1.992
416.60 1.991
416.70 1.989
416.80 1.988
416.90 1.987
417.00 1.985
417.10 1.984
417.20 1.982
417.30 1.98
417.40 1.979
417.50 1.977
417.60 1.976
417.70 1.974
417.80 1.973
417.90 1.971
418.00 1.969
418.10 1.968
418.20 1.966
418.30 1.965
418.40 1.963
418.50 1.961
418.60 1.96
418.70 1.958
418.80 1.956
418.90 1.955
419.00 1.953
419.10 1.952
419.20 1.95
419.30 1.948
419.40 1.947
419.50 1.945
419.60 1.943
419.70 1.942
419.80 1.94
419.90 1.938
420.00 1.936
420.10 1.935
420.20 1.933
420.30 1.931
420.40 1.93
420.50 1.928
420.60 1.926
420.70 1.925
420.80 1.923
420.90 1.921
421.00 1.92
421.10 1.918
421.20 1.916
421.30 1.915
421.40 1.913
421.50 1.911
421.60 1.909
421.70 1.908
421.80 1.906
421.90 1.904
422.00 1.903
422.10 1.901
422.20 1.899
422.30 1.897
422.40 1.896
422.50 1.894
422.60 1.892
422.70 1.891
422.80 1.889
422.90 1.887
423.00 1.886
423.10 1.884
423.20 1.882
423.30 1.88
423.40 1.879
423.50 1.877
423.60 1.875
423.70 1.874
423.80 1.872
423.90 1.87
424.00 1.868
424.10 1.867
424.20 1.865
424.30 1.863
424.40 1.861
424.50 1.86
424.60 1.858
424.70 1.856
424.80 1.854
424.90 1.853
425.00 1.851
425.10 1.849
425.20 1.847
425.30 1.846
425.40 1.844
425.50 1.842
425.60 1.84
425.70 1.839
425.80 1.837
425.90 1.835
426.00 1.833
426.10 1.832
426.20 1.83
426.30 1.828
426.40 1.826
426.50 1.824
426.60 1.823
426.70 1.821
426.80 1.819
426.90 1.817
427.00 1.815
427.10 1.813
427.20 1.811
427.30 1.81
427.40 1.808
427.50 1.806
427.60 1.804
427.70 1.802
427.80 1.8
427.90 1.798
428.00 1.796
428.10 1.794
428.20 1.792
428.30 1.79
428.40 1.788
428.50 1.786
428.60 1.784
428.70 1.781
428.80 1.779
428.90 1.777
429.00 1.775
429.10 1.772
429.20 1.77
429.30 1.768
429.40 1.765
429.50 1.763
429.60 1.76
429.70 1.758
429.80 1.755
429.90 1.752
430.00 1.749
430.10 1.747
430.20 1.744
430.30 1.741
430.40 1.737
430.50 1.734
430.60 1.731
430.70 1.727
430.80 1.723
430.90 1.719
431.00 1.715
431.10 1.711
431.20 1.707
431.30 1.702
431.40 1.697
431.50 1.692
431.60 1.687
431.70 1.681
431.80 1.675
431.90 1.669
432.00 1.662
432.10 1.655
432.20 1.647
432.30 1.639
432.40 1.631
432.50 1.622
432.60 1.612
432.70 1.602
432.80 1.591
432.90 1.58
433.00 1.568
433.10 1.555
433.20 1.542
433.30 1.528
433.40 1.513
433.50 1.497
433.60 1.482
433.70 1.465
433.80 1.447
433.90 1.428
434.00 1.411
434.10 1.41
434.20 1.426
434.30 1.442
434.40 1.457
434.50 1.472
434.60 1.485
434.70 1.498
434.80 1.51
434.90 1.521
435.00 1.532
435.10 1.542
435.20 1.551
435.30 1.559
435.40 1.567
435.50 1.574
435.60 1.581
435.70 1.587
435.80 1.593
435.90 1.598
436.00 1.602
436.10 1.606
436.20 1.61
436.30 1.613
436.40 1.616
436.50 1.619
436.60 1.621
436.70 1.623
436.80 1.625
436.90 1.627
437.00 1.628
437.10 1.629
437.20 1.63
437.30 1.631
437.40 1.631
437.50 1.632
437.60 1.632
437.70 1.632
437.80 1.633
437.90 1.633
438.00 1.632
438.10 1.632
438.20 1.632
438.30 1.632
438.40 1.631
438.50 1.631
438.60 1.63
438.70 1.63
438.80 1.629
438.90 1.628
439.00 1.628
439.10 1.627
439.20 1.626
439.30 1.625
439.40 1.624
439.50 1.624
439.60 1.623
439.70 1.622
439.80 1.621
439.90 1.62
440.00 1.619
440.10 1.618
440.20 1.617
440.30 1.616
440.40 1.615
440.50 1.613
440.60 1.612
440.70 1.611
440.80 1.61
440.90 1.609
441.00 1.608
441.10 1.607
441.20 1.605
441.30 1.604
441.40 1.603
441.50 1.602
441.60 1.601
441.70 1.599
441.80 1.598
441.90 1.597
442.00 1.596
442.10 1.595
442.20 1.593
442.30 1.592
442.40 1.591
442.50 1.59
442.60 1.588
442.70 1.587
442.80 1.586
442.90 1.585
443.00 1.583
443.10 1.582
443.20 1.581
443.30 1.58
443.40 1.578
443.50 1.577
443.60 1.576
443.70 1.574
443.80 1.573
443.90 1.572
444.00 1.571
444.10 1.569
444.20 1.568
444.30 1.567
444.40 1.565
444.50 1.564
444.60 1.563
444.70 1.562
444.80 1.56
444.90 1.559
445.00 1.558
445.10 1.557
445.20 1.555
445.30 1.554
445.40 1.553
445.50 1.551
445.60 1.55
445.70 1.549
445.80 1.548
445.90 1.546
446.00 1.545
446.10 1.544
446.20 1.542
446.30 1.541
446.40 1.54
446.50 1.539
446.60 1.537
446.70 1.536
446.80 1.535
446.90 1.533
447.00 1.532
447.10 1.531
447.20 1.53
447.30 1.528
447.40 1.527
447.50 1.526
447.60 1.524
447.70 1.523
447.80 1.522
447.90 1.521
448.00 1.519
448.10 1.518
448.20 1.517
448.30 1.516
448.40 1.514
448.50 1.513
448.60 1.512
448.70 1.511
448.80 1.509
448.90 1.508
449.00 1.507
449.10 1.505
449.20 1.504
449.30 1.503
449.40 1.502
449.50 1.5
449.60 1.499
449.70 1.498
449.80 1.497
449.90 1.495
450.00 1.494
450.10 1.493
450.20 1.492
450.30 1.49
450.40 1.489
450.50 1.488
450.60 1.487
450.70 1.485
450.80 1.484
450.90 1.483
451.00 1.482
451.10 1.48
451.20 1.479
451.30 1.478
451.40 1.477
451.50 1.476
451.60 1.474
451.70 1.473
451.80 1.472
451.90 1.471
452.00 1.469
452.10 1.468
452.20 1.467
452.30 1.466
452.40 1.464
452.50 1.463
452.60 1.462
452.70 1.461
452.80 1.46
452.90 1.458
453.00 1.457
453.10 1.456
453.20 1.455
453.30 1.453
453.40 1.452
453.50 1.451
453.60 1.45
453.70 1.449
453.80 1.447
453.90 1.446
454.00 1.445
454.10 1.444
454.20 1.443
454.30 1.441
454.40 1.44
454.50 1.439
454.60 1.438
454.70 1.437
454.80 1.435
454.90 1.434
455.00 1.433
455.10 1.432
455.20 1.431
455.30 1.429
455.40 1.428
455.50 1.427
455.60 1.426
455.70 1.425
455.80 1.423
455.90 1.422
456.00 1.421
456.10 1.42
456.20 1.419
456.30 1.418
456.40 1.416
456.50 1.415
456.60 1.414
456.70 1.413
456.80 1.412
456.90 1.41
457.00 1.409
457.10 1.408
457.20 1.407
457.30 1.406
457.40 1.405
457.50 1.403
457.60 1.402
457.70 1.401
457.80 1.4
457.90 1.399
458.00 1.398
458.10 1.396
458.20 1.395
458.30 1.394
458.40 1.393
458.50 1.392
458.60 1.391
458.70 1.39
458.80 1.388
458.90 1.387
459.00 1.386
459.10 1.385
459.20 1.384
459.30 1.383
459.40 1.381
459.50 1.38
459.60 1.379
459.70 1.378
459.80 1.377
459.90 1.376
460.00 1.375
460.10 1.374
460.20 1.372
460.30 1.371
460.40 1.37
460.50 1.369
460.60 1.368
460.70 1.367
460.80 1.366
460.90 1.364
461.00 1.363
461.10 1.362
461.20 1.361
461.30 1.36
461.40 1.359
461.50 1.358
461.60 1.357
461.70 1.355
461.80 1.354
461.90 1.353
462.00 1.352
462.10 1.351
462.20 1.35
462.30 1.349
462.40 1.348
462.50 1.347
462.60 1.345
462.70 1.344
462.80 1.343
462.90 1.342
463.00 1.341
463.10 1.34
463.20 1.339
463.30 1.338
463.40 1.337
463.50 1.335
463.60 1.334
463.70 1.333
463.80 1.332
463.90 1.331
464.00 1.33
464.10 1.329
464.20 1.328
464.30 1.327
464.40 1.326
464.50 1.325
464.60 1.323
464.70 1.322
464.80 1.321
464.90 1.32
465.00 1.319
465.10 1.318
465.20 1.317
465.30 1.316
465.40 1.315
465.50 1.314
465.60 1.313
465.70 1.312
465.80 1.31
465.90 1.309
466.00 1.308
466.10 1.307
466.20 1.306
466.30 1.305
466.40 1.304
466.50 1.303
466.60 1.302
466.70 1.301
466.80 1.3
466.90 1.299
467.00 1.298
467.10 1.297
467.20 1.295
467.30 1.294
467.40 1.293
467.50 1.292
467.60 1.291
467.70 1.29
467.80 1.289
467.90 1.288
468.00 1.287
468.10 1.286
468.20 1.285
468.30 1.284
468.40 1.283
468.50 1.282
468.60 1.281
468.70 1.28
468.80 1.279
468.90 1.278
469.00 1.277
469.10 1.275
469.20 1.274
469.30 1.273
469.40 1.272
469.50 1.271
469.60 1.27
469.70 1.269
469.80 1.268
469.90 1.267
470.00 1.266
470.10 1.265
470.20 1.264
470.30 1.263
470.40 1.262
470.50 1.261
470.60 1.26
470.70 1.259
470.80 1.258
470.90 1.257
471.00 1.256
471.10 1.255
471.20 1.254
471.30 1.253
471.40 1.252
471.50 1.251
471.60 1.25
471.70 1.249
471.80 1.248
471.90 1.247
472.00 1.245
472.10 1.244
472.20 1.243
472.30 1.242
472.40 1.241
472.50 1.24
472.60 1.239
472.70 1.238
472.80 1.237
472.90 1.236
473.00 1.235
473.10 1.234
473.20 1.233
473.30 1.232
473.40 1.231
473.50 1.23
473.60 1.229
473.70 1.228
473.80 1.227
473.90 1.226
474.00 1.225
474.10 1.224
474.20 1.223
474.30 1.222
474.40 1.221
474.50 1.22
474.60 1.219
474.70 1.218
474.80 1.217
474.90 1.216
475.00 1.215
475.10 1.214
475.20 1.213
475.30 1.212
475.40 1.211
475.50 1.21
475.60 1.209
475.70 1.208
475.80 1.207
475.90 1.206
476.00 1.205
476.10 1.204
476.20 1.203
476.30 1.202
476.40 1.201
476.50 1.2
476.60 1.199
476.70 1.198
476.80 1.197
476.90 1.196
477.00 1.195
477.10 1.194
477.20 1.192
477.30 1.191
477.40 1.19
477.50 1.189
477.60 1.188
477.70 1.187
477.80 1.186
477.90 1.185
478.00 1.184
478.10 1.183
478.20 1.182
478.30 1.181
478.40 1.18
478.50 1.179
478.60 1.178
478.70 1.177
478.80 1.175
478.90 1.174
479.00 1.173
479.10 1.172
479.20 1.171
479.30 1.17
479.40 1.169
479.50 1.168
479.60 1.167
479.70 1.165
479.80 1.164
479.90 1.163
480.00 1.162
480.10 1.161
480.20 1.16
480.30 1.158
480.40 1.157
480.50 1.156
480.60 1.154
480.70 1.153
480.80 1.152
480.90 1.151
481.00 1.149
481.10 1.148
481.20 1.147
481.30 1.145
481.40 1.144
481.50 1.142
481.60 1.14
481.70 1.139
481.80 1.137
481.90 1.136
482.00 1.134
482.10 1.133
482.20 1.131
482.30 1.129
482.40 1.127
482.50 1.125
482.60 1.123
482.70 1.12
482.80 1.118
482.90 1.116
483.00 1.114
483.10 1.112
483.20 1.109
483.30 1.106
483.40 1.103
483.50 1.099
483.60 1.096
483.70 1.093
483.80 1.09
483.90 1.086
484.00 1.083
484.10 1.08
484.20 1.075
484.30 1.07
484.40 1.066
484.50 1.061
484.60 1.056
484.70 1.05
484.80 1.043
484.90 1.036
485.00 1.03
485.10 1.023
485.20 1.016
485.30 1.008
485.40 0.9991
485.50 0.9901
485.60 0.9804
485.70 0.9703
485.80 0.9582
485.90 0.9452
486.00 0.9278
486.10 0.9164
486.20 0.9146
486.30 0.9325
486.40 0.9457
486.50 0.9574
486.60 0.967
486.70 0.9757
486.80 0.9834
486.90 0.9908
487.00 0.9975
487.10 1.004
487.20 1.009
487.30 1.014
487.40 1.019
487.50 1.024
487.60 1.029
487.70 1.033
487.80 1.036
487.90 1.039
488.00 1.042
488.10 1.046
488.20 1.048
488.30 1.049
488.40 1.051
488.50 1.052
488.60 1.054
488.70 1.055
488.80 1.057
488.90 1.058
489.00 1.06
489.10 1.061
489.20 1.062
489.30 1.062
489.40 1.062
489.50 1.063
489.60 1.063
489.70 1.063
489.80 1.064
489.90 1.064
490.00 1.064
490.10 1.064
490.20 1.064
490.30 1.064
490.40 1.064
490.50 1.064
490.60 1.063
490.70 1.063
490.80 1.063
490.90 1.063
491.00 1.062
491.10 1.062
491.20 1.062
491.30 1.061
491.40 1.061
491.50 1.06
491.60 1.06
491.70 1.059
491.80 1.059
491.90 1.058
492.00 1.058
492.10 1.057
492.20 1.056
492.30 1.056
492.40 1.055
492.50 1.055
492.60 1.054
492.70 1.053
492.80 1.053
492.90 1.052
493.00 1.051
493.10 1.051
493.20 1.05
493.30 1.049
493.40 1.049
493.50 1.048
493.60 1.047
493.70 1.047
493.80 1.046
493.90 1.045
494.00 1.045
494.10 1.044
494.20 1.043
494.30 1.043
494.40 1.042
494.50 1.041
494.60 1.04
494.70 1.04
494.80 1.039
494.90 1.038
495.00 1.037
495.10 1.037
495.20 1.036
495.30 1.035
495.40 1.035
495.50 1.034
495.60 1.033
495.70 1.032
495.80 1.032
495.90 1.031
496.00 1.03
496.10 1.029
496.20 1.029
496.30 1.028
496.40 1.027
496.50 1.026
496.60 1.026
496.70 1.025
496.80 1.024
496.90 1.023
497.00 1.023
497.10 1.022
497.20 1.021
497.30 1.02
497.40 1.02
497.50 1.019
497.60 1.018
497.70 1.017
497.80 1.017
497.90 1.016
498.00 1.015
498.10 1.014
498.20 1.014
498.30 1.013
498.40 1.012
498.50 1.011
498.60 1.011
498.70 1.01
498.80 1.009
498.90 1.008
499.00 1.008
499.10 1.007
499.20 1.006
499.30 1.005
499.40 1.005
499.50 1.004
499.60 1.003
499.70 1.002
499.80 1.001
499.90 1.001
500.00 1
500.10 0.9993
500.20 0.9985
500.30 0.9978
500.40 0.997
500.50 0.9963
500.60 0.9955
500.70 0.9948
500.80 0.994
500.90 0.9933
501.00 0.9925
501.10 0.9918
501.20 0.991
501.30 0.9903
501.40 0.9896
501.50 0.9888
501.60 0.9881
501.70 0.9873
501.80 0.9866
501.90 0.9858
502.00 0.9851
502.10 0.9844
502.20 0.9836
502.30 0.9829
502.40 0.9821
502.50 0.9814
502.60 0.9807
502.70 0.9799
502.80 0.9792
502.90 0.9785
503.00 0.9777
503.10 0.977
503.20 0.9763
503.30 0.9755
503.40 0.9748
503.50 0.9741
503.60 0.9733
503.70 0.9726
503.80 0.9719
503.90 0.9711
504.00 0.9704
504.10 0.9697
504.20 0.9689
504.30 0.9682
504.40 0.9675
504.50 0.9668
504.60 0.966
504.70 0.9653
504.80 0.9646
504.90 0.9639
505.00 0.9631
505.10 0.9624
505.20 0.9617
505.30 0.961
505.40 0.9602
505.50 0.9595
505.60 0.9588
505.70 0.9581
505.80 0.9574
505.90 0.9566
506.00 0.9559
506.10 0.9552
506.20 0.9545
506.30 0.9538
506.40 0.9531
506.50 0.9523
506.60 0.9516
506.70 0.9509
506.80 0.9502
506.90 0.9495
507.00 0.9488
507.10 0.9481
507.20 0.9474
507.30 0.9466
507.40 0.9459
507.50 0.9452
507.60 0.9445
507.70 0.9438
507.80 0.9431
507.90 0.9424
508.00 0.9417
508.10 0.941
508.20 0.9403
508.30 0.9396
508.40 0.9389
508.50 0.9382
508.60 0.9375
508.70 0.9368
508.80 0.9361
508.90 0.9354
509.00 0.9347
509.10 0.934
509.20 0.9333
509.30 0.9326
509.40 0.9319
509.50 0.9312
509.60 0.9305
509.70 0.9298
509.80 0.9291
509.90 0.9284
510.00 0.9277
510.10 0.927
510.20 0.9263
510.30 0.9256
510.40 0.9249
510.50 0.9243
510.60 0.9236
510.70 0.9229
510.80 0.9222
510.90 0.9215
511.00 0.9208
511.10 0.9201
511.20 0.9194
511.30 0.9188
511.40 0.9181
511.50 0.9174
511.60 0.9167
511.70 0.916
511.80 0.9153
511.90 0.9147
512.00 0.914
512.10 0.9133
512.20 0.9126
512.30 0.9119
512.40 0.9113
512.50 0.9106
512.60 0.9099
512.70 0.9092
512.80 0.9086
512.90 0.9079
513.00 0.9072
513.10 0.9065
513.20 0.9059
513.30 0.9052
513.40 0.9045
513.50 0.9038
513.60 0.9032
513.70 0.9025
513.80 0.9018
513.90 0.9012
514.00 0.9005
514.10 0.8998
514.20 0.8992
514.30 0.8985
514.40 0.8978
514.50 0.8972
514.60 0.8965
514.70 0.8958
514.80 0.8952
514.90 0.8945
515.00 0.8938
515.10 0.8932
515.20 0.8925
515.30 0.8919
515.40 0.8912
515.50 0.8905
515.60 0.8899
515.70 0.8892
515.80 0.8886
515.90 0.8879
516.00 0.8872
516.10 0.8866
516.20 0.8859
516.30 0.8853
516.40 0.8846
516.50 0.884
516.60 0.8833
516.70 0.8827
516.80 0.882
516.90 0.8814
517.00 0.8807
517.10 0.8801
517.20 0.8794
517.30 0.8788
517.40 0.8781
517.50 0.8775
517.60 0.8768
517.70 0.8762
517.80 0.8755
517.90 0.8749
518.00 0.8742
518.10 0.8736
518.20 0.873
518.30 0.8723
518.40 0.8717
518.50 0.871
518.60 0.8704
518.70 0.8697
518.80 0.8691
518.90 0.8685
519.00 0.8678
519.10 0.8672
519.20 0.8665
519.30 0.8659
519.40 0.8653
519.50 0.8646
519.60 0.864
519.70 0.8634
519.80 0.8627
519.90 0.8621
520.00 0.8615
520.10 0.8608
520.20 0.8602
520.30 0.8596
520.40 0.8589
520.50 0.8583
520.60 0.8577
520.70 0.8571
520.80 0.8564
520.90 0.8558
521.00 0.8552
521.10 0.8545
521.20 0.8539
521.30 0.8533
521.40 0.8527
521.50 0.852
521.60 0.8514
521.70 0.8508
521.80 0.8502
521.90 0.8496
522.00 0.8489
522.10 0.8483
522.20 0.8477
522.30 0.8471
522.40 0.8465
522.50 0.8458
522.60 0.8452
522.70 0.8446
522.80 0.844
522.90 0.8434
523.00 0.8427
523.10 0.8421
523.20 0.8415
523.30 0.8409
523.40 0.8403
523.50 0.8397
523.60 0.8391
523.70 0.8385
523.80 0.8378
523.90 0.8372
524.00 0.8366
524.10 0.836
524.20 0.8354
524.30 0.8348
524.40 0.8342
524.50 0.8336
524.60 0.833
524.70 0.8324
524.80 0.8318
524.90 0.8312
525.00 0.8305
525.10 0.8299
525.20 0.8293
525.30 0.8287
525.40 0.8281
525.50 0.8275
525.60 0.8269
525.70 0.8263
525.80 0.8257
525.90 0.8251
526.00 0.8245
526.10 0.8239
526.20 0.8233
526.30 0.8227
526.40 0.8221
526.50 0.8215
526.60 0.8209
526.70 0.8203
526.80 0.8198
526.90 0.8192
527.00 0.8186
527.10 0.818
527.20 0.8174
527.30 0.8168
527.40 0.8162
527.50 0.8156
527.60 0.815
527.70 0.8144
527.80 0.8138
527.90 0.8132
528.00 0.8127
528.10 0.8121
528.20 0.8115
528.30 0.8109
528.40 0.8103
528.50 0.8097
528.60 0.8091
528.70 0.8085
528.80 0.808
528.90 0.8074
529.00 0.8068
529.10 0.8062
529.20 0.8056
529.30 0.805
529.40 0.8045
529.50 0.8039
529.60 0.8033
529.70 0.8027
529.80 0.8021
529.90 0.8016
530.00 0.801
530.10 0.8004
530.20 0.7998
530.30 0.7993
530.40 0.7987
530.50 0.7981
530.60 0.7975
530.70 0.797
530.80 0.7964
530.90 0.7958
531.00 0.7952
531.10 0.7947
531.20 0.7941
531.30 0.7935
531.40 0.793
531.50 0.7924
531.60 0.7918
531.70 0.7912
531.80 0.7907
531.90 0.7901
532.00 0.7895
532.10 0.789
532.20 0.7884
532.30 0.7878
532.40 0.7873
532.50 0.7867
532.60 0.7861
532.70 0.7856
532.80 0.785
532.90 0.7845
533.00 0.7839
533.10 0.7833
533.20 0.7828
533.30 0.7822
533.40 0.7816
533.50 0.7811
533.60 0.7805
533.70 0.78
533.80 0.7794
533.90 0.7788
534.00 0.7783
534.10 0.7777
534.20 0.7772
534.30 0.7766
534.40 0.7761
534.50 0.7755
534.60 0.775
534.70 0.7744
534.80 0.7738
534.90 0.7733
535.00 0.7727
535.10 0.7722
535.20 0.7716
535.30 0.7711
535.40 0.7705
535.50 0.77
535.60 0.7694
535.70 0.7689
535.80 0.7683
535.90 0.7678
536.00 0.7672
536.10 0.7667
536.20 0.7661
536.30 0.7656
536.40 0.7651
536.50 0.7645
536.60 0.764
536.70 0.7634
536.80 0.7629
536.90 0.7623
537.00 0.7618
537.10 0.7612
537.20 0.7607
537.30 0.7602
537.40 0.7596
537.50 0.7591
537.60 0.7585
537.70 0.758
537.80 0.7575
537.90 0.7569
538.00 0.7564
538.10 0.7558
538.20 0.7553
538.30 0.7548
538.40 0.7542
538.50 0.7537
538.60 0.7532
538.70 0.7526
538.80 0.7521
538.90 0.7516
539.00 0.751
539.10 0.7505
539.20 0.75
539.30 0.7494
539.40 0.7489
539.50 0.7484
539.60 0.7478
539.70 0.7473
539.80 0.7468
539.90 0.7463
540.00 0.7457
540.10 0.7452
540.20 0.7447
540.30 0.7441
540.40 0.7436
540.50 0.7431
540.60 0.7426
540.70 0.742
540.80 0.7415
540.90 0.741
541.00 0.7405
541.10 0.7399
541.20 0.7394
541.30 0.7389
541.40 0.7384
541.50 0.7378
541.60 0.7373
541.70 0.7368
541.80 0.7363
541.90 0.7358
542.00 0.7352
542.10 0.7347
542.20 0.7342
542.30 0.7337
542.40 0.7332
542.50 0.7327
542.60 0.7321
542.70 0.7316
542.80 0.7311
542.90 0.7306
543.00 0.7301
543.10 0.7296
543.20 0.7291
543.30 0.7285
543.40 0.728
543.50 0.7275
543.60 0.727
543.70 0.7265
543.80 0.726
543.90 0.7255
544.00 0.725
544.10 0.7244
544.20 0.7239
544.30 0.7234
544.40 0.7229
544.50 0.7224
544.60 0.7219
544.70 0.7214
544.80 0.7209
544.90 0.7204
545.00 0.7199
545.10 0.7194
545.20 0.7189
545.30 0.7184
545.40 0.7179
545.50 0.7174
545.60 0.7169
545.70 0.7164
545.80 0.7158
545.90 0.7153
546.00 0.7148
546.10 0.7143
546.20 0.7138
546.30 0.7133
546.40 0.7128
546.50 0.7123
546.60 0.7118
546.70 0.7113
546.80 0.7109
546.90 0.7104
547.00 0.7099
547.10 0.7094
547.20 0.7089
547.30 0.7084
547.40 0.7079
547.50 0.7074
547.60 0.7069
547.70 0.7064
547.80 0.7059
547.90 0.7054
548.00 0.7049
548.10 0.7044
548.20 0.7039
548.30 0.7034
548.40 0.7029
548.50 0.7025
548.60 0.702
548.70 0.7015
548.80 0.701
548.90 0.7005
549.00 0.7
549.10 0.6995
549.20 0.699
549.30 0.6985
549.40 0.6981
549.50 0.6976
549.60 0.6971
549.70 0.6966
549.80 0.6961
549.90 0.6956
550.00 0.6951
550.10 0.6947
550.20 0.6942
550.30 0.6937
550.40 0.6932
550.50 0.6927
550.60 0.6923
550.70 0.6918
550.80 0.6913
550.90 0.6908
551.00 0.6903
551.10 0.6898
551.20 0.6894
551.30 0.6889
551.40 0.6884
551.50 0.6879
551.60 0.6875
551.70 0.687
551.80 0.6865
551.90 0.686
552.00 0.6856
552.10 0.6851
552.20 0.6846
552.30 0.6841
552.40 0.6837
552.50 0.6832
552.60 0.6827
552.70 0.6822
552.80 0.6818
552.90 0.6813
553.00 0.6808
553.10 0.6803
553.20 0.6799
553.30 0.6794
553.40 0.6789
553.50 0.6785
553.60 0.678
553.70 0.6775
553.80 0.6771
553.90 0.6766
554.00 0.6761
554.10 0.6757
554.20 0.6752
554.30 0.6747
554.40 0.6743
554.50 0.6738
554.60 0.6733
554.70 0.6729
554.80 0.6724
554.90 0.6719
555.00 0.6715
555.10 0.671
555.20 0.6705
555.30 0.6701
555.40 0.6696
555.50 0.6692
555.60 0.6687
555.70 0.6682
555.80 0.6678
555.90 0.6673
556.00 0.6669
556.10 0.6664
556.20 0.6659
556.30 0.6655
556.40 0.665
556.50 0.6646
556.60 0.6641
556.70 0.6636
556.80 0.6632
556.90 0.6627
557.00 0.6623
557.10 0.6618
557.20 0.6614
557.30 0.6609
557.40 0.6605
557.50 0.66
557.60 0.6596
557.70 0.6591
557.80 0.6586
557.90 0.6582
558.00 0.6577
558.10 0.6573
558.20 0.6568
558.30 0.6564
558.40 0.6559
558.50 0.6555
558.60 0.655
558.70 0.6546
558.80 0.6541
558.90 0.6537
559.00 0.6532
559.10 0.6528
559.20 0.6524
559.30 0.6519
559.40 0.6515
559.50 0.651
559.60 0.6506
559.70 0.6501
559.80 0.6497
559.90 0.6492
560.00 0.6488
560.10 0.6483
560.20 0.6479
560.30 0.6475
560.40 0.647
560.50 0.6466
560.60 0.6461
560.70 0.6457
560.80 0.6453
560.90 0.6448
561.00 0.6444
561.10 0.6439
561.20 0.6435
561.30 0.6431
561.40 0.6426
561.50 0.6422
561.60 0.6417
561.70 0.6413
561.80 0.6409
561.90 0.6404
562.00 0.64
562.10 0.6396
562.20 0.6391
562.30 0.6387
562.40 0.6382
562.50 0.6378
562.60 0.6374
562.70 0.6369
562.80 0.6365
562.90 0.6361
563.00 0.6356
563.10 0.6352
563.20 0.6348
563.30 0.6343
563.40 0.6339
563.50 0.6335
563.60 0.6331
563.70 0.6326
563.80 0.6322
563.90 0.6318
564.00 0.6313
564.10 0.6309
564.20 0.6305
564.30 0.6301
564.40 0.6296
564.50 0.6292
564.60 0.6288
564.70 0.6283
564.80 0.6279
564.90 0.6275
565.00 0.6271
565.10 0.6266
565.20 0.6262
565.30 0.6258
565.40 0.6254
565.50 0.6249
565.60 0.6245
565.70 0.6241
565.80 0.6237
565.90 0.6233
566.00 0.6228
566.10 0.6224
566.20 0.622
566.30 0.6216
566.40 0.6211
566.50 0.6207
566.60 0.6203
566.70 0.6199
566.80 0.6195
566.90 0.619
567.00 0.6186
567.10 0.6182
567.20 0.6178
567.30 0.6174
567.40 0.617
567.50 0.6165
567.60 0.6161
567.70 0.6157
567.80 0.6153
567.90 0.6149
568.00 0.6145
568.10 0.6141
568.20 0.6136
568.30 0.6132
568.40 0.6128
568.50 0.6124
568.60 0.612
568.70 0.6116
568.80 0.6112
568.90 0.6107
569.00 0.6103
569.10 0.6099
569.20 0.6095
569.30 0.6091
569.40 0.6087
569.50 0.6083
569.60 0.6079
569.70 0.6075
569.80 0.6071
569.90 0.6067
570.00 0.6062
570.10 0.6058
570.20 0.6054
570.30 0.605
570.40 0.6046
570.50 0.6042
570.60 0.6038
570.70 0.6034
570.80 0.603
570.90 0.6026
571.00 0.6022
571.10 0.6018
571.20 0.6014
571.30 0.601
571.40 0.6006
571.50 0.6002
571.60 0.5998
571.70 0.5994
571.80 0.599
571.90 0.5986
572.00 0.5982
572.10 0.5978
572.20 0.5974
572.30 0.597
572.40 0.5966
572.50 0.5962
572.60 0.5958
572.70 0.5954
572.80 0.595
572.90 0.5946
573.00 0.5942
573.10 0.5938
573.20 0.5934
573.30 0.593
573.40 0.5926
573.50 0.5922
573.60 0.5918
573.70 0.5914
573.80 0.591
573.90 0.5906
574.00 0.5902
574.10 0.5898
574.20 0.5894
574.30 0.589
574.40 0.5886
574.50 0.5882
574.60 0.5878
574.70 0.5875
574.80 0.5871
574.90 0.5867
575.00 0.5863
575.10 0.5859
575.20 0.5855
575.30 0.5851
575.40 0.5847
575.50 0.5843
575.60 0.5839
575.70 0.5836
575.80 0.5832
575.90 0.5828
576.00 0.5824
576.10 0.582
576.20 0.5816
576.30 0.5812
576.40 0.5808
576.50 0.5805
576.60 0.5801
576.70 0.5797
576.80 0.5793
576.90 0.5789
577.00 0.5785
577.10 0.5781
577.20 0.5778
577.30 0.5774
577.40 0.577
577.50 0.5766
577.60 0.5762
577.70 0.5758
577.80 0.5755
577.90 0.5751
578.00 0.5747
578.10 0.5743
578.20 0.5739
578.30 0.5736
578.40 0.5732
578.50 0.5728
578.60 0.5724
578.70 0.572
578.80 0.5717
578.90 0.5713
579.00 0.5709
579.10 0.5705
579.20 0.5701
579.30 0.5698
579.40 0.5694
579.50 0.569
579.60 0.5686
579.70 0.5683
579.80 0.5679
579.90 0.5675
580.00 0.5671
580.10 0.5668
580.20 0.5664
580.30 0.566
580.40 0.5656
580.50 0.5653
580.60 0.5649
580.70 0.5645
580.80 0.5641
580.90 0.5638
581.00 0.5634
581.10 0.563
581.20 0.5627
581.30 0.5623
581.40 0.5619
581.50 0.5615
581.60 0.5612
581.70 0.5608
581.80 0.5604
581.90 0.5601
582.00 0.5597
582.10 0.5593
582.20 0.559
582.30 0.5586
582.40 0.5582
582.50 0.5579
582.60 0.5575
582.70 0.5571
582.80 0.5568
582.90 0.5564
583.00 0.556
583.10 0.5557
583.20 0.5553
583.30 0.5549
583.40 0.5546
583.50 0.5542
583.60 0.5538
583.70 0.5535
583.80 0.5531
583.90 0.5527
584.00 0.5524
584.10 0.552
584.20 0.5517
584.30 0.5513
584.40 0.5509
584.50 0.5506
584.60 0.5502
584.70 0.5498
584.80 0.5495
584.90 0.5491
585.00 0.5488
585.10 0.5484
585.20 0.548
585.30 0.5477
585.40 0.5473
585.50 0.547
585.60 0.5466
585.70 0.5463
585.80 0.5459
585.90 0.5455
586.00 0.5452
586.10 0.5448
586.20 0.5445
586.30 0.5441
586.40 0.5438
586.50 0.5434
586.60 0.543
586.70 0.5427
586.80 0.5423
586.90 0.542
587.00 0.5416
587.10 0.5413
587.20 0.5409
587.30 0.5406
587.40 0.5402
587.50 0.5399
587.60 0.5395
587.70 0.5392
587.80 0.5388
587.90 0.5385
588.00 0.5381
588.10 0.5377
588.20 0.5374
588.30 0.537
588.40 0.5367
588.50 0.5363
588.60 0.536
588.70 0.5356
588.80 0.5353
588.90 0.535
589.00 0.5346
589.10 0.5343
589.20 0.5339
589.30 0.5336
589.40 0.5332
589.50 0.5329
589.60 0.5325
589.70 0.5322
589.80 0.5318
589.90 0.5315
590.00 0.5311
590.10 0.5308
590.20 0.5304
590.30 0.5301
590.40 0.5298
590.50 0.5294
590.60 0.5291
590.70 0.5287
590.80 0.5284
590.90 0.528
591.00 0.5277
591.10 0.5273
591.20 0.527
591.30 0.5267
591.40 0.5263
591.50 0.526
591.60 0.5256
591.70 0.5253
591.80 0.525
591.90 0.5246
592.00 0.5243
592.10 0.5239
592.20 0.5236
592.30 0.5233
592.40 0.5229
592.50 0.5226
592.60 0.5222
592.70 0.5219
592.80 0.5216
592.90 0.5212
593.00 0.5209
593.10 0.5206
593.20 0.5202
593.30 0.5199
593.40 0.5195
593.50 0.5192
593.60 0.5189
593.70 0.5185
593.80 0.5182
593.90 0.5179
594.00 0.5175
594.10 0.5172
594.20 0.5169
594.30 0.5165
594.40 0.5162
594.50 0.5159
594.60 0.5155
594.70 0.5152
594.80 0.5149
594.90 0.5145
595.00 0.5142
595.10 0.5139
595.20 0.5135
595.30 0.5132
595.40 0.5129
595.50 0.5126
595.60 0.5122
595.70 0.5119
595.80 0.5116
595.90 0.5112
596.00 0.5109
596.10 0.5106
596.20 0.5102
596.30 0.5099
596.40 0.5096
596.50 0.5093
596.60 0.5089
596.70 0.5086
596.80 0.5083
596.90 0.508
597.00 0.5076
597.10 0.5073
597.20 0.507
597.30 0.5066
597.40 0.5063
597.50 0.506
597.60 0.5057
597.70 0.5053
597.80 0.505
597.90 0.5047
598.00 0.5044
598.10 0.504
598.20 0.5037
598.30 0.5034
598.40 0.5031
598.50 0.5028
598.60 0.5024
598.70 0.5021
598.80 0.5018
598.90 0.5015
599.00 0.5011
599.10 0.5008
599.20 0.5005
599.30 0.5002
599.40 0.4999
599.50 0.4995
599.60 0.4992
599.70 0.4989
599.80 0.4986
599.90 0.4983
600.00 0.4979
600.10 0.4976
600.20 0.4973
600.30 0.497
600.40 0.4967
600.50 0.4964
600.60 0.496
600.70 0.4957
600.80 0.4954
600.90 0.4951
601.00 0.4948
601.10 0.4945
601.20 0.4941
601.30 0.4938
601.40 0.4935
601.50 0.4932
601.60 0.4929
601.70 0.4926
601.80 0.4923
601.90 0.4919
602.00 0.4916
602.10 0.4913
602.20 0.491
602.30 0.4907
602.40 0.4904
602.50 0.4901
602.60 0.4897
602.70 0.4894
602.80 0.4891
602.90 0.4888
603.00 0.4885
603.10 0.4882
603.20 0.4879
603.30 0.4876
603.40 0.4873
603.50 0.4869
603.60 0.4866
603.70 0.4863
603.80 0.486
603.90 0.4857
604.00 0.4854
604.10 0.4851
604.20 0.4848
604.30 0.4845
604.40 0.4842
604.50 0.4839
604.60 0.4836
604.70 0.4832
604.80 0.4829
604.90 0.4826
605.00 0.4823
605.10 0.482
605.20 0.4817
605.30 0.4814
605.40 0.4811
605.50 0.4808
605.60 0.4805
605.70 0.4802
605.80 0.4799
605.90 0.4796
606.00 0.4793
606.10 0.479
606.20 0.4787
606.30 0.4784
606.40 0.4781
606.50 0.4778
606.60 0.4775
606.70 0.4772
606.80 0.4769
606.90 0.4766
607.00 0.4763
607.10 0.476
607.20 0.4756
607.30 0.4753
607.40 0.475
607.50 0.4747
607.60 0.4744
607.70 0.4741
607.80 0.4738
607.90 0.4735
608.00 0.4732
608.10 0.473
608.20 0.4727
608.30 0.4724
608.40 0.4721
608.50 0.4718
608.60 0.4715
608.70 0.4712
608.80 0.4709
608.90 0.4706
609.00 0.4703
609.10 0.47
609.20 0.4697
609.30 0.4694
609.40 0.4691
609.50 0.4688
609.60 0.4685
609.70 0.4682
609.80 0.4679
609.90 0.4676
610.00 0.4673
610.10 0.467
610.20 0.4667
610.30 0.4664
610.40 0.4661
610.50 0.4658
610.60 0.4656
610.70 0.4653
610.80 0.465
610.90 0.4647
611.00 0.4644
611.10 0.4641
611.20 0.4638
611.30 0.4635
611.40 0.4632
611.50 0.4629
611.60 0.4626
611.70 0.4623
611.80 0.4621
611.90 0.4618
612.00 0.4615
612.10 0.4612
612.20 0.4609
612.30 0.4606
612.40 0.4603
612.50 0.46
612.60 0.4597
612.70 0.4595
612.80 0.4592
612.90 0.4589
613.00 0.4586
613.10 0.4583
613.20 0.458
613.30 0.4577
613.40 0.4574
613.50 0.4572
613.60 0.4569
613.70 0.4566
613.80 0.4563
613.90 0.456
614.00 0.4557
614.10 0.4554
614.20 0.4552
614.30 0.4549
614.40 0.4546
614.50 0.4543
614.60 0.454
614.70 0.4537
614.80 0.4534
614.90 0.4532
615.00 0.4529
615.10 0.4526
615.20 0.4523
615.30 0.452
615.40 0.4518
615.50 0.4515
615.60 0.4512
615.70 0.4509
615.80 0.4506
615.90 0.4503
616.00 0.4501
616.10 0.4498
616.20 0.4495
616.30 0.4492
616.40 0.4489
616.50 0.4487
616.60 0.4484
616.70 0.4481
616.80 0.4478
616.90 0.4475
617.00 0.4473
617.10 0.447
617.20 0.4467
617.30 0.4464
617.40 0.4462
617.50 0.4459
617.60 0.4456
617.70 0.4453
617.80 0.445
617.90 0.4448
618.00 0.4445
618.10 0.4442
618.20 0.4439
618.30 0.4437
618.40 0.4434
618.50 0.4431
618.60 0.4428
618.70 0.4426
618.80 0.4423
618.90 0.442
619.00 0.4417
619.10 0.4415
619.20 0.4412
619.30 0.4409
619.40 0.4406
619.50 0.4404
619.60 0.4401
619.70 0.4398
619.80 0.4395
619.90 0.4393
620.00 0.439
620.10 0.4387
620.20 0.4385
620.30 0.4382
620.40 0.4379
620.50 0.4376
620.60 0.4374
620.70 0.4371
620.80 0.4368
620.90 0.4366
621.00 0.4363
621.10 0.436
621.20 0.4357
621.30 0.4355
621.40 0.4352
621.50 0.4349
621.60 0.4347
621.70 0.4344
621.80 0.4341
621.90 0.4339
622.00 0.4336
622.10 0.4333
622.20 0.4331
622.30 0.4328
622.40 0.4325
622.50 0.4323
622.60 0.432
622.70 0.4317
622.80 0.4315
622.90 0.4312
623.00 0.4309
623.10 0.4307
623.20 0.4304
623.30 0.4301
623.40 0.4299
623.50 0.4296
623.60 0.4293
623.70 0.4291
623.80 0.4288
623.90 0.4285
624.00 0.4283
624.10 0.428
624.20 0.4277
624.30 0.4275
624.40 0.4272
624.50 0.427
624.60 0.4267
624.70 0.4264
624.80 0.4262
624.90 0.4259
625.00 0.4256
625.10 0.4254
625.20 0.4251
625.30 0.4249
625.40 0.4246
625.50 0.4243
625.60 0.4241
625.70 0.4238
625.80 0.4236
625.90 0.4233
626.00 0.423
626.10 0.4228
626.20 0.4225
626.30 0.4223
626.40 0.422
626.50 0.4217
626.60 0.4215
626.70 0.4212
626.80 0.421
626.90 0.4207
627.00 0.4204
627.10 0.4202
627.20 0.4199
627.30 0.4197
627.40 0.4194
627.50 0.4192
627.60 0.4189
627.70 0.4186
627.80 0.4184
627.90 0.4181
628.00 0.4179
628.10 0.4176
628.20 0.4174
628.30 0.4171
628.40 0.4168
628.50 0.4166
628.60 0.4163
628.70 0.4161
628.80 0.4158
628.90 0.4156
629.00 0.4153
629.10 0.4151
629.20 0.4148
629.30 0.4146
629.40 0.4143
629.50 0.414
629.60 0.4138
629.70 0.4135
629.80 0.4133
629.90 0.413
630.00 0.4128
630.10 0.4125
630.20 0.4123
630.30 0.412
630.40 0.4118
630.50 0.4115
630.60 0.4113
630.70 0.411
630.80 0.4108
630.90 0.4105
631.00 0.4103
631.10 0.41
631.20 0.4098
631.30 0.4095
631.40 0.4093
631.50 0.409
631.60 0.4088
631.70 0.4085
631.80 0.4083
631.90 0.408
632.00 0.4078
632.10 0.4075
632.20 0.4073
632.30 0.407
632.40 0.4068
632.50 0.4065
632.60 0.4063
632.70 0.406
632.80 0.4058
632.90 0.4055
633.00 0.4053
633.10 0.405
633.20 0.4048
633.30 0.4045
633.40 0.4043
633.50 0.4041
633.60 0.4038
633.70 0.4036
633.80 0.4033
633.90 0.4031
634.00 0.4028
634.10 0.4026
634.20 0.4023
634.30 0.4021
634.40 0.4018
634.50 0.4016
634.60 0.4014
634.70 0.4011
634.80 0.4009
634.90 0.4006
635.00 0.4004
635.10 0.4001
635.20 0.3999
635.30 0.3996
635.40 0.3994
635.50 0.3992
635.60 0.3989
635.70 0.3987
635.80 0.3984
635.90 0.3982
636.00 0.3979
636.10 0.3977
636.20 0.3975
636.30 0.3972
636.40 0.397
636.50 0.3967
636.60 0.3965
636.70 0.3963
636.80 0.396
636.90 0.3958
637.00 0.3955
637.10 0.3953
637.20 0.3951
637.30 0.3948
637.40 0.3946
637.50 0.3943
637.60 0.3941
637.70 0.3939
637.80 0.3936
637.90 0.3934
638.00 0.3931
638.10 0.3929
638.20 0.3927
638.30 0.3924
638.40 0.3922
638.50 0.3919
638.60 0.3917
638.70 0.3915
638.80 0.3912
638.90 0.391
639.00 0.3908
639.10 0.3905
639.20 0.3903
639.30 0.39
639.40 0.3898
639.50 0.3896
639.60 0.3893
639.70 0.3891
639.80 0.3889
639.90 0.3886
640.00 0.3884
640.10 0.3882
640.20 0.3879
640.30 0.3877
640.40 0.3874
640.50 0.3872
640.60 0.387
640.70 0.3867
640.80 0.3865
640.90 0.3863
641.00 0.386
641.10 0.3858
641.20 0.3856
641.30 0.3853
641.40 0.3851
641.50 0.3849
641.60 0.3846
641.70 0.3844
641.80 0.3842
641.90 0.3839
642.00 0.3837
642.10 0.3834
642.20 0.3832
642.30 0.383
642.40 0.3827
642.50 0.3825
642.60 0.3823
642.70 0.382
642.80 0.3818
642.90 0.3816
643.00 0.3813
643.10 0.3811
643.20 0.3809
643.30 0.3806
643.40 0.3804
643.50 0.3802
643.60 0.3799
643.70 0.3797
643.80 0.3795
643.90 0.3792
644.00 0.379
644.10 0.3788
644.20 0.3785
644.30 0.3783
644.40 0.3781
644.50 0.3778
644.60 0.3776
644.70 0.3774
644.80 0.3771
644.90 0.3769
645.00 0.3767
645.10 0.3764
645.20 0.3762
645.30 0.376
645.40 0.3757
645.50 0.3755
645.60 0.3753
645.70 0.375
645.80 0.3748
645.90 0.3746
646.00 0.3743
646.10 0.3741
646.20 0.3739
646.30 0.3736
646.40 0.3734
646.50 0.3732
646.60 0.3729
646.70 0.3727
646.80 0.3724
646.90 0.3722
647.00 0.372
647.10 0.3717
647.20 0.3715
647.30 0.3713
647.40 0.371
647.50 0.3708
647.60 0.3705
647.70 0.3703
647.80 0.37
647.90 0.3698
648.00 0.3696
648.10 0.3693
648.20 0.3691
648.30 0.3688
648.40 0.3686
648.50 0.3683
648.60 0.3681
648.70 0.3678
648.80 0.3676
648.90 0.3673
649.00 0.3671
649.10 0.3668
649.20 0.3666
649.30 0.3663
649.40 0.3661
649.50 0.3658
649.60 0.3655
649.70 0.3653
649.80 0.365
649.90 0.3647
650.00 0.3645
650.10 0.3642
650.20 0.3639
650.30 0.3636
650.40 0.3634
650.50 0.3631
650.60 0.3628
650.70 0.3625
650.80 0.3622
650.90 0.3619
651.00 0.3616
651.10 0.3613
651.20 0.361
651.30 0.3607
651.40 0.3603
651.50 0.36
651.60 0.3596
651.70 0.3592
651.80 0.3589
651.90 0.3585
652.00 0.3582
652.10 0.3578
652.20 0.3575
652.30 0.3571
652.40 0.3566
652.50 0.3561
652.60 0.3556
652.70 0.3552
652.80 0.3547
652.90 0.3542
653.00 0.3537
653.10 0.3532
653.20 0.3527
653.30 0.3522
653.40 0.3514
653.50 0.3507
653.60 0.3499
653.70 0.3491
653.80 0.3484
653.90 0.3476
654.00 0.3468
654.10 0.3461
654.20 0.3453
654.30 0.3445
654.40 0.3433
654.50 0.3421
654.60 0.3409
654.70 0.3398
654.80 0.3385
654.90 0.3369
655.00 0.3352
655.10 0.3336
655.20 0.332
655.30 0.3303
655.40 0.3282
655.50 0.3261
655.60 0.3236
655.70 0.3211
655.80 0.3179
655.90 0.3143
656.00 0.3085
656.10 0.3021
656.20 0.292
656.30 0.3023
656.40 0.294
656.50 0.3041
656.60 0.3095
656.70 0.3144
656.80 0.3172
656.90 0.3199
657.00 0.3219
657.10 0.3239
657.20 0.3256
657.30 0.3272
657.40 0.3284
657.50 0.3296
657.60 0.3309
657.70 0.3321
657.80 0.3332
657.90 0.334
658.00 0.3348
658.10 0.3355
658.20 0.3363
658.30 0.337
658.40 0.3373
658.50 0.3377
658.60 0.338
658.70 0.3384
658.80 0.3387
658.90 0.3391
659.00 0.3394
659.10 0.3397
659.20 0.3401
659.30 0.3404
659.40 0.3404
659.50 0.3405
659.60 0.3406
659.70 0.3406
659.80 0.3407
659.90 0.3408
660.00 0.3408
660.10 0.3409
660.20 0.3409
660.30 0.341
660.40 0.3409
660.50 0.3408
660.60 0.3408
660.70 0.3407
660.80 0.3407
660.90 0.3406
661.00 0.3405
661.10 0.3405
661.20 0.3404
661.30 0.3403
661.40 0.3402
661.50 0.3401
661.60 0.3399
661.70 0.3398
661.80 0.3397
661.90 0.3396
662.00 0.3395
662.10 0.3393
662.20 0.3392
662.30 0.3391
662.40 0.3389
662.50 0.3388
662.60 0.3386
662.70 0.3385
662.80 0.3383
662.90 0.3382
663.00 0.338
663.10 0.3379
663.20 0.3377
663.30 0.3376
663.40 0.3374
663.50 0.3372
663.60 0.3371
663.70 0.3369
663.80 0.3367
663.90 0.3366
664.00 0.3364
664.10 0.3362
664.20 0.3361
664.30 0.3359
664.40 0.3357
664.50 0.3355
664.60 0.3354
664.70 0.3352
664.80 0.335
664.90 0.3348
665.00 0.3347
665.10 0.3345
665.20 0.3343
665.30 0.3341
665.40 0.334
665.50 0.3338
665.60 0.3336
665.70 0.3334
665.80 0.3332
665.90 0.3331
666.00 0.3329
666.10 0.3327
666.20 0.3325
666.30 0.3323
666.40 0.3322
666.50 0.332
666.60 0.3318
666.70 0.3316
666.80 0.3314
666.90 0.3313
667.00 0.3311
667.10 0.3309
667.20 0.3307
667.30 0.3305
667.40 0.3303
667.50 0.3302
667.60 0.33
667.70 0.3298
667.80 0.3296
667.90 0.3294
668.00 0.3292
668.10 0.3291
668.20 0.3289
668.30 0.3287
668.40 0.3285
668.50 0.3283
668.60 0.3281
668.70 0.328
668.80 0.3278
668.90 0.3276
669.00 0.3274
669.10 0.3272
669.20 0.327
669.30 0.3269
669.40 0.3267
669.50 0.3265
669.60 0.3263
669.70 0.3261
669.80 0.3259
669.90 0.3258
670.00 0.3256
670.10 0.3254
670.20 0.3252
670.30 0.325
670.40 0.3248
670.50 0.3247
670.60 0.3245
670.70 0.3243
670.80 0.3241
670.90 0.3239
671.00 0.3237
671.10 0.3236
671.20 0.3234
671.30 0.3232
671.40 0.323
671.50 0.3228
671.60 0.3226
671.70 0.3225
671.80 0.3223
671.90 0.3221
672.00 0.3219
672.10 0.3217
672.20 0.3216
672.30 0.3214
672.40 0.3212
672.50 0.321
672.60 0.3208
672.70 0.3206
672.80 0.3205
672.90 0.3203
673.00 0.3201
673.10 0.3199
673.20 0.3197
673.30 0.3196
673.40 0.3194
673.50 0.3192
673.60 0.319
673.70 0.3188
673.80 0.3187
673.90 0.3185
674.00 0.3183
674.10 0.3181
674.20 0.3179
674.30 0.3178
674.40 0.3176
674.50 0.3174
674.60 0.3172
674.70 0.317
674.80 0.3169
674.90 0.3167
675.00 0.3165
675.10 0.3163
675.20 0.3161
675.30 0.316
675.40 0.3158
675.50 0.3156
675.60 0.3154
675.70 0.3152
675.80 0.3151
675.90 0.3149
676.00 0.3147
676.10 0.3145
676.20 0.3143
676.30 0.3142
676.40 0.314
676.50 0.3138
676.60 0.3136
676.70 0.3135
676.80 0.3133
676.90 0.3131
677.00 0.3129
677.10 0.3128
677.20 0.3126
677.30 0.3124
677.40 0.3122
677.50 0.312
677.60 0.3119
677.70 0.3117
677.80 0.3115
677.90 0.3113
678.00 0.3112
678.10 0.311
678.20 0.3108
678.30 0.3106
678.40 0.3105
678.50 0.3103
678.60 0.3101
678.70 0.3099
678.80 0.3098
678.90 0.3096
679.00 0.3094
679.10 0.3092
679.20 0.3091
679.30 0.3089
679.40 0.3087
679.50 0.3085
679.60 0.3084
679.70 0.3082
679.80 0.308
679.90 0.3078
680.00 0.3077
680.10 0.3075
680.20 0.3073
680.30 0.3071
680.40 0.307
680.50 0.3068
680.60 0.3066
680.70 0.3065
680.80 0.3063
680.90 0.3061
681.00 0.3059
681.10 0.3058
681.20 0.3056
681.30 0.3054
681.40 0.3052
681.50 0.3051
681.60 0.3049
681.70 0.3047
681.80 0.3046
681.90 0.3044
682.00 0.3042
682.10 0.304
682.20 0.3039
682.30 0.3037
682.40 0.3035
682.50 0.3034
682.60 0.3032
682.70 0.303
682.80 0.3028
682.90 0.3027
683.00 0.3025
683.10 0.3023
683.20 0.3022
683.30 0.302
683.40 0.3018
683.50 0.3017
683.60 0.3015
683.70 0.3013
683.80 0.3011
683.90 0.301
684.00 0.3008
684.10 0.3006
684.20 0.3005
684.30 0.3003
684.40 0.3001
684.50 0.3
684.60 0.2998
684.70 0.2996
684.80 0.2995
684.90 0.2993
685.00 0.2991
685.10 0.299
685.20 0.2988
685.30 0.2986
685.40 0.2985
685.50 0.2983
685.60 0.2981
685.70 0.2979
685.80 0.2978
685.90 0.2976
686.00 0.2974
686.10 0.2973
686.20 0.2971
686.30 0.2969
686.40 0.2968
686.50 0.2966
686.60 0.2964
686.70 0.2963
686.80 0.2961
686.90 0.296
687.00 0.2958
687.10 0.2956
687.20 0.2955
687.30 0.2953
687.40 0.2951
687.50 0.295
687.60 0.2948
687.70 0.2946
687.80 0.2945
687.90 0.2943
688.00 0.2941
688.10 0.294
688.20 0.2938
688.30 0.2936
688.40 0.2935
688.50 0.2933
688.60 0.2931
688.70 0.293
688.80 0.2928
688.90 0.2927
689.00 0.2925
689.10 0.2923
689.20 0.2922
689.30 0.292
689.40 0.2918
689.50 0.2917
689.60 0.2915
689.70 0.2914
689.80 0.2912
689.90 0.291
690.00 0.2909
690.10 0.2907
690.20 0.2905
690.30 0.2904
690.40 0.2902
690.50 0.2901
690.60 0.2899
690.70 0.2897
690.80 0.2896
690.90 0.2894
691.00 0.2893
691.10 0.2891
691.20 0.2889
691.30 0.2888
691.40 0.2886
691.50 0.2885
691.60 0.2883
691.70 0.2881
691.80 0.288
691.90 0.2878
692.00 0.2877
692.10 0.2875
692.20 0.2873
692.30 0.2872
692.40 0.287
692.50 0.2869
692.60 0.2867
692.70 0.2865
692.80 0.2864
692.90 0.2862
693.00 0.2861
693.10 0.2859
693.20 0.2857
693.30 0.2856
693.40 0.2854
693.50 0.2853
693.60 0.2851
693.70 0.2849
693.80 0.2848
693.90 0.2846
694.00 0.2845
694.10 0.2843
694.20 0.2842
694.30 0.284
694.40 0.2838
694.50 0.2837
694.60 0.2835
694.70 0.2834
694.80 0.2832
694.90 0.283
695.00 0.2829
695.10 0.2827
695.20 0.2826
695.30 0.2824
695.40 0.2823
695.50 0.2821
695.60 0.282
695.70 0.2818
695.80 0.2816
695.90 0.2815
696.00 0.2813
696.10 0.2812
696.20 0.281
696.30 0.2809
696.40 0.2807
696.50 0.2806
696.60 0.2804
696.70 0.2802
696.80 0.2801
696.90 0.2799
697.00 0.2798
697.10 0.2796
697.20 0.2795
697.30 0.2793
697.40 0.2792
697.50 0.279
697.60 0.2789
697.70 0.2787
697.80 0.2785
697.90 0.2784
698.00 0.2782
698.10 0.2781
698.20 0.2779
698.30 0.2778
698.40 0.2776
698.50 0.2775
698.60 0.2773
698.70 0.2772
698.80 0.277
698.90 0.2769
699.00 0.2767
699.10 0.2766
699.20 0.2764
699.30 0.2762
699.40 0.2761
699.50 0.2759
699.60 0.2758
699.70 0.2756
699.80 0.2755
699.90 0.2753
700.00 0.2752
700.10 0.275
700.20 0.2749
700.30 0.2747
700.40 0.2746
700.50 0.2744
700.60 0.2743
700.70 0.2741
700.80 0.274
700.90 0.2738
701.00 0.2737
701.10 0.2735
701.20 0.2734
701.30 0.2732
701.40 0.2731
701.50 0.2729
701.60 0.2728
701.70 0.2726
701.80 0.2725
701.90 0.2723
702.00 0.2722
702.10 0.272
702.20 0.2719
702.30 0.2717
702.40 0.2716
702.50 0.2714
702.60 0.2713
702.70 0.2711
702.80 0.271
702.90 0.2708
703.00 0.2707
703.10 0.2705
703.20 0.2704
703.30 0.2702
703.40 0.2701
703.50 0.2699
703.60 0.2698
703.70 0.2697
703.80 0.2695
703.90 0.2694
704.00 0.2692
704.10 0.2691
704.20 0.2689
704.30 0.2688
704.40 0.2686
704.50 0.2685
704.60 0.2683
704.70 0.2682
704.80 0.268
704.90 0.2679
705.00 0.2677
705.10 0.2676
705.20 0.2674
705.30 0.2673
705.40 0.2672
705.50 0.267
705.60 0.2669
705.70 0.2667
705.80 0.2666
705.90 0.2664
706.00 0.2663
706.10 0.2661
706.20 0.266
706.30 0.2658
706.40 0.2657
706.50 0.2656
706.60 0.2654
706.70 0.2653
706.80 0.2651
706.90 0.265
707.00 0.2648
707.10 0.2647
707.20 0.2645
707.30 0.2644
707.40 0.2643
707.50 0.2641
707.60 0.264
707.70 0.2638
707.80 0.2637
707.90 0.2635
708.00 0.2634
708.10 0.2633
708.20 0.2631
708.30 0.263
708.40 0.2628
708.50 0.2627
708.60 0.2625
708.70 0.2624
708.80 0.2622
708.90 0.2621
709.00 0.262
709.10 0.2618
709.20 0.2617
709.30 0.2615
709.40 0.2614
709.50 0.2612
709.60 0.2611
709.70 0.261
709.80 0.2608
709.90 0.2607
710.00 0.2605
710.10 0.2604
710.20 0.2603
710.30 0.2601
710.40 0.26
710.50 0.2598
710.60 0.2597
710.70 0.2596
710.80 0.2594
710.90 0.2593
711.00 0.2591
711.10 0.259
711.20 0.2589
711.30 0.2587
711.40 0.2586
711.50 0.2584
711.60 0.2583
711.70 0.2582
711.80 0.258
711.90 0.2579
712.00 0.2577
712.10 0.2576
712.20 0.2575
712.30 0.2573
712.40 0.2572
712.50 0.257
712.60 0.2569
712.70 0.2568
712.80 0.2566
712.90 0.2565
713.00 0.2563
713.10 0.2562
713.20 0.2561
713.30 0.2559
713.40 0.2558
713.50 0.2557
713.60 0.2555
713.70 0.2554
713.80 0.2552
713.90 0.2551
714.00 0.255
714.10 0.2548
714.20 0.2547
714.30 0.2545
714.40 0.2544
714.50 0.2543
714.60 0.2541
714.70 0.254
714.80 0.2539
714.90 0.2537
715.00 0.2536
715.10 0.2534
715.20 0.2533
715.30 0.2532
715.40 0.253
715.50 0.2529
715.60 0.2528
715.70 0.2526
715.80 0.2525
715.90 0.2524
716.00 0.2522
716.10 0.2521
716.20 0.252
716.30 0.2518
716.40 0.2517
716.50 0.2515
716.60 0.2514
716.70 0.2513
716.80 0.2511
716.90 0.251
717.00 0.2509
717.10 0.2507
717.20 0.2506
717.30 0.2505
717.40 0.2503
717.50 0.2502
717.60 0.2501
717.70 0.2499
717.80 0.2498
717.90 0.2497
718.00 0.2495
718.10 0.2494
718.20 0.2493
718.30 0.2491
718.40 0.249
718.50 0.2489
718.60 0.2487
718.70 0.2486
718.80 0.2485
718.90 0.2483
719.00 0.2482
719.10 0.2481
719.20 0.2479
719.30 0.2478
719.40 0.2477
719.50 0.2475
719.60 0.2474
719.70 0.2473
719.80 0.2471
719.90 0.247
720.00 0.2469
720.10 0.2467
720.20 0.2466
720.30 0.2465
720.40 0.2463
720.50 0.2462
720.60 0.2461
720.70 0.2459
720.80 0.2458
720.90 0.2457
721.00 0.2455
721.10 0.2454
721.20 0.2453
721.30 0.2451
721.40 0.245
721.50 0.2449
721.60 0.2448
721.70 0.2446
721.80 0.2445
721.90 0.2444
722.00 0.2442
722.10 0.2441
722.20 0.244
722.30 0.2438
722.40 0.2437
722.50 0.2436
722.60 0.2435
722.70 0.2433
722.80 0.2432
722.90 0.2431
723.00 0.2429
723.10 0.2428
723.20 0.2427
723.30 0.2425
723.40 0.2424
723.50 0.2423
723.60 0.2422
723.70 0.242
723.80 0.2419
723.90 0.2418
724.00 0.2416
724.10 0.2415
724.20 0.2414
724.30 0.2413
724.40 0.2411
724.50 0.241
724.60 0.2409
724.70 0.2407
724.80 0.2406
724.90 0.2405
725.00 0.2404
725.10 0.2402
725.20 0.2401
725.30 0.24
725.40 0.2398
725.50 0.2397
725.60 0.2396
725.70 0.2395
725.80 0.2393
725.90 0.2392
726.00 0.2391
726.10 0.239
726.20 0.2388
726.30 0.2387
726.40 0.2386
726.50 0.2384
726.60 0.2383
726.70 0.2382
726.80 0.2381
726.90 0.2379
727.00 0.2378
727.10 0.2377
727.20 0.2376
727.30 0.2374
727.40 0.2373
727.50 0.2372
727.60 0.2371
727.70 0.2369
727.80 0.2368
727.90 0.2367
728.00 0.2366
728.10 0.2364
728.20 0.2363
728.30 0.2362
728.40 0.2361
728.50 0.2359
728.60 0.2358
728.70 0.2357
728.80 0.2356
728.90 0.2354
729.00 0.2353
729.10 0.2352
729.20 0.2351
729.30 0.2349
729.40 0.2348
729.50 0.2347
729.60 0.2346
729.70 0.2344
729.80 0.2343
729.90 0.2342
730.00 0.2341
730.10 0.2339
730.20 0.2338
730.30 0.2337
730.40 0.2336
730.50 0.2334
730.60 0.2333
730.70 0.2332
730.80 0.2331
730.90 0.233
731.00 0.2328
731.10 0.2327
731.20 0.2326
731.30 0.2325
731.40 0.2324
731.50 0.2322
731.60 0.2321
731.70 0.232
731.80 0.2319
731.90 0.2317
732.00 0.2316
732.10 0.2315
732.20 0.2314
732.30 0.2313
732.40 0.2311
732.50 0.231
732.60 0.2309
732.70 0.2308
732.80 0.2307
732.90 0.2305
733.00 0.2304
733.10 0.2303
733.20 0.2302
733.30 0.23
733.40 0.2299
733.50 0.2298
733.60 0.2297
733.70 0.2296
733.80 0.2294
733.90 0.2293
734.00 0.2292
734.10 0.2291
734.20 0.229
734.30 0.2288
734.40 0.2287
734.50 0.2286
734.60 0.2285
734.70 0.2284
734.80 0.2282
734.90 0.2281
735.00 0.228
735.10 0.2279
735.20 0.2278
735.30 0.2276
735.40 0.2275
735.50 0.2274
735.60 0.2273
735.70 0.2272
735.80 0.227
735.90 0.2269
736.00 0.2268
736.10 0.2267
736.20 0.2266
736.30 0.2265
736.40 0.2263
736.50 0.2262
736.60 0.2261
736.70 0.226
736.80 0.2259
736.90 0.2257
737.00 0.2256
737.10 0.2255
737.20 0.2254
737.30 0.2253
737.40 0.2251
737.50 0.225
737.60 0.2249
737.70 0.2248
737.80 0.2247
737.90 0.2246
738.00 0.2244
738.10 0.2243
738.20 0.2242
738.30 0.2241
738.40 0.224
738.50 0.2238
738.60 0.2237
738.70 0.2236
738.80 0.2235
738.90 0.2234
739.00 0.2233
739.10 0.2231
739.20 0.223
739.30 0.2229
739.40 0.2228
739.50 0.2227
739.60 0.2226
739.70 0.2224
739.80 0.2223
739.90 0.2222
740.00 0.2221
740.10 0.222
740.20 0.2219
740.30 0.2217
740.40 0.2216
740.50 0.2215
740.60 0.2214
740.70 0.2213
740.80 0.2212
740.90 0.2211
741.00 0.2209
741.10 0.2208
741.20 0.2207
741.30 0.2206
741.40 0.2205
741.50 0.2204
741.60 0.2203
741.70 0.2201
741.80 0.22
741.90 0.2199
742.00 0.2198
742.10 0.2197
742.20 0.2196
742.30 0.2195
742.40 0.2193
742.50 0.2192
742.60 0.2191
742.70 0.219
742.80 0.2189
742.90 0.2188
743.00 0.2187
743.10 0.2186
743.20 0.2184
743.30 0.2183
743.40 0.2182
743.50 0.2181
743.60 0.218
743.70 0.2179
743.80 0.2178
743.90 0.2177
744.00 0.2175
744.10 0.2174
744.20 0.2173
744.30 0.2172
744.40 0.2171
744.50 0.217
744.60 0.2169
744.70 0.2167
744.80 0.2166
744.90 0.2165
745.00 0.2164
745.10 0.2163
745.20 0.2162
745.30 0.2161
745.40 0.216
745.50 0.2159
745.60 0.2157
745.70 0.2156
745.80 0.2155
745.90 0.2154
746.00 0.2153
746.10 0.2152
746.20 0.2151
746.30 0.215
746.40 0.2148
746.50 0.2147
746.60 0.2146
746.70 0.2145
746.80 0.2144
746.90 0.2143
747.00 0.2142
747.10 0.2141
747.20 0.214
747.30 0.2138
747.40 0.2137
747.50 0.2136
747.60 0.2135
747.70 0.2134
747.80 0.2133
747.90 0.2132
748.00 0.2131
748.10 0.213
748.20 0.2129
748.30 0.2127
748.40 0.2126
748.50 0.2125
748.60 0.2124
748.70 0.2123
748.80 0.2122
748.90 0.2121
749.00 0.212
749.10 0.2119
749.20 0.2117
749.30 0.2116
749.40 0.2115
749.50 0.2114
749.60 0.2113
749.70 0.2112
749.80 0.2111
749.90 0.211
750.00 0.2109
750.10 0.2108
750.20 0.2107
750.30 0.2105
750.40 0.2104
750.50 0.2103
750.60 0.2102
750.70 0.2101
750.80 0.21
750.90 0.2099
751.00 0.2098
751.10 0.2097
751.20 0.2096
751.30 0.2095
751.40 0.2094
751.50 0.2093
751.60 0.2092
751.70 0.209
751.80 0.2089
751.90 0.2088
752.00 0.2087
752.10 0.2086
752.20 0.2085
752.30 0.2084
752.40 0.2083
752.50 0.2082
752.60 0.2081
752.70 0.208
752.80 0.2079
752.90 0.2078
753.00 0.2077
753.10 0.2076
753.20 0.2075
753.30 0.2073
753.40 0.2072
753.50 0.2071
753.60 0.207
753.70 0.2069
753.80 0.2068
753.90 0.2067
754.00 0.2066
754.10 0.2065
754.20 0.2064
754.30 0.2063
754.40 0.2062
754.50 0.2061
754.60 0.206
754.70 0.2059
754.80 0.2058
754.90 0.2057
755.00 0.2056
755.10 0.2054
755.20 0.2053
755.30 0.2052
755.40 0.2051
755.50 0.205
755.60 0.2049
755.70 0.2048
755.80 0.2047
755.90 0.2046
756.00 0.2045
756.10 0.2044
756.20 0.2043
756.30 0.2042
756.40 0.2041
756.50 0.204
756.60 0.2039
756.70 0.2038
756.80 0.2037
756.90 0.2036
757.00 0.2035
757.10 0.2034
757.20 0.2032
757.30 0.2031
757.40 0.203
757.50 0.2029
757.60 0.2028
757.70 0.2027
757.80 0.2026
757.90 0.2025
758.00 0.2024
758.10 0.2023
758.20 0.2022
758.30 0.2021
758.40 0.202
758.50 0.2019
758.60 0.2018
758.70 0.2017
758.80 0.2016
758.90 0.2015
759.00 0.2014
759.10 0.2013
759.20 0.2012
759.30 0.2011
759.40 0.201
759.50 0.2009
759.60 0.2008
759.70 0.2007
759.80 0.2006
759.90 0.2005
760.00 0.2004
760.10 0.2003
760.20 0.2002
760.30 0.2001
760.40 0.1999
760.50 0.1998
760.60 0.1997
760.70 0.1996
760.80 0.1995
760.90 0.1994
761.00 0.1993
761.10 0.1992
761.20 0.1991
761.30 0.199
761.40 0.1989
761.50 0.1988
761.60 0.1987
761.70 0.1986
761.80 0.1985
761.90 0.1984
762.00 0.1983
762.10 0.1982
762.20 0.1981
762.30 0.198
762.40 0.1979
762.50 0.1978
762.60 0.1977
762.70 0.1976
762.80 0.1975
762.90 0.1974
763.00 0.1973
763.10 0.1972
763.20 0.1971
763.30 0.197
763.40 0.1969
763.50 0.1968
763.60 0.1967
763.70 0.1966
763.80 0.1966
763.90 0.1965
764.00 0.1964
764.10 0.1963
764.20 0.1962
764.30 0.1961
764.40 0.196
764.50 0.1959
764.60 0.1958
764.70 0.1957
764.80 0.1956
764.90 0.1955
765.00 0.1954
765.10 0.1953
765.20 0.1952
765.30 0.1951
765.40 0.195
765.50 0.1949
765.60 0.1948
765.70 0.1947
765.80 0.1946
765.90 0.1945
766.00 0.1944
766.10 0.1943
766.20 0.1942
766.30 0.1941
766.40 0.194
766.50 0.1939
766.60 0.1938
766.70 0.1937
766.80 0.1936
766.90 0.1935
767.00 0.1934
767.10 0.1933
767.20 0.1932
767.30 0.1931
767.40 0.193
767.50 0.1929
767.60 0.1928
767.70 0.1927
767.80 0.1926
767.90 0.1925
768.00 0.1924
768.10 0.1923
768.20 0.1922
768.30 0.1921
768.40 0.192
768.50 0.1919
768.60 0.1918
768.70 0.1917
768.80 0.1916
768.90 0.1915
769.00 0.1915
769.10 0.1914
769.20 0.1913
769.30 0.1912
769.40 0.1911
769.50 0.191
769.60 0.1909
769.70 0.1908
769.80 0.1907
769.90 0.1906
770.00 0.1905
770.10 0.1904
770.20 0.1903
770.30 0.1902
770.40 0.1901
770.50 0.19
770.60 0.1899
770.70 0.1898
770.80 0.1897
770.90 0.1896
771.00 0.1895
771.10 0.1894
771.20 0.1894
771.30 0.1893
771.40 0.1892
771.50 0.1891
771.60 0.189
771.70 0.1889
771.80 0.1888
771.90 0.1887
772.00 0.1886
772.10 0.1885
772.20 0.1884
772.30 0.1883
772.40 0.1882
772.50 0.1881
772.60 0.188
772.70 0.1879
772.80 0.1878
772.90 0.1878
773.00 0.1877
773.10 0.1876
773.20 0.1875
773.30 0.1874
773.40 0.1873
773.50 0.1872
773.60 0.1871
773.70 0.187
773.80 0.1869
773.90 0.1868
774.00 0.1867
774.10 0.1866
774.20 0.1865
774.30 0.1864
774.40 0.1864
774.50 0.1863
774.60 0.1862
774.70 0.1861
774.80 0.186
774.90 0.1859
775.00 0.1858
775.10 0.1857
775.20 0.1856
775.30 0.1855
775.40 0.1854
775.50 0.1853
775.60 0.1852
775.70 0.1852
775.80 0.1851
775.90 0.185
776.00 0.1849
776.10 0.1848
776.20 0.1847
776.30 0.1846
776.40 0.1845
776.50 0.1844
776.60 0.1843
776.70 0.1842
776.80 0.1841
776.90 0.184
777.00 0.184
777.10 0.1839
777.20 0.1838
777.30 0.1837
777.40 0.1836
777.50 0.1835
777.60 0.1834
777.70 0.1833
777.80 0.1832
777.90 0.1831
778.00 0.183
778.10 0.1829
778.20 0.1829
778.30 0.1828
778.40 0.1827
778.50 0.1826
778.60 0.1825
778.70 0.1824
778.80 0.1823
778.90 0.1822
779.00 0.1821
779.10 0.182
779.20 0.1819
779.30 0.1819
779.40 0.1818
779.50 0.1817
779.60 0.1816
779.70 0.1815
779.80 0.1814
779.90 0.1813
780.00 0.1812
780.10 0.1811
780.20 0.181
780.30 0.181
780.40 0.1809
780.50 0.1808
780.60 0.1807
780.70 0.1806
780.80 0.1805
780.90 0.1804
781.00 0.1803
781.10 0.1802
781.20 0.1802
781.30 0.1801
781.40 0.18
781.50 0.1799
781.60 0.1798
781.70 0.1797
781.80 0.1796
781.90 0.1795
782.00 0.1794
782.10 0.1794
782.20 0.1793
782.30 0.1792
782.40 0.1791
782.50 0.179
782.60 0.1789
782.70 0.1788
782.80 0.1787
782.90 0.1787
783.00 0.1786
783.10 0.1785
783.20 0.1784
783.30 0.1783
783.40 0.1782
783.50 0.1781
783.60 0.178
783.70 0.178
783.80 0.1779
783.90 0.1778
784.00 0.1777
784.10 0.1776
784.20 0.1775
784.30 0.1774
784.40 0.1773
784.50 0.1773
784.60 0.1772
784.70 0.1771
784.80 0.177
784.90 0.1769
785.00 0.1768
785.10 0.1767
785.20 0.1766
785.30 0.1766
785.40 0.1765
785.50 0.1764
785.60 0.1763
785.70 0.1762
785.80 0.1761
785.90 0.176
786.00 0.1759
786.10 0.1759
786.20 0.1758
786.30 0.1757
786.40 0.1756
786.50 0.1755
786.60 0.1754
786.70 0.1753
786.80 0.1753
786.90 0.1752
787.00 0.1751
787.10 0.175
787.20 0.1749
787.30 0.1748
787.40 0.1747
787.50 0.1747
787.60 0.1746
787.70 0.1745
787.80 0.1744
787.90 0.1743
788.00 0.1742
788.10 0.1741
788.20 0.174
788.30 0.174
788.40 0.1739
788.50 0.1738
788.60 0.1737
788.70 0.1736
788.80 0.1735
788.90 0.1734
789.00 0.1734
789.10 0.1733
789.20 0.1732
789.30 0.1731
789.40 0.173
789.50 0.1729
789.60 0.1729
789.70 0.1728
789.80 0.1727
789.90 0.1726
790.00 0.1725
790.10 0.1724
790.20 0.1723
790.30 0.1723
790.40 0.1722
790.50 0.1721
790.60 0.172
790.70 0.1719
790.80 0.1718
790.90 0.1718
791.00 0.1717
791.10 0.1716
791.20 0.1715
791.30 0.1714
791.40 0.1713
791.50 0.1713
791.60 0.1712
791.70 0.1711
791.80 0.171
791.90 0.1709
792.00 0.1708
792.10 0.1708
792.20 0.1707
792.30 0.1706
792.40 0.1705
792.50 0.1704
792.60 0.1703
792.70 0.1703
792.80 0.1702
792.90 0.1701
793.00 0.17
793.10 0.1699
793.20 0.1698
793.30 0.1698
793.40 0.1697
793.50 0.1696
793.60 0.1695
793.70 0.1694
793.80 0.1694
793.90 0.1693
794.00 0.1692
794.10 0.1691
794.20 0.169
794.30 0.1689
794.40 0.1689
794.50 0.1688
794.60 0.1687
794.70 0.1686
794.80 0.1685
794.90 0.1685
795.00 0.1684
795.10 0.1683
795.20 0.1682
795.30 0.1681
795.40 0.168
795.50 0.168
795.60 0.1679
795.70 0.1678
795.80 0.1677
795.90 0.1676
796.00 0.1676
796.10 0.1675
796.20 0.1674
796.30 0.1673
796.40 0.1672
796.50 0.1671
796.60 0.1671
796.70 0.167
796.80 0.1669
796.90 0.1668
797.00 0.1667
797.10 0.1667
797.20 0.1666
797.30 0.1665
797.40 0.1664
797.50 0.1663
797.60 0.1663
797.70 0.1662
797.80 0.1661
797.90 0.166
798.00 0.1659
798.10 0.1658
798.20 0.1658
798.30 0.1657
798.40 0.1656
798.50 0.1655
798.60 0.1654
798.70 0.1654
798.80 0.1653
798.90 0.1652
799.00 0.1651
799.10 0.165
799.20 0.165
799.30 0.1649
799.40 0.1648
799.50 0.1647
799.60 0.1646
799.70 0.1646
799.80 0.1645
799.90 0.1644
800.00 0.1643
800.10 0.1642
800.20 0.1642
800.30 0.1641
800.40 0.164
800.50 0.1639
800.60 0.1638
800.70 0.1638
800.80 0.1637
800.90 0.1636
801.00 0.1635
801.10 0.1635
801.20 0.1634
801.30 0.1633
801.40 0.1632
801.50 0.1631
801.60 0.1631
801.70 0.163
801.80 0.1629
801.90 0.1628
802.00 0.1628
802.10 0.1627
802.20 0.1626
802.30 0.1625
802.40 0.1624
802.50 0.1624
802.60 0.1623
802.70 0.1622
802.80 0.1621
802.90 0.162
803.00 0.162
803.10 0.1619
803.20 0.1618
803.30 0.1617
803.40 0.1617
803.50 0.1616
803.60 0.1615
803.70 0.1614
803.80 0.1614
803.90 0.1613
804.00 0.1612
804.10 0.1611
804.20 0.161
804.30 0.161
804.40 0.1609
804.50 0.1608
804.60 0.1607
804.70 0.1607
804.80 0.1606
804.90 0.1605
805.00 0.1604
805.10 0.1603
805.20 0.1603
805.30 0.1602
805.40 0.1601
805.50 0.16
805.60 0.16
805.70 0.1599
805.80 0.1598
805.90 0.1597
806.00 0.1597
806.10 0.1596
806.20 0.1595
806.30 0.1594
806.40 0.1593
806.50 0.1593
806.60 0.1592
806.70 0.1591
806.80 0.159
806.90 0.159
807.00 0.1589
807.10 0.1588
807.20 0.1587
807.30 0.1587
807.40 0.1586
807.50 0.1585
807.60 0.1584
807.70 0.1584
807.80 0.1583
807.90 0.1582
808.00 0.1581
808.10 0.158
808.20 0.158
808.30 0.1579
808.40 0.1578
808.50 0.1577
808.60 0.1577
808.70 0.1576
808.80 0.1575
808.90 0.1574
809.00 0.1574
809.10 0.1573
809.20 0.1572
809.30 0.1571
809.40 0.1571
809.50 0.157
809.60 0.1569
809.70 0.1568
809.80 0.1568
809.90 0.1567
810.00 0.1566
810.10 0.1565
810.20 0.1565
810.30 0.1564
810.40 0.1563
810.50 0.1562
810.60 0.1562
810.70 0.1561
810.80 0.156
810.90 0.1559
811.00 0.1559
811.10 0.1558
811.20 0.1557
811.30 0.1556
811.40 0.1556
811.50 0.1555
811.60 0.1554
811.70 0.1554
811.80 0.1553
811.90 0.1552
812.00 0.1551
812.10 0.1551
812.20 0.155
812.30 0.1549
812.40 0.1548
812.50 0.1548
812.60 0.1547
812.70 0.1546
812.80 0.1545
812.90 0.1545
813.00 0.1544
813.10 0.1543
813.20 0.1543
813.30 0.1542
813.40 0.1541
813.50 0.154
813.60 0.154
813.70 0.1539
813.80 0.1538
813.90 0.1537
814.00 0.1537
814.10 0.1536
814.20 0.1535
814.30 0.1534
814.40 0.1534
814.50 0.1533
814.60 0.1532
814.70 0.1532
814.80 0.1531
814.90 0.153
815.00 0.1529
815.10 0.1529
815.20 0.1528
815.30 0.1527
815.40 0.1527
815.50 0.1526
815.60 0.1525
815.70 0.1524
815.80 0.1524
815.90 0.1523
816.00 0.1522
816.10 0.1521
816.20 0.1521
816.30 0.152
816.40 0.1519
816.50 0.1519
816.60 0.1518
816.70 0.1517
816.80 0.1516
816.90 0.1516
817.00 0.1515
817.10 0.1514
817.20 0.1514
817.30 0.1513
817.40 0.1512
817.50 0.1511
817.60 0.1511
817.70 0.151
817.80 0.1509
817.90 0.1508
818.00 0.1508
818.10 0.1507
818.20 0.1506
818.30 0.1506
818.40 0.1505
818.50 0.1504
818.60 0.1503
818.70 0.1503
818.80 0.1502
818.90 0.1501
819.00 0.1501
819.10 0.15
819.20 0.1499
819.30 0.1498
819.40 0.1498
819.50 0.1497
819.60 0.1496
819.70 0.1496
819.80 0.1495
819.90 0.1494
820.00 0.1493
820.10 0.1493
820.20 0.1492
820.30 0.1491
820.40 0.1491
820.50 0.149
820.60 0.1489
820.70 0.1489
820.80 0.1488
820.90 0.1487
821.00 0.1486
821.10 0.1486
821.20 0.1485
821.30 0.1484
821.40 0.1484
821.50 0.1483
821.60 0.1482
821.70 0.1482
821.80 0.1481
821.90 0.148
822.00 0.1479
822.10 0.1479
822.20 0.1478
822.30 0.1477
822.40 0.1477
822.50 0.1476
822.60 0.1475
822.70 0.1475
822.80 0.1474
822.90 0.1473
823.00 0.1473
823.10 0.1472
823.20 0.1471
823.30 0.147
823.40 0.147
823.50 0.1469
823.60 0.1468
823.70 0.1468
823.80 0.1467
823.90 0.1466
824.00 0.1466
824.10 0.1465
824.20 0.1464
824.30 0.1464
824.40 0.1463
824.50 0.1462
824.60 0.1462
824.70 0.1461
824.80 0.146
824.90 0.1459
825.00 0.1459
825.10 0.1458
825.20 0.1457
825.30 0.1457
825.40 0.1456
825.50 0.1455
825.60 0.1455
825.70 0.1454
825.80 0.1453
825.90 0.1453
826.00 0.1452
826.10 0.1451
826.20 0.1451
826.30 0.145
826.40 0.1449
826.50 0.1449
826.60 0.1448
826.70 0.1447
826.80 0.1447
826.90 0.1446
827.00 0.1445
827.10 0.1444
827.20 0.1444
827.30 0.1443
827.40 0.1442
827.50 0.1442
827.60 0.1441
827.70 0.144
827.80 0.144
827.90 0.1439
828.00 0.1438
828.10 0.1438
828.20 0.1437
828.30 0.1436
828.40 0.1436
828.50 0.1435
828.60 0.1434
828.70 0.1434
828.80 0.1433
828.90 0.1432
829.00 0.1432
829.10 0.1431
829.20 0.143
829.30 0.143
829.40 0.1429
829.50 0.1428
829.60 0.1428
829.70 0.1427
829.80 0.1426
829.90 0.1426
830.00 0.1425
830.10 0.1424
830.20 0.1424
830.30 0.1423
830.40 0.1422
830.50 0.1422
830.60 0.1421
830.70 0.142
830.80 0.142
830.90 0.1419
831.00 0.1418
831.10 0.1418
831.20 0.1417
831.30 0.1416
831.40 0.1416
831.50 0.1415
831.60 0.1414
831.70 0.1414
831.80 0.1413
831.90 0.1412
832.00 0.1412
832.10 0.1411
832.20 0.141
832.30 0.141
832.40 0.1409
832.50 0.1409
832.60 0.1408
832.70 0.1407
832.80 0.1407
832.90 0.1406
833.00 0.1405
833.10 0.1405
833.20 0.1404
833.30 0.1403
833.40 0.1403
833.50 0.1402
833.60 0.1401
833.70 0.1401
833.80 0.14
833.90 0.1399
834.00 0.1399
834.10 0.1398
834.20 0.1397
834.30 0.1397
834.40 0.1396
834.50 0.1395
834.60 0.1395
834.70 0.1394
834.80 0.1394
834.90 0.1393
835.00 0.1392
835.10 0.1392
835.20 0.1391
835.30 0.139
835.40 0.139
835.50 0.1389
835.60 0.1388
835.70 0.1388
835.80 0.1387
835.90 0.1386
836.00 0.1386
836.10 0.1385
836.20 0.1384
836.30 0.1384
836.40 0.1383
836.50 0.1382
836.60 0.1382
836.70 0.1381
836.80 0.1381
836.90 0.138
837.00 0.1379
837.10 0.1379
837.20 0.1378
837.30 0.1377
837.40 0.1377
837.50 0.1376
837.60 0.1375
837.70 0.1375
837.80 0.1374
837.90 0.1374
838.00 0.1373
838.10 0.1372
838.20 0.1372
838.30 0.1371
838.40 0.137
838.50 0.137
838.60 0.1369
838.70 0.1368
838.80 0.1368
838.90 0.1367
839.00 0.1367
839.10 0.1366
839.20 0.1365
839.30 0.1365
839.40 0.1364
839.50 0.1363
839.60 0.1363
839.70 0.1362
839.80 0.1362
839.90 0.1361
840.00 0.136
840.10 0.136
840.20 0.1359
840.30 0.1358
840.40 0.1358
840.50 0.1357
840.60 0.1357
840.70 0.1356
840.80 0.1355
840.90 0.1355
841.00 0.1354
841.10 0.1353
841.20 0.1353
841.30 0.1352
841.40 0.1351
841.50 0.1351
841.60 0.135
841.70 0.135
841.80 0.1349
841.90 0.1348
842.00 0.1348
842.10 0.1347
842.20 0.1347
842.30 0.1346
842.40 0.1345
842.50 0.1345
842.60 0.1344
842.70 0.1343
842.80 0.1343
842.90 0.1342
843.00 0.1342
843.10 0.1341
843.20 0.134
843.30 0.134
843.40 0.1339
843.50 0.1338
843.60 0.1338
843.70 0.1337
843.80 0.1337
843.90 0.1336
844.00 0.1335
844.10 0.1335
844.20 0.1334
844.30 0.1334
844.40 0.1333
844.50 0.1332
844.60 0.1332
844.70 0.1331
844.80 0.1331
844.90 0.133
845.00 0.1329
845.10 0.1329
845.20 0.1328
845.30 0.1327
845.40 0.1327
845.50 0.1326
845.60 0.1326
845.70 0.1325
845.80 0.1324
845.90 0.1324
846.00 0.1323
846.10 0.1323
846.20 0.1322
846.30 0.1321
846.40 0.1321
846.50 0.132
846.60 0.132
846.70 0.1319
846.80 0.1318
846.90 0.1318
847.00 0.1317
847.10 0.1316
847.20 0.1316
847.30 0.1315
847.40 0.1315
847.50 0.1314
847.60 0.1313
847.70 0.1313
847.80 0.1312
847.90 0.1312
848.00 0.1311
848.10 0.131
848.20 0.131
848.30 0.1309
848.40 0.1309
848.50 0.1308
848.60 0.1308
848.70 0.1307
848.80 0.1306
848.90 0.1306
849.00 0.1305
849.10 0.1305
849.20 0.1304
849.30 0.1303
849.40 0.1303
849.50 0.1302
849.60 0.1302
849.70 0.1301
849.80 0.13
849.90 0.13
850.00 0.1299
850.10 0.1299
850.20 0.1298
850.30 0.1297
850.40 0.1297
850.50 0.1296
850.60 0.1296
850.70 0.1295
850.80 0.1294
850.90 0.1294
851.00 0.1293
851.10 0.1293
851.20 0.1292
851.30 0.1291
851.40 0.1291
851.50 0.129
851.60 0.129
851.70 0.1289
851.80 0.1288
851.90 0.1288
852.00 0.1287
852.10 0.1287
852.20 0.1286
852.30 0.1286
852.40 0.1285
852.50 0.1284
852.60 0.1284
852.70 0.1283
852.80 0.1283
852.90 0.1282
853.00 0.1281
853.10 0.1281
853.20 0.128
853.30 0.128
853.40 0.1279
853.50 0.1279
853.60 0.1278
853.70 0.1277
853.80 0.1277
853.90 0.1276
854.00 0.1276
854.10 0.1275
854.20 0.1275
854.30 0.1274
854.40 0.1273
854.50 0.1273
854.60 0.1272
854.70 0.1272
854.80 0.1271
854.90 0.127
855.00 0.127
855.10 0.1269
855.20 0.1269
855.30 0.1268
855.40 0.1268
855.50 0.1267
855.60 0.1266
855.70 0.1266
855.80 0.1265
855.90 0.1265
856.00 0.1264
856.10 0.1264
856.20 0.1263
856.30 0.1262
856.40 0.1262
856.50 0.1261
856.60 0.1261
856.70 0.126
856.80 0.126
856.90 0.1259
857.00 0.1258
857.10 0.1258
857.20 0.1257
857.30 0.1257
857.40 0.1256
857.50 0.1256
857.60 0.1255
857.70 0.1254
857.80 0.1254
857.90 0.1253
858.00 0.1253
858.10 0.1252
858.20 0.1252
858.30 0.1251
858.40 0.125
858.50 0.125
858.60 0.1249
858.70 0.1249
858.80 0.1248
858.90 0.1248
859.00 0.1247
859.10 0.1247
859.20 0.1246
859.30 0.1245
859.40 0.1245
859.50 0.1244
859.60 0.1244
859.70 0.1243
859.80 0.1243
859.90 0.1242
860.00 0.1242
860.10 0.1241
860.20 0.124
860.30 0.124
860.40 0.1239
860.50 0.1239
860.60 0.1238
860.70 0.1238
860.80 0.1237
860.90 0.1236
861.00 0.1236
861.10 0.1235
861.20 0.1235
861.30 0.1234
861.40 0.1234
861.50 0.1233
861.60 0.1233
861.70 0.1232
861.80 0.1231
861.90 0.1231
862.00 0.123
862.10 0.123
862.20 0.1229
862.30 0.1229
862.40 0.1228
862.50 0.1228
862.60 0.1227
862.70 0.1227
862.80 0.1226
862.90 0.1225
863.00 0.1225
863.10 0.1224
863.20 0.1224
863.30 0.1223
863.40 0.1223
863.50 0.1222
863.60 0.1222
863.70 0.1221
863.80 0.1221
863.90 0.122
864.00 0.1219
864.10 0.1219
864.20 0.1218
864.30 0.1218
864.40 0.1217
864.50 0.1217
864.60 0.1216
864.70 0.1216
864.80 0.1215
864.90 0.1215
865.00 0.1214
865.10 0.1213
865.20 0.1213
865.30 0.1212
865.40 0.1212
865.50 0.1211
865.60 0.1211
865.70 0.121
865.80 0.121
865.90 0.1209
866.00 0.1209
866.10 0.1208
866.20 0.1208
866.30 0.1207
866.40 0.1206
866.50 0.1206
866.60 0.1205
866.70 0.1205
866.80 0.1204
866.90 0.1204
867.00 0.1203
867.10 0.1203
867.20 0.1202
867.30 0.1202
867.40 0.1201
867.50 0.1201
867.60 0.12
867.70 0.1199
867.80 0.1199
867.90 0.1198
868.00 0.1198
868.10 0.1197
868.20 0.1197
868.30 0.1196
868.40 0.1196
868.50 0.1195
868.60 0.1195
868.70 0.1194
868.80 0.1194
868.90 0.1193
869.00 0.1193
869.10 0.1192
869.20 0.1191
869.30 0.1191
869.40 0.119
869.50 0.119
869.60 0.1189
869.70 0.1189
869.80 0.1188
869.90 0.1188
870.00 0.1187
870.10 0.1187
870.20 0.1186
870.30 0.1186
870.40 0.1185
870.50 0.1185
870.60 0.1184
870.70 0.1184
870.80 0.1183
870.90 0.1182
871.00 0.1182
871.10 0.1181
871.20 0.1181
871.30 0.118
871.40 0.118
871.50 0.1179
871.60 0.1179
871.70 0.1178
871.80 0.1178
871.90 0.1177
872.00 0.1177
872.10 0.1176
872.20 0.1176
872.30 0.1175
872.40 0.1175
872.50 0.1174
872.60 0.1174
872.70 0.1173
872.80 0.1173
872.90 0.1172
873.00 0.1172
873.10 0.1171
873.20 0.1171
873.30 0.117
873.40 0.1169
873.50 0.1169
873.60 0.1168
873.70 0.1168
873.80 0.1167
873.90 0.1167
874.00 0.1166
874.10 0.1166
874.20 0.1165
874.30 0.1165
874.40 0.1164
874.50 0.1164
874.60 0.1163
874.70 0.1163
874.80 0.1162
874.90 0.1162
875.00 0.1161
875.10 0.1161
875.20 0.116
875.30 0.116
875.40 0.1159
875.50 0.1159
875.60 0.1158
875.70 0.1158
875.80 0.1157
875.90 0.1157
876.00 0.1156
876.10 0.1156
876.20 0.1155
876.30 0.1155
876.40 0.1154
876.50 0.1154
876.60 0.1153
876.70 0.1153
876.80 0.1152
876.90 0.1152
877.00 0.1151
877.10 0.1151
877.20 0.115
877.30 0.115
877.40 0.1149
877.50 0.1149
877.60 0.1148
877.70 0.1148
877.80 0.1147
877.90 0.1147
878.00 0.1146
878.10 0.1146
878.20 0.1145
878.30 0.1145
878.40 0.1144
878.50 0.1144
878.60 0.1143
878.70 0.1143
878.80 0.1142
878.90 0.1142
879.00 0.1141
879.10 0.1141
879.20 0.114
879.30 0.114
879.40 0.1139
879.50 0.1139
879.60 0.1138
879.70 0.1138
879.80 0.1137
879.90 0.1137
880.00 0.1136
880.10 0.1136
880.20 0.1135
880.30 0.1135
880.40 0.1134
880.50 0.1134
880.60 0.1133
880.70 0.1133
880.80 0.1132
880.90 0.1132
881.00 0.1131
881.10 0.1131
881.20 0.113
881.30 0.113
881.40 0.1129
881.50 0.1129
881.60 0.1128
881.70 0.1128
881.80 0.1127
881.90 0.1127
882.00 0.1126
882.10 0.1126
882.20 0.1125
882.30 0.1125
882.40 0.1124
882.50 0.1124
882.60 0.1123
882.70 0.1123
882.80 0.1122
882.90 0.1122
883.00 0.1121
883.10 0.1121
883.20 0.112
883.30 0.112
883.40 0.1119
883.50 0.1119
883.60 0.1118
883.70 0.1118
883.80 0.1117
883.90 0.1117
884.00 0.1116
884.10 0.1116
884.20 0.1115
884.30 0.1115
884.40 0.1114
884.50 0.1114
884.60 0.1113
884.70 0.1113
884.80 0.1113
884.90 0.1112
885.00 0.1112
885.10 0.1111
885.20 0.1111
885.30 0.111
885.40 0.111
885.50 0.1109
885.60 0.1109
885.70 0.1108
885.80 0.1108
885.90 0.1107
886.00 0.1107
886.10 0.1106
886.20 0.1106
886.30 0.1105
886.40 0.1105
886.50 0.1104
886.60 0.1104
886.70 0.1103
886.80 0.1103
886.90 0.1102
887.00 0.1102
887.10 0.1101
887.20 0.1101
887.30 0.1101
887.40 0.11
887.50 0.11
887.60 0.1099
887.70 0.1099
887.80 0.1098
887.90 0.1098
888.00 0.1097
888.10 0.1097
888.20 0.1096
888.30 0.1096
888.40 0.1095
888.50 0.1095
888.60 0.1094
888.70 0.1094
888.80 0.1093
888.90 0.1093
889.00 0.1092
889.10 0.1092
889.20 0.1092
889.30 0.1091
889.40 0.1091
889.50 0.109
889.60 0.109
889.70 0.1089
889.80 0.1089
889.90 0.1088
890.00 0.1088
890.10 0.1087
890.20 0.1087
890.30 0.1086
890.40 0.1086
890.50 0.1085
890.60 0.1085
890.70 0.1084
890.80 0.1084
890.90 0.1084
891.00 0.1083
891.10 0.1083
891.20 0.1082
891.30 0.1082
891.40 0.1081
891.50 0.1081
891.60 0.108
891.70 0.108
891.80 0.1079
891.90 0.1079
892.00 0.1078
892.10 0.1078
892.20 0.1077
892.30 0.1077
892.40 0.1076
892.50 0.1076
892.60 0.1076
892.70 0.1075
892.80 0.1075
892.90 0.1074
893.00 0.1074
893.10 0.1073
893.20 0.1073
893.30 0.1072
893.40 0.1072
893.50 0.1071
893.60 0.1071
893.70 0.107
893.80 0.107
893.90 0.1069
894.00 0.1069
894.10 0.1068
894.20 0.1068
894.30 0.1068
894.40 0.1067
894.50 0.1067
894.60 0.1066
894.70 0.1066
894.80 0.1065
894.90 0.1065
895.00 0.1064
895.10 0.1064
895.20 0.1063
895.30 0.1063
895.40 0.1062
895.50 0.1062
895.60 0.1061
895.70 0.1061
895.80 0.1061
895.90 0.106
896.00 0.106
896.10 0.1059
896.20 0.1059
896.30 0.1058
896.40 0.1058
896.50 0.1057
896.60 0.1057
896.70 0.1056
896.80 0.1056
896.90 0.1055
897.00 0.1055
897.10 0.1054
897.20 0.1054
897.30 0.1054
897.40 0.1053
897.50 0.1053
897.60 0.1052
897.70 0.1052
897.80 0.1051
897.90 0.1051
898.00 0.105
898.10 0.105
898.20 0.1049
898.30 0.1049
898.40 0.1049
898.50 0.1048
898.60 0.1048
898.70 0.1047
898.80 0.1047
898.90 0.1046
899.00 0.1046
899.10 0.1045
899.20 0.1045
899.30 0.1044
899.40 0.1044
899.50 0.1044
899.60 0.1043
899.70 0.1043
899.80 0.1042
899.90 0.1042
900.00 0.1041
900.10 0.1041
900.20 0.104
900.30 0.104
900.40 0.1039
900.50 0.1039
900.60 0.1039
900.70 0.1038
900.80 0.1038
900.90 0.1037
901.00 0.1037
901.10 0.1036
901.20 0.1036
901.30 0.1035
901.40 0.1035
901.50 0.1035
901.60 0.1034
901.70 0.1034
901.80 0.1033
901.90 0.1033
902.00 0.1032
902.10 0.1032
902.20 0.1031
902.30 0.1031
902.40 0.1031
902.50 0.103
902.60 0.103
902.70 0.1029
902.80 0.1029
902.90 0.1029
903.00 0.1028
903.10 0.1028
903.20 0.1027
903.30 0.1027
903.40 0.1026
903.50 0.1026
903.60 0.1026
903.70 0.1025
903.80 0.1025
903.90 0.1024
904.00 0.1024
904.10 0.1023
904.20 0.1023
904.30 0.1023
904.40 0.1022
904.50 0.1022
904.60 0.1021
904.70 0.1021
904.80 0.1021
904.90 0.102
905.00 0.102
905.10 0.1019
905.20 0.1019
905.30 0.1018
905.40 0.1018
905.50 0.1018
905.60 0.1017
905.70 0.1017
905.80 0.1016
905.90 0.1016
906.00 0.1016
906.10 0.1015
906.20 0.1015
906.30 0.1014
906.40 0.1014
906.50 0.1013
906.60 0.1013
906.70 0.1013
906.80 0.1012
906.90 0.1012
907.00 0.1011
907.10 0.1011
907.20 0.1011
907.30 0.101
907.40 0.101
907.50 0.1009
907.60 0.1009
907.70 0.1008
907.80 0.1008
907.90 0.1008
908.00 0.1007
908.10 0.1007
908.20 0.1006
908.30 0.1006
908.40 0.1005
908.50 0.1005
908.60 0.1005
908.70 0.1004
908.80 0.1004
908.90 0.1003
909.00 0.1003
909.10 0.1003
909.20 0.1002
909.30 0.1002
909.40 0.1001
909.50 0.1001
909.60 0.1
909.70 0.1
909.80 0.09996
909.90 0.09992
910.00 0.09987
910.10 0.09983
910.20 0.09979
910.30 0.09975
910.40 0.09971
910.50 0.09967
910.60 0.09962
910.70 0.09958
910.80 0.09954
910.90 0.0995
911.00 0.09946
911.10 0.09942
911.20 0.09937
911.30 0.09933
911.40 0.09929
911.50 0.09925
911.60 0.09921
911.70 0.09917
911.80 0.09912
911.90 0.09908
912.00 0.09904
912.10 0.099
912.20 0.09895
912.30 0.09891
912.40 0.09886
912.50 0.09882
912.60 0.09877
912.70 0.09873
912.80 0.09869
912.90 0.09864
913.00 0.0986
913.10 0.09855
913.20 0.09851
913.30 0.09846
913.40 0.09842
913.50 0.09838
913.60 0.09833
913.70 0.09829
913.80 0.09824
913.90 0.0982
914.00 0.09815
914.10 0.09811
914.20 0.09807
914.30 0.09802
914.40 0.09798
914.50 0.09793
914.60 0.09789
914.70 0.09785
914.80 0.0978
914.90 0.09776
915.00 0.09771
915.10 0.09767
915.20 0.09762
915.30 0.09758
915.40 0.09754
915.50 0.09749
915.60 0.09745
915.70 0.09741
915.80 0.09736
915.90 0.09732
916.00 0.09727
916.10 0.09723
916.20 0.09719
916.30 0.09714
916.40 0.0971
916.50 0.09705
916.60 0.09701
916.70 0.09697
916.80 0.09692
916.90 0.09688
917.00 0.09684
917.10 0.09679
917.20 0.09675
917.30 0.0967
917.40 0.09666
917.50 0.09661
917.60 0.09657
917.70 0.09652
917.80 0.09648
917.90 0.09643
918.00 0.09639
918.10 0.09634
918.20 0.0963
918.30 0.09625
918.40 0.09621
918.50 0.09616
918.60 0.09612
918.70 0.09607
918.80 0.09603
918.90 0.09598
919.00 0.09594
919.10 0.09589
919.20 0.09585
919.30 0.0958
919.40 0.09576
919.50 0.09571
919.60 0.09567
919.70 0.09563
919.80 0.09558
919.90 0.09554
920.00 0.09549
920.10 0.09545
920.20 0.0954
920.30 0.09536
920.40 0.09531
920.50 0.09527
920.60 0.09522
920.70 0.09518
920.80 0.09514
920.90 0.09509
921.00 0.09505
921.10 0.095
921.20 0.09496
921.30 0.09491
921.40 0.09487
921.50 0.09483
921.60 0.09478
921.70 0.09474
921.80 0.09469
921.90 0.09465
922.00 0.0946
922.10 0.09457
922.20 0.09453
922.30 0.0945
922.40 0.09446
922.50 0.09442
922.60 0.09439
922.70 0.09435
922.80 0.09432
922.90 0.09428
923.00 0.09424
923.10 0.09421
923.20 0.09417
923.30 0.09414
923.40 0.0941
923.50 0.09406
923.60 0.09403
923.70 0.09399
923.80 0.09396
923.90 0.09392
924.00 0.09388
924.10 0.09385
924.20 0.09381
924.30 0.09378
924.40 0.09374
924.50 0.0937
924.60 0.09367
924.70 0.09363
924.80 0.0936
924.90 0.09356
925.00 0.09353
925.10 0.09349
925.20 0.09345
925.30 0.09342
925.40 0.09338
925.50 0.09335
925.60 0.09331
925.70 0.09328
925.80 0.09324
925.90 0.0932
926.00 0.09317
926.10 0.09313
926.20 0.0931
926.30 0.09306
926.40 0.09303
926.50 0.09299
926.60 0.09295
926.70 0.09292
926.80 0.09288
926.90 0.09285
927.00 0.09281
927.10 0.09278
927.20 0.09274
927.30 0.09271
927.40 0.09268
927.50 0.09264
927.60 0.09261
927.70 0.09258
927.80 0.09254
927.90 0.09251
928.00 0.09247
928.10 0.09244
928.20 0.09241
928.30 0.09237
928.40 0.09234
928.50 0.09231
928.60 0.09227
928.70 0.09224
928.80 0.09221
928.90 0.09217
929.00 0.09214
929.10 0.0921
929.20 0.09207
929.30 0.09204
929.40 0.092
929.50 0.09197
929.60 0.09194
929.70 0.0919
929.80 0.09187
929.90 0.09184
930.00 0.0918
930.10 0.09177
930.20 0.09174
930.30 0.0917
930.40 0.09167
930.50 0.09164
930.60 0.0916
930.70 0.09157
930.80 0.09153
930.90 0.0915
931.00 0.09147
931.10 0.09143
931.20 0.0914
931.30 0.09137
931.40 0.09133
931.50 0.0913
931.60 0.09127
931.70 0.09123
931.80 0.0912
931.90 0.09117
932.00 0.09114
932.10 0.0911
932.20 0.09106
932.30 0.09103
932.40 0.09099
932.50 0.09096
932.60 0.09092
932.70 0.09089
932.80 0.09085
932.90 0.09082
933.00 0.09078
933.10 0.09075
933.20 0.09071
933.30 0.09068
933.40 0.09064
933.50 0.09061
933.60 0.09057
933.70 0.09054
933.80 0.0905
933.90 0.09047
934.00 0.09043
934.10 0.09039
934.20 0.09036
934.30 0.09032
934.40 0.09029
934.50 0.09025
934.60 0.09022
934.70 0.09018
934.80 0.09014
934.90 0.09011
935.00 0.09007
935.10 0.09003
935.20 0.09
935.30 0.08996
935.40 0.08993
935.50 0.08989
935.60 0.08985
935.70 0.08982
935.80 0.08978
935.90 0.08974
936.00 0.08971
936.10 0.08967
936.20 0.08964
936.30 0.0896
936.40 0.08956
936.50 0.08953
936.60 0.08949
936.70 0.08946
936.80 0.08942
936.90 0.08938
937.00 0.08935
937.10 0.08931
937.20 0.08927
937.30 0.08924
937.40 0.0892
937.50 0.08916
937.60 0.08913
937.70 0.08909
937.80 0.08905
937.90 0.08902
938.00 0.08898
938.10 0.08894
938.20 0.08891
938.30 0.08887
938.40 0.08883
938.50 0.08879
938.60 0.08876
938.70 0.08872
938.80 0.08868
938.90 0.08865
939.00 0.08861
939.10 0.08857
939.20 0.08853
939.30 0.0885
939.40 0.08846
939.50 0.08842
939.60 0.08838
939.70 0.08835
939.80 0.08831
939.90 0.08827
940.00 0.08823
940.10 0.0882
940.20 0.08816
940.30 0.08812
940.40 0.08808
940.50 0.08805
940.60 0.08801
940.70 0.08797
940.80 0.08793
940.90 0.08789
941.00 0.08786
941.10 0.08782
941.20 0.08778
941.30 0.08774
941.40 0.0877
941.50 0.08767
941.60 0.08763
941.70 0.08759
941.80 0.08755
941.90 0.08751
942.00 0.08748
942.10 0.08744
942.20 0.0874
942.30 0.08736
942.40 0.08732
942.50 0.08728
942.60 0.08724
942.70 0.0872
942.80 0.08716
942.90 0.08712
943.00 0.08709
943.10 0.08705
943.20 0.08701
943.30 0.08697
943.40 0.08693
943.50 0.08689
943.60 0.08685
943.70 0.08681
943.80 0.08677
943.90 0.08673
944.00 0.08669
944.10 0.08666
944.20 0.08662
944.30 0.08658
944.40 0.08654
944.50 0.0865
944.60 0.08646
944.70 0.08642
944.80 0.08638
944.90 0.08634
945.00 0.0863
945.10 0.08626
945.20 0.08622
945.30 0.08618
945.40 0.08613
945.50 0.08609
945.60 0.08605
945.70 0.08601
945.80 0.08597
945.90 0.08593
946.00 0.08589
946.10 0.08585
946.20 0.0858
946.30 0.08576
946.40 0.08572
946.50 0.08568
946.60 0.08564
946.70 0.0856
946.80 0.08556
946.90 0.08552
947.00 0.08548
947.10 0.08543
947.20 0.08539
947.30 0.08535
947.40 0.08531
947.50 0.08526
947.60 0.08522
947.70 0.08517
947.80 0.08513
947.90 0.08509
948.00 0.08504
948.10 0.085
948.20 0.08496
948.30 0.08491
948.40 0.08487
948.50 0.08483
948.60 0.08478
948.70 0.08474
948.80 0.0847
948.90 0.08465
949.00 0.08461
949.10 0.08457
949.20 0.08452
949.30 0.08448
949.40 0.08444
949.50 0.08439
949.60 0.08434
949.70 0.0843
949.80 0.08425
949.90 0.08421
950.00 0.08416
950.10 0.08412
950.20 0.08407
950.30 0.08403
950.40 0.08398
950.50 0.08394
950.60 0.08389
950.70 0.08384
950.80 0.0838
950.90 0.08375
951.00 0.08371
951.10 0.08366
951.20 0.08362
951.30 0.08357
951.40 0.08353
951.50 0.08348
951.60 0.08344
951.70 0.08339
951.80 0.08334
951.90 0.0833
952.00 0.08325
952.10 0.08321
952.20 0.08316
952.30 0.08312
952.40 0.08307
952.50 0.08303
952.60 0.08298
952.70 0.08294
952.80 0.08289
952.90 0.08285
953.00 0.08281
953.10 0.08277
953.20 0.08273
953.30 0.08269
953.40 0.08265
953.50 0.0826
953.60 0.08257
953.70 0.08253
953.80 0.08249
953.90 0.08246
954.00 0.08243
954.10 0.08239
954.20 0.08237
954.30 0.08234
954.40 0.08232
954.50 0.0823
954.60 0.08226
954.70 0.08223
954.80 0.08219
954.90 0.08215
955.00 0.08211
955.10 0.08206
955.20 0.08203
955.30 0.082
955.40 0.08197
955.50 0.08194
955.60 0.08191
955.70 0.08188
955.80 0.08185
955.90 0.08183
956.00 0.08181
956.10 0.08178
956.20 0.08176
956.30 0.08174
956.40 0.08171
956.50 0.08169
956.60 0.08167
956.70 0.08164
956.80 0.08162
956.90 0.0816
957.00 0.08158
957.10 0.08155
957.20 0.08153
957.30 0.08151
957.40 0.08149
957.50 0.08147
957.60 0.08145
957.70 0.08143
957.80 0.08141
957.90 0.08138
958.00 0.08136
958.10 0.08134
958.20 0.08132
958.30 0.0813
958.40 0.08128
958.50 0.08126
958.60 0.08124
958.70 0.08121
958.80 0.08119
958.90 0.08117
959.00 0.08115
959.10 0.08113
959.20 0.08111
959.30 0.08109
959.40 0.08106
959.50 0.08104
959.60 0.08102
959.70 0.08099
959.80 0.08097
959.90 0.08095
960.00 0.08093
960.10 0.0809
960.20 0.08088
960.30 0.08086
960.40 0.08083
960.50 0.08081
960.60 0.08079
960.70 0.08076
960.80 0.08074
960.90 0.08072
961.00 0.08069
961.10 0.08067
961.20 0.08065
961.30 0.08062
961.40 0.0806
961.50 0.08057
961.60 0.08055
961.70 0.08052
961.80 0.0805
961.90 0.08047
962.00 0.08045
962.10 0.08042
962.20 0.0804
962.30 0.08037
962.40 0.08035
962.50 0.08032
962.60 0.08029
962.70 0.08027
962.80 0.08024
962.90 0.08022
963.00 0.08019
963.10 0.08016
963.20 0.08014
963.30 0.08011
963.40 0.08009
963.50 0.08006
963.60 0.08003
963.70 0.08
963.80 0.07998
963.90 0.07995
964.00 0.07992
964.10 0.0799
964.20 0.07987
964.30 0.07984
964.40 0.07982
964.50 0.07979
964.60 0.07976
964.70 0.07973
964.80 0.0797
964.90 0.07968
965.00 0.07965
965.10 0.07962
965.20 0.07959
965.30 0.07956
965.40 0.07954
965.50 0.07951
965.60 0.07948
965.70 0.07945
965.80 0.07942
965.90 0.0794
966.00 0.07937
966.10 0.07934
966.20 0.07931
966.30 0.07928
966.40 0.07926
966.50 0.07923
966.60 0.0792
966.70 0.07917
966.80 0.07914
966.90 0.07911
967.00 0.07908
967.10 0.07905
967.20 0.07903
967.30 0.079
967.40 0.07897
967.50 0.07894
967.60 0.07891
967.70 0.07888
967.80 0.07885
967.90 0.07882
968.00 0.07879
968.10 0.07876
968.20 0.07874
968.30 0.07871
968.40 0.07868
968.50 0.07865
968.60 0.07862
968.70 0.07859
968.80 0.07856
968.90 0.07853
969.00 0.0785
969.10 0.07847
969.20 0.07844
969.30 0.07841
969.40 0.07838
969.50 0.07835
969.60 0.07832
969.70 0.07829
969.80 0.07826
969.90 0.07823
970.00 0.0782
970.10 0.07817
970.20 0.07815
970.30 0.07812
970.40 0.07809
970.50 0.07806
970.60 0.07803
970.70 0.078
970.80 0.07797
970.90 0.07794
971.00 0.07791
971.10 0.07788
971.20 0.07785
971.30 0.07782
971.40 0.07779
971.50 0.07776
971.60 0.07773
971.70 0.0777
971.80 0.07767
971.90 0.07764
972.00 0.07761
972.10 0.07758
972.20 0.07755
972.30 0.07752
972.40 0.07749
972.50 0.07746
972.60 0.07743
972.70 0.0774
972.80 0.07737
972.90 0.07734
973.00 0.07731
973.10 0.07728
973.20 0.07725
973.30 0.07722
973.40 0.07719
973.50 0.07716
973.60 0.07713
973.70 0.0771
973.80 0.07707
973.90 0.07704
974.00 0.07701
974.10 0.07698
974.20 0.07695
974.30 0.07692
974.40 0.07689
974.50 0.07686
974.60 0.07683
974.70 0.0768
974.80 0.07677
974.90 0.07674
975.00 0.07671
975.10 0.07668
975.20 0.07665
975.30 0.07662
975.40 0.07659
975.50 0.07656
975.60 0.07653
975.70 0.0765
975.80 0.07647
975.90 0.07644
976.00 0.07641
976.10 0.07638
976.20 0.07635
976.30 0.07632
976.40 0.07629
976.50 0.07626
976.60 0.07623
976.70 0.0762
976.80 0.07617
976.90 0.07614
977.00 0.07611
977.10 0.07608
977.20 0.07605
977.30 0.07602
977.40 0.07599
977.50 0.07596
977.60 0.07593
977.70 0.0759
977.80 0.07587
977.90 0.07584
978.00 0.07581
978.10 0.07578
978.20 0.07575
978.30 0.07572
978.40 0.07569
978.50 0.07566
978.60 0.07563
978.70 0.0756
978.80 0.07557
978.90 0.07554
979.00 0.07551
979.10 0.07548
979.20 0.07545
979.30 0.07542
979.40 0.07539
979.50 0.07536
979.60 0.07533
979.70 0.0753
979.80 0.07527
979.90 0.07524
980.00 0.07521
980.10 0.07518
980.20 0.07515
980.30 0.07512
980.40 0.07509
980.50 0.07506
980.60 0.07503
980.70 0.075
980.80 0.07497
980.90 0.07494
981.00 0.07491
981.10 0.07488
981.20 0.07485
981.30 0.07482
981.40 0.07479
981.50 0.07476
981.60 0.07473
981.70 0.0747
981.80 0.07467
981.90 0.07464
982.00 0.07461
982.10 0.07458
982.20 0.07455
982.30 0.07452
982.40 0.07449
982.50 0.07446
982.60 0.07443
982.70 0.0744
982.80 0.07437
982.90 0.07434
983.00 0.07431
983.10 0.07428
983.20 0.07425
983.30 0.07422
983.40 0.07419
983.50 0.07416
983.60 0.07413
983.70 0.0741
983.80 0.07407
983.90 0.07404
984.00 0.07401
984.10 0.07399
984.20 0.07396
984.30 0.07393
984.40 0.0739
984.50 0.07387
984.60 0.07384
984.70 0.07381
984.80 0.07378
984.90 0.07375
985.00 0.07372
985.10 0.07369
985.20 0.07366
985.30 0.07363
985.40 0.0736
985.50 0.07357
985.60 0.07354
985.70 0.07351
985.80 0.07348
985.90 0.07345
986.00 0.07342
986.10 0.07339
986.20 0.07336
986.30 0.07333
986.40 0.0733
986.50 0.07327
986.60 0.07324
986.70 0.07321
986.80 0.07318
986.90 0.07315
987.00 0.07312
987.10 0.07309
987.20 0.07306
987.30 0.07303
987.40 0.073
987.50 0.07297
987.60 0.07294
987.70 0.07291
987.80 0.07288
987.90 0.07285
988.00 0.07282
988.10 0.07279
988.20 0.07276
988.30 0.07273
988.40 0.0727
988.50 0.07267
988.60 0.07264
988.70 0.07261
988.80 0.07258
988.90 0.07255
989.00 0.07252
989.10 0.07249
989.20 0.07246
989.30 0.07242
989.40 0.07239
989.50 0.07236
989.60 0.07233
989.70 0.0723
989.80 0.07227
989.90 0.07224
990.00 0.07221
990.10 0.07218
990.20 0.07215
990.30 0.07212
990.40 0.07209
990.50 0.07206
990.60 0.07203
990.70 0.072
990.80 0.07197
990.90 0.07194
991.00 0.07191
991.10 0.07188
991.20 0.07184
991.30 0.07181
991.40 0.07178
991.50 0.07175
991.60 0.07172
991.70 0.07169
991.80 0.07166
991.90 0.07163
992.00 0.0716
992.10 0.07157
992.20 0.07153
992.30 0.0715
992.40 0.07147
992.50 0.07144
992.60 0.07141
992.70 0.07138
992.80 0.07134
992.90 0.07131
993.00 0.07128
993.10 0.07125
993.20 0.07122
993.30 0.07118
993.40 0.07115
993.50 0.07112
993.60 0.07109
993.70 0.07105
993.80 0.07102
993.90 0.07099
994.00 0.07096
994.10 0.07092
994.20 0.07089
994.30 0.07086
994.40 0.07083
994.50 0.0708
994.60 0.07076
994.70 0.07073
994.80 0.0707
994.90 0.07066
995.00 0.07063
995.10 0.0706
995.20 0.07056
995.30 0.07053
995.40 0.07049
995.50 0.07046
995.60 0.07043
995.70 0.07039
995.80 0.07036
995.90 0.07032
996.00 0.07029
996.10 0.07025
996.20 0.07022
996.30 0.07018
996.40 0.07015
996.50 0.07011
996.60 0.07008
996.70 0.07004
996.80 0.07001
996.90 0.06997
997.00 0.06994
997.10 0.0699
997.20 0.06986
997.30 0.06983
997.40 0.06979
997.50 0.06975
997.60 0.06972
997.70 0.06968
997.80 0.06964
997.90 0.0696
998.00 0.06956
998.10 0.06952
998.20 0.06948
998.30 0.06944
998.40 0.0694
998.50 0.06936
998.60 0.06932
998.70 0.06928
998.80 0.06924
998.90 0.0692
999.00 0.06916
999.10 0.06912
999.20 0.06908
999.30 0.06904
999.40 0.069
999.50 0.06896
999.60 0.06893
999.70 0.06888
999.80 0.06884
999.90 0.06879
1000.00 0.06874
1000.10 0.0687
1000.20 0.06865
1000.30 0.06861
1000.40 0.06856
1000.50 0.06852
1000.60 0.06847
1000.70 0.06843
1000.80 0.06838
1000.90 0.06834
1001.00 0.06829
1001.10 0.06825
1001.20 0.0682
1001.30 0.06816
1001.40 0.06811
1001.50 0.06807
1001.60 0.06802
1001.70 0.06797
1001.80 0.06793
1001.90 0.06788
1002.00 0.06783
1002.10 0.06778
1002.20 0.06774
1002.30 0.06769
1002.40 0.06764
1002.50 0.06759
1002.60 0.06755
1002.70 0.0675
1002.80 0.06745
1002.90 0.0674
1003.00 0.06736
1003.10 0.06731
1003.20 0.06727
1003.30 0.06722
1003.40 0.06718
1003.50 0.06714
1003.60 0.0671
1003.70 0.06706
1003.80 0.06702
1003.90 0.06699
1004.00 0.06696
1004.10 0.06694
1004.20 0.06691
1004.30 0.0669
1004.40 0.0669
1004.50 0.0669
1004.60 0.06693
1004.70 0.06696
1004.80 0.06699
1004.90 0.06698
1005.00 0.06696
1005.10 0.0669
1005.20 0.06682
1005.30 0.06674
1005.40 0.06666
1005.50 0.06662
1005.60 0.06659
1005.70 0.06656
1005.80 0.06653
1005.90 0.0665
1006.00 0.06647
1006.10 0.06644
1006.20 0.06642
1006.30 0.06642
1006.40 0.06641
1006.50 0.0664
1006.60 0.06639
1006.70 0.06639
1006.80 0.06638
1006.90 0.06637
1007.00 0.06636
1007.10 0.06636
1007.20 0.06636
1007.30 0.06635
1007.40 0.06635
1007.50 0.06635
1007.60 0.06634
1007.70 0.06634
1007.80 0.06633
1007.90 0.06632
1008.00 0.06632
1008.10 0.06631
1008.20 0.0663
1008.30 0.0663
1008.40 0.06629
1008.50 0.06629
1008.60 0.06628
1008.70 0.06627
1008.80 0.06627
1008.90 0.06626
1009.00 0.06625
1009.10 0.06625
1009.20 0.06624
1009.30 0.06623
1009.40 0.06623
1009.50 0.06622
1009.60 0.06622
1009.70 0.06621
1009.80 0.06619
1009.90 0.06618
1010.00 0.06617
1010.10 0.06616
1010.20 0.06615
1010.30 0.06613
1010.40 0.06612
1010.50 0.06611
1010.60 0.0661
1010.70 0.06608
1010.80 0.06607
1010.90 0.06606
1011.00 0.06605
1011.10 0.06604
1011.20 0.06602
1011.30 0.06601
1011.40 0.066
1011.50 0.06599
1011.60 0.06598
1011.70 0.06596
1011.80 0.06595
1011.90 0.06593
1012.00 0.06592
1012.10 0.0659
1012.20 0.06588
1012.30 0.06587
1012.40 0.06585
1012.50 0.06583
1012.60 0.06582
1012.70 0.0658
1012.80 0.06578
1012.90 0.06577
1013.00 0.06575
1013.10 0.06573
1013.20 0.06571
1013.30 0.0657
1013.40 0.06568
1013.50 0.06566
1013.60 0.06565
1013.70 0.06563
1013.80 0.06561
1013.90 0.06559
1014.00 0.06557
1014.10 0.06555
1014.20 0.06553
1014.30 0.06552
1014.40 0.0655
1014.50 0.06548
1014.60 0.06546
1014.70 0.06544
1014.80 0.06542
1014.90 0.0654
1015.00 0.06538
1015.10 0.06536
1015.20 0.06534
1015.30 0.06532
1015.40 0.06529
1015.50 0.06527
1015.60 0.06525
1015.70 0.06523
1015.80 0.06521
1015.90 0.06519
1016.00 0.06517
1016.10 0.06515
1016.20 0.06513
1016.30 0.06511
1016.40 0.06509
1016.50 0.06507
1016.60 0.06505
1016.70 0.06503
1016.80 0.06501
1016.90 0.06498
1017.00 0.06496
1017.10 0.06494
1017.20 0.06492
1017.30 0.0649
1017.40 0.06487
1017.50 0.06485
1017.60 0.06483
1017.70 0.06481
1017.80 0.06479
1017.90 0.06476
1018.00 0.06474
1018.10 0.06472
1018.20 0.0647
1018.30 0.06468
1018.40 0.06466
1018.50 0.06463
1018.60 0.06461
1018.70 0.06459
1018.80 0.06457
1018.90 0.06454
1019.00 0.06452
1019.10 0.0645
1019.20 0.06448
1019.30 0.06445
1019.40 0.06443
1019.50 0.06441
1019.60 0.06438
1019.70 0.06436
1019.80 0.06434
1019.90 0.06432
1020.00 0.06429
1020.10 0.06427
1020.20 0.06425
1020.30 0.06423
1020.40 0.0642
1020.50 0.06418
1020.60 0.06416
1020.70 0.06414
1020.80 0.06411
1020.90 0.06409
1021.00 0.06407
1021.10 0.06404
1021.20 0.06402
1021.30 0.064
1021.40 0.06397
1021.50 0.06395
1021.60 0.06393
1021.70 0.06391
1021.80 0.06388
1021.90 0.06386
1022.00 0.06384
1022.10 0.06381
1022.20 0.06379
1022.30 0.06377
1022.40 0.06374
1022.50 0.06372
1022.60 0.0637
1022.70 0.06367
1022.80 0.06365
1022.90 0.06363
1023.00 0.0636
1023.10 0.06358
1023.20 0.06356
1023.30 0.06353
1023.40 0.06351
1023.50 0.06349
1023.60 0.06346
1023.70 0.06344
1023.80 0.06342
1023.90 0.0634
1024.00 0.06337
1024.10 0.06335
1024.20 0.06333
1024.30 0.0633
1024.40 0.06328
1024.50 0.06326
1024.60 0.06323
1024.70 0.06321
1024.80 0.06319
1024.90 0.06316
1025.00 0.06314
1025.10 0.06312
1025.20 0.06309
1025.30 0.06307
1025.40 0.06305
1025.50 0.06302
1025.60 0.063
1025.70 0.06298
1025.80 0.06295
1025.90 0.06293
1026.00 0.06291
1026.10 0.06288
1026.20 0.06286
1026.30 0.06284
1026.40 0.06281
1026.50 0.06279
1026.60 0.06277
1026.70 0.06274
1026.80 0.06272
1026.90 0.0627
1027.00 0.06267
1027.10 0.06265
1027.20 0.06263
1027.30 0.06261
1027.40 0.06258
1027.50 0.06256
1027.60 0.06254
1027.70 0.06251
1027.80 0.06249
1027.90 0.06247
1028.00 0.06244
1028.10 0.06242
1028.20 0.0624
1028.30 0.06237
1028.40 0.06235
1028.50 0.06233
1028.60 0.0623
1028.70 0.06228
1028.80 0.06226
1028.90 0.06223
1029.00 0.06221
1029.10 0.06219
1029.20 0.06216
1029.30 0.06214
1029.40 0.06212
1029.50 0.06209
1029.60 0.06207
1029.70 0.06205
1029.80 0.06203
1029.90 0.062
1030.00 0.06198
1030.10 0.06196
1030.20 0.06193
1030.30 0.06191
1030.40 0.06189
1030.50 0.06186
1030.60 0.06184
1030.70 0.06182
1030.80 0.06179
1030.90 0.06177
1031.00 0.06175
1031.10 0.06173
1031.20 0.0617
1031.30 0.06168
1031.40 0.06166
1031.50 0.06163
1031.60 0.06161
1031.70 0.06159
1031.80 0.06156
1031.90 0.06154
1032.00 0.06152
1032.10 0.0615
1032.20 0.06147
1032.30 0.06145
1032.40 0.06143
1032.50 0.0614
1032.60 0.06138
1032.70 0.06136
1032.80 0.06134
1032.90 0.06131
1033.00 0.06129
1033.10 0.06127
1033.20 0.06124
1033.30 0.06122
1033.40 0.0612
1033.50 0.06118
1033.60 0.06115
1033.70 0.06113
1033.80 0.06111
1033.90 0.06108
1034.00 0.06106
1034.10 0.06104
1034.20 0.06102
1034.30 0.06099
1034.40 0.06097
1034.50 0.06095
1034.60 0.06092
1034.70 0.0609
1034.80 0.06088
1034.90 0.06086
1035.00 0.06083
1035.10 0.06081
1035.20 0.06079
1035.30 0.06077
1035.40 0.06074
1035.50 0.06072
1035.60 0.0607
1035.70 0.06067
1035.80 0.06065
1035.90 0.06063
1036.00 0.06061
1036.10 0.06058
1036.20 0.06056
1036.30 0.06054
1036.40 0.06052
1036.50 0.06049
1036.60 0.06047
1036.70 0.06045
1036.80 0.06043
1036.90 0.0604
1037.00 0.06038
1037.10 0.06036
1037.20 0.06034
1037.30 0.06031
1037.40 0.06029
1037.50 0.06027
1037.60 0.06025
1037.70 0.06022
1037.80 0.0602
1037.90 0.06018
1038.00 0.06016
1038.10 0.06013
1038.20 0.06011
1038.30 0.06009
1038.40 0.06007
1038.50 0.06004
1038.60 0.06002
1038.70 0.06
1038.80 0.05998
1038.90 0.05995
1039.00 0.05993
1039.10 0.05991
1039.20 0.05989
1039.30 0.05987
1039.40 0.05984
1039.50 0.05982
1039.60 0.0598
1039.70 0.05978
1039.80 0.05975
1039.90 0.05973
1040.00 0.05971
1040.10 0.05969
1040.20 0.05966
1040.30 0.05964
1040.40 0.05962
1040.50 0.0596
1040.60 0.05958
1040.70 0.05955
1040.80 0.05953
1040.90 0.05951
1041.00 0.05949
1041.10 0.05946
1041.20 0.05944
1041.30 0.05942
1041.40 0.0594
1041.50 0.05938
1041.60 0.05935
1041.70 0.05933
1041.80 0.05931
1041.90 0.05929
1042.00 0.05926
1042.10 0.05924
1042.20 0.05922
1042.30 0.0592
1042.40 0.05918
1042.50 0.05915
1042.60 0.05913
1042.70 0.05911
1042.80 0.05909
1042.90 0.05907
1043.00 0.05904
1043.10 0.05902
1043.20 0.059
1043.30 0.05898
1043.40 0.05896
1043.50 0.05894
1043.60 0.05891
1043.70 0.05889
1043.80 0.05887
1043.90 0.05885
1044.00 0.05883
1044.10 0.0588
1044.20 0.05878
1044.30 0.05876
1044.40 0.05874
1044.50 0.05872
1044.60 0.05869
1044.70 0.05867
1044.80 0.05865
1044.90 0.05863
1045.00 0.05861
1045.10 0.05859
1045.20 0.05856
1045.30 0.05854
1045.40 0.05852
1045.50 0.0585
1045.60 0.05848
1045.70 0.05845
1045.80 0.05843
1045.90 0.05841
1046.00 0.05839
1046.10 0.05837
1046.20 0.05835
1046.30 0.05832
1046.40 0.0583
1046.50 0.05828
1046.60 0.05826
1046.70 0.05824
1046.80 0.05822
1046.90 0.05819
1047.00 0.05817
1047.10 0.05815
1047.20 0.05813
1047.30 0.05811
1047.40 0.05809
1047.50 0.05806
1047.60 0.05804
1047.70 0.05802
1047.80 0.058
1047.90 0.05798
1048.00 0.05796
1048.10 0.05794
1048.20 0.05791
1048.30 0.05789
1048.40 0.05787
1048.50 0.05785
1048.60 0.05783
1048.70 0.05781
1048.80 0.05778
1048.90 0.05776
1049.00 0.05774
1049.10 0.05772
1049.20 0.0577
1049.30 0.05768
1049.40 0.05766
1049.50 0.05764
1049.60 0.05761
1049.70 0.05759
1049.80 0.05757
1049.90 0.05755
1050.00 0.05753
1050.10 0.05751
1050.20 0.05749
1050.30 0.05746
1050.40 0.05744
1050.50 0.05742
1050.60 0.0574
1050.70 0.05738
1050.80 0.05736
1050.90 0.05734
1051.00 0.05732
1051.10 0.05729
1051.20 0.05727
1051.30 0.05725
1051.40 0.05723
1051.50 0.05721
1051.60 0.05719
1051.70 0.05717
1051.80 0.05715
1051.90 0.05712
1052.00 0.0571
1052.10 0.05708
1052.20 0.05706
1052.30 0.05704
1052.40 0.05702
1052.50 0.057
1052.60 0.05698
1052.70 0.05696
1052.80 0.05693
1052.90 0.05691
1053.00 0.05689
1053.10 0.05687
1053.20 0.05685
1053.30 0.05683
1053.40 0.05681
1053.50 0.05679
1053.60 0.05677
1053.70 0.05674
1053.80 0.05672
1053.90 0.0567
1054.00 0.05668
1054.10 0.05666
1054.20 0.05664
1054.30 0.05662
1054.40 0.0566
1054.50 0.05658
1054.60 0.05656
1054.70 0.05654
1054.80 0.05651
1054.90 0.05649
1055.00 0.05647
1055.10 0.05645
1055.20 0.05643
1055.30 0.05641
1055.40 0.05639
1055.50 0.05637
1055.60 0.05635
1055.70 0.05633
1055.80 0.05631
1055.90 0.05628
1056.00 0.05626
1056.10 0.05624
1056.20 0.05622
1056.30 0.0562
1056.40 0.05618
1056.50 0.05616
1056.60 0.05614
1056.70 0.05612
1056.80 0.0561
1056.90 0.05608
1057.00 0.05606
1057.10 0.05604
1057.20 0.05601
1057.30 0.05599
1057.40 0.05597
1057.50 0.05595
1057.60 0.05593
1057.70 0.05591
1057.80 0.05589
1057.90 0.05587
1058.00 0.05585
1058.10 0.05583
1058.20 0.05581
1058.30 0.05579
1058.40 0.05577
1058.50 0.05575
1058.60 0.05573
1058.70 0.05571
1058.80 0.05568
1058.90 0.05566
1059.00 0.05564
1059.10 0.05562
1059.20 0.0556
1059.30 0.05558
1059.40 0.05556
1059.50 0.05554
1059.60 0.05552
1059.70 0.0555
1059.80 0.05548
1059.90 0.05546
1060.00 0.05544
1060.10 0.05542
1060.20 0.0554
1060.30 0.05538
1060.40 0.05536
1060.50 0.05534
1060.60 0.05532
1060.70 0.0553
1060.80 0.05527
1060.90 0.05525
1061.00 0.05523
1061.10 0.05521
1061.20 0.05519
1061.30 0.05517
1061.40 0.05515
1061.50 0.05513
1061.60 0.05511
1061.70 0.05509
1061.80 0.05507
1061.90 0.05505
1062.00 0.05503
1062.10 0.05501
1062.20 0.05499
1062.30 0.05497
1062.40 0.05495
1062.50 0.05493
1062.60 0.05491
1062.70 0.05489
1062.80 0.05487
1062.90 0.05485
1063.00 0.05483
1063.10 0.05481
1063.20 0.05479
1063.30 0.05477
1063.40 0.05475
1063.50 0.05473
1063.60 0.05471
1063.70 0.05469
1063.80 0.05467
1063.90 0.05465
1064.00 0.05463
1064.10 0.05461
1064.20 0.05459
1064.30 0.05456
1064.40 0.05454
1064.50 0.05452
1064.60 0.0545
1064.70 0.05448
1064.80 0.05446
1064.90 0.05444
1065.00 0.05442
1065.10 0.0544
1065.20 0.05438
1065.30 0.05436
1065.40 0.05434
1065.50 0.05432
1065.60 0.0543
1065.70 0.05428
1065.80 0.05426
1065.90 0.05424
1066.00 0.05422
1066.10 0.0542
1066.20 0.05418
1066.30 0.05416
1066.40 0.05414
1066.50 0.05412
1066.60 0.0541
1066.70 0.05408
1066.80 0.05406
1066.90 0.05404
1067.00 0.05402
1067.10 0.054
1067.20 0.05398
1067.30 0.05396
1067.40 0.05394
1067.50 0.05392
1067.60 0.0539
1067.70 0.05388
1067.80 0.05386
1067.90 0.05384
1068.00 0.05382
1068.10 0.0538
1068.20 0.05378
1068.30 0.05376
1068.40 0.05374
1068.50 0.05372
1068.60 0.0537
1068.70 0.05368
1068.80 0.05366
1068.90 0.05364
1069.00 0.05362
1069.10 0.0536
1069.20 0.05358
1069.30 0.05356
1069.40 0.05355
1069.50 0.05353
1069.60 0.05351
1069.70 0.05349
1069.80 0.05347
1069.90 0.05345
1070.00 0.05343
1070.10 0.05341
1070.20 0.05339
1070.30 0.05337
1070.40 0.05335
1070.50 0.05333
1070.60 0.05331
1070.70 0.05329
1070.80 0.05327
1070.90 0.05325
1071.00 0.05323
1071.10 0.05321
1071.20 0.05319
1071.30 0.05317
1071.40 0.05315
1071.50 0.05313
1071.60 0.05311
1071.70 0.05309
1071.80 0.05307
1071.90 0.05305
1072.00 0.05303
1072.10 0.05301
1072.20 0.05299
1072.30 0.05297
1072.40 0.05295
1072.50 0.05293
1072.60 0.05291
1072.70 0.05289
1072.80 0.05287
1072.90 0.05285
1073.00 0.05283
1073.10 0.05281
1073.20 0.05279
1073.30 0.05277
1073.40 0.05275
1073.50 0.05273
1073.60 0.05271
1073.70 0.05269
1073.80 0.05267
1073.90 0.05265
1074.00 0.05263
1074.10 0.05261
1074.20 0.05259
1074.30 0.05257
1074.40 0.05255
1074.50 0.05254
1074.60 0.05252
1074.70 0.0525
1074.80 0.05248
1074.90 0.05246
1075.00 0.05244
1075.10 0.05242
1075.20 0.0524
1075.30 0.05238
1075.40 0.05236
1075.50 0.05234
1075.60 0.05232
1075.70 0.0523
1075.80 0.05228
1075.90 0.05226
1076.00 0.05224
1076.10 0.05222
1076.20 0.0522
1076.30 0.05218
1076.40 0.05216
1076.50 0.05214
1076.60 0.05212
1076.70 0.0521
1076.80 0.05208
1076.90 0.05206
1077.00 0.05204
1077.10 0.05202
1077.20 0.052
1077.30 0.05198
1077.40 0.05196
1077.50 0.05194
1077.60 0.05192
1077.70 0.0519
1077.80 0.05188
1077.90 0.05186
1078.00 0.05184
1078.10 0.05182
1078.20 0.0518
1078.30 0.05178
1078.40 0.05176
1078.50 0.05174
1078.60 0.05172
1078.70 0.0517
1078.80 0.05168
1078.90 0.05166
1079.00 0.05164
1079.10 0.05162
1079.20 0.0516
1079.30 0.05158
1079.40 0.05156
1079.50 0.05154
1079.60 0.05151
1079.70 0.05149
1079.80 0.05147
1079.90 0.05145
1080.00 0.05143
1080.10 0.05141
1080.20 0.05139
1080.30 0.05137
1080.40 0.05135
1080.50 0.05133
1080.60 0.05131
1080.70 0.05129
1080.80 0.05126
1080.90 0.05124
1081.00 0.05122
1081.10 0.0512
1081.20 0.05118
1081.30 0.05116
1081.40 0.05114
1081.50 0.05112
1081.60 0.0511
1081.70 0.05108
1081.80 0.05105
1081.90 0.05103
1082.00 0.05101
1082.10 0.05099
1082.20 0.05097
1082.30 0.05095
1082.40 0.05092
1082.50 0.0509
1082.60 0.05088
1082.70 0.05086
1082.80 0.05084
1082.90 0.05081
1083.00 0.05079
1083.10 0.05077
1083.20 0.05075
1083.30 0.05073
1083.40 0.0507
1083.50 0.05068
1083.60 0.05066
1083.70 0.05063
1083.80 0.05061
1083.90 0.05059
1084.00 0.05057
1084.10 0.05054
1084.20 0.05052
1084.30 0.0505
1084.40 0.05047
1084.50 0.05045
1084.60 0.05042
1084.70 0.0504
1084.80 0.05037
1084.90 0.05035
1085.00 0.05032
1085.10 0.0503
1085.20 0.05027
1085.30 0.05025
1085.40 0.05022
1085.50 0.0502
1085.60 0.05017
1085.70 0.05015
1085.80 0.05012
1085.90 0.05009
1086.00 0.05007
1086.10 0.05004
1086.20 0.05002
1086.30 0.04999
1086.40 0.04997
1086.50 0.04994
1086.60 0.04992
1086.70 0.04989
1086.80 0.04986
1086.90 0.04983
1087.00 0.0498
1087.10 0.04977
1087.20 0.04974
1087.30 0.04971
1087.40 0.04968
1087.50 0.04965
1087.60 0.04962
1087.70 0.04959
1087.80 0.04956
1087.90 0.04953
1088.00 0.0495
1088.10 0.04947
1088.20 0.04944
1088.30 0.04941
1088.40 0.04938
1088.50 0.04935
1088.60 0.04931
1088.70 0.04928
1088.80 0.04924
1088.90 0.04921
1089.00 0.04917
1089.10 0.04914
1089.20 0.0491
1089.30 0.04906
1089.40 0.04903
1089.50 0.04899
1089.60 0.04896
1089.70 0.04892
1089.80 0.04889
1089.90 0.04885
1090.00 0.04881
1090.10 0.04878
1090.20 0.04874
1090.30 0.04871
1090.40 0.04867
1090.50 0.04864
1090.60 0.0486
1090.70 0.04856
1090.80 0.04852
1090.90 0.04848
1091.00 0.04844
1091.10 0.0484
1091.20 0.04836
1091.30 0.04833
1091.40 0.04829
1091.50 0.04825
1091.60 0.04821
1091.70 0.04817
1091.80 0.04813
1091.90 0.04809
1092.00 0.04806
1092.10 0.04802
1092.20 0.04799
1092.30 0.04796
1092.40 0.04793
1092.50 0.0479
1092.60 0.04787
1092.70 0.04784
1092.80 0.04783
1092.90 0.04781
1093.00 0.0478
1093.10 0.04779
1093.20 0.04779
1093.30 0.0478
1093.40 0.04782
1093.50 0.04784
1093.60 0.04791
1093.70 0.04796
1093.80 0.04799
1093.90 0.04799
1094.00 0.0479
1094.10 0.0478
1094.20 0.04771
1094.30 0.04764
1094.40 0.04761
1094.50 0.04759
1094.60 0.04756
1094.70 0.04754
1094.80 0.04751
1094.90 0.04748
1095.00 0.04747
1095.10 0.04747
1095.20 0.04747
1095.30 0.04747
1095.40 0.04747
1095.50 0.04748
1095.60 0.04748
1095.70 0.04748
1095.80 0.04748
1095.90 0.04748
1096.00 0.04748
1096.10 0.04748
1096.20 0.04749
1096.30 0.04749
1096.40 0.04749
1096.50 0.04749
1096.60 0.0475
1096.70 0.0475
1096.80 0.04751
1096.90 0.04751
1097.00 0.04752
1097.10 0.04752
1097.20 0.04752
1097.30 0.04752
1097.40 0.04753
1097.50 0.04753
1097.60 0.04753
1097.70 0.04753
1097.80 0.04754
1097.90 0.04754
1098.00 0.04754
1098.10 0.04754
1098.20 0.04754
1098.30 0.04755
1098.40 0.04755
1098.50 0.04755
1098.60 0.04755
1098.70 0.04754
1098.80 0.04754
1098.90 0.04753
1099.00 0.04753
1099.10 0.04753
1099.20 0.04752
1099.30 0.04752
1099.40 0.04752
1099.50 0.04751
1099.60 0.04751
1099.70 0.04751
1099.80 0.0475
1099.90 0.0475
1100.00 0.0475
1100.10 0.04749
1100.20 0.04749
1100.30 0.04748
1100.40 0.04748
1100.50 0.04748
1100.60 0.04747
1100.70 0.04746
1100.80 0.04745
1100.90 0.04744
1101.00 0.04743
1101.10 0.04743
1101.20 0.04742
1101.30 0.04741
1101.40 0.0474
1101.50 0.04739
1101.60 0.04739
1101.70 0.04738
1101.80 0.04737
1101.90 0.04736
1102.00 0.04735
1102.10 0.04734
1102.20 0.04733
1102.30 0.04732
1102.40 0.04731
1102.50 0.0473
1102.60 0.04729
1102.70 0.04728
1102.80 0.04727
1102.90 0.04726
1103.00 0.04724
1103.10 0.04723
1103.20 0.04722
1103.30 0.04721
1103.40 0.0472
1103.50 0.04719
1103.60 0.04717
1103.70 0.04716
1103.80 0.04715
1103.90 0.04714
1104.00 0.04712
1104.10 0.04711
1104.20 0.0471
1104.30 0.04708
1104.40 0.04707
1104.50 0.04706
1104.60 0.04705
1104.70 0.04703
1104.80 0.04702
1104.90 0.04701
1105.00 0.04699
1105.10 0.04698
1105.20 0.04697
1105.30 0.04696
1105.40 0.04694
1105.50 0.04693
1105.60 0.04692
1105.70 0.0469
1105.80 0.04689
1105.90 0.04687
1106.00 0.04686
1106.10 0.04685
1106.20 0.04683
1106.30 0.04682
1106.40 0.0468
1106.50 0.04679
1106.60 0.04677
1106.70 0.04676
1106.80 0.04675
1106.90 0.04673
1107.00 0.04672
1107.10 0.0467
1107.20 0.04669
1107.30 0.04668
1107.40 0.04666
1107.50 0.04665
1107.60 0.04663
1107.70 0.04662
1107.80 0.0466
1107.90 0.04659
1108.00 0.04657
1108.10 0.04656
1108.20 0.04654
1108.30 0.04653
1108.40 0.04651
1108.50 0.0465
1108.60 0.04648
1108.70 0.04647
1108.80 0.04645
1108.90 0.04644
1109.00 0.04642
1109.10 0.04641
1109.20 0.04639
1109.30 0.04638
1109.40 0.04636
1109.50 0.04635
1109.60 0.04633
1109.70 0.04632
1109.80 0.0463
1109.90 0.04629
1110.00 0.04627
1110.10 0.04626
1110.20 0.04624
1110.30 0.04623
1110.40 0.04621
1110.50 0.0462
1110.60 0.04618
1110.70 0.04617
1110.80 0.04615
1110.90 0.04614
1111.00 0.04612
1111.10 0.0461
1111.20 0.04609
1111.30 0.04607
1111.40 0.04606
1111.50 0.04604
1111.60 0.04603
1111.70 0.04601
1111.80 0.046
1111.90 0.04598
1112.00 0.04597
1112.10 0.04595
1112.20 0.04594
1112.30 0.04592
1112.40 0.04591
1112.50 0.04589
1112.60 0.04588
1112.70 0.04586
1112.80 0.04584
1112.90 0.04583
1113.00 0.04581
1113.10 0.0458
1113.20 0.04578
1113.30 0.04577
1113.40 0.04575
1113.50 0.04574
1113.60 0.04572
1113.70 0.04571
1113.80 0.04569
1113.90 0.04567
1114.00 0.04566
1114.10 0.04564
1114.20 0.04563
1114.30 0.04561
1114.40 0.0456
1114.50 0.04558
1114.60 0.04557
1114.70 0.04555
1114.80 0.04553
1114.90 0.04552
1115.00 0.0455
1115.10 0.04549
1115.20 0.04547
1115.30 0.04546
1115.40 0.04544
1115.50 0.04543
1115.60 0.04541
1115.70 0.0454
1115.80 0.04538
1115.90 0.04536
1116.00 0.04535
1116.10 0.04533
1116.20 0.04532
1116.30 0.0453
1116.40 0.04529
1116.50 0.04527
1116.60 0.04526
1116.70 0.04524
1116.80 0.04523
1116.90 0.04521
1117.00 0.0452
1117.10 0.04518
1117.20 0.04516
1117.30 0.04515
1117.40 0.04513
1117.50 0.04512
1117.60 0.0451
1117.70 0.04509
1117.80 0.04507
1117.90 0.04506
1118.00 0.04504
1118.10 0.04503
1118.20 0.04501
1118.30 0.04499
1118.40 0.04498
1118.50 0.04496
1118.60 0.04495
1118.70 0.04493
1118.80 0.04492
1118.90 0.0449
1119.00 0.04489
1119.10 0.04487
1119.20 0.04486
1119.30 0.04484
1119.40 0.04482
1119.50 0.04481
1119.60 0.04479
1119.70 0.04478
1119.80 0.04476
1119.90 0.04475
1120.00 0.04473
1120.10 0.04472
1120.20 0.0447
1120.30 0.04469
1120.40 0.04467
1120.50 0.04466
1120.60 0.04464
1120.70 0.04463
1120.80 0.04461
1120.90 0.04459
1121.00 0.04458
1121.10 0.04456
1121.20 0.04455
1121.30 0.04453
1121.40 0.04452
1121.50 0.0445
1121.60 0.04449
1121.70 0.04447
1121.80 0.04446
1121.90 0.04444
1122.00 0.04443
1122.10 0.04441
1122.20 0.0444
1122.30 0.04438
1122.40 0.04437
1122.50 0.04435
1122.60 0.04433
1122.70 0.04432
1122.80 0.0443
1122.90 0.04429
1123.00 0.04427
1123.10 0.04426
1123.20 0.04424
1123.30 0.04423
1123.40 0.04421
1123.50 0.0442
1123.60 0.04418
1123.70 0.04417
1123.80 0.04415
1123.90 0.04414
1124.00 0.04412
1124.10 0.04411
1124.20 0.04409
1124.30 0.04408
1124.40 0.04406
1124.50 0.04405
1124.60 0.04403
1124.70 0.04402
1124.80 0.044
1124.90 0.04399
1125.00 0.04397
1125.10 0.04396
1125.20 0.04394
1125.30 0.04393
1125.40 0.04391
1125.50 0.0439
1125.60 0.04388
1125.70 0.04386
1125.80 0.04385
1125.90 0.04383
1126.00 0.04382
1126.10 0.0438
1126.20 0.04379
1126.30 0.04377
1126.40 0.04376
1126.50 0.04374
1126.60 0.04373
1126.70 0.04371
1126.80 0.0437
1126.90 0.04368
1127.00 0.04367
1127.10 0.04365
1127.20 0.04364
1127.30 0.04362
1127.40 0.04361
1127.50 0.04359
1127.60 0.04358
1127.70 0.04356
1127.80 0.04355
1127.90 0.04353
1128.00 0.04352
1128.10 0.0435
1128.20 0.04349
1128.30 0.04347
1128.40 0.04346
1128.50 0.04344
1128.60 0.04343
1128.70 0.04341
1128.80 0.0434
1128.90 0.04339
1129.00 0.04337
1129.10 0.04336
1129.20 0.04334
1129.30 0.04333
1129.40 0.04331
1129.50 0.0433
1129.60 0.04328
1129.70 0.04327
1129.80 0.04325
1129.90 0.04324
1130.00 0.04322
1130.10 0.04321
1130.20 0.04319
1130.30 0.04318
1130.40 0.04316
1130.50 0.04315
1130.60 0.04313
1130.70 0.04312
1130.80 0.0431
1130.90 0.04309
1131.00 0.04307
1131.10 0.04306
1131.20 0.04304
1131.30 0.04303
1131.40 0.04301
1131.50 0.043
1131.60 0.04298
1131.70 0.04297
1131.80 0.04295
1131.90 0.04294
1132.00 0.04293
1132.10 0.04291
1132.20 0.0429
1132.30 0.04288
1132.40 0.04287
1132.50 0.04285
1132.60 0.04284
1132.70 0.04282
1132.80 0.04281
1132.90 0.04279
1133.00 0.04278
1133.10 0.04276
1133.20 0.04275
1133.30 0.04273
1133.40 0.04272
1133.50 0.04271
1133.60 0.04269
1133.70 0.04268
1133.80 0.04266
1133.90 0.04265
1134.00 0.04263
1134.10 0.04262
1134.20 0.0426
1134.30 0.04259
1134.40 0.04257
1134.50 0.04256
1134.60 0.04254
1134.70 0.04253
1134.80 0.04252
1134.90 0.0425
1135.00 0.04249
1135.10 0.04247
1135.20 0.04246
1135.30 0.04244
1135.40 0.04243
1135.50 0.04241
1135.60 0.0424
1135.70 0.04238
1135.80 0.04237
1135.90 0.04236
1136.00 0.04234
1136.10 0.04233
1136.20 0.04231
1136.30 0.0423
1136.40 0.04228
1136.50 0.04227
1136.60 0.04225
1136.70 0.04224
1136.80 0.04223
1136.90 0.04221
1137.00 0.0422
1137.10 0.04218
1137.20 0.04217
1137.30 0.04215
1137.40 0.04214
1137.50 0.04212
1137.60 0.04211
1137.70 0.0421
1137.80 0.04208
1137.90 0.04207
1138.00 0.04205
1138.10 0.04204
1138.20 0.04202
1138.30 0.04201
1138.40 0.04199
1138.50 0.04198
1138.60 0.04197
1138.70 0.04195
1138.80 0.04194
1138.90 0.04192
1139.00 0.04191
1139.10 0.04189
1139.20 0.04188
1139.30 0.04187
1139.40 0.04185
1139.50 0.04184
1139.60 0.04182
1139.70 0.04181
1139.80 0.04179
1139.90 0.04178
1140.00 0.04177
1140.10 0.04175
1140.20 0.04174
1140.30 0.04172
1140.40 0.04171
1140.50 0.04169
1140.60 0.04168
1140.70 0.04167
1140.80 0.04165
1140.90 0.04164
1141.00 0.04162
1141.10 0.04161
1141.20 0.0416
1141.30 0.04158
1141.40 0.04157
1141.50 0.04155
1141.60 0.04154
1141.70 0.04152
1141.80 0.04151
1141.90 0.0415
1142.00 0.04148
1142.10 0.04147
1142.20 0.04145
1142.30 0.04144
1142.40 0.04143
1142.50 0.04141
1142.60 0.0414
1142.70 0.04138
1142.80 0.04137
1142.90 0.04135
1143.00 0.04134
1143.10 0.04133
1143.20 0.04131
1143.30 0.0413
1143.40 0.04128
1143.50 0.04127
1143.60 0.04126
1143.70 0.04124
1143.80 0.04123
1143.90 0.04121
1144.00 0.0412
1144.10 0.04119
1144.20 0.04117
1144.30 0.04116
1144.40 0.04114
1144.50 0.04113
1144.60 0.04112
1144.70 0.0411
1144.80 0.04109
1144.90 0.04107
1145.00 0.04106
1145.10 0.04105
1145.20 0.04103
1145.30 0.04102
1145.40 0.041
1145.50 0.04099
1145.60 0.04098
1145.70 0.04096
1145.80 0.04095
1145.90 0.04093
1146.00 0.04092
1146.10 0.04091
1146.20 0.04089
1146.30 0.04088
1146.40 0.04087
1146.50 0.04085
1146.60 0.04084
1146.70 0.04082
1146.80 0.04081
1146.90 0.0408
1147.00 0.04078
1147.10 0.04077
1147.20 0.04075
1147.30 0.04074
1147.40 0.04073
1147.50 0.04071
1147.60 0.0407
1147.70 0.04069
1147.80 0.04067
1147.90 0.04066
1148.00 0.04064
1148.10 0.04063
1148.20 0.04062
1148.30 0.0406
1148.40 0.04059
1148.50 0.04058
1148.60 0.04056
1148.70 0.04055
1148.80 0.04053
1148.90 0.04052
1149.00 0.04051
1149.10 0.04049
1149.20 0.04048
1149.30 0.04047
1149.40 0.04045
1149.50 0.04044
1149.60 0.04042
1149.70 0.04041
1149.80 0.0404
1149.90 0.04038
1150.00 0.04037
1150.10 0.04036
1150.20 0.04034
1150.30 0.04033
1150.40 0.04031
1150.50 0.0403
1150.60 0.04029
1150.70 0.04027
1150.80 0.04026
1150.90 0.04025
1151.00 0.04023
1151.10 0.04022
1151.20 0.04021
1151.30 0.04019
1151.40 0.04018
1151.50 0.04016
1151.60 0.04015
1151.70 0.04014
1151.80 0.04012
1151.90 0.04011
1152.00 0.0401
1152.10 0.04008
1152.20 0.04007
1152.30 0.04006
1152.40 0.04004
1152.50 0.04003
1152.60 0.04002
1152.70 0.04
1152.80 0.03999
1152.90 0.03998
1153.00 0.03996
1153.10 0.03995
1153.20 0.03993
1153.30 0.03992
1153.40 0.03991
1153.50 0.03989
1153.60 0.03988
1153.70 0.03987
1153.80 0.03985
1153.90 0.03984
1154.00 0.03983
1154.10 0.03981
1154.20 0.0398
1154.30 0.03979
1154.40 0.03977
1154.50 0.03976
1154.60 0.03975
1154.70 0.03973
1154.80 0.03972
1154.90 0.03971
1155.00 0.03969
1155.10 0.03968
1155.20 0.03967
1155.30 0.03965
1155.40 0.03964
1155.50 0.03963
1155.60 0.03961
1155.70 0.0396
1155.80 0.03959
1155.90 0.03957
1156.00 0.03956
1156.10 0.03955
1156.20 0.03953
1156.30 0.03952
1156.40 0.03951
1156.50 0.03949
1156.60 0.03948
1156.70 0.03947
1156.80 0.03945
1156.90 0.03944
1157.00 0.03943
1157.10 0.03941
1157.20 0.0394
1157.30 0.03939
1157.40 0.03937
1157.50 0.03936
1157.60 0.03935
1157.70 0.03933
1157.80 0.03932
1157.90 0.03931
1158.00 0.03929
1158.10 0.03928
1158.20 0.03927
1158.30 0.03925
1158.40 0.03924
1158.50 0.03923
1158.60 0.03921
1158.70 0.0392
1158.80 0.03919
1158.90 0.03917
1159.00 0.03916
1159.10 0.03915
1159.20 0.03914
1159.30 0.03912
1159.40 0.03911
1159.50 0.0391
1159.60 0.03908
1159.70 0.03907
1159.80 0.03906
1159.90 0.03904
1160.00 0.03903
1160.10 0.03902
1160.20 0.039
1160.30 0.03899
1160.40 0.03898
1160.50 0.03896
1160.60 0.03895
1160.70 0.03894
1160.80 0.03893
1160.90 0.03891
1161.00 0.0389
1161.10 0.03889
1161.20 0.03887
1161.30 0.03886
1161.40 0.03885
1161.50 0.03883
1161.60 0.03882
1161.70 0.03881
1161.80 0.03879
1161.90 0.03878
1162.00 0.03877
1162.10 0.03876
1162.20 0.03874
1162.30 0.03873
1162.40 0.03872
1162.50 0.0387
1162.60 0.03869
1162.70 0.03868
1162.80 0.03866
1162.90 0.03865
1163.00 0.03864
1163.10 0.03863
1163.20 0.03861
1163.30 0.0386
1163.40 0.03859
1163.50 0.03857
1163.60 0.03856
1163.70 0.03855
1163.80 0.03854
1163.90 0.03852
1164.00 0.03851
1164.10 0.0385
1164.20 0.03848
1164.30 0.03847
1164.40 0.03846
1164.50 0.03845
1164.60 0.03843
1164.70 0.03842
1164.80 0.03841
1164.90 0.03839
1165.00 0.03838
1165.10 0.03837
1165.20 0.03836
1165.30 0.03834
1165.40 0.03833
1165.50 0.03832
1165.60 0.0383
1165.70 0.03829
1165.80 0.03828
1165.90 0.03827
1166.00 0.03825
1166.10 0.03824
1166.20 0.03823
1166.30 0.03821
1166.40 0.0382
1166.50 0.03819
1166.60 0.03818
1166.70 0.03816
1166.80 0.03815
1166.90 0.03814
1167.00 0.03812
1167.10 0.03811
1167.20 0.0381
1167.30 0.03809
1167.40 0.03807
1167.50 0.03806
1167.60 0.03805
1167.70 0.03804
1167.80 0.03802
1167.90 0.03801
1168.00 0.038
1168.10 0.03799
1168.20 0.03797
1168.30 0.03796
1168.40 0.03795
1168.50 0.03793
1168.60 0.03792
1168.70 0.03791
1168.80 0.0379
1168.90 0.03788
1169.00 0.03787
1169.10 0.03786
1169.20 0.03785
1169.30 0.03783
1169.40 0.03782
1169.50 0.03781
1169.60 0.0378
1169.70 0.03778
1169.80 0.03777
1169.90 0.03776
1170.00 0.03775
1170.10 0.03773
1170.20 0.03772
1170.30 0.03771
1170.40 0.0377
1170.50 0.03768
1170.60 0.03767
1170.70 0.03766
1170.80 0.03765
1170.90 0.03763
1171.00 0.03762
1171.10 0.03761
1171.20 0.03759
1171.30 0.03758
1171.40 0.03757
1171.50 0.03756
1171.60 0.03754
1171.70 0.03753
1171.80 0.03752
1171.90 0.03751
1172.00 0.03749
1172.10 0.03748
1172.20 0.03747
1172.30 0.03746
1172.40 0.03744
1172.50 0.03743
1172.60 0.03742
1172.70 0.03741
1172.80 0.0374
1172.90 0.03738
1173.00 0.03737
1173.10 0.03736
1173.20 0.03735
1173.30 0.03733
1173.40 0.03732
1173.50 0.03731
1173.60 0.0373
1173.70 0.03728
1173.80 0.03727
1173.90 0.03726
1174.00 0.03725
1174.10 0.03723
1174.20 0.03722
1174.30 0.03721
1174.40 0.0372
1174.50 0.03718
1174.60 0.03717
1174.70 0.03716
1174.80 0.03715
1174.90 0.03714
1175.00 0.03712
1175.10 0.03711
1175.20 0.0371
1175.30 0.03709
1175.40 0.03707
1175.50 0.03706
1175.60 0.03705
1175.70 0.03704
1175.80 0.03702
1175.90 0.03701
1176.00 0.037
1176.10 0.03699
1176.20 0.03698
1176.30 0.03696
1176.40 0.03695
1176.50 0.03694
1176.60 0.03693
1176.70 0.03691
1176.80 0.0369
1176.90 0.03689
1177.00 0.03688
1177.10 0.03686
1177.20 0.03685
1177.30 0.03684
1177.40 0.03683
1177.50 0.03682
1177.60 0.0368
1177.70 0.03679
1177.80 0.03678
1177.90 0.03677
1178.00 0.03676
1178.10 0.03674
1178.20 0.03673
1178.30 0.03672
1178.40 0.03671
1178.50 0.03669
1178.60 0.03668
1178.70 0.03667
1178.80 0.03666
1178.90 0.03665
1179.00 0.03663
1179.10 0.03662
1179.20 0.03661
1179.30 0.0366
1179.40 0.03659
1179.50 0.03657
1179.60 0.03656
1179.70 0.03655
1179.80 0.03654
1179.90 0.03653
1180.00 0.03651
1180.10 0.0365
1180.20 0.03649
1180.30 0.03648
1180.40 0.03646
1180.50 0.03645
1180.60 0.03644
1180.70 0.03643
1180.80 0.03642
1180.90 0.0364
1181.00 0.03639
1181.10 0.03638
1181.20 0.03637
1181.30 0.03636
1181.40 0.03634
1181.50 0.03633
1181.60 0.03632
1181.70 0.03631
1181.80 0.0363
1181.90 0.03628
1182.00 0.03627
1182.10 0.03626
1182.20 0.03625
1182.30 0.03624
1182.40 0.03622
1182.50 0.03621
1182.60 0.0362
1182.70 0.03619
1182.80 0.03618
1182.90 0.03617
1183.00 0.03615
1183.10 0.03614
1183.20 0.03613
1183.30 0.03612
1183.40 0.03611
1183.50 0.03609
1183.60 0.03608
1183.70 0.03607
1183.80 0.03606
1183.90 0.03605
1184.00 0.03603
1184.10 0.03602
1184.20 0.03601
1184.30 0.036
1184.40 0.03599
1184.50 0.03598
1184.60 0.03596
1184.70 0.03595
1184.80 0.03594
1184.90 0.03593
1185.00 0.03592
1185.10 0.0359
1185.20 0.03589
1185.30 0.03588
1185.40 0.03587
1185.50 0.03586
1185.60 0.03585
1185.70 0.03583
1185.80 0.03582
1185.90 0.03581
1186.00 0.0358
1186.10 0.03579
1186.20 0.03577
1186.30 0.03576
1186.40 0.03575
1186.50 0.03574
1186.60 0.03573
1186.70 0.03572
1186.80 0.0357
1186.90 0.03569
1187.00 0.03568
1187.10 0.03567
1187.20 0.03566
1187.30 0.03564
1187.40 0.03563
1187.50 0.03562
1187.60 0.03561
1187.70 0.0356
1187.80 0.03559
1187.90 0.03557
1188.00 0.03556
1188.10 0.03555
1188.20 0.03554
1188.30 0.03553
1188.40 0.03552
1188.50 0.03551
1188.60 0.03549
1188.70 0.03548
1188.80 0.03547
1188.90 0.03546
1189.00 0.03545
1189.10 0.03544
1189.20 0.03542
1189.30 0.03541
1189.40 0.0354
1189.50 0.03539
1189.60 0.03538
1189.70 0.03537
1189.80 0.03535
1189.90 0.03534
1190.00 0.03533
1190.10 0.03532
1190.20 0.03531
1190.30 0.0353
1190.40 0.03528
1190.50 0.03527
1190.60 0.03526
1190.70 0.03525
1190.80 0.03524
1190.90 0.03523
1191.00 0.03522
1191.10 0.0352
1191.20 0.03519
1191.30 0.03518
1191.40 0.03517
1191.50 0.03516
1191.60 0.03515
1191.70 0.03513
1191.80 0.03512
1191.90 0.03511
1192.00 0.0351
1192.10 0.03509
1192.20 0.03508
1192.30 0.03507
1192.40 0.03505
1192.50 0.03504
1192.60 0.03503
1192.70 0.03502
1192.80 0.03501
1192.90 0.035
1193.00 0.03499
1193.10 0.03497
1193.20 0.03496
1193.30 0.03495
1193.40 0.03494
1193.50 0.03493
1193.60 0.03492
1193.70 0.03491
1193.80 0.03489
1193.90 0.03488
1194.00 0.03487
1194.10 0.03486
1194.20 0.03485
1194.30 0.03484
1194.40 0.03483
1194.50 0.03481
1194.60 0.0348
1194.70 0.03479
1194.80 0.03478
1194.90 0.03477
1195.00 0.03476
1195.10 0.03475
1195.20 0.03473
1195.30 0.03472
1195.40 0.03471
1195.50 0.0347
1195.60 0.03469
1195.70 0.03468
1195.80 0.03467
1195.90 0.03466
1196.00 0.03464
1196.10 0.03463
1196.20 0.03462
1196.30 0.03461
1196.40 0.0346
1196.50 0.03459
1196.60 0.03458
1196.70 0.03456
1196.80 0.03455
1196.90 0.03454
1197.00 0.03453
1197.10 0.03452
1197.20 0.03451
1197.30 0.0345
1197.40 0.03449
1197.50 0.03447
1197.60 0.03446
1197.70 0.03445
1197.80 0.03444
1197.90 0.03443
1198.00 0.03442
1198.10 0.03441
1198.20 0.0344
1198.30 0.03439
1198.40 0.03437
1198.50 0.03436
1198.60 0.03435
1198.70 0.03434
1198.80 0.03433
1198.90 0.03432
1199.00 0.03431
1199.10 0.0343
1199.20 0.03428
1199.30 0.03427
1199.40 0.03426
1199.50 0.03425
1199.60 0.03424
1199.70 0.03423
1199.80 0.03422
1199.90 0.03421
1200.00 0
