# Version 2.1 - nm, norm@500 to 1, cut digits, bergeron_4500_65.dat_4500
# Wavelength(nm)  Flambda(ergs/cm^s/s/nm)
300.00 0.2329
300.10 0.2333
300.20 0.2337
300.30 0.2341
300.40 0.2344
300.50 0.2348
300.60 0.2352
300.70 0.2356
300.80 0.236
300.90 0.2364
301.00 0.2368
301.10 0.2371
301.20 0.2375
301.30 0.2379
301.40 0.2383
301.50 0.2387
301.60 0.239
301.70 0.2394
301.80 0.2398
301.90 0.2402
302.00 0.2406
302.10 0.241
302.20 0.2414
302.30 0.2417
302.40 0.2421
302.50 0.2425
302.60 0.2429
302.70 0.2433
302.80 0.2437
302.90 0.2441
303.00 0.2445
303.10 0.2449
303.20 0.2453
303.30 0.2456
303.40 0.246
303.50 0.2464
303.60 0.2468
303.70 0.2472
303.80 0.2476
303.90 0.248
304.00 0.2483
304.10 0.2487
304.20 0.2491
304.30 0.2495
304.40 0.2499
304.50 0.2503
304.60 0.2507
304.70 0.2511
304.80 0.2515
304.90 0.2519
305.00 0.2523
305.10 0.2527
305.20 0.2531
305.30 0.2535
305.40 0.2539
305.50 0.2543
305.60 0.2547
305.70 0.255
305.80 0.2554
305.90 0.2558
306.00 0.2562
306.10 0.2566
306.20 0.257
306.30 0.2574
306.40 0.2578
306.50 0.2582
306.60 0.2586
306.70 0.259
306.80 0.2594
306.90 0.2598
307.00 0.2602
307.10 0.2606
307.20 0.261
307.30 0.2614
307.40 0.2618
307.50 0.2622
307.60 0.2626
307.70 0.263
307.80 0.2634
307.90 0.2638
308.00 0.2642
308.10 0.2646
308.20 0.265
308.30 0.2654
308.40 0.2658
308.50 0.2662
308.60 0.2666
308.70 0.267
308.80 0.2674
308.90 0.2678
309.00 0.2682
309.10 0.2686
309.20 0.269
309.30 0.2694
309.40 0.2698
309.50 0.2702
309.60 0.2706
309.70 0.271
309.80 0.2714
309.90 0.2718
310.00 0.2722
310.10 0.2726
310.20 0.273
310.30 0.2734
310.40 0.2738
310.50 0.2742
310.60 0.2746
310.70 0.2751
310.80 0.2755
310.90 0.2759
311.00 0.2763
311.10 0.2767
311.20 0.2771
311.30 0.2775
311.40 0.2779
311.50 0.2783
311.60 0.2787
311.70 0.2791
311.80 0.2795
311.90 0.2799
312.00 0.2803
312.10 0.2807
312.20 0.2811
312.30 0.2815
312.40 0.282
312.50 0.2824
312.60 0.2828
312.70 0.2832
312.80 0.2836
312.90 0.284
313.00 0.2844
313.10 0.2848
313.20 0.2852
313.30 0.2857
313.40 0.2861
313.50 0.2865
313.60 0.2869
313.70 0.2873
313.80 0.2877
313.90 0.2881
314.00 0.2885
314.10 0.2889
314.20 0.2893
314.30 0.2898
314.40 0.2902
314.50 0.2906
314.60 0.291
314.70 0.2914
314.80 0.2918
314.90 0.2922
315.00 0.2927
315.10 0.2931
315.20 0.2935
315.30 0.2939
315.40 0.2943
315.50 0.2947
315.60 0.2951
315.70 0.2955
315.80 0.2959
315.90 0.2964
316.00 0.2968
316.10 0.2972
316.20 0.2976
316.30 0.298
316.40 0.2985
316.50 0.2989
316.60 0.2993
316.70 0.2997
316.80 0.3001
316.90 0.3006
317.00 0.301
317.10 0.3014
317.20 0.3018
317.30 0.3022
317.40 0.3026
317.50 0.303
317.60 0.3035
317.70 0.3039
317.80 0.3043
317.90 0.3047
318.00 0.3051
318.10 0.3055
318.20 0.306
318.30 0.3064
318.40 0.3068
318.50 0.3072
318.60 0.3077
318.70 0.3081
318.80 0.3085
318.90 0.3089
319.00 0.3093
319.10 0.3098
319.20 0.3102
319.30 0.3106
319.40 0.311
319.50 0.3114
319.60 0.3119
319.70 0.3123
319.80 0.3127
319.90 0.3131
320.00 0.3135
320.10 0.314
320.20 0.3144
320.30 0.3148
320.40 0.3152
320.50 0.3157
320.60 0.3161
320.70 0.3165
320.80 0.3169
320.90 0.3174
321.00 0.3178
321.10 0.3182
321.20 0.3186
321.30 0.3191
321.40 0.3195
321.50 0.3199
321.60 0.3203
321.70 0.3207
321.80 0.3212
321.90 0.3216
322.00 0.322
322.10 0.3224
322.20 0.3229
322.30 0.3233
322.40 0.3237
322.50 0.3242
322.60 0.3246
322.70 0.325
322.80 0.3254
322.90 0.3259
323.00 0.3263
323.10 0.3267
323.20 0.3271
323.30 0.3276
323.40 0.328
323.50 0.3284
323.60 0.3288
323.70 0.3293
323.80 0.3297
323.90 0.3301
324.00 0.3305
324.10 0.331
324.20 0.3314
324.30 0.3318
324.40 0.3323
324.50 0.3327
324.60 0.3331
324.70 0.3336
324.80 0.334
324.90 0.3344
325.00 0.3349
325.10 0.3353
325.20 0.3357
325.30 0.3361
325.40 0.3366
325.50 0.337
325.60 0.3374
325.70 0.3379
325.80 0.3383
325.90 0.3387
326.00 0.3391
326.10 0.3396
326.20 0.34
326.30 0.3404
326.40 0.3409
326.50 0.3413
326.60 0.3418
326.70 0.3422
326.80 0.3426
326.90 0.3431
327.00 0.3435
327.10 0.3439
327.20 0.3444
327.30 0.3448
327.40 0.3452
327.50 0.3456
327.60 0.3461
327.70 0.3465
327.80 0.3469
327.90 0.3474
328.00 0.3478
328.10 0.3482
328.20 0.3487
328.30 0.3491
328.40 0.3495
328.50 0.35
328.60 0.3504
328.70 0.3508
328.80 0.3513
328.90 0.3517
329.00 0.3522
329.10 0.3526
329.20 0.353
329.30 0.3535
329.40 0.3539
329.50 0.3543
329.60 0.3547
329.70 0.3552
329.80 0.3556
329.90 0.356
330.00 0.3565
330.10 0.3569
330.20 0.3574
330.30 0.3578
330.40 0.3582
330.50 0.3587
330.60 0.3591
330.70 0.3596
330.80 0.36
330.90 0.3604
331.00 0.3609
331.10 0.3613
331.20 0.3617
331.30 0.3622
331.40 0.3626
331.50 0.3631
331.60 0.3635
331.70 0.3639
331.80 0.3644
331.90 0.3648
332.00 0.3652
332.10 0.3657
332.20 0.3661
332.30 0.3666
332.40 0.367
332.50 0.3674
332.60 0.3679
332.70 0.3683
332.80 0.3688
332.90 0.3692
333.00 0.3696
333.10 0.3701
333.20 0.3705
333.30 0.371
333.40 0.3714
333.50 0.3718
333.60 0.3723
333.70 0.3727
333.80 0.3731
333.90 0.3736
334.00 0.374
334.10 0.3745
334.20 0.3749
334.30 0.3754
334.40 0.3758
334.50 0.3762
334.60 0.3767
334.70 0.3771
334.80 0.3776
334.90 0.378
335.00 0.3785
335.10 0.3789
335.20 0.3793
335.30 0.3798
335.40 0.3802
335.50 0.3807
335.60 0.3811
335.70 0.3815
335.80 0.382
335.90 0.3824
336.00 0.3828
336.10 0.3833
336.20 0.3837
336.30 0.3842
336.40 0.3846
336.50 0.3851
336.60 0.3855
336.70 0.386
336.80 0.3864
336.90 0.3869
337.00 0.3873
337.10 0.3878
337.20 0.3882
337.30 0.3886
337.40 0.3891
337.50 0.3895
337.60 0.39
337.70 0.3904
337.80 0.3908
337.90 0.3913
338.00 0.3917
338.10 0.3922
338.20 0.3926
338.30 0.3931
338.40 0.3935
338.50 0.394
338.60 0.3944
338.70 0.3949
338.80 0.3953
338.90 0.3957
339.00 0.3962
339.10 0.3966
339.20 0.3971
339.30 0.3975
339.40 0.398
339.50 0.3984
339.60 0.3989
339.70 0.3993
339.80 0.3997
339.90 0.4002
340.00 0.4006
340.10 0.4011
340.20 0.4015
340.30 0.402
340.40 0.4024
340.50 0.4029
340.60 0.4033
340.70 0.4038
340.80 0.4042
340.90 0.4047
341.00 0.4051
341.10 0.4056
341.20 0.406
341.30 0.4064
341.40 0.4069
341.50 0.4073
341.60 0.4078
341.70 0.4082
341.80 0.4087
341.90 0.4091
342.00 0.4095
342.10 0.41
342.20 0.4104
342.30 0.4109
342.40 0.4113
342.50 0.4118
342.60 0.4122
342.70 0.4127
342.80 0.4131
342.90 0.4136
343.00 0.414
343.10 0.4145
343.20 0.4149
343.30 0.4154
343.40 0.4158
343.50 0.4163
343.60 0.4167
343.70 0.4172
343.80 0.4176
343.90 0.4181
344.00 0.4185
344.10 0.4189
344.20 0.4194
344.30 0.4199
344.40 0.4203
344.50 0.4208
344.60 0.4212
344.70 0.4217
344.80 0.4221
344.90 0.4226
345.00 0.423
345.10 0.4235
345.20 0.4239
345.30 0.4244
345.40 0.4248
345.50 0.4253
345.60 0.4257
345.70 0.4261
345.80 0.4266
345.90 0.427
346.00 0.4275
346.10 0.4279
346.20 0.4284
346.30 0.4288
346.40 0.4293
346.50 0.4297
346.60 0.4302
346.70 0.4307
346.80 0.4311
346.90 0.4316
347.00 0.432
347.10 0.4325
347.20 0.4329
347.30 0.4334
347.40 0.4338
347.50 0.4343
347.60 0.4347
347.70 0.4351
347.80 0.4356
347.90 0.436
348.00 0.4365
348.10 0.4369
348.20 0.4374
348.30 0.4378
348.40 0.4383
348.50 0.4388
348.60 0.4392
348.70 0.4397
348.80 0.4401
348.90 0.4406
349.00 0.441
349.10 0.4415
349.20 0.4419
349.30 0.4424
349.40 0.4428
349.50 0.4433
349.60 0.4437
349.70 0.4442
349.80 0.4446
349.90 0.4451
350.00 0.4455
350.10 0.446
350.20 0.4464
350.30 0.4469
350.40 0.4473
350.50 0.4478
350.60 0.4482
350.70 0.4487
350.80 0.4491
350.90 0.4496
351.00 0.45
351.10 0.4505
351.20 0.4509
351.30 0.4514
351.40 0.4518
351.50 0.4523
351.60 0.4527
351.70 0.4532
351.80 0.4536
351.90 0.4541
352.00 0.4545
352.10 0.455
352.20 0.4554
352.30 0.4559
352.40 0.4564
352.50 0.4568
352.60 0.4573
352.70 0.4577
352.80 0.4582
352.90 0.4586
353.00 0.4591
353.10 0.4595
353.20 0.46
353.30 0.4604
353.40 0.4609
353.50 0.4613
353.60 0.4618
353.70 0.4622
353.80 0.4627
353.90 0.4631
354.00 0.4636
354.10 0.464
354.20 0.4645
354.30 0.4649
354.40 0.4654
354.50 0.4659
354.60 0.4663
354.70 0.4668
354.80 0.4672
354.90 0.4677
355.00 0.4681
355.10 0.4686
355.20 0.469
355.30 0.4695
355.40 0.4699
355.50 0.4704
355.60 0.4708
355.70 0.4713
355.80 0.4717
355.90 0.4722
356.00 0.4726
356.10 0.4731
356.20 0.4735
356.30 0.474
356.40 0.4744
356.50 0.4749
356.60 0.4754
356.70 0.4758
356.80 0.4763
356.90 0.4767
357.00 0.4772
357.10 0.4776
357.20 0.4781
357.30 0.4785
357.40 0.479
357.50 0.4794
357.60 0.4799
357.70 0.4803
357.80 0.4808
357.90 0.4812
358.00 0.4817
358.10 0.4821
358.20 0.4826
358.30 0.483
358.40 0.4835
358.50 0.484
358.60 0.4844
358.70 0.4849
358.80 0.4853
358.90 0.4858
359.00 0.4862
359.10 0.4867
359.20 0.4871
359.30 0.4876
359.40 0.488
359.50 0.4885
359.60 0.4889
359.70 0.4894
359.80 0.4898
359.90 0.4903
360.00 0.4907
360.10 0.4912
360.20 0.4916
360.30 0.4921
360.40 0.4925
360.50 0.493
360.60 0.4935
360.70 0.4939
360.80 0.4944
360.90 0.4948
361.00 0.4953
361.10 0.4957
361.20 0.4962
361.30 0.4966
361.40 0.4971
361.50 0.4975
361.60 0.498
361.70 0.4984
361.80 0.4989
361.90 0.4993
362.00 0.4998
362.10 0.5002
362.20 0.5007
362.30 0.5011
362.40 0.5016
362.50 0.502
362.60 0.5025
362.70 0.5029
362.80 0.5034
362.90 0.5038
363.00 0.5043
363.10 0.5047
363.20 0.5052
363.30 0.5057
363.40 0.5061
363.50 0.5066
363.60 0.507
363.70 0.5075
363.80 0.5079
363.90 0.5084
364.00 0.5088
364.10 0.5093
364.20 0.5097
364.30 0.5102
364.40 0.5106
364.50 0.5111
364.60 0.5115
364.70 0.512
364.80 0.5124
364.90 0.5129
365.00 0.5133
365.10 0.5138
365.20 0.5143
365.30 0.5147
365.40 0.5152
365.50 0.5156
365.60 0.5161
365.70 0.5165
365.80 0.517
365.90 0.5174
366.00 0.5178
366.10 0.5183
366.20 0.5188
366.30 0.5192
366.40 0.5197
366.50 0.5201
366.60 0.5206
366.70 0.521
366.80 0.5215
366.90 0.5219
367.00 0.5224
367.10 0.5228
367.20 0.5233
367.30 0.5237
367.40 0.5242
367.50 0.5246
367.60 0.5251
367.70 0.5255
367.80 0.526
367.90 0.5264
368.00 0.5269
368.10 0.5273
368.20 0.5278
368.30 0.5282
368.40 0.5287
368.50 0.5292
368.60 0.5296
368.70 0.5301
368.80 0.5305
368.90 0.531
369.00 0.5314
369.10 0.5319
369.20 0.5323
369.30 0.5328
369.40 0.5332
369.50 0.5337
369.60 0.5341
369.70 0.5346
369.80 0.535
369.90 0.5354
370.00 0.5359
370.10 0.5363
370.20 0.5368
370.30 0.5373
370.40 0.5377
370.50 0.5382
370.60 0.5386
370.70 0.5391
370.80 0.5395
370.90 0.54
371.00 0.5404
371.10 0.5409
371.20 0.5413
371.30 0.5418
371.40 0.5422
371.50 0.5427
371.60 0.5431
371.70 0.5436
371.80 0.544
371.90 0.5444
372.00 0.5449
372.10 0.5453
372.20 0.5458
372.30 0.5462
372.40 0.5467
372.50 0.5472
372.60 0.5476
372.70 0.5481
372.80 0.5485
372.90 0.549
373.00 0.5494
373.10 0.5499
373.20 0.5503
373.30 0.5507
373.40 0.5512
373.50 0.5516
373.60 0.5521
373.70 0.5525
373.80 0.553
373.90 0.5534
374.00 0.5539
374.10 0.5543
374.20 0.5548
374.30 0.5552
374.40 0.5557
374.50 0.5561
374.60 0.5566
374.70 0.557
374.80 0.5575
374.90 0.5579
375.00 0.5584
375.10 0.5588
375.20 0.5593
375.30 0.5597
375.40 0.5602
375.50 0.5606
375.60 0.5611
375.70 0.5615
375.80 0.5619
375.90 0.5624
376.00 0.5628
376.10 0.5633
376.20 0.5637
376.30 0.5642
376.40 0.5646
376.50 0.5651
376.60 0.5655
376.70 0.566
376.80 0.5664
376.90 0.5668
377.00 0.5673
377.10 0.5677
377.20 0.5682
377.30 0.5686
377.40 0.5691
377.50 0.5695
377.60 0.57
377.70 0.5704
377.80 0.5709
377.90 0.5713
378.00 0.5718
378.10 0.5722
378.20 0.5727
378.30 0.5731
378.40 0.5735
378.50 0.574
378.60 0.5744
378.70 0.5749
378.80 0.5753
378.90 0.5758
379.00 0.5762
379.10 0.5767
379.20 0.5771
379.30 0.5775
379.40 0.578
379.50 0.5784
379.60 0.5789
379.70 0.5793
379.80 0.5798
379.90 0.5802
380.00 0.5807
380.10 0.5811
380.20 0.5816
380.30 0.582
380.40 0.5824
380.50 0.5829
380.60 0.5833
380.70 0.5838
380.80 0.5842
380.90 0.5847
381.00 0.5851
381.10 0.5856
381.20 0.586
381.30 0.5864
381.40 0.5869
381.50 0.5873
381.60 0.5878
381.70 0.5882
381.80 0.5886
381.90 0.5891
382.00 0.5895
382.10 0.59
382.20 0.5904
382.30 0.5909
382.40 0.5913
382.50 0.5918
382.60 0.5922
382.70 0.5926
382.80 0.5931
382.90 0.5935
383.00 0.594
383.10 0.5944
383.20 0.5948
383.30 0.5953
383.40 0.5957
383.50 0.5962
383.60 0.5966
383.70 0.5971
383.80 0.5975
383.90 0.5979
384.00 0.5984
384.10 0.5988
384.20 0.5993
384.30 0.5997
384.40 0.6001
384.50 0.6006
384.60 0.601
384.70 0.6015
384.80 0.6019
384.90 0.6024
385.00 0.6028
385.10 0.6032
385.20 0.6037
385.30 0.6041
385.40 0.6046
385.50 0.605
385.60 0.6054
385.70 0.6059
385.80 0.6063
385.90 0.6068
386.00 0.6072
386.10 0.6076
386.20 0.6081
386.30 0.6085
386.40 0.6089
386.50 0.6094
386.60 0.6098
386.70 0.6103
386.80 0.6107
386.90 0.6111
387.00 0.6116
387.10 0.612
387.20 0.6125
387.30 0.6129
387.40 0.6133
387.50 0.6138
387.60 0.6142
387.70 0.6147
387.80 0.6151
387.90 0.6155
388.00 0.616
388.10 0.6164
388.20 0.6168
388.30 0.6173
388.40 0.6177
388.50 0.6182
388.60 0.6186
388.70 0.619
388.80 0.6195
388.90 0.6199
389.00 0.6203
389.10 0.6208
389.20 0.6212
389.30 0.6217
389.40 0.6221
389.50 0.6225
389.60 0.623
389.70 0.6234
389.80 0.6238
389.90 0.6243
390.00 0.6247
390.10 0.6251
390.20 0.6256
390.30 0.626
390.40 0.6264
390.50 0.6269
390.60 0.6273
390.70 0.6277
390.80 0.6282
390.90 0.6286
391.00 0.6291
391.10 0.6295
391.20 0.6299
391.30 0.6304
391.40 0.6308
391.50 0.6312
391.60 0.6317
391.70 0.6321
391.80 0.6325
391.90 0.633
392.00 0.6334
392.10 0.6338
392.20 0.6343
392.30 0.6347
392.40 0.6351
392.50 0.6356
392.60 0.636
392.70 0.6364
392.80 0.6369
392.90 0.6373
393.00 0.6377
393.10 0.6381
393.20 0.6386
393.30 0.639
393.40 0.6395
393.50 0.6399
393.60 0.6403
393.70 0.6407
393.80 0.6412
393.90 0.6416
394.00 0.642
394.10 0.6425
394.20 0.6429
394.30 0.6433
394.40 0.6438
394.50 0.6442
394.60 0.6446
394.70 0.6451
394.80 0.6455
394.90 0.6459
395.00 0.6463
395.10 0.6468
395.20 0.6472
395.30 0.6476
395.40 0.6481
395.50 0.6485
395.60 0.6489
395.70 0.6493
395.80 0.6498
395.90 0.6502
396.00 0.6506
396.10 0.6511
396.20 0.6515
396.30 0.6519
396.40 0.6524
396.50 0.6528
396.60 0.6532
396.70 0.6536
396.80 0.6541
396.90 0.6545
397.00 0.6549
397.10 0.6553
397.20 0.6558
397.30 0.6562
397.40 0.6566
397.50 0.6571
397.60 0.6575
397.70 0.6579
397.80 0.6583
397.90 0.6588
398.00 0.6592
398.10 0.6596
398.20 0.66
398.30 0.6605
398.40 0.6609
398.50 0.6613
398.60 0.6617
398.70 0.6622
398.80 0.6626
398.90 0.663
399.00 0.6634
399.10 0.6639
399.20 0.6643
399.30 0.6647
399.40 0.6651
399.50 0.6656
399.60 0.666
399.70 0.6664
399.80 0.6668
399.90 0.6673
400.00 0.6677
400.10 0.6681
400.20 0.6685
400.30 0.669
400.40 0.6694
400.50 0.6698
400.60 0.6702
400.70 0.6707
400.80 0.6711
400.90 0.6715
401.00 0.6719
401.10 0.6723
401.20 0.6728
401.30 0.6732
401.40 0.6736
401.50 0.674
401.60 0.6745
401.70 0.6749
401.80 0.6753
401.90 0.6757
402.00 0.6761
402.10 0.6766
402.20 0.677
402.30 0.6774
402.40 0.6778
402.50 0.6782
402.60 0.6787
402.70 0.6791
402.80 0.6795
402.90 0.6799
403.00 0.6803
403.10 0.6808
403.20 0.6812
403.30 0.6816
403.40 0.682
403.50 0.6824
403.60 0.6829
403.70 0.6833
403.80 0.6837
403.90 0.6841
404.00 0.6845
404.10 0.6849
404.20 0.6854
404.30 0.6858
404.40 0.6862
404.50 0.6866
404.60 0.687
404.70 0.6874
404.80 0.6879
404.90 0.6883
405.00 0.6887
405.10 0.6891
405.20 0.6895
405.30 0.6899
405.40 0.6904
405.50 0.6908
405.60 0.6912
405.70 0.6916
405.80 0.692
405.90 0.6924
406.00 0.6929
406.10 0.6933
406.20 0.6937
406.30 0.6941
406.40 0.6945
406.50 0.6949
406.60 0.6954
406.70 0.6958
406.80 0.6962
406.90 0.6966
407.00 0.697
407.10 0.6974
407.20 0.6978
407.30 0.6982
407.40 0.6987
407.50 0.6991
407.60 0.6995
407.70 0.6999
407.80 0.7003
407.90 0.7007
408.00 0.7011
408.10 0.7015
408.20 0.702
408.30 0.7024
408.40 0.7028
408.50 0.7032
408.60 0.7036
408.70 0.704
408.80 0.7044
408.90 0.7048
409.00 0.7052
409.10 0.7056
409.20 0.706
409.30 0.7064
409.40 0.7068
409.50 0.7072
409.60 0.7076
409.70 0.7079
409.80 0.7082
409.90 0.7085
410.00 0.7083
410.10 0.7077
410.20 0.7067
410.30 0.7088
410.40 0.7103
410.50 0.7111
410.60 0.7116
410.70 0.7121
410.80 0.7125
410.90 0.713
411.00 0.7134
411.10 0.7138
411.20 0.7142
411.30 0.7146
411.40 0.7151
411.50 0.7155
411.60 0.7159
411.70 0.7163
411.80 0.7167
411.90 0.7171
412.00 0.7175
412.10 0.7179
412.20 0.7183
412.30 0.7187
412.40 0.7191
412.50 0.7195
412.60 0.7199
412.70 0.7203
412.80 0.7208
412.90 0.7212
413.00 0.7216
413.10 0.722
413.20 0.7224
413.30 0.7228
413.40 0.7232
413.50 0.7236
413.60 0.724
413.70 0.7244
413.80 0.7248
413.90 0.7252
414.00 0.7256
414.10 0.726
414.20 0.7264
414.30 0.7268
414.40 0.7272
414.50 0.7276
414.60 0.728
414.70 0.7284
414.80 0.7288
414.90 0.7292
415.00 0.7296
415.10 0.73
415.20 0.7304
415.30 0.7308
415.40 0.7312
415.50 0.7316
415.60 0.732
415.70 0.7324
415.80 0.7328
415.90 0.7332
416.00 0.7336
416.10 0.734
416.20 0.7344
416.30 0.7348
416.40 0.7352
416.50 0.7356
416.60 0.736
416.70 0.7364
416.80 0.7368
416.90 0.7372
417.00 0.7376
417.10 0.738
417.20 0.7384
417.30 0.7388
417.40 0.7392
417.50 0.7396
417.60 0.74
417.70 0.7404
417.80 0.7408
417.90 0.7412
418.00 0.7416
418.10 0.742
418.20 0.7424
418.30 0.7428
418.40 0.7432
418.50 0.7436
418.60 0.744
418.70 0.7444
418.80 0.7448
418.90 0.7452
419.00 0.7456
419.10 0.746
419.20 0.7464
419.30 0.7467
419.40 0.7471
419.50 0.7475
419.60 0.7479
419.70 0.7483
419.80 0.7487
419.90 0.7491
420.00 0.7495
420.10 0.7499
420.20 0.7503
420.30 0.7507
420.40 0.7511
420.50 0.7515
420.60 0.7519
420.70 0.7523
420.80 0.7526
420.90 0.753
421.00 0.7534
421.10 0.7538
421.20 0.7542
421.30 0.7546
421.40 0.755
421.50 0.7554
421.60 0.7558
421.70 0.7562
421.80 0.7566
421.90 0.7569
422.00 0.7573
422.10 0.7577
422.20 0.7581
422.30 0.7585
422.40 0.7589
422.50 0.7593
422.60 0.7597
422.70 0.7601
422.80 0.7604
422.90 0.7608
423.00 0.7612
423.10 0.7616
423.20 0.762
423.30 0.7624
423.40 0.7628
423.50 0.7632
423.60 0.7635
423.70 0.7639
423.80 0.7643
423.90 0.7647
424.00 0.7651
424.10 0.7655
424.20 0.7659
424.30 0.7663
424.40 0.7666
424.50 0.767
424.60 0.7674
424.70 0.7678
424.80 0.7682
424.90 0.7686
425.00 0.7689
425.10 0.7693
425.20 0.7697
425.30 0.7701
425.40 0.7705
425.50 0.7709
425.60 0.7712
425.70 0.7716
425.80 0.772
425.90 0.7724
426.00 0.7728
426.10 0.7732
426.20 0.7735
426.30 0.7739
426.40 0.7743
426.50 0.7747
426.60 0.7751
426.70 0.7754
426.80 0.7758
426.90 0.7762
427.00 0.7766
427.10 0.777
427.20 0.7774
427.30 0.7777
427.40 0.7781
427.50 0.7785
427.60 0.7789
427.70 0.7793
427.80 0.7796
427.90 0.78
428.00 0.7804
428.10 0.7808
428.20 0.7812
428.30 0.7815
428.40 0.7819
428.50 0.7823
428.60 0.7827
428.70 0.783
428.80 0.7834
428.90 0.7838
429.00 0.7842
429.10 0.7846
429.20 0.7849
429.30 0.7853
429.40 0.7857
429.50 0.7861
429.60 0.7864
429.70 0.7868
429.80 0.7872
429.90 0.7876
430.00 0.7879
430.10 0.7883
430.20 0.7887
430.30 0.7891
430.40 0.7894
430.50 0.7898
430.60 0.7902
430.70 0.7906
430.80 0.7909
430.90 0.7913
431.00 0.7917
431.10 0.792
431.20 0.7924
431.30 0.7928
431.40 0.7932
431.50 0.7935
431.60 0.7939
431.70 0.7943
431.80 0.7946
431.90 0.795
432.00 0.7954
432.10 0.7958
432.20 0.7961
432.30 0.7965
432.40 0.7969
432.50 0.7972
432.60 0.7976
432.70 0.798
432.80 0.7983
432.90 0.7987
433.00 0.799
433.10 0.7994
433.20 0.7997
433.30 0.8001
433.40 0.8004
433.50 0.8007
433.60 0.8009
433.70 0.801
433.80 0.8006
433.90 0.7997
434.00 0.7947
434.10 0.7951
434.20 0.801
434.30 0.8025
434.40 0.8036
434.50 0.8042
434.60 0.8047
434.70 0.8052
434.80 0.8056
434.90 0.806
435.00 0.8064
435.10 0.8068
435.20 0.8071
435.30 0.8075
435.40 0.8079
435.50 0.8083
435.60 0.8086
435.70 0.809
435.80 0.8094
435.90 0.8097
436.00 0.8101
436.10 0.8105
436.20 0.8108
436.30 0.8112
436.40 0.8116
436.50 0.8119
436.60 0.8123
436.70 0.8126
436.80 0.813
436.90 0.8134
437.00 0.8137
437.10 0.8141
437.20 0.8145
437.30 0.8148
437.40 0.8152
437.50 0.8155
437.60 0.8159
437.70 0.8163
437.80 0.8166
437.90 0.817
438.00 0.8173
438.10 0.8177
438.20 0.8181
438.30 0.8184
438.40 0.8188
438.50 0.8191
438.60 0.8195
438.70 0.8199
438.80 0.8202
438.90 0.8206
439.00 0.8209
439.10 0.8213
439.20 0.8217
439.30 0.822
439.40 0.8224
439.50 0.8227
439.60 0.8231
439.70 0.8234
439.80 0.8238
439.90 0.8242
440.00 0.8245
440.10 0.8249
440.20 0.8252
440.30 0.8256
440.40 0.8259
440.50 0.8263
440.60 0.8266
440.70 0.827
440.80 0.8273
440.90 0.8277
441.00 0.8281
441.10 0.8284
441.20 0.8288
441.30 0.8291
441.40 0.8295
441.50 0.8298
441.60 0.8302
441.70 0.8305
441.80 0.8309
441.90 0.8312
442.00 0.8316
442.10 0.8319
442.20 0.8323
442.30 0.8326
442.40 0.833
442.50 0.8333
442.60 0.8337
442.70 0.8341
442.80 0.8344
442.90 0.8348
443.00 0.8351
443.10 0.8354
443.20 0.8358
443.30 0.8361
443.40 0.8365
443.50 0.8368
443.60 0.8372
443.70 0.8375
443.80 0.8379
443.90 0.8382
444.00 0.8386
444.10 0.8389
444.20 0.8393
444.30 0.8396
444.40 0.84
444.50 0.8403
444.60 0.8407
444.70 0.841
444.80 0.8414
444.90 0.8417
445.00 0.8421
445.10 0.8424
445.20 0.8428
445.30 0.8431
445.40 0.8434
445.50 0.8438
445.60 0.8441
445.70 0.8445
445.80 0.8448
445.90 0.8452
446.00 0.8455
446.10 0.8459
446.20 0.8462
446.30 0.8465
446.40 0.8469
446.50 0.8472
446.60 0.8476
446.70 0.8479
446.80 0.8483
446.90 0.8486
447.00 0.8489
447.10 0.8493
447.20 0.8496
447.30 0.85
447.40 0.8503
447.50 0.8506
447.60 0.851
447.70 0.8513
447.80 0.8517
447.90 0.852
448.00 0.8523
448.10 0.8527
448.20 0.853
448.30 0.8534
448.40 0.8537
448.50 0.854
448.60 0.8544
448.70 0.8547
448.80 0.8551
448.90 0.8554
449.00 0.8557
449.10 0.8561
449.20 0.8564
449.30 0.8567
449.40 0.8571
449.50 0.8574
449.60 0.8578
449.70 0.8581
449.80 0.8584
449.90 0.8588
450.00 0.8591
450.10 0.8594
450.20 0.8598
450.30 0.8601
450.40 0.8604
450.50 0.8608
450.60 0.8611
450.70 0.8614
450.80 0.8618
450.90 0.8621
451.00 0.8624
451.10 0.8628
451.20 0.8631
451.30 0.8634
451.40 0.8638
451.50 0.8641
451.60 0.8644
451.70 0.8648
451.80 0.8651
451.90 0.8654
452.00 0.8658
452.10 0.8661
452.20 0.8664
452.30 0.8668
452.40 0.8671
452.50 0.8674
452.60 0.8678
452.70 0.8681
452.80 0.8684
452.90 0.8687
453.00 0.8691
453.10 0.8694
453.20 0.8697
453.30 0.8701
453.40 0.8704
453.50 0.8707
453.60 0.871
453.70 0.8714
453.80 0.8717
453.90 0.872
454.00 0.8724
454.10 0.8727
454.20 0.873
454.30 0.8733
454.40 0.8737
454.50 0.874
454.60 0.8743
454.70 0.8746
454.80 0.875
454.90 0.8753
455.00 0.8756
455.10 0.8759
455.20 0.8763
455.30 0.8766
455.40 0.8769
455.50 0.8772
455.60 0.8776
455.70 0.8779
455.80 0.8782
455.90 0.8785
456.00 0.8789
456.10 0.8792
456.20 0.8795
456.30 0.8798
456.40 0.8802
456.50 0.8805
456.60 0.8808
456.70 0.8811
456.80 0.8814
456.90 0.8818
457.00 0.8821
457.10 0.8824
457.20 0.8827
457.30 0.8831
457.40 0.8834
457.50 0.8837
457.60 0.884
457.70 0.8843
457.80 0.8847
457.90 0.885
458.00 0.8853
458.10 0.8856
458.20 0.8859
458.30 0.8862
458.40 0.8866
458.50 0.8869
458.60 0.8872
458.70 0.8875
458.80 0.8878
458.90 0.8881
459.00 0.8885
459.10 0.8888
459.20 0.8891
459.30 0.8894
459.40 0.8897
459.50 0.89
459.60 0.8903
459.70 0.8906
459.80 0.891
459.90 0.8913
460.00 0.8916
460.10 0.8919
460.20 0.8922
460.30 0.8926
460.40 0.8929
460.50 0.8932
460.60 0.8935
460.70 0.8938
460.80 0.8942
460.90 0.8945
461.00 0.8948
461.10 0.8951
461.20 0.8954
461.30 0.8957
461.40 0.896
461.50 0.8963
461.60 0.8966
461.70 0.8969
461.80 0.8972
461.90 0.8975
462.00 0.8978
462.10 0.8981
462.20 0.8985
462.30 0.8988
462.40 0.8991
462.50 0.8994
462.60 0.8997
462.70 0.9
462.80 0.9003
462.90 0.9006
463.00 0.9009
463.10 0.9012
463.20 0.9015
463.30 0.9019
463.40 0.9022
463.50 0.9025
463.60 0.9028
463.70 0.9031
463.80 0.9034
463.90 0.9037
464.00 0.904
464.10 0.9043
464.20 0.9046
464.30 0.9049
464.40 0.9052
464.50 0.9056
464.60 0.9059
464.70 0.9062
464.80 0.9065
464.90 0.9068
465.00 0.9071
465.10 0.9074
465.20 0.9077
465.30 0.908
465.40 0.9083
465.50 0.9086
465.60 0.9089
465.70 0.9092
465.80 0.9095
465.90 0.9098
466.00 0.9101
466.10 0.9104
466.20 0.9107
466.30 0.911
466.40 0.9113
466.50 0.9116
466.60 0.9119
466.70 0.9122
466.80 0.9125
466.90 0.9128
467.00 0.9131
467.10 0.9134
467.20 0.9137
467.30 0.914
467.40 0.9143
467.50 0.9146
467.60 0.9149
467.70 0.9152
467.80 0.9155
467.90 0.9158
468.00 0.9161
468.10 0.9164
468.20 0.9167
468.30 0.917
468.40 0.9173
468.50 0.9176
468.60 0.9179
468.70 0.9182
468.80 0.9185
468.90 0.9188
469.00 0.9191
469.10 0.9194
469.20 0.9197
469.30 0.92
469.40 0.9203
469.50 0.9206
469.60 0.9209
469.70 0.9211
469.80 0.9214
469.90 0.9217
470.00 0.922
470.10 0.9223
470.20 0.9226
470.30 0.9229
470.40 0.9232
470.50 0.9235
470.60 0.9238
470.70 0.9241
470.80 0.9244
470.90 0.9246
471.00 0.9249
471.10 0.9252
471.20 0.9255
471.30 0.9258
471.40 0.9261
471.50 0.9264
471.60 0.9267
471.70 0.927
471.80 0.9272
471.90 0.9275
472.00 0.9278
472.10 0.9281
472.20 0.9284
472.30 0.9287
472.40 0.929
472.50 0.9292
472.60 0.9295
472.70 0.9298
472.80 0.9301
472.90 0.9304
473.00 0.9307
473.10 0.9309
473.20 0.9312
473.30 0.9315
473.40 0.9318
473.50 0.9321
473.60 0.9324
473.70 0.9327
473.80 0.933
473.90 0.9333
474.00 0.9336
474.10 0.9338
474.20 0.9341
474.30 0.9344
474.40 0.9347
474.50 0.935
474.60 0.9352
474.70 0.9355
474.80 0.9358
474.90 0.9361
475.00 0.9363
475.10 0.9366
475.20 0.9369
475.30 0.9372
475.40 0.9375
475.50 0.9378
475.60 0.938
475.70 0.9383
475.80 0.9386
475.90 0.9389
476.00 0.9392
476.10 0.9395
476.20 0.9397
476.30 0.94
476.40 0.9403
476.50 0.9406
476.60 0.9409
476.70 0.9411
476.80 0.9414
476.90 0.9417
477.00 0.942
477.10 0.9423
477.20 0.9425
477.30 0.9428
477.40 0.9431
477.50 0.9434
477.60 0.9436
477.70 0.9439
477.80 0.9442
477.90 0.9445
478.00 0.9447
478.10 0.945
478.20 0.9453
478.30 0.9456
478.40 0.9458
478.50 0.9461
478.60 0.9464
478.70 0.9467
478.80 0.9469
478.90 0.9472
479.00 0.9475
479.10 0.9478
479.20 0.948
479.30 0.9483
479.40 0.9486
479.50 0.9489
479.60 0.9491
479.70 0.9494
479.80 0.9497
479.90 0.9499
480.00 0.9502
480.10 0.9505
480.20 0.9507
480.30 0.951
480.40 0.9513
480.50 0.9515
480.60 0.9518
480.70 0.9521
480.80 0.9523
480.90 0.9526
481.00 0.9529
481.10 0.9531
481.20 0.9534
481.30 0.9537
481.40 0.954
481.50 0.9542
481.60 0.9545
481.70 0.9548
481.80 0.955
481.90 0.9553
482.00 0.9556
482.10 0.9559
482.20 0.9561
482.30 0.9564
482.40 0.9567
482.50 0.9569
482.60 0.9572
482.70 0.9574
482.80 0.9577
482.90 0.958
483.00 0.9582
483.10 0.9585
483.20 0.9587
483.30 0.959
483.40 0.9593
483.50 0.9595
483.60 0.9598
483.70 0.96
483.80 0.9603
483.90 0.9605
484.00 0.9608
484.10 0.9611
484.20 0.9613
484.30 0.9616
484.40 0.9618
484.50 0.9621
484.60 0.9623
484.70 0.9625
484.80 0.9628
484.90 0.963
485.00 0.9632
485.10 0.9635
485.20 0.9637
485.30 0.9639
485.40 0.964
485.50 0.9641
485.60 0.9641
485.70 0.9639
485.80 0.9629
485.90 0.9614
486.00 0.9569
486.10 0.9386
486.20 0.9478
486.30 0.9602
486.40 0.9632
486.50 0.9653
486.60 0.9664
486.70 0.9671
486.80 0.9675
486.90 0.9679
487.00 0.9683
487.10 0.9686
487.20 0.9689
487.30 0.9692
487.40 0.9695
487.50 0.9698
487.60 0.9701
487.70 0.9703
487.80 0.9706
487.90 0.9708
488.00 0.9711
488.10 0.9713
488.20 0.9716
488.30 0.9719
488.40 0.9721
488.50 0.9724
488.60 0.9726
488.70 0.9729
488.80 0.9732
488.90 0.9734
489.00 0.9737
489.10 0.9739
489.20 0.9742
489.30 0.9744
489.40 0.9747
489.50 0.9749
489.60 0.9752
489.70 0.9754
489.80 0.9757
489.90 0.9759
490.00 0.9762
490.10 0.9764
490.20 0.9767
490.30 0.9769
490.40 0.9772
490.50 0.9774
490.60 0.9777
490.70 0.9779
490.80 0.9782
490.90 0.9785
491.00 0.9787
491.10 0.979
491.20 0.9792
491.30 0.9794
491.40 0.9797
491.50 0.9799
491.60 0.9802
491.70 0.9804
491.80 0.9807
491.90 0.9809
492.00 0.9812
492.10 0.9814
492.20 0.9816
492.30 0.9819
492.40 0.9821
492.50 0.9824
492.60 0.9826
492.70 0.9828
492.80 0.9831
492.90 0.9833
493.00 0.9836
493.10 0.9838
493.20 0.984
493.30 0.9843
493.40 0.9845
493.50 0.9848
493.60 0.985
493.70 0.9853
493.80 0.9855
493.90 0.9858
494.00 0.986
494.10 0.9862
494.20 0.9865
494.30 0.9867
494.40 0.987
494.50 0.9872
494.60 0.9874
494.70 0.9877
494.80 0.9879
494.90 0.9881
495.00 0.9884
495.10 0.9886
495.20 0.9888
495.30 0.9891
495.40 0.9893
495.50 0.9896
495.60 0.9898
495.70 0.99
495.80 0.9903
495.90 0.9905
496.00 0.9907
496.10 0.991
496.20 0.9912
496.30 0.9915
496.40 0.9917
496.50 0.9919
496.60 0.9922
496.70 0.9924
496.80 0.9926
496.90 0.9929
497.00 0.9931
497.10 0.9934
497.20 0.9936
497.30 0.9938
497.40 0.9941
497.50 0.9943
497.60 0.9945
497.70 0.9948
497.80 0.995
497.90 0.9952
498.00 0.9955
498.10 0.9957
498.20 0.9959
498.30 0.9961
498.40 0.9964
498.50 0.9966
498.60 0.9968
498.70 0.997
498.80 0.9973
498.90 0.9975
499.00 0.9977
499.10 0.9979
499.20 0.9982
499.30 0.9984
499.40 0.9986
499.50 0.9989
499.60 0.9991
499.70 0.9993
499.80 0.9995
499.90 0.9998
500.00 1
500.10 1
500.20 1
500.30 1.001
500.40 1.001
500.50 1.001
500.60 1.001
500.70 1.002
500.80 1.002
500.90 1.002
501.00 1.002
501.10 1.002
501.20 1.003
501.30 1.003
501.40 1.003
501.50 1.003
501.60 1.004
501.70 1.004
501.80 1.004
501.90 1.004
502.00 1.005
502.10 1.005
502.20 1.005
502.30 1.005
502.40 1.005
502.50 1.006
502.60 1.006
502.70 1.006
502.80 1.006
502.90 1.007
503.00 1.007
503.10 1.007
503.20 1.007
503.30 1.007
503.40 1.008
503.50 1.008
503.60 1.008
503.70 1.008
503.80 1.009
503.90 1.009
504.00 1.009
504.10 1.009
504.20 1.009
504.30 1.01
504.40 1.01
504.50 1.01
504.60 1.01
504.70 1.01
504.80 1.011
504.90 1.011
505.00 1.011
505.10 1.011
505.20 1.012
505.30 1.012
505.40 1.012
505.50 1.012
505.60 1.012
505.70 1.013
505.80 1.013
505.90 1.013
506.00 1.013
506.10 1.013
506.20 1.014
506.30 1.014
506.40 1.014
506.50 1.014
506.60 1.015
506.70 1.015
506.80 1.015
506.90 1.015
507.00 1.015
507.10 1.016
507.20 1.016
507.30 1.016
507.40 1.016
507.50 1.016
507.60 1.017
507.70 1.017
507.80 1.017
507.90 1.017
508.00 1.018
508.10 1.018
508.20 1.018
508.30 1.018
508.40 1.018
508.50 1.019
508.60 1.019
508.70 1.019
508.80 1.019
508.90 1.019
509.00 1.02
509.10 1.02
509.20 1.02
509.30 1.02
509.40 1.02
509.50 1.021
509.60 1.021
509.70 1.021
509.80 1.021
509.90 1.021
510.00 1.022
510.10 1.022
510.20 1.022
510.30 1.022
510.40 1.022
510.50 1.023
510.60 1.023
510.70 1.023
510.80 1.023
510.90 1.024
511.00 1.024
511.10 1.024
511.20 1.024
511.30 1.024
511.40 1.025
511.50 1.025
511.60 1.025
511.70 1.025
511.80 1.025
511.90 1.026
512.00 1.026
512.10 1.026
512.20 1.026
512.30 1.026
512.40 1.027
512.50 1.027
512.60 1.027
512.70 1.027
512.80 1.027
512.90 1.028
513.00 1.028
513.10 1.028
513.20 1.028
513.30 1.028
513.40 1.029
513.50 1.029
513.60 1.029
513.70 1.029
513.80 1.029
513.90 1.03
514.00 1.03
514.10 1.03
514.20 1.03
514.30 1.03
514.40 1.031
514.50 1.031
514.60 1.031
514.70 1.031
514.80 1.031
514.90 1.032
515.00 1.032
515.10 1.032
515.20 1.032
515.30 1.032
515.40 1.032
515.50 1.033
515.60 1.033
515.70 1.033
515.80 1.033
515.90 1.033
516.00 1.034
516.10 1.034
516.20 1.034
516.30 1.034
516.40 1.034
516.50 1.035
516.60 1.035
516.70 1.035
516.80 1.035
516.90 1.035
517.00 1.036
517.10 1.036
517.20 1.036
517.30 1.036
517.40 1.036
517.50 1.037
517.60 1.037
517.70 1.037
517.80 1.037
517.90 1.037
518.00 1.037
518.10 1.038
518.20 1.038
518.30 1.038
518.40 1.038
518.50 1.038
518.60 1.039
518.70 1.039
518.80 1.039
518.90 1.039
519.00 1.039
519.10 1.04
519.20 1.04
519.30 1.04
519.40 1.04
519.50 1.04
519.60 1.04
519.70 1.041
519.80 1.041
519.90 1.041
520.00 1.041
520.10 1.041
520.20 1.042
520.30 1.042
520.40 1.042
520.50 1.042
520.60 1.042
520.70 1.042
520.80 1.043
520.90 1.043
521.00 1.043
521.10 1.043
521.20 1.043
521.30 1.044
521.40 1.044
521.50 1.044
521.60 1.044
521.70 1.044
521.80 1.044
521.90 1.045
522.00 1.045
522.10 1.045
522.20 1.045
522.30 1.045
522.40 1.046
522.50 1.046
522.60 1.046
522.70 1.046
522.80 1.046
522.90 1.046
523.00 1.047
523.10 1.047
523.20 1.047
523.30 1.047
523.40 1.047
523.50 1.048
523.60 1.048
523.70 1.048
523.80 1.048
523.90 1.048
524.00 1.048
524.10 1.049
524.20 1.049
524.30 1.049
524.40 1.049
524.50 1.049
524.60 1.049
524.70 1.05
524.80 1.05
524.90 1.05
525.00 1.05
525.10 1.05
525.20 1.05
525.30 1.051
525.40 1.051
525.50 1.051
525.60 1.051
525.70 1.051
525.80 1.052
525.90 1.052
526.00 1.052
526.10 1.052
526.20 1.052
526.30 1.052
526.40 1.053
526.50 1.053
526.60 1.053
526.70 1.053
526.80 1.053
526.90 1.053
527.00 1.054
527.10 1.054
527.20 1.054
527.30 1.054
527.40 1.054
527.50 1.054
527.60 1.055
527.70 1.055
527.80 1.055
527.90 1.055
528.00 1.055
528.10 1.055
528.20 1.056
528.30 1.056
528.40 1.056
528.50 1.056
528.60 1.056
528.70 1.056
528.80 1.057
528.90 1.057
529.00 1.057
529.10 1.057
529.20 1.057
529.30 1.057
529.40 1.058
529.50 1.058
529.60 1.058
529.70 1.058
529.80 1.058
529.90 1.058
530.00 1.059
530.10 1.059
530.20 1.059
530.30 1.059
530.40 1.059
530.50 1.059
530.60 1.06
530.70 1.06
530.80 1.06
530.90 1.06
531.00 1.06
531.10 1.06
531.20 1.061
531.30 1.061
531.40 1.061
531.50 1.061
531.60 1.061
531.70 1.061
531.80 1.062
531.90 1.062
532.00 1.062
532.10 1.062
532.20 1.062
532.30 1.062
532.40 1.062
532.50 1.063
532.60 1.063
532.70 1.063
532.80 1.063
532.90 1.063
533.00 1.063
533.10 1.064
533.20 1.064
533.30 1.064
533.40 1.064
533.50 1.064
533.60 1.064
533.70 1.065
533.80 1.065
533.90 1.065
534.00 1.065
534.10 1.065
534.20 1.065
534.30 1.065
534.40 1.066
534.50 1.066
534.60 1.066
534.70 1.066
534.80 1.066
534.90 1.066
535.00 1.067
535.10 1.067
535.20 1.067
535.30 1.067
535.40 1.067
535.50 1.067
535.60 1.067
535.70 1.068
535.80 1.068
535.90 1.068
536.00 1.068
536.10 1.068
536.20 1.068
536.30 1.069
536.40 1.069
536.50 1.069
536.60 1.069
536.70 1.069
536.80 1.069
536.90 1.069
537.00 1.07
537.10 1.07
537.20 1.07
537.30 1.07
537.40 1.07
537.50 1.07
537.60 1.07
537.70 1.071
537.80 1.071
537.90 1.071
538.00 1.071
538.10 1.071
538.20 1.071
538.30 1.072
538.40 1.072
538.50 1.072
538.60 1.072
538.70 1.072
538.80 1.072
538.90 1.072
539.00 1.073
539.10 1.073
539.20 1.073
539.30 1.073
539.40 1.073
539.50 1.073
539.60 1.073
539.70 1.074
539.80 1.074
539.90 1.074
540.00 1.074
540.10 1.074
540.20 1.074
540.30 1.074
540.40 1.075
540.50 1.075
540.60 1.075
540.70 1.075
540.80 1.075
540.90 1.075
541.00 1.075
541.10 1.076
541.20 1.076
541.30 1.076
541.40 1.076
541.50 1.076
541.60 1.076
541.70 1.076
541.80 1.077
541.90 1.077
542.00 1.077
542.10 1.077
542.20 1.077
542.30 1.077
542.40 1.077
542.50 1.078
542.60 1.078
542.70 1.078
542.80 1.078
542.90 1.078
543.00 1.078
543.10 1.078
543.20 1.078
543.30 1.079
543.40 1.079
543.50 1.079
543.60 1.079
543.70 1.079
543.80 1.079
543.90 1.079
544.00 1.08
544.10 1.08
544.20 1.08
544.30 1.08
544.40 1.08
544.50 1.08
544.60 1.08
544.70 1.081
544.80 1.081
544.90 1.081
545.00 1.081
545.10 1.081
545.20 1.081
545.30 1.081
545.40 1.081
545.50 1.082
545.60 1.082
545.70 1.082
545.80 1.082
545.90 1.082
546.00 1.082
546.10 1.082
546.20 1.082
546.30 1.083
546.40 1.083
546.50 1.083
546.60 1.083
546.70 1.083
546.80 1.083
546.90 1.083
547.00 1.084
547.10 1.084
547.20 1.084
547.30 1.084
547.40 1.084
547.50 1.084
547.60 1.084
547.70 1.084
547.80 1.085
547.90 1.085
548.00 1.085
548.10 1.085
548.20 1.085
548.30 1.085
548.40 1.085
548.50 1.085
548.60 1.086
548.70 1.086
548.80 1.086
548.90 1.086
549.00 1.086
549.10 1.086
549.20 1.086
549.30 1.086
549.40 1.087
549.50 1.087
549.60 1.087
549.70 1.087
549.80 1.087
549.90 1.087
550.00 1.087
550.10 1.087
550.20 1.088
550.30 1.088
550.40 1.088
550.50 1.088
550.60 1.088
550.70 1.088
550.80 1.088
550.90 1.088
551.00 1.089
551.10 1.089
551.20 1.089
551.30 1.089
551.40 1.089
551.50 1.089
551.60 1.089
551.70 1.089
551.80 1.09
551.90 1.09
552.00 1.09
552.10 1.09
552.20 1.09
552.30 1.09
552.40 1.09
552.50 1.09
552.60 1.091
552.70 1.091
552.80 1.091
552.90 1.091
553.00 1.091
553.10 1.091
553.20 1.091
553.30 1.091
553.40 1.091
553.50 1.092
553.60 1.092
553.70 1.092
553.80 1.092
553.90 1.092
554.00 1.092
554.10 1.092
554.20 1.092
554.30 1.093
554.40 1.093
554.50 1.093
554.60 1.093
554.70 1.093
554.80 1.093
554.90 1.093
555.00 1.093
555.10 1.093
555.20 1.094
555.30 1.094
555.40 1.094
555.50 1.094
555.60 1.094
555.70 1.094
555.80 1.094
555.90 1.094
556.00 1.094
556.10 1.095
556.20 1.095
556.30 1.095
556.40 1.095
556.50 1.095
556.60 1.095
556.70 1.095
556.80 1.095
556.90 1.096
557.00 1.096
557.10 1.096
557.20 1.096
557.30 1.096
557.40 1.096
557.50 1.096
557.60 1.096
557.70 1.096
557.80 1.097
557.90 1.097
558.00 1.097
558.10 1.097
558.20 1.097
558.30 1.097
558.40 1.097
558.50 1.097
558.60 1.097
558.70 1.097
558.80 1.098
558.90 1.098
559.00 1.098
559.10 1.098
559.20 1.098
559.30 1.098
559.40 1.098
559.50 1.098
559.60 1.098
559.70 1.099
559.80 1.099
559.90 1.099
560.00 1.099
560.10 1.099
560.20 1.099
560.30 1.099
560.40 1.099
560.50 1.099
560.60 1.099
560.70 1.1
560.80 1.1
560.90 1.1
561.00 1.1
561.10 1.1
561.20 1.1
561.30 1.1
561.40 1.1
561.50 1.1
561.60 1.101
561.70 1.101
561.80 1.101
561.90 1.101
562.00 1.101
562.10 1.101
562.20 1.101
562.30 1.101
562.40 1.101
562.50 1.101
562.60 1.102
562.70 1.102
562.80 1.102
562.90 1.102
563.00 1.102
563.10 1.102
563.20 1.102
563.30 1.102
563.40 1.102
563.50 1.102
563.60 1.103
563.70 1.103
563.80 1.103
563.90 1.103
564.00 1.103
564.10 1.103
564.20 1.103
564.30 1.103
564.40 1.103
564.50 1.103
564.60 1.104
564.70 1.104
564.80 1.104
564.90 1.104
565.00 1.104
565.10 1.104
565.20 1.104
565.30 1.104
565.40 1.104
565.50 1.104
565.60 1.104
565.70 1.105
565.80 1.105
565.90 1.105
566.00 1.105
566.10 1.105
566.20 1.105
566.30 1.105
566.40 1.105
566.50 1.105
566.60 1.105
566.70 1.106
566.80 1.106
566.90 1.106
567.00 1.106
567.10 1.106
567.20 1.106
567.30 1.106
567.40 1.106
567.50 1.106
567.60 1.106
567.70 1.106
567.80 1.107
567.90 1.107
568.00 1.107
568.10 1.107
568.20 1.107
568.30 1.107
568.40 1.107
568.50 1.107
568.60 1.107
568.70 1.107
568.80 1.107
568.90 1.108
569.00 1.108
569.10 1.108
569.20 1.108
569.30 1.108
569.40 1.108
569.50 1.108
569.60 1.108
569.70 1.108
569.80 1.108
569.90 1.108
570.00 1.109
570.10 1.109
570.20 1.109
570.30 1.109
570.40 1.109
570.50 1.109
570.60 1.109
570.70 1.109
570.80 1.109
570.90 1.109
571.00 1.109
571.10 1.109
571.20 1.11
571.30 1.11
571.40 1.11
571.50 1.11
571.60 1.11
571.70 1.11
571.80 1.11
571.90 1.11
572.00 1.11
572.10 1.11
572.20 1.11
572.30 1.111
572.40 1.111
572.50 1.111
572.60 1.111
572.70 1.111
572.80 1.111
572.90 1.111
573.00 1.111
573.10 1.111
573.20 1.111
573.30 1.111
573.40 1.111
573.50 1.111
573.60 1.112
573.70 1.112
573.80 1.112
573.90 1.112
574.00 1.112
574.10 1.112
574.20 1.112
574.30 1.112
574.40 1.112
574.50 1.112
574.60 1.112
574.70 1.112
574.80 1.113
574.90 1.113
575.00 1.113
575.10 1.113
575.20 1.113
575.30 1.113
575.40 1.113
575.50 1.113
575.60 1.113
575.70 1.113
575.80 1.113
575.90 1.113
576.00 1.113
576.10 1.114
576.20 1.114
576.30 1.114
576.40 1.114
576.50 1.114
576.60 1.114
576.70 1.114
576.80 1.114
576.90 1.114
577.00 1.114
577.10 1.114
577.20 1.114
577.30 1.114
577.40 1.115
577.50 1.115
577.60 1.115
577.70 1.115
577.80 1.115
577.90 1.115
578.00 1.115
578.10 1.115
578.20 1.115
578.30 1.115
578.40 1.115
578.50 1.115
578.60 1.115
578.70 1.116
578.80 1.116
578.90 1.116
579.00 1.116
579.10 1.116
579.20 1.116
579.30 1.116
579.40 1.116
579.50 1.116
579.60 1.116
579.70 1.116
579.80 1.116
579.90 1.116
580.00 1.116
580.10 1.117
580.20 1.117
580.30 1.117
580.40 1.117
580.50 1.117
580.60 1.117
580.70 1.117
580.80 1.117
580.90 1.117
581.00 1.117
581.10 1.117
581.20 1.117
581.30 1.117
581.40 1.117
581.50 1.117
581.60 1.118
581.70 1.118
581.80 1.118
581.90 1.118
582.00 1.118
582.10 1.118
582.20 1.118
582.30 1.118
582.40 1.118
582.50 1.118
582.60 1.118
582.70 1.118
582.80 1.118
582.90 1.118
583.00 1.118
583.10 1.119
583.20 1.119
583.30 1.119
583.40 1.119
583.50 1.119
583.60 1.119
583.70 1.119
583.80 1.119
583.90 1.119
584.00 1.119
584.10 1.119
584.20 1.119
584.30 1.119
584.40 1.119
584.50 1.119
584.60 1.12
584.70 1.12
584.80 1.12
584.90 1.12
585.00 1.12
585.10 1.12
585.20 1.12
585.30 1.12
585.40 1.12
585.50 1.12
585.60 1.12
585.70 1.12
585.80 1.12
585.90 1.12
586.00 1.12
586.10 1.12
586.20 1.121
586.30 1.121
586.40 1.121
586.50 1.121
586.60 1.121
586.70 1.121
586.80 1.121
586.90 1.121
587.00 1.121
587.10 1.121
587.20 1.121
587.30 1.121
587.40 1.121
587.50 1.121
587.60 1.121
587.70 1.121
587.80 1.121
587.90 1.121
588.00 1.122
588.10 1.122
588.20 1.122
588.30 1.122
588.40 1.122
588.50 1.122
588.60 1.122
588.70 1.122
588.80 1.122
588.90 1.122
589.00 1.122
589.10 1.122
589.20 1.122
589.30 1.122
589.40 1.122
589.50 1.122
589.60 1.122
589.70 1.123
589.80 1.123
589.90 1.123
590.00 1.123
590.10 1.123
590.20 1.123
590.30 1.123
590.40 1.123
590.50 1.123
590.60 1.123
590.70 1.123
590.80 1.123
590.90 1.123
591.00 1.123
591.10 1.123
591.20 1.123
591.30 1.123
591.40 1.123
591.50 1.124
591.60 1.124
591.70 1.124
591.80 1.124
591.90 1.124
592.00 1.124
592.10 1.124
592.20 1.124
592.30 1.124
592.40 1.124
592.50 1.124
592.60 1.124
592.70 1.124
592.80 1.124
592.90 1.124
593.00 1.124
593.10 1.124
593.20 1.124
593.30 1.124
593.40 1.124
593.50 1.125
593.60 1.125
593.70 1.125
593.80 1.125
593.90 1.125
594.00 1.125
594.10 1.125
594.20 1.125
594.30 1.125
594.40 1.125
594.50 1.125
594.60 1.125
594.70 1.125
594.80 1.125
594.90 1.125
595.00 1.125
595.10 1.125
595.20 1.125
595.30 1.125
595.40 1.125
595.50 1.125
595.60 1.125
595.70 1.126
595.80 1.126
595.90 1.126
596.00 1.126
596.10 1.126
596.20 1.126
596.30 1.126
596.40 1.126
596.50 1.126
596.60 1.126
596.70 1.126
596.80 1.126
596.90 1.126
597.00 1.126
597.10 1.126
597.20 1.126
597.30 1.126
597.40 1.126
597.50 1.126
597.60 1.126
597.70 1.126
597.80 1.126
597.90 1.127
598.00 1.127
598.10 1.127
598.20 1.127
598.30 1.127
598.40 1.127
598.50 1.127
598.60 1.127
598.70 1.127
598.80 1.127
598.90 1.127
599.00 1.127
599.10 1.127
599.20 1.127
599.30 1.127
599.40 1.127
599.50 1.127
599.60 1.127
599.70 1.127
599.80 1.127
599.90 1.127
600.00 1.127
600.10 1.127
600.20 1.127
600.30 1.127
600.40 1.128
600.50 1.128
600.60 1.128
600.70 1.128
600.80 1.128
600.90 1.128
601.00 1.128
601.10 1.128
601.20 1.128
601.30 1.128
601.40 1.128
601.50 1.128
601.60 1.128
601.70 1.128
601.80 1.128
601.90 1.128
602.00 1.128
602.10 1.128
602.20 1.128
602.30 1.128
602.40 1.128
602.50 1.128
602.60 1.128
602.70 1.128
602.80 1.128
602.90 1.128
603.00 1.128
603.10 1.129
603.20 1.129
603.30 1.129
603.40 1.129
603.50 1.129
603.60 1.129
603.70 1.129
603.80 1.129
603.90 1.129
604.00 1.129
604.10 1.129
604.20 1.129
604.30 1.129
604.40 1.129
604.50 1.129
604.60 1.129
604.70 1.129
604.80 1.129
604.90 1.129
605.00 1.129
605.10 1.129
605.20 1.129
605.30 1.129
605.40 1.129
605.50 1.129
605.60 1.129
605.70 1.129
605.80 1.129
605.90 1.129
606.00 1.129
606.10 1.129
606.20 1.13
606.30 1.13
606.40 1.13
606.50 1.13
606.60 1.13
606.70 1.13
606.80 1.13
606.90 1.13
607.00 1.13
607.10 1.13
607.20 1.13
607.30 1.13
607.40 1.13
607.50 1.13
607.60 1.13
607.70 1.13
607.80 1.13
607.90 1.13
608.00 1.13
608.10 1.13
608.20 1.13
608.30 1.13
608.40 1.13
608.50 1.13
608.60 1.13
608.70 1.13
608.80 1.13
608.90 1.13
609.00 1.13
609.10 1.13
609.20 1.13
609.30 1.13
609.40 1.13
609.50 1.13
609.60 1.13
609.70 1.13
609.80 1.13
609.90 1.13
610.00 1.131
610.10 1.131
610.20 1.131
610.30 1.131
610.40 1.131
610.50 1.131
610.60 1.131
610.70 1.131
610.80 1.131
610.90 1.131
611.00 1.131
611.10 1.131
611.20 1.131
611.30 1.131
611.40 1.131
611.50 1.131
611.60 1.131
611.70 1.131
611.80 1.131
611.90 1.131
612.00 1.131
612.10 1.131
612.20 1.131
612.30 1.131
612.40 1.131
612.50 1.131
612.60 1.131
612.70 1.131
612.80 1.131
612.90 1.131
613.00 1.131
613.10 1.131
613.20 1.131
613.30 1.131
613.40 1.131
613.50 1.131
613.60 1.131
613.70 1.131
613.80 1.131
613.90 1.131
614.00 1.131
614.10 1.131
614.20 1.131
614.30 1.131
614.40 1.131
614.50 1.131
614.60 1.131
614.70 1.131
614.80 1.132
614.90 1.132
615.00 1.132
615.10 1.132
615.20 1.132
615.30 1.132
615.40 1.132
615.50 1.132
615.60 1.132
615.70 1.132
615.80 1.132
615.90 1.132
616.00 1.132
616.10 1.132
616.20 1.132
616.30 1.132
616.40 1.132
616.50 1.132
616.60 1.132
616.70 1.132
616.80 1.132
616.90 1.132
617.00 1.132
617.10 1.132
617.20 1.132
617.30 1.132
617.40 1.132
617.50 1.132
617.60 1.132
617.70 1.132
617.80 1.132
617.90 1.132
618.00 1.132
618.10 1.132
618.20 1.132
618.30 1.132
618.40 1.132
618.50 1.132
618.60 1.132
618.70 1.132
618.80 1.132
618.90 1.132
619.00 1.132
619.10 1.132
619.20 1.132
619.30 1.132
619.40 1.132
619.50 1.132
619.60 1.132
619.70 1.132
619.80 1.132
619.90 1.132
620.00 1.132
620.10 1.132
620.20 1.132
620.30 1.132
620.40 1.132
620.50 1.132
620.60 1.132
620.70 1.132
620.80 1.132
620.90 1.132
621.00 1.132
621.10 1.132
621.20 1.132
621.30 1.132
621.40 1.132
621.50 1.132
621.60 1.132
621.70 1.132
621.80 1.132
621.90 1.132
622.00 1.132
622.10 1.132
622.20 1.132
622.30 1.132
622.40 1.132
622.50 1.132
622.60 1.132
622.70 1.132
622.80 1.132
622.90 1.133
623.00 1.133
623.10 1.133
623.20 1.133
623.30 1.133
623.40 1.133
623.50 1.133
623.60 1.133
623.70 1.133
623.80 1.133
623.90 1.133
624.00 1.133
624.10 1.133
624.20 1.133
624.30 1.133
624.40 1.133
624.50 1.133
624.60 1.133
624.70 1.133
624.80 1.133
624.90 1.133
625.00 1.133
625.10 1.133
625.20 1.133
625.30 1.133
625.40 1.133
625.50 1.133
625.60 1.133
625.70 1.133
625.80 1.133
625.90 1.133
626.00 1.133
626.10 1.133
626.20 1.133
626.30 1.133
626.40 1.133
626.50 1.133
626.60 1.133
626.70 1.133
626.80 1.133
626.90 1.133
627.00 1.133
627.10 1.133
627.20 1.133
627.30 1.133
627.40 1.133
627.50 1.133
627.60 1.133
627.70 1.133
627.80 1.133
627.90 1.133
628.00 1.133
628.10 1.133
628.20 1.133
628.30 1.133
628.40 1.133
628.50 1.133
628.60 1.133
628.70 1.133
628.80 1.133
628.90 1.133
629.00 1.133
629.10 1.133
629.20 1.133
629.30 1.133
629.40 1.133
629.50 1.133
629.60 1.133
629.70 1.133
629.80 1.133
629.90 1.133
630.00 1.133
630.10 1.133
630.20 1.133
630.30 1.133
630.40 1.133
630.50 1.133
630.60 1.133
630.70 1.133
630.80 1.133
630.90 1.133
631.00 1.133
631.10 1.133
631.20 1.133
631.30 1.133
631.40 1.133
631.50 1.133
631.60 1.133
631.70 1.133
631.80 1.133
631.90 1.133
632.00 1.133
632.10 1.133
632.20 1.133
632.30 1.133
632.40 1.133
632.50 1.133
632.60 1.133
632.70 1.133
632.80 1.133
632.90 1.133
633.00 1.133
633.10 1.133
633.20 1.133
633.30 1.133
633.40 1.133
633.50 1.133
633.60 1.133
633.70 1.133
633.80 1.133
633.90 1.133
634.00 1.133
634.10 1.132
634.20 1.132
634.30 1.132
634.40 1.132
634.50 1.132
634.60 1.132
634.70 1.132
634.80 1.132
634.90 1.132
635.00 1.132
635.10 1.132
635.20 1.132
635.30 1.132
635.40 1.132
635.50 1.132
635.60 1.132
635.70 1.132
635.80 1.132
635.90 1.132
636.00 1.132
636.10 1.132
636.20 1.132
636.30 1.132
636.40 1.132
636.50 1.132
636.60 1.132
636.70 1.132
636.80 1.132
636.90 1.132
637.00 1.132
637.10 1.132
637.20 1.132
637.30 1.132
637.40 1.132
637.50 1.132
637.60 1.132
637.70 1.132
637.80 1.132
637.90 1.132
638.00 1.132
638.10 1.132
638.20 1.132
638.30 1.132
638.40 1.132
638.50 1.132
638.60 1.132
638.70 1.132
638.80 1.132
638.90 1.132
639.00 1.132
639.10 1.132
639.20 1.132
639.30 1.132
639.40 1.132
639.50 1.132
639.60 1.132
639.70 1.132
639.80 1.132
639.90 1.132
640.00 1.132
640.10 1.132
640.20 1.132
640.30 1.132
640.40 1.132
640.50 1.132
640.60 1.132
640.70 1.132
640.80 1.132
640.90 1.132
641.00 1.132
641.10 1.132
641.20 1.132
641.30 1.132
641.40 1.132
641.50 1.132
641.60 1.132
641.70 1.132
641.80 1.132
641.90 1.132
642.00 1.132
642.10 1.132
642.20 1.132
642.30 1.131
642.40 1.131
642.50 1.131
642.60 1.131
642.70 1.131
642.80 1.131
642.90 1.131
643.00 1.131
643.10 1.131
643.20 1.131
643.30 1.131
643.40 1.131
643.50 1.131
643.60 1.131
643.70 1.131
643.80 1.131
643.90 1.131
644.00 1.131
644.10 1.131
644.20 1.131
644.30 1.131
644.40 1.131
644.50 1.131
644.60 1.131
644.70 1.131
644.80 1.131
644.90 1.131
645.00 1.131
645.10 1.131
645.20 1.131
645.30 1.131
645.40 1.131
645.50 1.131
645.60 1.131
645.70 1.131
645.80 1.131
645.90 1.131
646.00 1.131
646.10 1.131
646.20 1.131
646.30 1.131
646.40 1.131
646.50 1.131
646.60 1.131
646.70 1.131
646.80 1.131
646.90 1.131
647.00 1.131
647.10 1.131
647.20 1.13
647.30 1.13
647.40 1.13
647.50 1.13
647.60 1.13
647.70 1.13
647.80 1.13
647.90 1.13
648.00 1.13
648.10 1.13
648.20 1.13
648.30 1.13
648.40 1.13
648.50 1.13
648.60 1.13
648.70 1.13
648.80 1.13
648.90 1.13
649.00 1.13
649.10 1.13
649.20 1.13
649.30 1.13
649.40 1.13
649.50 1.13
649.60 1.13
649.70 1.13
649.80 1.13
649.90 1.13
650.00 1.13
650.10 1.13
650.20 1.13
650.30 1.13
650.40 1.13
650.50 1.13
650.60 1.13
650.70 1.13
650.80 1.13
650.90 1.13
651.00 1.13
651.10 1.129
651.20 1.129
651.30 1.129
651.40 1.129
651.50 1.129
651.60 1.129
651.70 1.129
651.80 1.129
651.90 1.129
652.00 1.129
652.10 1.129
652.20 1.129
652.30 1.129
652.40 1.129
652.50 1.129
652.60 1.129
652.70 1.129
652.80 1.129
652.90 1.129
653.00 1.129
653.10 1.129
653.20 1.129
653.30 1.129
653.40 1.129
653.50 1.129
653.60 1.129
653.70 1.128
653.80 1.128
653.90 1.128
654.00 1.128
654.10 1.128
654.20 1.128
654.30 1.128
654.40 1.128
654.50 1.128
654.60 1.128
654.70 1.128
654.80 1.128
654.90 1.127
655.00 1.127
655.10 1.127
655.20 1.127
655.30 1.126
655.40 1.126
655.50 1.125
655.60 1.124
655.70 1.122
655.80 1.12
655.90 1.116
656.00 1.106
656.10 1.094
656.20 1.058
656.30 1.019
656.40 1.076
656.50 1.1
656.60 1.11
656.70 1.118
656.80 1.12
656.90 1.123
657.00 1.124
657.10 1.125
657.20 1.125
657.30 1.126
657.40 1.126
657.50 1.126
657.60 1.126
657.70 1.126
657.80 1.127
657.90 1.127
658.00 1.127
658.10 1.127
658.20 1.127
658.30 1.127
658.40 1.127
658.50 1.127
658.60 1.127
658.70 1.127
658.80 1.127
658.90 1.127
659.00 1.127
659.10 1.127
659.20 1.127
659.30 1.127
659.40 1.127
659.50 1.127
659.60 1.127
659.70 1.127
659.80 1.127
659.90 1.127
660.00 1.127
660.10 1.127
660.20 1.127
660.30 1.127
660.40 1.127
660.50 1.126
660.60 1.126
660.70 1.126
660.80 1.126
660.90 1.126
661.00 1.126
661.10 1.126
661.20 1.126
661.30 1.126
661.40 1.126
661.50 1.126
661.60 1.126
661.70 1.126
661.80 1.126
661.90 1.126
662.00 1.126
662.10 1.126
662.20 1.126
662.30 1.126
662.40 1.126
662.50 1.126
662.60 1.126
662.70 1.126
662.80 1.126
662.90 1.126
663.00 1.126
663.10 1.126
663.20 1.126
663.30 1.125
663.40 1.125
663.50 1.125
663.60 1.125
663.70 1.125
663.80 1.125
663.90 1.125
664.00 1.125
664.10 1.125
664.20 1.125
664.30 1.125
664.40 1.125
664.50 1.125
664.60 1.125
664.70 1.125
664.80 1.125
664.90 1.125
665.00 1.125
665.10 1.125
665.20 1.125
665.30 1.125
665.40 1.125
665.50 1.125
665.60 1.125
665.70 1.125
665.80 1.124
665.90 1.124
666.00 1.124
666.10 1.124
666.20 1.124
666.30 1.124
666.40 1.124
666.50 1.124
666.60 1.124
666.70 1.124
666.80 1.124
666.90 1.124
667.00 1.124
667.10 1.124
667.20 1.124
667.30 1.124
667.40 1.124
667.50 1.124
667.60 1.124
667.70 1.124
667.80 1.124
667.90 1.124
668.00 1.124
668.10 1.124
668.20 1.123
668.30 1.123
668.40 1.123
668.50 1.123
668.60 1.123
668.70 1.123
668.80 1.123
668.90 1.123
669.00 1.123
669.10 1.123
669.20 1.123
669.30 1.123
669.40 1.123
669.50 1.123
669.60 1.123
669.70 1.123
669.80 1.123
669.90 1.123
670.00 1.123
670.10 1.123
670.20 1.123
670.30 1.123
670.40 1.122
670.50 1.122
670.60 1.122
670.70 1.122
670.80 1.122
670.90 1.122
671.00 1.122
671.10 1.122
671.20 1.122
671.30 1.122
671.40 1.122
671.50 1.122
671.60 1.122
671.70 1.122
671.80 1.122
671.90 1.122
672.00 1.122
672.10 1.122
672.20 1.122
672.30 1.122
672.40 1.122
672.50 1.121
672.60 1.121
672.70 1.121
672.80 1.121
672.90 1.121
673.00 1.121
673.10 1.121
673.20 1.121
673.30 1.121
673.40 1.121
673.50 1.121
673.60 1.121
673.70 1.121
673.80 1.121
673.90 1.121
674.00 1.121
674.10 1.121
674.20 1.121
674.30 1.121
674.40 1.121
674.50 1.121
674.60 1.12
674.70 1.12
674.80 1.12
674.90 1.12
675.00 1.12
675.10 1.12
675.20 1.12
675.30 1.12
675.40 1.12
675.50 1.12
675.60 1.12
675.70 1.12
675.80 1.12
675.90 1.12
676.00 1.12
676.10 1.12
676.20 1.12
676.30 1.12
676.40 1.12
676.50 1.12
676.60 1.119
676.70 1.119
676.80 1.119
676.90 1.119
677.00 1.119
677.10 1.119
677.20 1.119
677.30 1.119
677.40 1.119
677.50 1.119
677.60 1.119
677.70 1.119
677.80 1.119
677.90 1.119
678.00 1.119
678.10 1.119
678.20 1.119
678.30 1.119
678.40 1.119
678.50 1.118
678.60 1.118
678.70 1.118
678.80 1.118
678.90 1.118
679.00 1.118
679.10 1.118
679.20 1.118
679.30 1.118
679.40 1.118
679.50 1.118
679.60 1.118
679.70 1.118
679.80 1.118
679.90 1.118
680.00 1.118
680.10 1.118
680.20 1.118
680.30 1.117
680.40 1.117
680.50 1.117
680.60 1.117
680.70 1.117
680.80 1.117
680.90 1.117
681.00 1.117
681.10 1.117
681.20 1.117
681.30 1.117
681.40 1.117
681.50 1.117
681.60 1.117
681.70 1.117
681.80 1.117
681.90 1.117
682.00 1.117
682.10 1.116
682.20 1.116
682.30 1.116
682.40 1.116
682.50 1.116
682.60 1.116
682.70 1.116
682.80 1.116
682.90 1.116
683.00 1.116
683.10 1.116
683.20 1.116
683.30 1.116
683.40 1.116
683.50 1.116
683.60 1.116
683.70 1.116
683.80 1.115
683.90 1.115
684.00 1.115
684.10 1.115
684.20 1.115
684.30 1.115
684.40 1.115
684.50 1.115
684.60 1.115
684.70 1.115
684.80 1.115
684.90 1.115
685.00 1.115
685.10 1.115
685.20 1.115
685.30 1.115
685.40 1.115
685.50 1.114
685.60 1.114
685.70 1.114
685.80 1.114
685.90 1.114
686.00 1.114
686.10 1.114
686.20 1.114
686.30 1.114
686.40 1.114
686.50 1.114
686.60 1.114
686.70 1.114
686.80 1.114
686.90 1.114
687.00 1.114
687.10 1.114
687.20 1.113
687.30 1.113
687.40 1.113
687.50 1.113
687.60 1.113
687.70 1.113
687.80 1.113
687.90 1.113
688.00 1.113
688.10 1.113
688.20 1.113
688.30 1.113
688.40 1.113
688.50 1.113
688.60 1.113
688.70 1.113
688.80 1.112
688.90 1.112
689.00 1.112
689.10 1.112
689.20 1.112
689.30 1.112
689.40 1.112
689.50 1.112
689.60 1.112
689.70 1.112
689.80 1.112
689.90 1.112
690.00 1.112
690.10 1.112
690.20 1.112
690.30 1.112
690.40 1.111
690.50 1.111
690.60 1.111
690.70 1.111
690.80 1.111
690.90 1.111
691.00 1.111
691.10 1.111
691.20 1.111
691.30 1.111
691.40 1.111
691.50 1.111
691.60 1.111
691.70 1.111
691.80 1.111
691.90 1.11
692.00 1.11
692.10 1.11
692.20 1.11
692.30 1.11
692.40 1.11
692.50 1.11
692.60 1.11
692.70 1.11
692.80 1.11
692.90 1.11
693.00 1.11
693.10 1.11
693.20 1.11
693.30 1.11
693.40 1.11
693.50 1.109
693.60 1.109
693.70 1.109
693.80 1.109
693.90 1.109
694.00 1.109
694.10 1.109
694.20 1.109
694.30 1.109
694.40 1.109
694.50 1.109
694.60 1.109
694.70 1.109
694.80 1.109
694.90 1.109
695.00 1.108
695.10 1.108
695.20 1.108
695.30 1.108
695.40 1.108
695.50 1.108
695.60 1.108
695.70 1.108
695.80 1.108
695.90 1.108
696.00 1.108
696.10 1.108
696.20 1.108
696.30 1.108
696.40 1.108
696.50 1.107
696.60 1.107
696.70 1.107
696.80 1.107
696.90 1.107
697.00 1.107
697.10 1.107
697.20 1.107
697.30 1.107
697.40 1.107
697.50 1.107
697.60 1.107
697.70 1.107
697.80 1.107
697.90 1.106
698.00 1.106
698.10 1.106
698.20 1.106
698.30 1.106
698.40 1.106
698.50 1.106
698.60 1.106
698.70 1.106
698.80 1.106
698.90 1.106
699.00 1.106
699.10 1.106
699.20 1.106
699.30 1.106
699.40 1.105
699.50 1.105
699.60 1.105
699.70 1.105
699.80 1.105
699.90 1.105
700.00 1.105
700.10 1.105
700.20 1.105
700.30 1.105
700.40 1.105
700.50 1.105
700.60 1.105
700.70 1.105
700.80 1.104
700.90 1.104
701.00 1.104
701.10 1.104
701.20 1.104
701.30 1.104
701.40 1.104
701.50 1.104
701.60 1.104
701.70 1.104
701.80 1.104
701.90 1.104
702.00 1.104
702.10 1.104
702.20 1.103
702.30 1.103
702.40 1.103
702.50 1.103
702.60 1.103
702.70 1.103
702.80 1.103
702.90 1.103
703.00 1.103
703.10 1.103
703.20 1.103
703.30 1.103
703.40 1.103
703.50 1.103
703.60 1.102
703.70 1.102
703.80 1.102
703.90 1.102
704.00 1.102
704.10 1.102
704.20 1.102
704.30 1.102
704.40 1.102
704.50 1.102
704.60 1.102
704.70 1.102
704.80 1.102
704.90 1.101
705.00 1.101
705.10 1.101
705.20 1.101
705.30 1.101
705.40 1.101
705.50 1.101
705.60 1.101
705.70 1.101
705.80 1.101
705.90 1.101
706.00 1.101
706.10 1.101
706.20 1.101
706.30 1.1
706.40 1.1
706.50 1.1
706.60 1.1
706.70 1.1
706.80 1.1
706.90 1.1
707.00 1.1
707.10 1.1
707.20 1.1
707.30 1.1
707.40 1.1
707.50 1.1
707.60 1.099
707.70 1.099
707.80 1.099
707.90 1.099
708.00 1.099
708.10 1.099
708.20 1.099
708.30 1.099
708.40 1.099
708.50 1.099
708.60 1.099
708.70 1.099
708.80 1.099
708.90 1.098
709.00 1.098
709.10 1.098
709.20 1.098
709.30 1.098
709.40 1.098
709.50 1.098
709.60 1.098
709.70 1.098
709.80 1.098
709.90 1.098
710.00 1.098
710.10 1.098
710.20 1.097
710.30 1.097
710.40 1.097
710.50 1.097
710.60 1.097
710.70 1.097
710.80 1.097
710.90 1.097
711.00 1.097
711.10 1.097
711.20 1.097
711.30 1.097
711.40 1.096
711.50 1.096
711.60 1.096
711.70 1.096
711.80 1.096
711.90 1.096
712.00 1.096
712.10 1.096
712.20 1.096
712.30 1.096
712.40 1.096
712.50 1.096
712.60 1.096
712.70 1.095
712.80 1.095
712.90 1.095
713.00 1.095
713.10 1.095
713.20 1.095
713.30 1.095
713.40 1.095
713.50 1.095
713.60 1.095
713.70 1.095
713.80 1.095
713.90 1.094
714.00 1.094
714.10 1.094
714.20 1.094
714.30 1.094
714.40 1.094
714.50 1.094
714.60 1.094
714.70 1.094
714.80 1.094
714.90 1.094
715.00 1.094
715.10 1.094
715.20 1.093
715.30 1.093
715.40 1.093
715.50 1.093
715.60 1.093
715.70 1.093
715.80 1.093
715.90 1.093
716.00 1.093
716.10 1.093
716.20 1.093
716.30 1.093
716.40 1.092
716.50 1.092
716.60 1.092
716.70 1.092
716.80 1.092
716.90 1.092
717.00 1.092
717.10 1.092
717.20 1.092
717.30 1.092
717.40 1.092
717.50 1.092
717.60 1.091
717.70 1.091
717.80 1.091
717.90 1.091
718.00 1.091
718.10 1.091
718.20 1.091
718.30 1.091
718.40 1.091
718.50 1.091
718.60 1.091
718.70 1.091
718.80 1.09
718.90 1.09
719.00 1.09
719.10 1.09
719.20 1.09
719.30 1.09
719.40 1.09
719.50 1.09
719.60 1.09
719.70 1.09
719.80 1.09
719.90 1.09
720.00 1.089
720.10 1.089
720.20 1.089
720.30 1.089
720.40 1.089
720.50 1.089
720.60 1.089
720.70 1.089
720.80 1.089
720.90 1.089
721.00 1.089
721.10 1.089
721.20 1.088
721.30 1.088
721.40 1.088
721.50 1.088
721.60 1.088
721.70 1.088
721.80 1.088
721.90 1.088
722.00 1.088
722.10 1.088
722.20 1.088
722.30 1.088
722.40 1.087
722.50 1.087
722.60 1.087
722.70 1.087
722.80 1.087
722.90 1.087
723.00 1.087
723.10 1.087
723.20 1.087
723.30 1.087
723.40 1.087
723.50 1.086
723.60 1.086
723.70 1.086
723.80 1.086
723.90 1.086
724.00 1.086
724.10 1.086
724.20 1.086
724.30 1.086
724.40 1.086
724.50 1.086
724.60 1.086
724.70 1.085
724.80 1.085
724.90 1.085
725.00 1.085
725.10 1.085
725.20 1.085
725.30 1.085
725.40 1.085
725.50 1.085
725.60 1.085
725.70 1.085
725.80 1.084
725.90 1.084
726.00 1.084
726.10 1.084
726.20 1.084
726.30 1.084
726.40 1.084
726.50 1.084
726.60 1.084
726.70 1.084
726.80 1.084
726.90 1.084
727.00 1.083
727.10 1.083
727.20 1.083
727.30 1.083
727.40 1.083
727.50 1.083
727.60 1.083
727.70 1.083
727.80 1.083
727.90 1.083
728.00 1.083
728.10 1.082
728.20 1.082
728.30 1.082
728.40 1.082
728.50 1.082
728.60 1.082
728.70 1.082
728.80 1.082
728.90 1.082
729.00 1.082
729.10 1.082
729.20 1.081
729.30 1.081
729.40 1.081
729.50 1.081
729.60 1.081
729.70 1.081
729.80 1.081
729.90 1.081
730.00 1.081
730.10 1.081
730.20 1.081
730.30 1.08
730.40 1.08
730.50 1.08
730.60 1.08
730.70 1.08
730.80 1.08
730.90 1.08
731.00 1.08
731.10 1.08
731.20 1.08
731.30 1.08
731.40 1.079
731.50 1.079
731.60 1.079
731.70 1.079
731.80 1.079
731.90 1.079
732.00 1.079
732.10 1.079
732.20 1.079
732.30 1.079
732.40 1.079
732.50 1.078
732.60 1.078
732.70 1.078
732.80 1.078
732.90 1.078
733.00 1.078
733.10 1.078
733.20 1.078
733.30 1.078
733.40 1.078
733.50 1.078
733.60 1.077
733.70 1.077
733.80 1.077
733.90 1.077
734.00 1.077
734.10 1.077
734.20 1.077
734.30 1.077
734.40 1.077
734.50 1.077
734.60 1.076
734.70 1.076
734.80 1.076
734.90 1.076
735.00 1.076
735.10 1.076
735.20 1.076
735.30 1.076
735.40 1.076
735.50 1.076
735.60 1.076
735.70 1.075
735.80 1.075
735.90 1.075
736.00 1.075
736.10 1.075
736.20 1.075
736.30 1.075
736.40 1.075
736.50 1.075
736.60 1.075
736.70 1.075
736.80 1.074
736.90 1.074
737.00 1.074
737.10 1.074
737.20 1.074
737.30 1.074
737.40 1.074
737.50 1.074
737.60 1.074
737.70 1.074
737.80 1.074
737.90 1.073
738.00 1.073
738.10 1.073
738.20 1.073
738.30 1.073
738.40 1.073
738.50 1.073
738.60 1.073
738.70 1.073
738.80 1.073
738.90 1.073
739.00 1.072
739.10 1.072
739.20 1.072
739.30 1.072
739.40 1.072
739.50 1.072
739.60 1.072
739.70 1.072
739.80 1.072
739.90 1.072
740.00 1.071
740.10 1.071
740.20 1.071
740.30 1.071
740.40 1.071
740.50 1.071
740.60 1.071
740.70 1.071
740.80 1.071
740.90 1.071
741.00 1.071
741.10 1.07
741.20 1.07
741.30 1.07
741.40 1.07
741.50 1.07
741.60 1.07
741.70 1.07
741.80 1.07
741.90 1.07
742.00 1.07
742.10 1.069
742.20 1.069
742.30 1.069
742.40 1.069
742.50 1.069
742.60 1.069
742.70 1.069
742.80 1.069
742.90 1.069
743.00 1.069
743.10 1.068
743.20 1.068
743.30 1.068
743.40 1.068
743.50 1.068
743.60 1.068
743.70 1.068
743.80 1.068
743.90 1.068
744.00 1.068
744.10 1.067
744.20 1.067
744.30 1.067
744.40 1.067
744.50 1.067
744.60 1.067
744.70 1.067
744.80 1.067
744.90 1.067
745.00 1.067
745.10 1.066
745.20 1.066
745.30 1.066
745.40 1.066
745.50 1.066
745.60 1.066
745.70 1.066
745.80 1.066
745.90 1.066
746.00 1.066
746.10 1.065
746.20 1.065
746.30 1.065
746.40 1.065
746.50 1.065
746.60 1.065
746.70 1.065
746.80 1.065
746.90 1.065
747.00 1.065
747.10 1.065
747.20 1.064
747.30 1.064
747.40 1.064
747.50 1.064
747.60 1.064
747.70 1.064
747.80 1.064
747.90 1.064
748.00 1.064
748.10 1.064
748.20 1.063
748.30 1.063
748.40 1.063
748.50 1.063
748.60 1.063
748.70 1.063
748.80 1.063
748.90 1.063
749.00 1.063
749.10 1.063
749.20 1.062
749.30 1.062
749.40 1.062
749.50 1.062
749.60 1.062
749.70 1.062
749.80 1.062
749.90 1.062
750.00 1.062
750.10 1.062
750.20 1.061
750.30 1.061
750.40 1.061
750.50 1.061
750.60 1.061
750.70 1.061
750.80 1.061
750.90 1.061
751.00 1.061
751.10 1.061
751.20 1.06
751.30 1.06
751.40 1.06
751.50 1.06
751.60 1.06
751.70 1.06
751.80 1.06
751.90 1.06
752.00 1.06
752.10 1.06
752.20 1.059
752.30 1.059
752.40 1.059
752.50 1.059
752.60 1.059
752.70 1.059
752.80 1.059
752.90 1.059
753.00 1.059
753.10 1.058
753.20 1.058
753.30 1.058
753.40 1.058
753.50 1.058
753.60 1.058
753.70 1.058
753.80 1.058
753.90 1.058
754.00 1.058
754.10 1.057
754.20 1.057
754.30 1.057
754.40 1.057
754.50 1.057
754.60 1.057
754.70 1.057
754.80 1.057
754.90 1.057
755.00 1.057
755.10 1.056
755.20 1.056
755.30 1.056
755.40 1.056
755.50 1.056
755.60 1.056
755.70 1.056
755.80 1.056
755.90 1.056
756.00 1.056
756.10 1.055
756.20 1.055
756.30 1.055
756.40 1.055
756.50 1.055
756.60 1.055
756.70 1.055
756.80 1.055
756.90 1.055
757.00 1.055
757.10 1.054
757.20 1.054
757.30 1.054
757.40 1.054
757.50 1.054
757.60 1.054
757.70 1.054
757.80 1.054
757.90 1.054
758.00 1.053
758.10 1.053
758.20 1.053
758.30 1.053
758.40 1.053
758.50 1.053
758.60 1.053
758.70 1.053
758.80 1.053
758.90 1.053
759.00 1.052
759.10 1.052
759.20 1.052
759.30 1.052
759.40 1.052
759.50 1.052
759.60 1.052
759.70 1.052
759.80 1.052
759.90 1.052
760.00 1.051
760.10 1.051
760.20 1.051
760.30 1.051
760.40 1.051
760.50 1.051
760.60 1.051
760.70 1.051
760.80 1.051
760.90 1.05
761.00 1.05
761.10 1.05
761.20 1.05
761.30 1.05
761.40 1.05
761.50 1.05
761.60 1.05
761.70 1.05
761.80 1.05
761.90 1.049
762.00 1.049
762.10 1.049
762.20 1.049
762.30 1.049
762.40 1.049
762.50 1.049
762.60 1.049
762.70 1.049
762.80 1.048
762.90 1.048
763.00 1.048
763.10 1.048
763.20 1.048
763.30 1.048
763.40 1.048
763.50 1.048
763.60 1.048
763.70 1.047
763.80 1.047
763.90 1.047
764.00 1.047
764.10 1.047
764.20 1.047
764.30 1.047
764.40 1.047
764.50 1.047
764.60 1.047
764.70 1.046
764.80 1.046
764.90 1.046
765.00 1.046
765.10 1.046
765.20 1.046
765.30 1.046
765.40 1.046
765.50 1.046
765.60 1.045
765.70 1.045
765.80 1.045
765.90 1.045
766.00 1.045
766.10 1.045
766.20 1.045
766.30 1.045
766.40 1.045
766.50 1.045
766.60 1.044
766.70 1.044
766.80 1.044
766.90 1.044
767.00 1.044
767.10 1.044
767.20 1.044
767.30 1.044
767.40 1.044
767.50 1.043
767.60 1.043
767.70 1.043
767.80 1.043
767.90 1.043
768.00 1.043
768.10 1.043
768.20 1.043
768.30 1.043
768.40 1.043
768.50 1.042
768.60 1.042
768.70 1.042
768.80 1.042
768.90 1.042
769.00 1.042
769.10 1.042
769.20 1.042
769.30 1.042
769.40 1.041
769.50 1.041
769.60 1.041
769.70 1.041
769.80 1.041
769.90 1.041
770.00 1.041
770.10 1.041
770.20 1.041
770.30 1.04
770.40 1.04
770.50 1.04
770.60 1.04
770.70 1.04
770.80 1.04
770.90 1.04
771.00 1.04
771.10 1.04
771.20 1.039
771.30 1.039
771.40 1.039
771.50 1.039
771.60 1.039
771.70 1.039
771.80 1.039
771.90 1.039
772.00 1.039
772.10 1.039
772.20 1.038
772.30 1.038
772.40 1.038
772.50 1.038
772.60 1.038
772.70 1.038
772.80 1.038
772.90 1.038
773.00 1.038
773.10 1.037
773.20 1.037
773.30 1.037
773.40 1.037
773.50 1.037
773.60 1.037
773.70 1.037
773.80 1.037
773.90 1.037
774.00 1.036
774.10 1.036
774.20 1.036
774.30 1.036
774.40 1.036
774.50 1.036
774.60 1.036
774.70 1.036
774.80 1.036
774.90 1.035
775.00 1.035
775.10 1.035
775.20 1.035
775.30 1.035
775.40 1.035
775.50 1.035
775.60 1.035
775.70 1.035
775.80 1.034
775.90 1.034
776.00 1.034
776.10 1.034
776.20 1.034
776.30 1.034
776.40 1.034
776.50 1.034
776.60 1.034
776.70 1.033
776.80 1.033
776.90 1.033
777.00 1.033
777.10 1.033
777.20 1.033
777.30 1.033
777.40 1.033
777.50 1.033
777.60 1.032
777.70 1.032
777.80 1.032
777.90 1.032
778.00 1.032
778.10 1.032
778.20 1.032
778.30 1.032
778.40 1.032
778.50 1.031
778.60 1.031
778.70 1.031
778.80 1.031
778.90 1.031
779.00 1.031
779.10 1.031
779.20 1.031
779.30 1.031
779.40 1.031
779.50 1.03
779.60 1.03
779.70 1.03
779.80 1.03
779.90 1.03
780.00 1.03
780.10 1.03
780.20 1.03
780.30 1.03
780.40 1.029
780.50 1.029
780.60 1.029
780.70 1.029
780.80 1.029
780.90 1.029
781.00 1.029
781.10 1.029
781.20 1.028
781.30 1.028
781.40 1.028
781.50 1.028
781.60 1.028
781.70 1.028
781.80 1.028
781.90 1.028
782.00 1.028
782.10 1.027
782.20 1.027
782.30 1.027
782.40 1.027
782.50 1.027
782.60 1.027
782.70 1.027
782.80 1.027
782.90 1.027
783.00 1.026
783.10 1.026
783.20 1.026
783.30 1.026
783.40 1.026
783.50 1.026
783.60 1.026
783.70 1.026
783.80 1.026
783.90 1.025
784.00 1.025
784.10 1.025
784.20 1.025
784.30 1.025
784.40 1.025
784.50 1.025
784.60 1.025
784.70 1.025
784.80 1.024
784.90 1.024
785.00 1.024
785.10 1.024
785.20 1.024
785.30 1.024
785.40 1.024
785.50 1.024
785.60 1.023
785.70 1.023
785.80 1.023
785.90 1.023
786.00 1.023
786.10 1.023
786.20 1.023
786.30 1.023
786.40 1.023
786.50 1.022
786.60 1.022
786.70 1.022
786.80 1.022
786.90 1.022
787.00 1.022
787.10 1.022
787.20 1.022
787.30 1.022
787.40 1.021
787.50 1.021
787.60 1.021
787.70 1.021
787.80 1.021
787.90 1.021
788.00 1.021
788.10 1.021
788.20 1.021
788.30 1.02
788.40 1.02
788.50 1.02
788.60 1.02
788.70 1.02
788.80 1.02
788.90 1.02
789.00 1.02
789.10 1.02
789.20 1.019
789.30 1.019
789.40 1.019
789.50 1.019
789.60 1.019
789.70 1.019
789.80 1.019
789.90 1.019
790.00 1.019
790.10 1.018
790.20 1.018
790.30 1.018
790.40 1.018
790.50 1.018
790.60 1.018
790.70 1.018
790.80 1.018
790.90 1.017
791.00 1.017
791.10 1.017
791.20 1.017
791.30 1.017
791.40 1.017
791.50 1.017
791.60 1.017
791.70 1.017
791.80 1.016
791.90 1.016
792.00 1.016
792.10 1.016
792.20 1.016
792.30 1.016
792.40 1.016
792.50 1.016
792.60 1.015
792.70 1.015
792.80 1.015
792.90 1.015
793.00 1.015
793.10 1.015
793.20 1.015
793.30 1.015
793.40 1.015
793.50 1.014
793.60 1.014
793.70 1.014
793.80 1.014
793.90 1.014
794.00 1.014
794.10 1.014
794.20 1.014
794.30 1.014
794.40 1.013
794.50 1.013
794.60 1.013
794.70 1.013
794.80 1.013
794.90 1.013
795.00 1.013
795.10 1.013
795.20 1.012
795.30 1.012
795.40 1.012
795.50 1.012
795.60 1.012
795.70 1.012
795.80 1.012
795.90 1.012
796.00 1.012
796.10 1.011
796.20 1.011
796.30 1.011
796.40 1.011
796.50 1.011
796.60 1.011
796.70 1.011
796.80 1.011
796.90 1.011
797.00 1.01
797.10 1.01
797.20 1.01
797.30 1.01
797.40 1.01
797.50 1.01
797.60 1.01
797.70 1.01
797.80 1.009
797.90 1.009
798.00 1.009
798.10 1.009
798.20 1.009
798.30 1.009
798.40 1.009
798.50 1.009
798.60 1.009
798.70 1.008
798.80 1.008
798.90 1.008
799.00 1.008
799.10 1.008
799.20 1.008
799.30 1.008
799.40 1.008
799.50 1.008
799.60 1.007
799.70 1.007
799.80 1.007
799.90 1.007
800.00 1.007
800.10 1.007
800.20 1.007
800.30 1.007
800.40 1.006
800.50 1.006
800.60 1.006
800.70 1.006
800.80 1.006
800.90 1.006
801.00 1.006
801.10 1.006
801.20 1.006
801.30 1.005
801.40 1.005
801.50 1.005
801.60 1.005
801.70 1.005
801.80 1.005
801.90 1.005
802.00 1.005
802.10 1.004
802.20 1.004
802.30 1.004
802.40 1.004
802.50 1.004
802.60 1.004
802.70 1.004
802.80 1.004
802.90 1.003
803.00 1.003
803.10 1.003
803.20 1.003
803.30 1.003
803.40 1.003
803.50 1.003
803.60 1.003
803.70 1.003
803.80 1.002
803.90 1.002
804.00 1.002
804.10 1.002
804.20 1.002
804.30 1.002
804.40 1.002
804.50 1.002
804.60 1.001
804.70 1.001
804.80 1.001
804.90 1.001
805.00 1.001
805.10 1.001
805.20 1.001
805.30 1.001
805.40 1.001
805.50 1
805.60 1
805.70 1
805.80 1
805.90 0.9999
806.00 0.9998
806.10 0.9997
806.20 0.9996
806.30 0.9995
806.40 0.9993
806.50 0.9992
806.60 0.9991
806.70 0.999
806.80 0.9989
806.90 0.9987
807.00 0.9986
807.10 0.9985
807.20 0.9984
807.30 0.9983
807.40 0.9982
807.50 0.998
807.60 0.9979
807.70 0.9978
807.80 0.9977
807.90 0.9976
808.00 0.9975
808.10 0.9973
808.20 0.9972
808.30 0.9971
808.40 0.997
808.50 0.9969
808.60 0.9968
808.70 0.9966
808.80 0.9965
808.90 0.9964
809.00 0.9963
809.10 0.9962
809.20 0.9961
809.30 0.9959
809.40 0.9958
809.50 0.9957
809.60 0.9956
809.70 0.9955
809.80 0.9953
809.90 0.9952
810.00 0.9951
810.10 0.995
810.20 0.9949
810.30 0.9947
810.40 0.9946
810.50 0.9945
810.60 0.9944
810.70 0.9943
810.80 0.9941
810.90 0.994
811.00 0.9939
811.10 0.9938
811.20 0.9937
811.30 0.9935
811.40 0.9934
811.50 0.9933
811.60 0.9932
811.70 0.993
811.80 0.9929
811.90 0.9928
812.00 0.9927
812.10 0.9926
812.20 0.9924
812.30 0.9923
812.40 0.9922
812.50 0.9921
812.60 0.992
812.70 0.9918
812.80 0.9917
812.90 0.9916
813.00 0.9915
813.10 0.9914
813.20 0.9912
813.30 0.9911
813.40 0.991
813.50 0.9909
813.60 0.9907
813.70 0.9906
813.80 0.9905
813.90 0.9904
814.00 0.9903
814.10 0.9901
814.20 0.99
814.30 0.9899
814.40 0.9898
814.50 0.9897
814.60 0.9895
814.70 0.9894
814.80 0.9893
814.90 0.9892
815.00 0.9891
815.10 0.9889
815.20 0.9888
815.30 0.9887
815.40 0.9886
815.50 0.9885
815.60 0.9883
815.70 0.9882
815.80 0.9881
815.90 0.988
816.00 0.9879
816.10 0.9877
816.20 0.9876
816.30 0.9875
816.40 0.9874
816.50 0.9873
816.60 0.9871
816.70 0.987
816.80 0.9869
816.90 0.9868
817.00 0.9867
817.10 0.9865
817.20 0.9864
817.30 0.9863
817.40 0.9862
817.50 0.9861
817.60 0.9859
817.70 0.9858
817.80 0.9857
817.90 0.9856
818.00 0.9855
818.10 0.9853
818.20 0.9852
818.30 0.9851
818.40 0.985
818.50 0.9849
818.60 0.9847
818.70 0.9846
818.80 0.9845
818.90 0.9844
819.00 0.9843
819.10 0.9841
819.20 0.984
819.30 0.9839
819.40 0.9838
819.50 0.9837
819.60 0.9836
819.70 0.9834
819.80 0.9833
819.90 0.9832
820.00 0.9831
820.10 0.983
820.20 0.9828
820.30 0.9827
820.40 0.9826
820.50 0.9825
820.60 0.9824
820.70 0.9822
820.80 0.9821
820.90 0.982
821.00 0.9819
821.10 0.9817
821.20 0.9816
821.30 0.9815
821.40 0.9814
821.50 0.9813
821.60 0.9811
821.70 0.981
821.80 0.9809
821.90 0.9808
822.00 0.9806
822.10 0.9805
822.20 0.9804
822.30 0.9803
822.40 0.9802
822.50 0.98
822.60 0.9799
822.70 0.9798
822.80 0.9797
822.90 0.9795
823.00 0.9794
823.10 0.9793
823.20 0.9792
823.30 0.9791
823.40 0.9789
823.50 0.9788
823.60 0.9787
823.70 0.9786
823.80 0.9784
823.90 0.9783
824.00 0.9782
824.10 0.9781
824.20 0.978
824.30 0.9778
824.40 0.9777
824.50 0.9776
824.60 0.9775
824.70 0.9773
824.80 0.9772
824.90 0.9771
825.00 0.977
825.10 0.9769
825.20 0.9767
825.30 0.9766
825.40 0.9765
825.50 0.9764
825.60 0.9763
825.70 0.9761
825.80 0.976
825.90 0.9759
826.00 0.9758
826.10 0.9756
826.20 0.9755
826.30 0.9754
826.40 0.9753
826.50 0.9752
826.60 0.975
826.70 0.9749
826.80 0.9748
826.90 0.9747
827.00 0.9746
827.10 0.9744
827.20 0.9743
827.30 0.9742
827.40 0.9741
827.50 0.9739
827.60 0.9738
827.70 0.9737
827.80 0.9736
827.90 0.9734
828.00 0.9733
828.10 0.9732
828.20 0.9731
828.30 0.9729
828.40 0.9728
828.50 0.9727
828.60 0.9726
828.70 0.9725
828.80 0.9723
828.90 0.9722
829.00 0.9721
829.10 0.972
829.20 0.9718
829.30 0.9717
829.40 0.9716
829.50 0.9715
829.60 0.9714
829.70 0.9712
829.80 0.9711
829.90 0.971
830.00 0.9709
830.10 0.9707
830.20 0.9706
830.30 0.9705
830.40 0.9704
830.50 0.9703
830.60 0.9701
830.70 0.97
830.80 0.9699
830.90 0.9698
831.00 0.9696
831.10 0.9695
831.20 0.9694
831.30 0.9693
831.40 0.9692
831.50 0.969
831.60 0.9689
831.70 0.9688
831.80 0.9687
831.90 0.9685
832.00 0.9684
832.10 0.9683
832.20 0.9682
832.30 0.968
832.40 0.9679
832.50 0.9678
832.60 0.9677
832.70 0.9676
832.80 0.9674
832.90 0.9673
833.00 0.9672
833.10 0.9671
833.20 0.9669
833.30 0.9668
833.40 0.9667
833.50 0.9666
833.60 0.9664
833.70 0.9663
833.80 0.9662
833.90 0.9661
834.00 0.9659
834.10 0.9658
834.20 0.9657
834.30 0.9656
834.40 0.9654
834.50 0.9653
834.60 0.9652
834.70 0.9651
834.80 0.9649
834.90 0.9648
835.00 0.9647
835.10 0.9646
835.20 0.9645
835.30 0.9643
835.40 0.9642
835.50 0.9641
835.60 0.964
835.70 0.9638
835.80 0.9637
835.90 0.9636
836.00 0.9635
836.10 0.9633
836.20 0.9632
836.30 0.9631
836.40 0.963
836.50 0.9629
836.60 0.9627
836.70 0.9626
836.80 0.9625
836.90 0.9624
837.00 0.9622
837.10 0.9621
837.20 0.962
837.30 0.9619
837.40 0.9617
837.50 0.9616
837.60 0.9615
837.70 0.9614
837.80 0.9612
837.90 0.9611
838.00 0.961
838.10 0.9609
838.20 0.9607
838.30 0.9606
838.40 0.9605
838.50 0.9604
838.60 0.9602
838.70 0.9601
838.80 0.96
838.90 0.9599
839.00 0.9597
839.10 0.9596
839.20 0.9595
839.30 0.9594
839.40 0.9592
839.50 0.9591
839.60 0.959
839.70 0.9589
839.80 0.9587
839.90 0.9586
840.00 0.9585
840.10 0.9584
840.20 0.9583
840.30 0.9581
840.40 0.958
840.50 0.9579
840.60 0.9578
840.70 0.9576
840.80 0.9575
840.90 0.9574
841.00 0.9573
841.10 0.9571
841.20 0.957
841.30 0.9569
841.40 0.9568
841.50 0.9566
841.60 0.9565
841.70 0.9564
841.80 0.9563
841.90 0.9561
842.00 0.956
842.10 0.9559
842.20 0.9558
842.30 0.9557
842.40 0.9555
842.50 0.9554
842.60 0.9553
842.70 0.9551
842.80 0.955
842.90 0.9549
843.00 0.9548
843.10 0.9546
843.20 0.9545
843.30 0.9544
843.40 0.9543
843.50 0.9541
843.60 0.954
843.70 0.9539
843.80 0.9538
843.90 0.9536
844.00 0.9535
844.10 0.9534
844.20 0.9533
844.30 0.9531
844.40 0.953
844.50 0.9529
844.60 0.9528
844.70 0.9526
844.80 0.9525
844.90 0.9524
845.00 0.9523
845.10 0.9522
845.20 0.952
845.30 0.9519
845.40 0.9518
845.50 0.9517
845.60 0.9515
845.70 0.9514
845.80 0.9513
845.90 0.9512
846.00 0.951
846.10 0.9509
846.20 0.9508
846.30 0.9507
846.40 0.9505
846.50 0.9504
846.60 0.9503
846.70 0.9502
846.80 0.95
846.90 0.9499
847.00 0.9498
847.10 0.9497
847.20 0.9495
847.30 0.9494
847.40 0.9493
847.50 0.9492
847.60 0.949
847.70 0.9489
847.80 0.9488
847.90 0.9487
848.00 0.9485
848.10 0.9484
848.20 0.9483
848.30 0.9482
848.40 0.948
848.50 0.9479
848.60 0.9478
848.70 0.9477
848.80 0.9475
848.90 0.9474
849.00 0.9473
849.10 0.9472
849.20 0.947
849.30 0.9469
849.40 0.9468
849.50 0.9467
849.60 0.9465
849.70 0.9464
849.80 0.9463
849.90 0.9462
850.00 0.946
850.10 0.9459
850.20 0.9458
850.30 0.9457
850.40 0.9455
850.50 0.9454
850.60 0.9453
850.70 0.9452
850.80 0.945
850.90 0.9449
851.00 0.9448
851.10 0.9447
851.20 0.9445
851.30 0.9444
851.40 0.9443
851.50 0.9442
851.60 0.944
851.70 0.9439
851.80 0.9438
851.90 0.9437
852.00 0.9435
852.10 0.9434
852.20 0.9433
852.30 0.9432
852.40 0.943
852.50 0.9429
852.60 0.9428
852.70 0.9427
852.80 0.9425
852.90 0.9424
853.00 0.9423
853.10 0.9421
853.20 0.942
853.30 0.9419
853.40 0.9418
853.50 0.9416
853.60 0.9415
853.70 0.9414
853.80 0.9413
853.90 0.9411
854.00 0.941
854.10 0.9409
854.20 0.9408
854.30 0.9406
854.40 0.9405
854.50 0.9404
854.60 0.9403
854.70 0.9401
854.80 0.94
854.90 0.9399
855.00 0.9398
855.10 0.9396
855.20 0.9395
855.30 0.9394
855.40 0.9393
855.50 0.9391
855.60 0.939
855.70 0.9389
855.80 0.9388
855.90 0.9386
856.00 0.9385
856.10 0.9384
856.20 0.9383
856.30 0.9381
856.40 0.938
856.50 0.9379
856.60 0.9378
856.70 0.9376
856.80 0.9375
856.90 0.9374
857.00 0.9373
857.10 0.9371
857.20 0.937
857.30 0.9369
857.40 0.9368
857.50 0.9366
857.60 0.9365
857.70 0.9364
857.80 0.9362
857.90 0.9361
858.00 0.936
858.10 0.9359
858.20 0.9357
858.30 0.9356
858.40 0.9355
858.50 0.9354
858.60 0.9352
858.70 0.9351
858.80 0.935
858.90 0.9348
859.00 0.9347
859.10 0.9346
859.20 0.9345
859.30 0.9343
859.40 0.9342
859.50 0.9341
859.60 0.934
859.70 0.9338
859.80 0.9337
859.90 0.9336
860.00 0.9335
860.10 0.9333
860.20 0.9332
860.30 0.9331
860.40 0.933
860.50 0.9328
860.60 0.9327
860.70 0.9326
860.80 0.9325
860.90 0.9323
861.00 0.9322
861.10 0.9321
861.20 0.9319
861.30 0.9318
861.40 0.9317
861.50 0.9316
861.60 0.9314
861.70 0.9313
861.80 0.9312
861.90 0.9311
862.00 0.9309
862.10 0.9308
862.20 0.9307
862.30 0.9306
862.40 0.9304
862.50 0.9303
862.60 0.9302
862.70 0.9301
862.80 0.9299
862.90 0.9298
863.00 0.9297
863.10 0.9295
863.20 0.9294
863.30 0.9293
863.40 0.9292
863.50 0.929
863.60 0.9289
863.70 0.9288
863.80 0.9287
863.90 0.9285
864.00 0.9284
864.10 0.9283
864.20 0.9282
864.30 0.928
864.40 0.9279
864.50 0.9278
864.60 0.9277
864.70 0.9275
864.80 0.9274
864.90 0.9273
865.00 0.9271
865.10 0.927
865.20 0.9269
865.30 0.9268
865.40 0.9266
865.50 0.9265
865.60 0.9264
865.70 0.9263
865.80 0.9261
865.90 0.926
866.00 0.9259
866.10 0.9258
866.20 0.9256
866.30 0.9255
866.40 0.9254
866.50 0.9253
866.60 0.9251
866.70 0.925
866.80 0.9249
866.90 0.9248
867.00 0.9246
867.10 0.9245
867.20 0.9244
867.30 0.9243
867.40 0.9241
867.50 0.924
867.60 0.9239
867.70 0.9237
867.80 0.9236
867.90 0.9235
868.00 0.9234
868.10 0.9232
868.20 0.9231
868.30 0.923
868.40 0.9229
868.50 0.9227
868.60 0.9226
868.70 0.9225
868.80 0.9223
868.90 0.9222
869.00 0.9221
869.10 0.922
869.20 0.9218
869.30 0.9217
869.40 0.9216
869.50 0.9215
869.60 0.9213
869.70 0.9212
869.80 0.9211
869.90 0.921
870.00 0.9208
870.10 0.9207
870.20 0.9206
870.30 0.9205
870.40 0.9203
870.50 0.9202
870.60 0.9201
870.70 0.9199
870.80 0.9198
870.90 0.9197
871.00 0.9196
871.10 0.9194
871.20 0.9193
871.30 0.9192
871.40 0.9191
871.50 0.9189
871.60 0.9188
871.70 0.9187
871.80 0.9186
871.90 0.9184
872.00 0.9183
872.10 0.9182
872.20 0.9181
872.30 0.9179
872.40 0.9178
872.50 0.9177
872.60 0.9175
872.70 0.9174
872.80 0.9173
872.90 0.9172
873.00 0.917
873.10 0.9169
873.20 0.9168
873.30 0.9167
873.40 0.9165
873.50 0.9164
873.60 0.9163
873.70 0.9161
873.80 0.916
873.90 0.9159
874.00 0.9158
874.10 0.9156
874.20 0.9155
874.30 0.9154
874.40 0.9153
874.50 0.9151
874.60 0.915
874.70 0.9149
874.80 0.9148
874.90 0.9146
875.00 0.9145
875.10 0.9144
875.20 0.9142
875.30 0.9141
875.40 0.914
875.50 0.9139
875.60 0.9137
875.70 0.9136
875.80 0.9135
875.90 0.9134
876.00 0.9132
876.10 0.9131
876.20 0.913
876.30 0.9129
876.40 0.9127
876.50 0.9126
876.60 0.9125
876.70 0.9124
876.80 0.9122
876.90 0.9121
877.00 0.912
877.10 0.9118
877.20 0.9117
877.30 0.9116
877.40 0.9115
877.50 0.9113
877.60 0.9112
877.70 0.9111
877.80 0.911
877.90 0.9108
878.00 0.9107
878.10 0.9106
878.20 0.9104
878.30 0.9103
878.40 0.9102
878.50 0.9101
878.60 0.9099
878.70 0.9098
878.80 0.9097
878.90 0.9096
879.00 0.9094
879.10 0.9093
879.20 0.9092
879.30 0.909
879.40 0.9089
879.50 0.9088
879.60 0.9087
879.70 0.9085
879.80 0.9084
879.90 0.9083
880.00 0.9082
880.10 0.908
880.20 0.9079
880.30 0.9078
880.40 0.9076
880.50 0.9075
880.60 0.9074
880.70 0.9073
880.80 0.9071
880.90 0.907
881.00 0.9069
881.10 0.9068
881.20 0.9066
881.30 0.9065
881.40 0.9064
881.50 0.9063
881.60 0.9061
881.70 0.906
881.80 0.9059
881.90 0.9058
882.00 0.9056
882.10 0.9055
882.20 0.9054
882.30 0.9052
882.40 0.9051
882.50 0.905
882.60 0.9049
882.70 0.9047
882.80 0.9046
882.90 0.9045
883.00 0.9044
883.10 0.9042
883.20 0.9041
883.30 0.904
883.40 0.9038
883.50 0.9037
883.60 0.9036
883.70 0.9035
883.80 0.9033
883.90 0.9032
884.00 0.9031
884.10 0.9029
884.20 0.9028
884.30 0.9027
884.40 0.9026
884.50 0.9024
884.60 0.9023
884.70 0.9022
884.80 0.9021
884.90 0.9019
885.00 0.9018
885.10 0.9017
885.20 0.9016
885.30 0.9014
885.40 0.9013
885.50 0.9012
885.60 0.901
885.70 0.9009
885.80 0.9008
885.90 0.9007
886.00 0.9005
886.10 0.9004
886.20 0.9003
886.30 0.9002
886.40 0.9
886.50 0.8999
886.60 0.8998
886.70 0.8997
886.80 0.8995
886.90 0.8994
887.00 0.8993
887.10 0.8991
887.20 0.899
887.30 0.8989
887.40 0.8988
887.50 0.8986
887.60 0.8985
887.70 0.8984
887.80 0.8983
887.90 0.8981
888.00 0.898
888.10 0.8979
888.20 0.8977
888.30 0.8976
888.40 0.8975
888.50 0.8974
888.60 0.8972
888.70 0.8971
888.80 0.897
888.90 0.8969
889.00 0.8967
889.10 0.8966
889.20 0.8965
889.30 0.8963
889.40 0.8962
889.50 0.8961
889.60 0.896
889.70 0.8958
889.80 0.8957
889.90 0.8956
890.00 0.8955
890.10 0.8953
890.20 0.8952
890.30 0.8951
890.40 0.895
890.50 0.8948
890.60 0.8947
890.70 0.8946
890.80 0.8944
890.90 0.8943
891.00 0.8942
891.10 0.8941
891.20 0.8939
891.30 0.8938
891.40 0.8937
891.50 0.8936
891.60 0.8934
891.70 0.8933
891.80 0.8932
891.90 0.8931
892.00 0.8929
892.10 0.8928
892.20 0.8927
892.30 0.8925
892.40 0.8924
892.50 0.8923
892.60 0.8922
892.70 0.892
892.80 0.8919
892.90 0.8918
893.00 0.8917
893.10 0.8915
893.20 0.8914
893.30 0.8913
893.40 0.8911
893.50 0.891
893.60 0.8909
893.70 0.8908
893.80 0.8906
893.90 0.8905
894.00 0.8904
894.10 0.8902
894.20 0.8901
894.30 0.89
894.40 0.8899
894.50 0.8897
894.60 0.8896
894.70 0.8895
894.80 0.8894
894.90 0.8892
895.00 0.8891
895.10 0.889
895.20 0.8888
895.30 0.8887
895.40 0.8886
895.50 0.8885
895.60 0.8883
895.70 0.8882
895.80 0.8881
895.90 0.888
896.00 0.8878
896.10 0.8877
896.20 0.8876
896.30 0.8875
896.40 0.8873
896.50 0.8872
896.60 0.8871
896.70 0.8869
896.80 0.8868
896.90 0.8867
897.00 0.8866
897.10 0.8864
897.20 0.8863
897.30 0.8862
897.40 0.8861
897.50 0.8859
897.60 0.8858
897.70 0.8857
897.80 0.8855
897.90 0.8854
898.00 0.8853
898.10 0.8852
898.20 0.885
898.30 0.8849
898.40 0.8848
898.50 0.8846
898.60 0.8845
898.70 0.8844
898.80 0.8843
898.90 0.8841
899.00 0.884
899.10 0.8839
899.20 0.8838
899.30 0.8836
899.40 0.8835
899.50 0.8834
899.60 0.8832
899.70 0.8831
899.80 0.883
899.90 0.8829
900.00 0.8827
900.10 0.8826
900.20 0.8825
900.30 0.8824
900.40 0.8822
900.50 0.8821
900.60 0.882
900.70 0.8819
900.80 0.8817
900.90 0.8816
901.00 0.8815
901.10 0.8813
901.20 0.8812
901.30 0.8811
901.40 0.881
901.50 0.8808
901.60 0.8807
901.70 0.8806
901.80 0.8805
901.90 0.8803
902.00 0.8802
902.10 0.8801
902.20 0.88
902.30 0.8798
902.40 0.8797
902.50 0.8796
902.60 0.8794
902.70 0.8793
902.80 0.8792
902.90 0.8791
903.00 0.8789
903.10 0.8788
903.20 0.8787
903.30 0.8786
903.40 0.8784
903.50 0.8783
903.60 0.8782
903.70 0.878
903.80 0.8779
903.90 0.8778
904.00 0.8777
904.10 0.8775
904.20 0.8774
904.30 0.8773
904.40 0.8772
904.50 0.877
904.60 0.8769
904.70 0.8768
904.80 0.8766
904.90 0.8765
905.00 0.8764
905.10 0.8763
905.20 0.8761
905.30 0.876
905.40 0.8759
905.50 0.8758
905.60 0.8756
905.70 0.8755
905.80 0.8754
905.90 0.8752
906.00 0.8751
906.10 0.875
906.20 0.8749
906.30 0.8747
906.40 0.8746
906.50 0.8745
906.60 0.8744
906.70 0.8742
906.80 0.8741
906.90 0.874
907.00 0.8739
907.10 0.8737
907.20 0.8736
907.30 0.8735
907.40 0.8733
907.50 0.8732
907.60 0.8731
907.70 0.873
907.80 0.8728
907.90 0.8727
908.00 0.8726
908.10 0.8725
908.20 0.8723
908.30 0.8722
908.40 0.8721
908.50 0.8719
908.60 0.8718
908.70 0.8717
908.80 0.8716
908.90 0.8714
909.00 0.8713
909.10 0.8712
909.20 0.871
909.30 0.8709
909.40 0.8708
909.50 0.8707
909.60 0.8705
909.70 0.8704
909.80 0.8703
909.90 0.8702
910.00 0.87
910.10 0.8699
910.20 0.8698
910.30 0.8697
910.40 0.8695
910.50 0.8694
910.60 0.8693
910.70 0.8691
910.80 0.869
910.90 0.8689
911.00 0.8688
911.10 0.8686
911.20 0.8685
911.30 0.8684
911.40 0.8683
911.50 0.8681
911.60 0.868
911.70 0.8679
911.80 0.8678
911.90 0.8676
912.00 0.8675
912.10 0.8674
912.20 0.8672
912.30 0.8671
912.40 0.867
912.50 0.8669
912.60 0.8667
912.70 0.8666
912.80 0.8665
912.90 0.8664
913.00 0.8662
913.10 0.8661
913.20 0.866
913.30 0.8658
913.40 0.8657
913.50 0.8656
913.60 0.8655
913.70 0.8653
913.80 0.8652
913.90 0.8651
914.00 0.865
914.10 0.8648
914.20 0.8647
914.30 0.8646
914.40 0.8644
914.50 0.8643
914.60 0.8642
914.70 0.8641
914.80 0.8639
914.90 0.8638
915.00 0.8637
915.10 0.8636
915.20 0.8634
915.30 0.8633
915.40 0.8632
915.50 0.8631
915.60 0.8629
915.70 0.8628
915.80 0.8627
915.90 0.8625
916.00 0.8624
916.10 0.8623
916.20 0.8622
916.30 0.862
916.40 0.8619
916.50 0.8618
916.60 0.8617
916.70 0.8615
916.80 0.8614
916.90 0.8613
917.00 0.8612
917.10 0.861
917.20 0.8609
917.30 0.8608
917.40 0.8607
917.50 0.8605
917.60 0.8604
917.70 0.8603
917.80 0.8601
917.90 0.86
918.00 0.8599
918.10 0.8598
918.20 0.8596
918.30 0.8595
918.40 0.8594
918.50 0.8593
918.60 0.8591
918.70 0.859
918.80 0.8589
918.90 0.8587
919.00 0.8586
919.10 0.8585
919.20 0.8584
919.30 0.8582
919.40 0.8581
919.50 0.858
919.60 0.8579
919.70 0.8577
919.80 0.8576
919.90 0.8575
920.00 0.8574
920.10 0.8572
920.20 0.8571
920.30 0.857
920.40 0.8569
920.50 0.8567
920.60 0.8566
920.70 0.8565
920.80 0.8564
920.90 0.8562
921.00 0.8561
921.10 0.856
921.20 0.8558
921.30 0.8557
921.40 0.8556
921.50 0.8555
921.60 0.8553
921.70 0.8552
921.80 0.8551
921.90 0.855
922.00 0.8548
922.10 0.8547
922.20 0.8546
922.30 0.8545
922.40 0.8543
922.50 0.8542
922.60 0.8541
922.70 0.854
922.80 0.8538
922.90 0.8537
923.00 0.8536
923.10 0.8534
923.20 0.8533
923.30 0.8532
923.40 0.8531
923.50 0.8529
923.60 0.8528
923.70 0.8527
923.80 0.8526
923.90 0.8524
924.00 0.8523
924.10 0.8522
924.20 0.8521
924.30 0.8519
924.40 0.8518
924.50 0.8517
924.60 0.8515
924.70 0.8514
924.80 0.8513
924.90 0.8512
925.00 0.851
925.10 0.8509
925.20 0.8508
925.30 0.8507
925.40 0.8505
925.50 0.8504
925.60 0.8503
925.70 0.8502
925.80 0.85
925.90 0.8499
926.00 0.8498
926.10 0.8497
926.20 0.8495
926.30 0.8494
926.40 0.8493
926.50 0.8492
926.60 0.849
926.70 0.8489
926.80 0.8488
926.90 0.8487
927.00 0.8485
927.10 0.8484
927.20 0.8483
927.30 0.8481
927.40 0.848
927.50 0.8479
927.60 0.8478
927.70 0.8476
927.80 0.8475
927.90 0.8474
928.00 0.8473
928.10 0.8471
928.20 0.847
928.30 0.8469
928.40 0.8467
928.50 0.8466
928.60 0.8465
928.70 0.8464
928.80 0.8462
928.90 0.8461
929.00 0.846
929.10 0.8459
929.20 0.8457
929.30 0.8456
929.40 0.8455
929.50 0.8454
929.60 0.8452
929.70 0.8451
929.80 0.845
929.90 0.8449
930.00 0.8447
930.10 0.8446
930.20 0.8445
930.30 0.8443
930.40 0.8442
930.50 0.8441
930.60 0.844
930.70 0.8438
930.80 0.8437
930.90 0.8436
931.00 0.8435
931.10 0.8433
931.20 0.8432
931.30 0.8431
931.40 0.843
931.50 0.8428
931.60 0.8427
931.70 0.8426
931.80 0.8425
931.90 0.8423
932.00 0.8422
932.10 0.8421
932.20 0.842
932.30 0.8418
932.40 0.8417
932.50 0.8416
932.60 0.8415
932.70 0.8413
932.80 0.8412
932.90 0.8411
933.00 0.841
933.10 0.8408
933.20 0.8407
933.30 0.8406
933.40 0.8404
933.50 0.8403
933.60 0.8402
933.70 0.8401
933.80 0.8399
933.90 0.8398
934.00 0.8397
934.10 0.8396
934.20 0.8394
934.30 0.8393
934.40 0.8392
934.50 0.8391
934.60 0.8389
934.70 0.8388
934.80 0.8387
934.90 0.8386
935.00 0.8384
935.10 0.8383
935.20 0.8382
935.30 0.8381
935.40 0.8379
935.50 0.8378
935.60 0.8377
935.70 0.8376
935.80 0.8374
935.90 0.8373
936.00 0.8372
936.10 0.837
936.20 0.8369
936.30 0.8368
936.40 0.8367
936.50 0.8365
936.60 0.8364
936.70 0.8363
936.80 0.8362
936.90 0.836
937.00 0.8359
937.10 0.8358
937.20 0.8357
937.30 0.8355
937.40 0.8354
937.50 0.8353
937.60 0.8352
937.70 0.835
937.80 0.8349
937.90 0.8348
938.00 0.8347
938.10 0.8345
938.20 0.8344
938.30 0.8343
938.40 0.8342
938.50 0.834
938.60 0.8339
938.70 0.8338
938.80 0.8337
938.90 0.8335
939.00 0.8334
939.10 0.8333
939.20 0.8332
939.30 0.833
939.40 0.8329
939.50 0.8328
939.60 0.8327
939.70 0.8325
939.80 0.8324
939.90 0.8323
940.00 0.8322
940.10 0.832
940.20 0.8319
940.30 0.8318
940.40 0.8316
940.50 0.8315
940.60 0.8314
940.70 0.8313
940.80 0.8311
940.90 0.831
941.00 0.8309
941.10 0.8308
941.20 0.8306
941.30 0.8305
941.40 0.8304
941.50 0.8303
941.60 0.8301
941.70 0.83
941.80 0.8299
941.90 0.8298
942.00 0.8296
942.10 0.8295
942.20 0.8294
942.30 0.8293
942.40 0.8291
942.50 0.829
942.60 0.8289
942.70 0.8288
942.80 0.8286
942.90 0.8285
943.00 0.8284
943.10 0.8283
943.20 0.8281
943.30 0.828
943.40 0.8279
943.50 0.8278
943.60 0.8276
943.70 0.8275
943.80 0.8274
943.90 0.8273
944.00 0.8271
944.10 0.827
944.20 0.8269
944.30 0.8268
944.40 0.8266
944.50 0.8265
944.60 0.8264
944.70 0.8263
944.80 0.8261
944.90 0.826
945.00 0.8259
945.10 0.8258
945.20 0.8256
945.30 0.8255
945.40 0.8254
945.50 0.8253
945.60 0.8251
945.70 0.825
945.80 0.8249
945.90 0.8248
946.00 0.8246
946.10 0.8245
946.20 0.8244
946.30 0.8243
946.40 0.8241
946.50 0.824
946.60 0.8239
946.70 0.8238
946.80 0.8236
946.90 0.8235
947.00 0.8234
947.10 0.8233
947.20 0.8231
947.30 0.823
947.40 0.8229
947.50 0.8228
947.60 0.8226
947.70 0.8225
947.80 0.8224
947.90 0.8223
948.00 0.8221
948.10 0.822
948.20 0.8219
948.30 0.8218
948.40 0.8216
948.50 0.8215
948.60 0.8214
948.70 0.8213
948.80 0.8211
948.90 0.821
949.00 0.8209
949.10 0.8208
949.20 0.8206
949.30 0.8205
949.40 0.8204
949.50 0.8203
949.60 0.8201
949.70 0.82
949.80 0.8199
949.90 0.8198
950.00 0.8196
950.10 0.8195
950.20 0.8194
950.30 0.8193
950.40 0.8191
950.50 0.819
950.60 0.8189
950.70 0.8188
950.80 0.8186
950.90 0.8185
951.00 0.8184
951.10 0.8183
951.20 0.8181
951.30 0.818
951.40 0.8179
951.50 0.8178
951.60 0.8176
951.70 0.8175
951.80 0.8174
951.90 0.8173
952.00 0.8171
952.10 0.817
952.20 0.8169
952.30 0.8168
952.40 0.8166
952.50 0.8165
952.60 0.8164
952.70 0.8163
952.80 0.8162
952.90 0.816
953.00 0.8159
953.10 0.8158
953.20 0.8157
953.30 0.8155
953.40 0.8154
953.50 0.8153
953.60 0.8152
953.70 0.815
953.80 0.8149
953.90 0.8148
954.00 0.8147
954.10 0.8145
954.20 0.8144
954.30 0.8142
954.40 0.8141
954.50 0.814
954.60 0.8139
954.70 0.8138
954.80 0.8137
954.90 0.8135
955.00 0.8134
955.10 0.8133
955.20 0.8132
955.30 0.813
955.40 0.8129
955.50 0.8128
955.60 0.8127
955.70 0.8125
955.80 0.8124
955.90 0.8123
956.00 0.8122
956.10 0.812
956.20 0.8119
956.30 0.8118
956.40 0.8117
956.50 0.8115
956.60 0.8114
956.70 0.8113
956.80 0.8112
956.90 0.811
957.00 0.8109
957.10 0.8108
957.20 0.8107
957.30 0.8106
957.40 0.8104
957.50 0.8103
957.60 0.8102
957.70 0.8101
957.80 0.8099
957.90 0.8098
958.00 0.8097
958.10 0.8096
958.20 0.8094
958.30 0.8093
958.40 0.8092
958.50 0.8091
958.60 0.8089
958.70 0.8088
958.80 0.8087
958.90 0.8086
959.00 0.8084
959.10 0.8083
959.20 0.8082
959.30 0.8081
959.40 0.8079
959.50 0.8078
959.60 0.8077
959.70 0.8076
959.80 0.8074
959.90 0.8073
960.00 0.8072
960.10 0.8071
960.20 0.8069
960.30 0.8068
960.40 0.8067
960.50 0.8066
960.60 0.8064
960.70 0.8063
960.80 0.8062
960.90 0.8061
961.00 0.806
961.10 0.8058
961.20 0.8057
961.30 0.8056
961.40 0.8055
961.50 0.8053
961.60 0.8052
961.70 0.8051
961.80 0.805
961.90 0.8048
962.00 0.8047
962.10 0.8046
962.20 0.8045
962.30 0.8044
962.40 0.8042
962.50 0.8041
962.60 0.804
962.70 0.8039
962.80 0.8037
962.90 0.8036
963.00 0.8035
963.10 0.8034
963.20 0.8032
963.30 0.8031
963.40 0.803
963.50 0.8029
963.60 0.8027
963.70 0.8026
963.80 0.8025
963.90 0.8024
964.00 0.8023
964.10 0.8021
964.20 0.802
964.30 0.8019
964.40 0.8018
964.50 0.8016
964.60 0.8015
964.70 0.8014
964.80 0.8013
964.90 0.8011
965.00 0.801
965.10 0.8009
965.20 0.8008
965.30 0.8006
965.40 0.8005
965.50 0.8004
965.60 0.8003
965.70 0.8001
965.80 0.8
965.90 0.7999
966.00 0.7998
966.10 0.7996
966.20 0.7995
966.30 0.7994
966.40 0.7993
966.50 0.7992
966.60 0.799
966.70 0.7989
966.80 0.7988
966.90 0.7987
967.00 0.7985
967.10 0.7984
967.20 0.7983
967.30 0.7982
967.40 0.7981
967.50 0.7979
967.60 0.7978
967.70 0.7977
967.80 0.7976
967.90 0.7974
968.00 0.7973
968.10 0.7972
968.20 0.7971
968.30 0.7969
968.40 0.7968
968.50 0.7967
968.60 0.7966
968.70 0.7965
968.80 0.7963
968.90 0.7962
969.00 0.7961
969.10 0.796
969.20 0.7958
969.30 0.7957
969.40 0.7956
969.50 0.7955
969.60 0.7954
969.70 0.7952
969.80 0.7951
969.90 0.795
970.00 0.7949
970.10 0.7947
970.20 0.7946
970.30 0.7945
970.40 0.7944
970.50 0.7942
970.60 0.7941
970.70 0.794
970.80 0.7939
970.90 0.7938
971.00 0.7936
971.10 0.7935
971.20 0.7934
971.30 0.7933
971.40 0.7931
971.50 0.793
971.60 0.7929
971.70 0.7928
971.80 0.7926
971.90 0.7925
972.00 0.7924
972.10 0.7923
972.20 0.7922
972.30 0.792
972.40 0.7919
972.50 0.7918
972.60 0.7917
972.70 0.7915
972.80 0.7914
972.90 0.7913
973.00 0.7912
973.10 0.791
973.20 0.7909
973.30 0.7908
973.40 0.7907
973.50 0.7906
973.60 0.7904
973.70 0.7903
973.80 0.7902
973.90 0.7901
974.00 0.7899
974.10 0.7898
974.20 0.7897
974.30 0.7896
974.40 0.7895
974.50 0.7893
974.60 0.7892
974.70 0.7891
974.80 0.789
974.90 0.7888
975.00 0.7887
975.10 0.7886
975.20 0.7885
975.30 0.7883
975.40 0.7882
975.50 0.7881
975.60 0.788
975.70 0.7879
975.80 0.7877
975.90 0.7876
976.00 0.7875
976.10 0.7874
976.20 0.7872
976.30 0.7871
976.40 0.787
976.50 0.7869
976.60 0.7868
976.70 0.7866
976.80 0.7865
976.90 0.7864
977.00 0.7863
977.10 0.7861
977.20 0.786
977.30 0.7859
977.40 0.7858
977.50 0.7856
977.60 0.7855
977.70 0.7854
977.80 0.7853
977.90 0.7852
978.00 0.785
978.10 0.7849
978.20 0.7848
978.30 0.7847
978.40 0.7845
978.50 0.7844
978.60 0.7843
978.70 0.7842
978.80 0.7841
978.90 0.7839
979.00 0.7838
979.10 0.7837
979.20 0.7836
979.30 0.7834
979.40 0.7833
979.50 0.7832
979.60 0.7831
979.70 0.783
979.80 0.7828
979.90 0.7827
980.00 0.7826
980.10 0.7825
980.20 0.7823
980.30 0.7822
980.40 0.7821
980.50 0.782
980.60 0.7819
980.70 0.7817
980.80 0.7816
980.90 0.7815
981.00 0.7814
981.10 0.7812
981.20 0.7811
981.30 0.781
981.40 0.7809
981.50 0.7808
981.60 0.7806
981.70 0.7805
981.80 0.7804
981.90 0.7803
982.00 0.7802
982.10 0.78
982.20 0.7799
982.30 0.7798
982.40 0.7797
982.50 0.7795
982.60 0.7794
982.70 0.7793
982.80 0.7792
982.90 0.7791
983.00 0.7789
983.10 0.7788
983.20 0.7787
983.30 0.7786
983.40 0.7785
983.50 0.7783
983.60 0.7782
983.70 0.7781
983.80 0.778
983.90 0.7778
984.00 0.7777
984.10 0.7776
984.20 0.7775
984.30 0.7774
984.40 0.7772
984.50 0.7771
984.60 0.777
984.70 0.7769
984.80 0.7768
984.90 0.7766
985.00 0.7765
985.10 0.7764
985.20 0.7763
985.30 0.7761
985.40 0.776
985.50 0.7759
985.60 0.7758
985.70 0.7757
985.80 0.7755
985.90 0.7754
986.00 0.7753
986.10 0.7752
986.20 0.7751
986.30 0.7749
986.40 0.7748
986.50 0.7747
986.60 0.7746
986.70 0.7745
986.80 0.7743
986.90 0.7742
987.00 0.7741
987.10 0.774
987.20 0.7738
987.30 0.7737
987.40 0.7736
987.50 0.7735
987.60 0.7734
987.70 0.7732
987.80 0.7731
987.90 0.773
988.00 0.7729
988.10 0.7728
988.20 0.7726
988.30 0.7725
988.40 0.7724
988.50 0.7723
988.60 0.7721
988.70 0.772
988.80 0.7719
988.90 0.7718
989.00 0.7717
989.10 0.7715
989.20 0.7714
989.30 0.7713
989.40 0.7712
989.50 0.7711
989.60 0.7709
989.70 0.7708
989.80 0.7707
989.90 0.7706
990.00 0.7704
990.10 0.7703
990.20 0.7702
990.30 0.7701
990.40 0.77
990.50 0.7698
990.60 0.7697
990.70 0.7696
990.80 0.7695
990.90 0.7694
991.00 0.7692
991.10 0.7691
991.20 0.769
991.30 0.7689
991.40 0.7688
991.50 0.7686
991.60 0.7685
991.70 0.7684
991.80 0.7683
991.90 0.7682
992.00 0.7681
992.10 0.7679
992.20 0.7678
992.30 0.7677
992.40 0.7676
992.50 0.7674
992.60 0.7673
992.70 0.7672
992.80 0.7671
992.90 0.767
993.00 0.7668
993.10 0.7667
993.20 0.7666
993.30 0.7665
993.40 0.7664
993.50 0.7662
993.60 0.7661
993.70 0.766
993.80 0.7659
993.90 0.7658
994.00 0.7656
994.10 0.7655
994.20 0.7654
994.30 0.7653
994.40 0.7651
994.50 0.765
994.60 0.7649
994.70 0.7648
994.80 0.7647
994.90 0.7645
995.00 0.7644
995.10 0.7643
995.20 0.7642
995.30 0.7641
995.40 0.7639
995.50 0.7638
995.60 0.7637
995.70 0.7636
995.80 0.7635
995.90 0.7633
996.00 0.7632
996.10 0.7631
996.20 0.763
996.30 0.7629
996.40 0.7627
996.50 0.7626
996.60 0.7625
996.70 0.7624
996.80 0.7623
996.90 0.7621
997.00 0.762
997.10 0.7619
997.20 0.7618
997.30 0.7617
997.40 0.7615
997.50 0.7614
997.60 0.7613
997.70 0.7612
997.80 0.7611
997.90 0.7609
998.00 0.7608
998.10 0.7607
998.20 0.7606
998.30 0.7605
998.40 0.7603
998.50 0.7602
998.60 0.7601
998.70 0.76
998.80 0.7599
998.90 0.7597
999.00 0.7596
999.10 0.7595
999.20 0.7594
999.30 0.7593
999.40 0.7591
999.50 0.759
999.60 0.7589
999.70 0.7588
999.80 0.7587
999.90 0.7585
1000.00 0.7584
1000.10 0.7583
1000.20 0.7582
1000.30 0.7581
1000.40 0.7579
1000.50 0.7578
1000.60 0.7577
1000.70 0.7576
1000.80 0.7575
1000.90 0.7574
1001.00 0.7572
1001.10 0.7571
1001.20 0.757
1001.30 0.7569
1001.40 0.7568
1001.50 0.7566
1001.60 0.7565
1001.70 0.7564
1001.80 0.7563
1001.90 0.7562
1002.00 0.7561
1002.10 0.7559
1002.20 0.7558
1002.30 0.7557
1002.40 0.7556
1002.50 0.7555
1002.60 0.7553
1002.70 0.7552
1002.80 0.7551
1002.90 0.755
1003.00 0.7549
1003.10 0.7547
1003.20 0.7546
1003.30 0.7545
1003.40 0.7544
1003.50 0.7543
1003.60 0.7541
1003.70 0.754
1003.80 0.7539
1003.90 0.7538
1004.00 0.7537
1004.10 0.7535
1004.20 0.7534
1004.30 0.7533
1004.40 0.7532
1004.50 0.753
1004.60 0.7527
1004.70 0.7528
1004.80 0.7527
1004.90 0.7526
1005.00 0.7525
1005.10 0.7524
1005.20 0.7522
1005.30 0.7521
1005.40 0.752
1005.50 0.7519
1005.60 0.7518
1005.70 0.7516
1005.80 0.7515
1005.90 0.7514
1006.00 0.7513
1006.10 0.7512
1006.20 0.751
1006.30 0.7509
1006.40 0.7508
1006.50 0.7507
1006.60 0.7506
1006.70 0.7504
1006.80 0.7503
1006.90 0.7502
1007.00 0.7501
1007.10 0.75
1007.20 0.7499
1007.30 0.7497
1007.40 0.7496
1007.50 0.7495
1007.60 0.7494
1007.70 0.7493
1007.80 0.7491
1007.90 0.749
1008.00 0.7489
1008.10 0.7488
1008.20 0.7487
1008.30 0.7485
1008.40 0.7484
1008.50 0.7483
1008.60 0.7482
1008.70 0.7481
1008.80 0.748
1008.90 0.7478
1009.00 0.7477
1009.10 0.7476
1009.20 0.7475
1009.30 0.7474
1009.40 0.7472
1009.50 0.7471
1009.60 0.747
1009.70 0.7469
1009.80 0.7468
1009.90 0.7467
1010.00 0.7465
1010.10 0.7464
1010.20 0.7463
1010.30 0.7462
1010.40 0.7461
1010.50 0.7459
1010.60 0.7458
1010.70 0.7457
1010.80 0.7456
1010.90 0.7455
1011.00 0.7454
1011.10 0.7452
1011.20 0.7451
1011.30 0.745
1011.40 0.7449
1011.50 0.7448
1011.60 0.7447
1011.70 0.7445
1011.80 0.7444
1011.90 0.7443
1012.00 0.7442
1012.10 0.7441
1012.20 0.7439
1012.30 0.7438
1012.40 0.7437
1012.50 0.7436
1012.60 0.7435
1012.70 0.7434
1012.80 0.7432
1012.90 0.7431
1013.00 0.743
1013.10 0.7429
1013.20 0.7428
1013.30 0.7426
1013.40 0.7425
1013.50 0.7424
1013.60 0.7423
1013.70 0.7422
1013.80 0.7421
1013.90 0.7419
1014.00 0.7418
1014.10 0.7417
1014.20 0.7416
1014.30 0.7415
1014.40 0.7413
1014.50 0.7412
1014.60 0.7411
1014.70 0.741
1014.80 0.7409
1014.90 0.7407
1015.00 0.7406
1015.10 0.7405
1015.20 0.7404
1015.30 0.7403
1015.40 0.7402
1015.50 0.74
1015.60 0.7399
1015.70 0.7398
1015.80 0.7397
1015.90 0.7396
1016.00 0.7395
1016.10 0.7393
1016.20 0.7392
1016.30 0.7391
1016.40 0.739
1016.50 0.7389
1016.60 0.7388
1016.70 0.7386
1016.80 0.7385
1016.90 0.7384
1017.00 0.7383
1017.10 0.7382
1017.20 0.7381
1017.30 0.7379
1017.40 0.7378
1017.50 0.7377
1017.60 0.7376
1017.70 0.7375
1017.80 0.7373
1017.90 0.7372
1018.00 0.7371
1018.10 0.737
1018.20 0.7369
1018.30 0.7368
1018.40 0.7366
1018.50 0.7365
1018.60 0.7364
1018.70 0.7363
1018.80 0.7362
1018.90 0.7361
1019.00 0.7359
1019.10 0.7358
1019.20 0.7357
1019.30 0.7356
1019.40 0.7355
1019.50 0.7353
1019.60 0.7352
1019.70 0.7351
1019.80 0.735
1019.90 0.7349
1020.00 0.7348
1020.10 0.7346
1020.20 0.7345
1020.30 0.7344
1020.40 0.7343
1020.50 0.7342
1020.60 0.7341
1020.70 0.7339
1020.80 0.7338
1020.90 0.7337
1021.00 0.7336
1021.10 0.7335
1021.20 0.7334
1021.30 0.7332
1021.40 0.7331
1021.50 0.733
1021.60 0.7329
1021.70 0.7328
1021.80 0.7327
1021.90 0.7325
1022.00 0.7324
1022.10 0.7323
1022.20 0.7322
1022.30 0.7321
1022.40 0.732
1022.50 0.7318
1022.60 0.7317
1022.70 0.7316
1022.80 0.7315
1022.90 0.7314
1023.00 0.7313
1023.10 0.7311
1023.20 0.731
1023.30 0.7309
1023.40 0.7308
1023.50 0.7307
1023.60 0.7306
1023.70 0.7304
1023.80 0.7303
1023.90 0.7302
1024.00 0.7301
1024.10 0.73
1024.20 0.7299
1024.30 0.7297
1024.40 0.7296
1024.50 0.7295
1024.60 0.7294
1024.70 0.7293
1024.80 0.7292
1024.90 0.729
1025.00 0.7289
1025.10 0.7288
1025.20 0.7287
1025.30 0.7286
1025.40 0.7285
1025.50 0.7283
1025.60 0.7282
1025.70 0.7281
1025.80 0.728
1025.90 0.7279
1026.00 0.7278
1026.10 0.7276
1026.20 0.7275
1026.30 0.7274
1026.40 0.7273
1026.50 0.7272
1026.60 0.7271
1026.70 0.727
1026.80 0.7268
1026.90 0.7267
1027.00 0.7266
1027.10 0.7265
1027.20 0.7264
1027.30 0.7263
1027.40 0.7261
1027.50 0.726
1027.60 0.7259
1027.70 0.7258
1027.80 0.7257
1027.90 0.7256
1028.00 0.7254
1028.10 0.7253
1028.20 0.7252
1028.30 0.7251
1028.40 0.725
1028.50 0.7249
1028.60 0.7248
1028.70 0.7246
1028.80 0.7245
1028.90 0.7244
1029.00 0.7243
1029.10 0.7242
1029.20 0.7241
1029.30 0.7239
1029.40 0.7238
1029.50 0.7237
1029.60 0.7236
1029.70 0.7235
1029.80 0.7234
1029.90 0.7232
1030.00 0.7231
1030.10 0.723
1030.20 0.7229
1030.30 0.7228
1030.40 0.7227
1030.50 0.7226
1030.60 0.7224
1030.70 0.7223
1030.80 0.7222
1030.90 0.7221
1031.00 0.722
1031.10 0.7219
1031.20 0.7218
1031.30 0.7216
1031.40 0.7215
1031.50 0.7214
1031.60 0.7213
1031.70 0.7212
1031.80 0.7211
1031.90 0.7209
1032.00 0.7208
1032.10 0.7207
1032.20 0.7206
1032.30 0.7205
1032.40 0.7204
1032.50 0.7203
1032.60 0.7201
1032.70 0.72
1032.80 0.7199
1032.90 0.7198
1033.00 0.7197
1033.10 0.7196
1033.20 0.7194
1033.30 0.7193
1033.40 0.7192
1033.50 0.7191
1033.60 0.719
1033.70 0.7189
1033.80 0.7188
1033.90 0.7186
1034.00 0.7185
1034.10 0.7184
1034.20 0.7183
1034.30 0.7182
1034.40 0.7181
1034.50 0.7179
1034.60 0.7178
1034.70 0.7177
1034.80 0.7176
1034.90 0.7175
1035.00 0.7174
1035.10 0.7173
1035.20 0.7171
1035.30 0.717
1035.40 0.7169
1035.50 0.7168
1035.60 0.7167
1035.70 0.7166
1035.80 0.7165
1035.90 0.7163
1036.00 0.7162
1036.10 0.7161
1036.20 0.716
1036.30 0.7159
1036.40 0.7158
1036.50 0.7157
1036.60 0.7155
1036.70 0.7154
1036.80 0.7153
1036.90 0.7152
1037.00 0.7151
1037.10 0.715
1037.20 0.7149
1037.30 0.7147
1037.40 0.7146
1037.50 0.7145
1037.60 0.7144
1037.70 0.7143
1037.80 0.7142
1037.90 0.714
1038.00 0.7139
1038.10 0.7138
1038.20 0.7137
1038.30 0.7136
1038.40 0.7135
1038.50 0.7134
1038.60 0.7132
1038.70 0.7131
1038.80 0.713
1038.90 0.7129
1039.00 0.7128
1039.10 0.7127
1039.20 0.7126
1039.30 0.7124
1039.40 0.7123
1039.50 0.7122
1039.60 0.7121
1039.70 0.712
1039.80 0.7119
1039.90 0.7118
1040.00 0.7116
1040.10 0.7115
1040.20 0.7114
1040.30 0.7113
1040.40 0.7112
1040.50 0.7111
1040.60 0.711
1040.70 0.7108
1040.80 0.7107
1040.90 0.7106
1041.00 0.7105
1041.10 0.7104
1041.20 0.7103
1041.30 0.7102
1041.40 0.71
1041.50 0.7099
1041.60 0.7098
1041.70 0.7097
1041.80 0.7096
1041.90 0.7095
1042.00 0.7094
1042.10 0.7092
1042.20 0.7091
1042.30 0.709
1042.40 0.7089
1042.50 0.7088
1042.60 0.7087
1042.70 0.7086
1042.80 0.7084
1042.90 0.7083
1043.00 0.7082
1043.10 0.7081
1043.20 0.708
1043.30 0.7079
1043.40 0.7078
1043.50 0.7077
1043.60 0.7075
1043.70 0.7074
1043.80 0.7073
1043.90 0.7072
1044.00 0.7071
1044.10 0.707
1044.20 0.7069
1044.30 0.7067
1044.40 0.7066
1044.50 0.7065
1044.60 0.7064
1044.70 0.7063
1044.80 0.7062
1044.90 0.7061
1045.00 0.706
1045.10 0.7058
1045.20 0.7057
1045.30 0.7056
1045.40 0.7055
1045.50 0.7054
1045.60 0.7053
1045.70 0.7052
1045.80 0.705
1045.90 0.7049
1046.00 0.7048
1046.10 0.7047
1046.20 0.7046
1046.30 0.7045
1046.40 0.7044
1046.50 0.7043
1046.60 0.7041
1046.70 0.704
1046.80 0.7039
1046.90 0.7038
1047.00 0.7037
1047.10 0.7036
1047.20 0.7035
1047.30 0.7034
1047.40 0.7032
1047.50 0.7031
1047.60 0.703
1047.70 0.7029
1047.80 0.7028
1047.90 0.7027
1048.00 0.7026
1048.10 0.7024
1048.20 0.7023
1048.30 0.7022
1048.40 0.7021
1048.50 0.702
1048.60 0.7019
1048.70 0.7018
1048.80 0.7017
1048.90 0.7015
1049.00 0.7014
1049.10 0.7013
1049.20 0.7012
1049.30 0.7011
1049.40 0.701
1049.50 0.7009
1049.60 0.7008
1049.70 0.7006
1049.80 0.7005
1049.90 0.7004
1050.00 0.7003
1050.10 0.7002
1050.20 0.7001
1050.30 0.7
1050.40 0.6999
1050.50 0.6997
1050.60 0.6996
1050.70 0.6995
1050.80 0.6994
1050.90 0.6993
1051.00 0.6992
1051.10 0.6991
1051.20 0.699
1051.30 0.6988
1051.40 0.6987
1051.50 0.6986
1051.60 0.6985
1051.70 0.6984
1051.80 0.6983
1051.90 0.6982
1052.00 0.6981
1052.10 0.6979
1052.20 0.6978
1052.30 0.6977
1052.40 0.6976
1052.50 0.6975
1052.60 0.6974
1052.70 0.6973
1052.80 0.6972
1052.90 0.697
1053.00 0.6969
1053.10 0.6968
1053.20 0.6967
1053.30 0.6966
1053.40 0.6965
1053.50 0.6964
1053.60 0.6963
1053.70 0.6961
1053.80 0.696
1053.90 0.6959
1054.00 0.6958
1054.10 0.6957
1054.20 0.6956
1054.30 0.6955
1054.40 0.6954
1054.50 0.6952
1054.60 0.6951
1054.70 0.695
1054.80 0.6949
1054.90 0.6948
1055.00 0.6947
1055.10 0.6946
1055.20 0.6945
1055.30 0.6944
1055.40 0.6942
1055.50 0.6941
1055.60 0.694
1055.70 0.6939
1055.80 0.6938
1055.90 0.6937
1056.00 0.6936
1056.10 0.6935
1056.20 0.6934
1056.30 0.6932
1056.40 0.6931
1056.50 0.693
1056.60 0.6929
1056.70 0.6928
1056.80 0.6927
1056.90 0.6926
1057.00 0.6925
1057.10 0.6923
1057.20 0.6922
1057.30 0.6921
1057.40 0.692
1057.50 0.6919
1057.60 0.6918
1057.70 0.6917
1057.80 0.6916
1057.90 0.6915
1058.00 0.6913
1058.10 0.6912
1058.20 0.6911
1058.30 0.691
1058.40 0.6909
1058.50 0.6908
1058.60 0.6907
1058.70 0.6906
1058.80 0.6905
1058.90 0.6903
1059.00 0.6902
1059.10 0.6901
1059.20 0.69
1059.30 0.6899
1059.40 0.6898
1059.50 0.6897
1059.60 0.6896
1059.70 0.6895
1059.80 0.6893
1059.90 0.6892
1060.00 0.6891
1060.10 0.689
1060.20 0.6889
1060.30 0.6888
1060.40 0.6887
1060.50 0.6886
1060.60 0.6885
1060.70 0.6883
1060.80 0.6882
1060.90 0.6881
1061.00 0.688
1061.10 0.6879
1061.20 0.6878
1061.30 0.6877
1061.40 0.6876
1061.50 0.6875
1061.60 0.6873
1061.70 0.6872
1061.80 0.6871
1061.90 0.687
1062.00 0.6869
1062.10 0.6868
1062.20 0.6867
1062.30 0.6866
1062.40 0.6865
1062.50 0.6863
1062.60 0.6862
1062.70 0.6861
1062.80 0.686
1062.90 0.6859
1063.00 0.6858
1063.10 0.6857
1063.20 0.6856
1063.30 0.6855
1063.40 0.6854
1063.50 0.6852
1063.60 0.6851
1063.70 0.685
1063.80 0.6849
1063.90 0.6848
1064.00 0.6847
1064.10 0.6846
1064.20 0.6845
1064.30 0.6844
1064.40 0.6842
1064.50 0.6841
1064.60 0.684
1064.70 0.6839
1064.80 0.6838
1064.90 0.6837
1065.00 0.6836
1065.10 0.6835
1065.20 0.6834
1065.30 0.6833
1065.40 0.6831
1065.50 0.683
1065.60 0.6829
1065.70 0.6828
1065.80 0.6827
1065.90 0.6826
1066.00 0.6825
1066.10 0.6824
1066.20 0.6823
1066.30 0.6822
1066.40 0.682
1066.50 0.6819
1066.60 0.6818
1066.70 0.6817
1066.80 0.6816
1066.90 0.6815
1067.00 0.6814
1067.10 0.6813
1067.20 0.6812
1067.30 0.6811
1067.40 0.6809
1067.50 0.6808
1067.60 0.6807
1067.70 0.6806
1067.80 0.6805
1067.90 0.6804
1068.00 0.6803
1068.10 0.6802
1068.20 0.6801
1068.30 0.68
1068.40 0.6798
1068.50 0.6797
1068.60 0.6796
1068.70 0.6795
1068.80 0.6794
1068.90 0.6793
1069.00 0.6792
1069.10 0.6791
1069.20 0.679
1069.30 0.6789
1069.40 0.6787
1069.50 0.6786
1069.60 0.6785
1069.70 0.6784
1069.80 0.6783
1069.90 0.6782
1070.00 0.6781
1070.10 0.678
1070.20 0.6779
1070.30 0.6778
1070.40 0.6776
1070.50 0.6775
1070.60 0.6774
1070.70 0.6773
1070.80 0.6772
1070.90 0.6771
1071.00 0.677
1071.10 0.6769
1071.20 0.6768
1071.30 0.6767
1071.40 0.6766
1071.50 0.6764
1071.60 0.6763
1071.70 0.6762
1071.80 0.6761
1071.90 0.676
1072.00 0.6759
1072.10 0.6758
1072.20 0.6757
1072.30 0.6756
1072.40 0.6755
1072.50 0.6754
1072.60 0.6752
1072.70 0.6751
1072.80 0.675
1072.90 0.6749
1073.00 0.6748
1073.10 0.6747
1073.20 0.6746
1073.30 0.6745
1073.40 0.6744
1073.50 0.6743
1073.60 0.6742
1073.70 0.6741
1073.80 0.6739
1073.90 0.6738
1074.00 0.6737
1074.10 0.6736
1074.20 0.6735
1074.30 0.6734
1074.40 0.6733
1074.50 0.6732
1074.60 0.6731
1074.70 0.673
1074.80 0.6729
1074.90 0.6727
1075.00 0.6726
1075.10 0.6725
1075.20 0.6724
1075.30 0.6723
1075.40 0.6722
1075.50 0.6721
1075.60 0.672
1075.70 0.6719
1075.80 0.6718
1075.90 0.6717
1076.00 0.6716
1076.10 0.6714
1076.20 0.6713
1076.30 0.6712
1076.40 0.6711
1076.50 0.671
1076.60 0.6709
1076.70 0.6708
1076.80 0.6707
1076.90 0.6706
1077.00 0.6705
1077.10 0.6704
1077.20 0.6702
1077.30 0.6701
1077.40 0.67
1077.50 0.6699
1077.60 0.6698
1077.70 0.6697
1077.80 0.6696
1077.90 0.6695
1078.00 0.6694
1078.10 0.6693
1078.20 0.6692
1078.30 0.669
1078.40 0.6689
1078.50 0.6688
1078.60 0.6687
1078.70 0.6686
1078.80 0.6685
1078.90 0.6684
1079.00 0.6683
1079.10 0.6682
1079.20 0.6681
1079.30 0.668
1079.40 0.6679
1079.50 0.6678
1079.60 0.6676
1079.70 0.6675
1079.80 0.6674
1079.90 0.6673
1080.00 0.6672
1080.10 0.6671
1080.20 0.667
1080.30 0.6669
1080.40 0.6668
1080.50 0.6667
1080.60 0.6666
1080.70 0.6665
1080.80 0.6664
1080.90 0.6662
1081.00 0.6661
1081.10 0.666
1081.20 0.6659
1081.30 0.6658
1081.40 0.6657
1081.50 0.6656
1081.60 0.6655
1081.70 0.6654
1081.80 0.6653
1081.90 0.6652
1082.00 0.6651
1082.10 0.6649
1082.20 0.6648
1082.30 0.6647
1082.40 0.6646
1082.50 0.6645
1082.60 0.6644
1082.70 0.6643
1082.80 0.6642
1082.90 0.6641
1083.00 0.664
1083.10 0.6639
1083.20 0.6638
1083.30 0.6637
1083.40 0.6635
1083.50 0.6634
1083.60 0.6633
1083.70 0.6632
1083.80 0.6631
1083.90 0.663
1084.00 0.6629
1084.10 0.6628
1084.20 0.6627
1084.30 0.6626
1084.40 0.6625
1084.50 0.6624
1084.60 0.6623
1084.70 0.6622
1084.80 0.6621
1084.90 0.6619
1085.00 0.6618
1085.10 0.6617
1085.20 0.6616
1085.30 0.6615
1085.40 0.6614
1085.50 0.6613
1085.60 0.6612
1085.70 0.6611
1085.80 0.661
1085.90 0.6609
1086.00 0.6608
1086.10 0.6607
1086.20 0.6606
1086.30 0.6605
1086.40 0.6603
1086.50 0.6602
1086.60 0.6601
1086.70 0.66
1086.80 0.6599
1086.90 0.6598
1087.00 0.6597
1087.10 0.6596
1087.20 0.6595
1087.30 0.6594
1087.40 0.6593
1087.50 0.6592
1087.60 0.6591
1087.70 0.659
1087.80 0.6588
1087.90 0.6587
1088.00 0.6586
1088.10 0.6585
1088.20 0.6584
1088.30 0.6583
1088.40 0.6582
1088.50 0.6581
1088.60 0.658
1088.70 0.6579
1088.80 0.6578
1088.90 0.6577
1089.00 0.6576
1089.10 0.6575
1089.20 0.6574
1089.30 0.6572
1089.40 0.6571
1089.50 0.657
1089.60 0.6569
1089.70 0.6568
1089.80 0.6567
1089.90 0.6566
1090.00 0.6565
1090.10 0.6564
1090.20 0.6563
1090.30 0.6562
1090.40 0.6561
1090.50 0.656
1090.60 0.6559
1090.70 0.6558
1090.80 0.6557
1090.90 0.6555
1091.00 0.6554
1091.10 0.6553
1091.20 0.6552
1091.30 0.6551
1091.40 0.655
1091.50 0.6549
1091.60 0.6548
1091.70 0.6547
1091.80 0.6546
1091.90 0.6545
1092.00 0.6544
1092.10 0.6543
1092.20 0.6542
1092.30 0.6541
1092.40 0.6539
1092.50 0.6538
1092.60 0.6537
1092.70 0.6536
1092.80 0.6535
1092.90 0.6534
1093.00 0.6533
1093.10 0.6532
1093.20 0.6531
1093.30 0.653
1093.40 0.6527
1093.50 0.6524
1093.60 0.6526
1093.70 0.6526
1093.80 0.6525
1093.90 0.6524
1094.00 0.6523
1094.10 0.6522
1094.20 0.652
1094.30 0.6519
1094.40 0.6518
1094.50 0.6517
1094.60 0.6516
1094.70 0.6515
1094.80 0.6514
1094.90 0.6513
1095.00 0.6512
1095.10 0.6511
1095.20 0.651
1095.30 0.6509
1095.40 0.6508
1095.50 0.6507
1095.60 0.6506
1095.70 0.6505
1095.80 0.6504
1095.90 0.6502
1096.00 0.6501
1096.10 0.65
1096.20 0.6499
1096.30 0.6498
1096.40 0.6497
1096.50 0.6496
1096.60 0.6495
1096.70 0.6494
1096.80 0.6493
1096.90 0.6492
1097.00 0.6491
1097.10 0.649
1097.20 0.6489
1097.30 0.6488
1097.40 0.6487
1097.50 0.6486
1097.60 0.6485
1097.70 0.6484
1097.80 0.6483
1097.90 0.6481
1098.00 0.648
1098.10 0.6479
1098.20 0.6478
1098.30 0.6477
1098.40 0.6476
1098.50 0.6475
1098.60 0.6474
1098.70 0.6473
1098.80 0.6472
1098.90 0.6471
1099.00 0.647
1099.10 0.6469
1099.20 0.6468
1099.30 0.6467
1099.40 0.6466
1099.50 0.6465
1099.60 0.6464
1099.70 0.6463
1099.80 0.6462
1099.90 0.646
1100.00 0.6459
1100.10 0.6458
1100.20 0.6457
1100.30 0.6456
1100.40 0.6455
1100.50 0.6454
1100.60 0.6453
1100.70 0.6452
1100.80 0.6451
1100.90 0.645
1101.00 0.6449
1101.10 0.6448
1101.20 0.6447
1101.30 0.6446
1101.40 0.6445
1101.50 0.6444
1101.60 0.6443
1101.70 0.6442
1101.80 0.6441
1101.90 0.644
1102.00 0.6439
1102.10 0.6438
1102.20 0.6436
1102.30 0.6435
1102.40 0.6434
1102.50 0.6433
1102.60 0.6432
1102.70 0.6431
1102.80 0.643
1102.90 0.6429
1103.00 0.6428
1103.10 0.6427
1103.20 0.6426
1103.30 0.6425
1103.40 0.6424
1103.50 0.6423
1103.60 0.6422
1103.70 0.6421
1103.80 0.642
1103.90 0.6419
1104.00 0.6418
1104.10 0.6417
1104.20 0.6416
1104.30 0.6414
1104.40 0.6413
1104.50 0.6412
1104.60 0.6411
1104.70 0.641
1104.80 0.6409
1104.90 0.6408
1105.00 0.6407
1105.10 0.6406
1105.20 0.6405
1105.30 0.6404
1105.40 0.6403
1105.50 0.6402
1105.60 0.6401
1105.70 0.64
1105.80 0.6399
1105.90 0.6398
1106.00 0.6397
1106.10 0.6396
1106.20 0.6395
1106.30 0.6394
1106.40 0.6393
1106.50 0.6392
1106.60 0.6391
1106.70 0.639
1106.80 0.6389
1106.90 0.6387
1107.00 0.6386
1107.10 0.6385
1107.20 0.6384
1107.30 0.6383
1107.40 0.6382
1107.50 0.6381
1107.60 0.638
1107.70 0.6379
1107.80 0.6378
1107.90 0.6377
1108.00 0.6376
1108.10 0.6375
1108.20 0.6374
1108.30 0.6373
1108.40 0.6372
1108.50 0.6371
1108.60 0.637
1108.70 0.6369
1108.80 0.6368
1108.90 0.6367
1109.00 0.6366
1109.10 0.6365
1109.20 0.6364
1109.30 0.6363
1109.40 0.6362
1109.50 0.6361
1109.60 0.636
1109.70 0.6359
1109.80 0.6357
1109.90 0.6356
1110.00 0.6355
1110.10 0.6354
1110.20 0.6353
1110.30 0.6352
1110.40 0.6351
1110.50 0.635
1110.60 0.6349
1110.70 0.6348
1110.80 0.6347
1110.90 0.6346
1111.00 0.6345
1111.10 0.6344
1111.20 0.6343
1111.30 0.6342
1111.40 0.6341
1111.50 0.634
1111.60 0.6339
1111.70 0.6338
1111.80 0.6337
1111.90 0.6336
1112.00 0.6335
1112.10 0.6334
1112.20 0.6333
1112.30 0.6332
1112.40 0.6331
1112.50 0.633
1112.60 0.6329
1112.70 0.6328
1112.80 0.6327
1112.90 0.6326
1113.00 0.6325
1113.10 0.6324
1113.20 0.6322
1113.30 0.6321
1113.40 0.632
1113.50 0.6319
1113.60 0.6318
1113.70 0.6317
1113.80 0.6316
1113.90 0.6315
1114.00 0.6314
1114.10 0.6313
1114.20 0.6312
1114.30 0.6311
1114.40 0.631
1114.50 0.6309
1114.60 0.6308
1114.70 0.6307
1114.80 0.6306
1114.90 0.6305
1115.00 0.6304
1115.10 0.6303
1115.20 0.6302
1115.30 0.6301
1115.40 0.63
1115.50 0.6299
1115.60 0.6298
1115.70 0.6297
1115.80 0.6296
1115.90 0.6295
1116.00 0.6294
1116.10 0.6293
1116.20 0.6292
1116.30 0.6291
1116.40 0.629
1116.50 0.6289
1116.60 0.6288
1116.70 0.6287
1116.80 0.6286
1116.90 0.6285
1117.00 0.6284
1117.10 0.6283
1117.20 0.6282
1117.30 0.6281
1117.40 0.628
1117.50 0.6279
1117.60 0.6278
1117.70 0.6277
1117.80 0.6276
1117.90 0.6274
1118.00 0.6273
1118.10 0.6272
1118.20 0.6271
1118.30 0.627
1118.40 0.6269
1118.50 0.6268
1118.60 0.6267
1118.70 0.6266
1118.80 0.6265
1118.90 0.6264
1119.00 0.6263
1119.10 0.6262
1119.20 0.6261
1119.30 0.626
1119.40 0.6259
1119.50 0.6258
1119.60 0.6257
1119.70 0.6256
1119.80 0.6255
1119.90 0.6254
1120.00 0.6253
1120.10 0.6252
1120.20 0.6251
1120.30 0.625
1120.40 0.6249
1120.50 0.6248
1120.60 0.6247
1120.70 0.6246
1120.80 0.6245
1120.90 0.6244
1121.00 0.6243
1121.10 0.6242
1121.20 0.6241
1121.30 0.624
1121.40 0.6239
1121.50 0.6238
1121.60 0.6237
1121.70 0.6236
1121.80 0.6235
1121.90 0.6234
1122.00 0.6233
1122.10 0.6232
1122.20 0.6231
1122.30 0.623
1122.40 0.6229
1122.50 0.6228
1122.60 0.6227
1122.70 0.6226
1122.80 0.6225
1122.90 0.6224
1123.00 0.6223
1123.10 0.6222
1123.20 0.6221
1123.30 0.622
1123.40 0.6219
1123.50 0.6218
1123.60 0.6217
1123.70 0.6216
1123.80 0.6215
1123.90 0.6214
1124.00 0.6213
1124.10 0.6212
1124.20 0.6211
1124.30 0.621
1124.40 0.6209
1124.50 0.6208
1124.60 0.6207
1124.70 0.6206
1124.80 0.6205
1124.90 0.6204
1125.00 0.6202
1125.10 0.6201
1125.20 0.62
1125.30 0.6199
1125.40 0.6198
1125.50 0.6197
1125.60 0.6196
1125.70 0.6195
1125.80 0.6194
1125.90 0.6193
1126.00 0.6192
1126.10 0.6191
1126.20 0.619
1126.30 0.6189
1126.40 0.6188
1126.50 0.6187
1126.60 0.6186
1126.70 0.6185
1126.80 0.6184
1126.90 0.6183
1127.00 0.6182
1127.10 0.6181
1127.20 0.618
1127.30 0.6179
1127.40 0.6178
1127.50 0.6177
1127.60 0.6176
1127.70 0.6175
1127.80 0.6174
1127.90 0.6173
1128.00 0.6172
1128.10 0.6171
1128.20 0.617
1128.30 0.6169
1128.40 0.6168
1128.50 0.6167
1128.60 0.6166
1128.70 0.6165
1128.80 0.6164
1128.90 0.6163
1129.00 0.6162
1129.10 0.6161
1129.20 0.616
1129.30 0.6159
1129.40 0.6158
1129.50 0.6157
1129.60 0.6156
1129.70 0.6155
1129.80 0.6154
1129.90 0.6153
1130.00 0.6152
1130.10 0.6151
1130.20 0.615
1130.30 0.6149
1130.40 0.6148
1130.50 0.6147
1130.60 0.6146
1130.70 0.6145
1130.80 0.6144
1130.90 0.6143
1131.00 0.6142
1131.10 0.6141
1131.20 0.614
1131.30 0.6139
1131.40 0.6138
1131.50 0.6137
1131.60 0.6136
1131.70 0.6135
1131.80 0.6134
1131.90 0.6133
1132.00 0.6132
1132.10 0.6131
1132.20 0.613
1132.30 0.6129
1132.40 0.6128
1132.50 0.6127
1132.60 0.6126
1132.70 0.6125
1132.80 0.6124
1132.90 0.6123
1133.00 0.6122
1133.10 0.6121
1133.20 0.612
1133.30 0.6119
1133.40 0.6118
1133.50 0.6117
1133.60 0.6116
1133.70 0.6115
1133.80 0.6114
1133.90 0.6113
1134.00 0.6112
1134.10 0.6111
1134.20 0.611
1134.30 0.6109
1134.40 0.6108
1134.50 0.6107
1134.60 0.6106
1134.70 0.6105
1134.80 0.6104
1134.90 0.6103
1135.00 0.6102
1135.10 0.6101
1135.20 0.61
1135.30 0.6099
1135.40 0.6098
1135.50 0.6098
1135.60 0.6097
1135.70 0.6096
1135.80 0.6095
1135.90 0.6094
1136.00 0.6093
1136.10 0.6092
1136.20 0.6091
1136.30 0.609
1136.40 0.6089
1136.50 0.6088
1136.60 0.6087
1136.70 0.6086
1136.80 0.6085
1136.90 0.6084
1137.00 0.6083
1137.10 0.6082
1137.20 0.6081
1137.30 0.608
1137.40 0.6079
1137.50 0.6078
1137.60 0.6077
1137.70 0.6076
1137.80 0.6075
1137.90 0.6074
1138.00 0.6073
1138.10 0.6072
1138.20 0.6071
1138.30 0.607
1138.40 0.6069
1138.50 0.6068
1138.60 0.6067
1138.70 0.6066
1138.80 0.6065
1138.90 0.6064
1139.00 0.6063
1139.10 0.6062
1139.20 0.6061
1139.30 0.606
1139.40 0.6059
1139.50 0.6058
1139.60 0.6057
1139.70 0.6056
1139.80 0.6055
1139.90 0.6054
1140.00 0.6053
1140.10 0.6052
1140.20 0.6051
1140.30 0.605
1140.40 0.6049
1140.50 0.6048
1140.60 0.6047
1140.70 0.6046
1140.80 0.6045
1140.90 0.6044
1141.00 0.6043
1141.10 0.6042
1141.20 0.6041
1141.30 0.604
1141.40 0.6039
1141.50 0.6038
1141.60 0.6037
1141.70 0.6036
1141.80 0.6035
1141.90 0.6034
1142.00 0.6033
1142.10 0.6032
1142.20 0.6031
1142.30 0.603
1142.40 0.6029
1142.50 0.6028
1142.60 0.6028
1142.70 0.6027
1142.80 0.6026
1142.90 0.6025
1143.00 0.6024
1143.10 0.6023
1143.20 0.6022
1143.30 0.6021
1143.40 0.602
1143.50 0.6019
1143.60 0.6018
1143.70 0.6017
1143.80 0.6016
1143.90 0.6015
1144.00 0.6014
1144.10 0.6013
1144.20 0.6012
1144.30 0.6011
1144.40 0.601
1144.50 0.6009
1144.60 0.6008
1144.70 0.6007
1144.80 0.6006
1144.90 0.6005
1145.00 0.6004
1145.10 0.6003
1145.20 0.6002
1145.30 0.6001
1145.40 0.6
1145.50 0.5999
1145.60 0.5998
1145.70 0.5997
1145.80 0.5996
1145.90 0.5995
1146.00 0.5994
1146.10 0.5993
1146.20 0.5992
1146.30 0.5991
1146.40 0.599
1146.50 0.5989
1146.60 0.5988
1146.70 0.5987
1146.80 0.5986
1146.90 0.5986
1147.00 0.5985
1147.10 0.5984
1147.20 0.5983
1147.30 0.5982
1147.40 0.5981
1147.50 0.598
1147.60 0.5979
1147.70 0.5978
1147.80 0.5977
1147.90 0.5976
1148.00 0.5975
1148.10 0.5974
1148.20 0.5973
1148.30 0.5972
1148.40 0.5971
1148.50 0.597
1148.60 0.5969
1148.70 0.5968
1148.80 0.5967
1148.90 0.5966
1149.00 0.5965
1149.10 0.5964
1149.20 0.5963
1149.30 0.5962
1149.40 0.5961
1149.50 0.596
1149.60 0.5959
1149.70 0.5958
1149.80 0.5957
1149.90 0.5956
1150.00 0.5955
1150.10 0.5954
1150.20 0.5953
1150.30 0.5952
1150.40 0.5952
1150.50 0.5951
1150.60 0.595
1150.70 0.5949
1150.80 0.5948
1150.90 0.5947
1151.00 0.5946
1151.10 0.5945
1151.20 0.5944
1151.30 0.5943
1151.40 0.5942
1151.50 0.5941
1151.60 0.594
1151.70 0.5939
1151.80 0.5938
1151.90 0.5937
1152.00 0.5936
1152.10 0.5935
1152.20 0.5934
1152.30 0.5933
1152.40 0.5932
1152.50 0.5931
1152.60 0.593
1152.70 0.5929
1152.80 0.5928
1152.90 0.5927
1153.00 0.5926
1153.10 0.5925
1153.20 0.5924
1153.30 0.5924
1153.40 0.5923
1153.50 0.5922
1153.60 0.5921
1153.70 0.592
1153.80 0.5919
1153.90 0.5918
1154.00 0.5917
1154.10 0.5916
1154.20 0.5915
1154.30 0.5914
1154.40 0.5913
1154.50 0.5912
1154.60 0.5911
1154.70 0.591
1154.80 0.5909
1154.90 0.5908
1155.00 0.5907
1155.10 0.5906
1155.20 0.5905
1155.30 0.5904
1155.40 0.5903
1155.50 0.5902
1155.60 0.5901
1155.70 0.59
1155.80 0.59
1155.90 0.5899
1156.00 0.5898
1156.10 0.5897
1156.20 0.5896
1156.30 0.5895
1156.40 0.5894
1156.50 0.5893
1156.60 0.5892
1156.70 0.5891
1156.80 0.589
1156.90 0.5889
1157.00 0.5888
1157.10 0.5887
1157.20 0.5886
1157.30 0.5885
1157.40 0.5884
1157.50 0.5883
1157.60 0.5882
1157.70 0.5881
1157.80 0.588
1157.90 0.5879
1158.00 0.5878
1158.10 0.5877
1158.20 0.5877
1158.30 0.5876
1158.40 0.5875
1158.50 0.5874
1158.60 0.5873
1158.70 0.5872
1158.80 0.5871
1158.90 0.587
1159.00 0.5869
1159.10 0.5868
1159.20 0.5867
1159.30 0.5866
1159.40 0.5865
1159.50 0.5864
1159.60 0.5863
1159.70 0.5862
1159.80 0.5861
1159.90 0.586
1160.00 0.5859
1160.10 0.5858
1160.20 0.5857
1160.30 0.5856
1160.40 0.5856
1160.50 0.5855
1160.60 0.5854
1160.70 0.5853
1160.80 0.5852
1160.90 0.5851
1161.00 0.585
1161.10 0.5849
1161.20 0.5848
1161.30 0.5847
1161.40 0.5846
1161.50 0.5845
1161.60 0.5844
1161.70 0.5843
1161.80 0.5842
1161.90 0.5841
1162.00 0.584
1162.10 0.5839
1162.20 0.5838
1162.30 0.5837
1162.40 0.5837
1162.50 0.5836
1162.60 0.5835
1162.70 0.5834
1162.80 0.5833
1162.90 0.5832
1163.00 0.5831
1163.10 0.583
1163.20 0.5829
1163.30 0.5828
1163.40 0.5827
1163.50 0.5826
1163.60 0.5825
1163.70 0.5824
1163.80 0.5823
1163.90 0.5822
1164.00 0.5821
1164.10 0.582
1164.20 0.5819
1164.30 0.5819
1164.40 0.5818
1164.50 0.5817
1164.60 0.5816
1164.70 0.5815
1164.80 0.5814
1164.90 0.5813
1165.00 0.5812
1165.10 0.5811
1165.20 0.581
1165.30 0.5809
1165.40 0.5808
1165.50 0.5807
1165.60 0.5806
1165.70 0.5805
1165.80 0.5804
1165.90 0.5803
1166.00 0.5803
1166.10 0.5802
1166.20 0.5801
1166.30 0.58
1166.40 0.5799
1166.50 0.5798
1166.60 0.5797
1166.70 0.5796
1166.80 0.5795
1166.90 0.5794
1167.00 0.5793
1167.10 0.5792
1167.20 0.5791
1167.30 0.579
1167.40 0.5789
1167.50 0.5788
1167.60 0.5787
1167.70 0.5787
1167.80 0.5786
1167.90 0.5785
1168.00 0.5784
1168.10 0.5783
1168.20 0.5782
1168.30 0.5781
1168.40 0.578
1168.50 0.5779
1168.60 0.5778
1168.70 0.5777
1168.80 0.5776
1168.90 0.5775
1169.00 0.5774
1169.10 0.5773
1169.20 0.5772
1169.30 0.5771
1169.40 0.5771
1169.50 0.577
1169.60 0.5769
1169.70 0.5768
1169.80 0.5767
1169.90 0.5766
1170.00 0.5765
1170.10 0.5764
1170.20 0.5763
1170.30 0.5762
1170.40 0.5761
1170.50 0.576
1170.60 0.5759
1170.70 0.5758
1170.80 0.5757
1170.90 0.5756
1171.00 0.5756
1171.10 0.5755
1171.20 0.5754
1171.30 0.5753
1171.40 0.5752
1171.50 0.5751
1171.60 0.575
1171.70 0.5749
1171.80 0.5748
1171.90 0.5747
1172.00 0.5746
1172.10 0.5745
1172.20 0.5744
1172.30 0.5743
1172.40 0.5742
1172.50 0.5742
1172.60 0.5741
1172.70 0.574
1172.80 0.5739
1172.90 0.5738
1173.00 0.5737
1173.10 0.5736
1173.20 0.5735
1173.30 0.5734
1173.40 0.5733
1173.50 0.5732
1173.60 0.5731
1173.70 0.573
1173.80 0.5729
1173.90 0.5728
1174.00 0.5728
1174.10 0.5727
1174.20 0.5726
1174.30 0.5725
1174.40 0.5724
1174.50 0.5723
1174.60 0.5722
1174.70 0.5721
1174.80 0.572
1174.90 0.5719
1175.00 0.5718
1175.10 0.5717
1175.20 0.5716
1175.30 0.5715
1175.40 0.5715
1175.50 0.5714
1175.60 0.5713
1175.70 0.5712
1175.80 0.5711
1175.90 0.571
1176.00 0.5709
1176.10 0.5708
1176.20 0.5707
1176.30 0.5706
1176.40 0.5705
1176.50 0.5704
1176.60 0.5703
1176.70 0.5703
1176.80 0.5702
1176.90 0.5701
1177.00 0.57
1177.10 0.5699
1177.20 0.5698
1177.30 0.5697
1177.40 0.5696
1177.50 0.5695
1177.60 0.5694
1177.70 0.5693
1177.80 0.5692
1177.90 0.5691
1178.00 0.569
1178.10 0.569
1178.20 0.5689
1178.30 0.5688
1178.40 0.5687
1178.50 0.5686
1178.60 0.5685
1178.70 0.5684
1178.80 0.5683
1178.90 0.5682
1179.00 0.5681
1179.10 0.568
1179.20 0.5679
1179.30 0.5678
1179.40 0.5678
1179.50 0.5677
1179.60 0.5676
1179.70 0.5675
1179.80 0.5674
1179.90 0.5673
1180.00 0.5672
1180.10 0.5671
1180.20 0.567
1180.30 0.5669
1180.40 0.5668
1180.50 0.5667
1180.60 0.5666
1180.70 0.5666
1180.80 0.5665
1180.90 0.5664
1181.00 0.5663
1181.10 0.5662
1181.20 0.5661
1181.30 0.566
1181.40 0.5659
1181.50 0.5658
1181.60 0.5657
1181.70 0.5656
1181.80 0.5655
1181.90 0.5655
1182.00 0.5654
1182.10 0.5653
1182.20 0.5652
1182.30 0.5651
1182.40 0.565
1182.50 0.5649
1182.60 0.5648
1182.70 0.5647
1182.80 0.5646
1182.90 0.5645
1183.00 0.5644
1183.10 0.5643
1183.20 0.5643
1183.30 0.5642
1183.40 0.5641
1183.50 0.564
1183.60 0.5639
1183.70 0.5638
1183.80 0.5637
1183.90 0.5636
1184.00 0.5635
1184.10 0.5634
1184.20 0.5633
1184.30 0.5632
1184.40 0.5632
1184.50 0.5631
1184.60 0.563
1184.70 0.5629
1184.80 0.5628
1184.90 0.5627
1185.00 0.5626
1185.10 0.5625
1185.20 0.5624
1185.30 0.5623
1185.40 0.5622
1185.50 0.5621
1185.60 0.5621
1185.70 0.562
1185.80 0.5619
1185.90 0.5618
1186.00 0.5617
1186.10 0.5616
1186.20 0.5615
1186.30 0.5614
1186.40 0.5613
1186.50 0.5612
1186.60 0.5611
1186.70 0.5611
1186.80 0.561
1186.90 0.5609
1187.00 0.5608
1187.10 0.5607
1187.20 0.5606
1187.30 0.5605
1187.40 0.5604
1187.50 0.5603
1187.60 0.5602
1187.70 0.5601
1187.80 0.5601
1187.90 0.56
1188.00 0.5599
1188.10 0.5598
1188.20 0.5597
1188.30 0.5596
1188.40 0.5595
1188.50 0.5594
1188.60 0.5593
1188.70 0.5592
1188.80 0.5591
1188.90 0.5591
1189.00 0.559
1189.10 0.5589
1189.20 0.5588
1189.30 0.5587
1189.40 0.5586
1189.50 0.5585
1189.60 0.5584
1189.70 0.5583
1189.80 0.5582
1189.90 0.5581
1190.00 0.5581
1190.10 0.558
1190.20 0.5579
1190.30 0.5578
1190.40 0.5577
1190.50 0.5576
1190.60 0.5575
1190.70 0.5574
1190.80 0.5573
1190.90 0.5572
1191.00 0.5572
1191.10 0.5571
1191.20 0.557
1191.30 0.5569
1191.40 0.5568
1191.50 0.5567
1191.60 0.5566
1191.70 0.5565
1191.80 0.5564
1191.90 0.5563
1192.00 0.5563
1192.10 0.5562
1192.20 0.5561
1192.30 0.556
1192.40 0.5559
1192.50 0.5558
1192.60 0.5557
1192.70 0.5556
1192.80 0.5555
1192.90 0.5554
1193.00 0.5554
1193.10 0.5553
1193.20 0.5552
1193.30 0.5551
1193.40 0.555
1193.50 0.5549
1193.60 0.5548
1193.70 0.5547
1193.80 0.5546
1193.90 0.5545
1194.00 0.5544
1194.10 0.5544
1194.20 0.5543
1194.30 0.5542
1194.40 0.5541
1194.50 0.554
1194.60 0.5539
1194.70 0.5538
1194.80 0.5537
1194.90 0.5536
1195.00 0.5536
1195.10 0.5535
1195.20 0.5534
1195.30 0.5533
1195.40 0.5532
1195.50 0.5531
1195.60 0.553
1195.70 0.5529
1195.80 0.5528
1195.90 0.5527
1196.00 0.5527
1196.10 0.5526
1196.20 0.5525
1196.30 0.5524
1196.40 0.5523
1196.50 0.5522
1196.60 0.5521
1196.70 0.552
1196.80 0.5519
1196.90 0.5518
1197.00 0.5518
1197.10 0.5517
1197.20 0.5516
1197.30 0.5515
1197.40 0.5514
1197.50 0.5513
1197.60 0.5512
1197.70 0.5511
1197.80 0.551
1197.90 0.551
1198.00 0.5509
1198.10 0.5508
1198.20 0.5507
1198.30 0.5506
1198.40 0.5505
1198.50 0.5504
1198.60 0.5503
1198.70 0.5502
1198.80 0.5501
1198.90 0.5501
1199.00 0.55
1199.10 0.5499
1199.20 0.5498
1199.30 0.5497
1199.40 0.5496
1199.50 0.5495
1199.60 0.5494
1199.70 0.5493
1199.80 0.5493
1199.90 0.5492
1200.00 0
