# Version 2.1 - nm, norm@500 to 1, cut digits, bergeron_45000_80.dat_45000
# Wavelength(nm)  Flambda(ergs/cm^s/s/nm)
300.00 6.046
300.10 6.038
300.20 6.031
300.30 6.024
300.40 6.017
300.50 6.009
300.60 6.002
300.70 5.995
300.80 5.988
300.90 5.981
301.00 5.974
301.10 5.967
301.20 5.959
301.30 5.952
301.40 5.945
301.50 5.938
301.60 5.931
301.70 5.924
301.80 5.917
301.90 5.91
302.00 5.903
302.10 5.896
302.20 5.889
302.30 5.882
302.40 5.875
302.50 5.868
302.60 5.861
302.70 5.854
302.80 5.847
302.90 5.84
303.00 5.833
303.10 5.826
303.20 5.819
303.30 5.813
303.40 5.806
303.50 5.799
303.60 5.792
303.70 5.785
303.80 5.778
303.90 5.771
304.00 5.765
304.10 5.758
304.20 5.751
304.30 5.744
304.40 5.737
304.50 5.731
304.60 5.724
304.70 5.717
304.80 5.71
304.90 5.704
305.00 5.697
305.10 5.69
305.20 5.684
305.30 5.677
305.40 5.67
305.50 5.663
305.60 5.657
305.70 5.65
305.80 5.644
305.90 5.637
306.00 5.63
306.10 5.624
306.20 5.617
306.30 5.61
306.40 5.604
306.50 5.597
306.60 5.591
306.70 5.584
306.80 5.578
306.90 5.571
307.00 5.565
307.10 5.558
307.20 5.552
307.30 5.545
307.40 5.539
307.50 5.532
307.60 5.526
307.70 5.519
307.80 5.513
307.90 5.506
308.00 5.5
308.10 5.493
308.20 5.487
308.30 5.481
308.40 5.474
308.50 5.468
308.60 5.461
308.70 5.455
308.80 5.449
308.90 5.442
309.00 5.436
309.10 5.43
309.20 5.423
309.30 5.417
309.40 5.411
309.50 5.405
309.60 5.398
309.70 5.392
309.80 5.386
309.90 5.379
310.00 5.373
310.10 5.367
310.20 5.361
310.30 5.355
310.40 5.348
310.50 5.342
310.60 5.336
310.70 5.33
310.80 5.324
310.90 5.317
311.00 5.311
311.10 5.305
311.20 5.299
311.30 5.293
311.40 5.287
311.50 5.281
311.60 5.274
311.70 5.268
311.80 5.262
311.90 5.256
312.00 5.25
312.10 5.244
312.20 5.238
312.30 5.232
312.40 5.226
312.50 5.22
312.60 5.214
312.70 5.208
312.80 5.202
312.90 5.196
313.00 5.19
313.10 5.184
313.20 5.178
313.30 5.172
313.40 5.166
313.50 5.16
313.60 5.154
313.70 5.148
313.80 5.142
313.90 5.137
314.00 5.131
314.10 5.125
314.20 5.119
314.30 5.113
314.40 5.107
314.50 5.101
314.60 5.095
314.70 5.09
314.80 5.084
314.90 5.078
315.00 5.072
315.10 5.066
315.20 5.061
315.30 5.055
315.40 5.049
315.50 5.043
315.60 5.038
315.70 5.032
315.80 5.026
315.90 5.02
316.00 5.015
316.10 5.009
316.20 5.003
316.30 4.997
316.40 4.992
316.50 4.986
316.60 4.98
316.70 4.975
316.80 4.969
316.90 4.963
317.00 4.958
317.10 4.952
317.20 4.946
317.30 4.941
317.40 4.935
317.50 4.93
317.60 4.924
317.70 4.918
317.80 4.913
317.90 4.907
318.00 4.902
318.10 4.896
318.20 4.891
318.30 4.885
318.40 4.88
318.50 4.874
318.60 4.869
318.70 4.863
318.80 4.857
318.90 4.852
319.00 4.846
319.10 4.841
319.20 4.836
319.30 4.83
319.40 4.825
319.50 4.819
319.60 4.814
319.70 4.808
319.80 4.803
319.90 4.797
320.00 4.792
320.10 4.787
320.20 4.781
320.30 4.776
320.40 4.77
320.50 4.765
320.60 4.76
320.70 4.754
320.80 4.749
320.90 4.744
321.00 4.738
321.10 4.733
321.20 4.728
321.30 4.722
321.40 4.717
321.50 4.712
321.60 4.707
321.70 4.701
321.80 4.696
321.90 4.691
322.00 4.685
322.10 4.68
322.20 4.675
322.30 4.67
322.40 4.664
322.50 4.659
322.60 4.654
322.70 4.649
322.80 4.644
322.90 4.638
323.00 4.633
323.10 4.628
323.20 4.623
323.30 4.618
323.40 4.613
323.50 4.607
323.60 4.602
323.70 4.597
323.80 4.592
323.90 4.587
324.00 4.582
324.10 4.577
324.20 4.572
324.30 4.567
324.40 4.561
324.50 4.556
324.60 4.551
324.70 4.546
324.80 4.541
324.90 4.536
325.00 4.531
325.10 4.526
325.20 4.521
325.30 4.516
325.40 4.511
325.50 4.506
325.60 4.501
325.70 4.496
325.80 4.491
325.90 4.486
326.00 4.481
326.10 4.476
326.20 4.471
326.30 4.466
326.40 4.461
326.50 4.456
326.60 4.451
326.70 4.446
326.80 4.442
326.90 4.437
327.00 4.432
327.10 4.427
327.20 4.422
327.30 4.417
327.40 4.412
327.50 4.407
327.60 4.402
327.70 4.398
327.80 4.393
327.90 4.388
328.00 4.383
328.10 4.378
328.20 4.373
328.30 4.369
328.40 4.364
328.50 4.359
328.60 4.354
328.70 4.349
328.80 4.345
328.90 4.34
329.00 4.335
329.10 4.33
329.20 4.326
329.30 4.321
329.40 4.316
329.50 4.311
329.60 4.307
329.70 4.302
329.80 4.297
329.90 4.292
330.00 4.288
330.10 4.283
330.20 4.278
330.30 4.274
330.40 4.269
330.50 4.264
330.60 4.26
330.70 4.255
330.80 4.25
330.90 4.246
331.00 4.241
331.10 4.236
331.20 4.232
331.30 4.227
331.40 4.223
331.50 4.218
331.60 4.213
331.70 4.209
331.80 4.204
331.90 4.2
332.00 4.195
332.10 4.19
332.20 4.186
332.30 4.181
332.40 4.177
332.50 4.172
332.60 4.168
332.70 4.163
332.80 4.159
332.90 4.154
333.00 4.15
333.10 4.145
333.20 4.141
333.30 4.136
333.40 4.132
333.50 4.127
333.60 4.123
333.70 4.118
333.80 4.114
333.90 4.109
334.00 4.105
334.10 4.1
334.20 4.096
334.30 4.091
334.40 4.087
334.50 4.083
334.60 4.078
334.70 4.074
334.80 4.069
334.90 4.065
335.00 4.061
335.10 4.056
335.20 4.052
335.30 4.047
335.40 4.043
335.50 4.039
335.60 4.034
335.70 4.03
335.80 4.026
335.90 4.021
336.00 4.017
336.10 4.013
336.20 4.008
336.30 4.004
336.40 4
336.50 3.995
336.60 3.991
336.70 3.987
336.80 3.982
336.90 3.978
337.00 3.974
337.10 3.97
337.20 3.965
337.30 3.961
337.40 3.957
337.50 3.953
337.60 3.948
337.70 3.944
337.80 3.94
337.90 3.936
338.00 3.931
338.10 3.927
338.20 3.923
338.30 3.919
338.40 3.915
338.50 3.91
338.60 3.906
338.70 3.902
338.80 3.898
338.90 3.894
339.00 3.89
339.10 3.885
339.20 3.881
339.30 3.877
339.40 3.873
339.50 3.869
339.60 3.865
339.70 3.861
339.80 3.856
339.90 3.852
340.00 3.848
340.10 3.844
340.20 3.84
340.30 3.836
340.40 3.832
340.50 3.828
340.60 3.824
340.70 3.82
340.80 3.816
340.90 3.812
341.00 3.807
341.10 3.803
341.20 3.799
341.30 3.795
341.40 3.791
341.50 3.787
341.60 3.783
341.70 3.779
341.80 3.775
341.90 3.771
342.00 3.767
342.10 3.763
342.20 3.759
342.30 3.755
342.40 3.751
342.50 3.747
342.60 3.743
342.70 3.739
342.80 3.735
342.90 3.731
343.00 3.728
343.10 3.724
343.20 3.72
343.30 3.716
343.40 3.712
343.50 3.708
343.60 3.704
343.70 3.7
343.80 3.696
343.90 3.692
344.00 3.688
344.10 3.684
344.20 3.681
344.30 3.677
344.40 3.673
344.50 3.669
344.60 3.665
344.70 3.661
344.80 3.657
344.90 3.654
345.00 3.65
345.10 3.646
345.20 3.642
345.30 3.638
345.40 3.634
345.50 3.631
345.60 3.627
345.70 3.623
345.80 3.619
345.90 3.615
346.00 3.611
346.10 3.608
346.20 3.604
346.30 3.6
346.40 3.596
346.50 3.593
346.60 3.589
346.70 3.585
346.80 3.581
346.90 3.578
347.00 3.574
347.10 3.57
347.20 3.566
347.30 3.563
347.40 3.559
347.50 3.555
347.60 3.551
347.70 3.548
347.80 3.544
347.90 3.54
348.00 3.537
348.10 3.533
348.20 3.529
348.30 3.526
348.40 3.522
348.50 3.518
348.60 3.515
348.70 3.511
348.80 3.507
348.90 3.504
349.00 3.5
349.10 3.496
349.20 3.493
349.30 3.489
349.40 3.485
349.50 3.482
349.60 3.478
349.70 3.475
349.80 3.471
349.90 3.467
350.00 3.464
350.10 3.46
350.20 3.457
350.30 3.453
350.40 3.449
350.50 3.446
350.60 3.442
350.70 3.439
350.80 3.435
350.90 3.432
351.00 3.428
351.10 3.425
351.20 3.421
351.30 3.417
351.40 3.414
351.50 3.41
351.60 3.407
351.70 3.403
351.80 3.4
351.90 3.396
352.00 3.393
352.10 3.389
352.20 3.386
352.30 3.382
352.40 3.379
352.50 3.375
352.60 3.372
352.70 3.368
352.80 3.365
352.90 3.361
353.00 3.358
353.10 3.355
353.20 3.351
353.30 3.348
353.40 3.344
353.50 3.341
353.60 3.337
353.70 3.334
353.80 3.33
353.90 3.327
354.00 3.324
354.10 3.32
354.20 3.317
354.30 3.313
354.40 3.31
354.50 3.307
354.60 3.303
354.70 3.3
354.80 3.296
354.90 3.293
355.00 3.29
355.10 3.286
355.20 3.283
355.30 3.28
355.40 3.276
355.50 3.273
355.60 3.269
355.70 3.266
355.80 3.263
355.90 3.259
356.00 3.256
356.10 3.253
356.20 3.249
356.30 3.246
356.40 3.243
356.50 3.24
356.60 3.236
356.70 3.233
356.80 3.23
356.90 3.226
357.00 3.223
357.10 3.22
357.20 3.217
357.30 3.213
357.40 3.21
357.50 3.207
357.60 3.203
357.70 3.2
357.80 3.197
357.90 3.194
358.00 3.19
358.10 3.187
358.20 3.184
358.30 3.181
358.40 3.177
358.50 3.174
358.60 3.171
358.70 3.168
358.80 3.165
358.90 3.161
359.00 3.158
359.10 3.155
359.20 3.152
359.30 3.149
359.40 3.145
359.50 3.142
359.60 3.139
359.70 3.136
359.80 3.133
359.90 3.129
360.00 3.126
360.10 3.123
360.20 3.12
360.30 3.117
360.40 3.114
360.50 3.111
360.60 3.107
360.70 3.104
360.80 3.101
360.90 3.098
361.00 3.095
361.10 3.092
361.20 3.089
361.30 3.086
361.40 3.082
361.50 3.079
361.60 3.076
361.70 3.073
361.80 3.07
361.90 3.067
362.00 3.064
362.10 3.061
362.20 3.058
362.30 3.055
362.40 3.052
362.50 3.048
362.60 3.045
362.70 3.042
362.80 3.039
362.90 3.036
363.00 3.033
363.10 3.03
363.20 3.027
363.30 3.024
363.40 3.021
363.50 3.018
363.60 3.015
363.70 3.012
363.80 3.009
363.90 3.006
364.00 3.003
364.10 3
364.20 2.997
364.30 2.994
364.40 2.991
364.50 2.988
364.60 2.985
364.70 2.982
364.80 2.979
364.90 2.976
365.00 2.973
365.10 2.97
365.20 2.967
365.30 2.964
365.40 2.961
365.50 2.958
365.60 2.955
365.70 2.952
365.80 2.949
365.90 2.946
366.00 2.944
366.10 2.94
366.20 2.937
366.30 2.934
366.40 2.931
366.50 2.928
366.60 2.925
366.70 2.922
366.80 2.919
366.90 2.916
367.00 2.913
367.10 2.91
367.20 2.907
367.30 2.904
367.40 2.901
367.50 2.898
367.60 2.895
367.70 2.892
367.80 2.889
367.90 2.886
368.00 2.883
368.10 2.88
368.20 2.877
368.30 2.874
368.40 2.871
368.50 2.868
368.60 2.865
368.70 2.862
368.80 2.859
368.90 2.856
369.00 2.853
369.10 2.85
369.20 2.848
369.30 2.845
369.40 2.842
369.50 2.839
369.60 2.836
369.70 2.833
369.80 2.83
369.90 2.827
370.00 2.824
370.10 2.821
370.20 2.818
370.30 2.815
370.40 2.812
370.50 2.809
370.60 2.807
370.70 2.804
370.80 2.801
370.90 2.798
371.00 2.795
371.10 2.792
371.20 2.789
371.30 2.787
371.40 2.784
371.50 2.781
371.60 2.778
371.70 2.775
371.80 2.772
371.90 2.769
372.00 2.767
372.10 2.764
372.20 2.761
372.30 2.758
372.40 2.756
372.50 2.753
372.60 2.75
372.70 2.747
372.80 2.745
372.90 2.742
373.00 2.739
373.10 2.736
373.20 2.734
373.30 2.731
373.40 2.728
373.50 2.725
373.60 2.723
373.70 2.72
373.80 2.717
373.90 2.714
374.00 2.712
374.10 2.709
374.20 2.706
374.30 2.704
374.40 2.701
374.50 2.698
374.60 2.696
374.70 2.693
374.80 2.69
374.90 2.688
375.00 2.685
375.10 2.682
375.20 2.68
375.30 2.677
375.40 2.674
375.50 2.672
375.60 2.669
375.70 2.667
375.80 2.664
375.90 2.661
376.00 2.659
376.10 2.656
376.20 2.654
376.30 2.651
376.40 2.648
376.50 2.646
376.60 2.643
376.70 2.641
376.80 2.638
376.90 2.636
377.00 2.633
377.10 2.631
377.20 2.628
377.30 2.626
377.40 2.624
377.50 2.621
377.60 2.619
377.70 2.616
377.80 2.614
377.90 2.612
378.00 2.609
378.10 2.607
378.20 2.604
378.30 2.602
378.40 2.6
378.50 2.597
378.60 2.595
378.70 2.592
378.80 2.59
378.90 2.588
379.00 2.585
379.10 2.583
379.20 2.581
379.30 2.578
379.40 2.576
379.50 2.574
379.60 2.571
379.70 2.569
379.80 2.567
379.90 2.564
380.00 2.562
380.10 2.56
380.20 2.558
380.30 2.556
380.40 2.554
380.50 2.552
380.60 2.55
380.70 2.548
380.80 2.546
380.90 2.544
381.00 2.542
381.10 2.54
381.20 2.537
381.30 2.535
381.40 2.533
381.50 2.531
381.60 2.528
381.70 2.526
381.80 2.524
381.90 2.521
382.00 2.519
382.10 2.516
382.20 2.514
382.30 2.511
382.40 2.508
382.50 2.506
382.60 2.503
382.70 2.5
382.80 2.497
382.90 2.495
383.00 2.492
383.10 2.489
383.20 2.487
383.30 2.484
383.40 2.482
383.50 2.479
383.60 2.478
383.70 2.476
383.80 2.475
383.90 2.473
384.00 2.472
384.10 2.471
384.20 2.47
384.30 2.469
384.40 2.468
384.50 2.467
384.60 2.465
384.70 2.464
384.80 2.463
384.90 2.461
385.00 2.46
385.10 2.458
385.20 2.456
385.30 2.455
385.40 2.453
385.50 2.451
385.60 2.449
385.70 2.447
385.80 2.445
385.90 2.442
386.00 2.44
386.10 2.437
386.20 2.435
386.30 2.432
386.40 2.429
386.50 2.426
386.60 2.423
386.70 2.42
386.80 2.417
386.90 2.413
387.00 2.41
387.10 2.406
387.20 2.403
387.30 2.399
387.40 2.395
387.50 2.391
387.60 2.387
387.70 2.383
387.80 2.379
387.90 2.374
388.00 2.37
388.10 2.366
388.20 2.362
388.30 2.357
388.40 2.353
388.50 2.349
388.60 2.346
388.70 2.343
388.80 2.34
388.90 2.338
389.00 2.337
389.10 2.336
389.20 2.335
389.30 2.336
389.40 2.336
389.50 2.337
389.60 2.338
389.70 2.339
389.80 2.34
389.90 2.341
390.00 2.341
390.10 2.342
390.20 2.343
390.30 2.344
390.40 2.344
390.50 2.345
390.60 2.345
390.70 2.345
390.80 2.346
390.90 2.346
391.00 2.346
391.10 2.345
391.20 2.345
391.30 2.345
391.40 2.344
391.50 2.343
391.60 2.343
391.70 2.342
391.80 2.34
391.90 2.339
392.00 2.338
392.10 2.336
392.20 2.335
392.30 2.333
392.40 2.331
392.50 2.329
392.60 2.327
392.70 2.324
392.80 2.322
392.90 2.319
393.00 2.317
393.10 2.314
393.20 2.311
393.30 2.307
393.40 2.304
393.50 2.3
393.60 2.297
393.70 2.293
393.80 2.289
393.90 2.284
394.00 2.28
394.10 2.275
394.20 2.271
394.30 2.266
394.40 2.261
394.50 2.255
394.60 2.25
394.70 2.244
394.80 2.238
394.90 2.232
395.00 2.226
395.10 2.219
395.20 2.213
395.30 2.206
395.40 2.199
395.50 2.192
395.60 2.184
395.70 2.177
395.80 2.169
395.90 2.161
396.00 2.154
396.10 2.145
396.20 2.137
396.30 2.129
396.40 2.121
396.50 2.113
396.60 2.105
396.70 2.097
396.80 2.089
396.90 2.082
397.00 2.075
397.10 2.078
397.20 2.082
397.30 2.086
397.40 2.091
397.50 2.095
397.60 2.1
397.70 2.105
397.80 2.11
397.90 2.115
398.00 2.119
398.10 2.124
398.20 2.129
398.30 2.133
398.40 2.137
398.50 2.141
398.60 2.145
398.70 2.149
398.80 2.152
398.90 2.156
399.00 2.159
399.10 2.162
399.20 2.165
399.30 2.167
399.40 2.17
399.50 2.172
399.60 2.174
399.70 2.176
399.80 2.178
399.90 2.18
400.00 2.181
400.10 2.183
400.20 2.184
400.30 2.185
400.40 2.186
400.50 2.187
400.60 2.188
400.70 2.188
400.80 2.189
400.90 2.189
401.00 2.189
401.10 2.189
401.20 2.189
401.30 2.189
401.40 2.189
401.50 2.189
401.60 2.188
401.70 2.188
401.80 2.187
401.90 2.186
402.00 2.186
402.10 2.185
402.20 2.184
402.30 2.183
402.40 2.181
402.50 2.18
402.60 2.179
402.70 2.177
402.80 2.176
402.90 2.174
403.00 2.173
403.10 2.171
403.20 2.169
403.30 2.167
403.40 2.165
403.50 2.163
403.60 2.161
403.70 2.159
403.80 2.157
403.90 2.154
404.00 2.152
404.10 2.149
404.20 2.146
404.30 2.144
404.40 2.141
404.50 2.138
404.60 2.135
404.70 2.132
404.80 2.129
404.90 2.125
405.00 2.122
405.10 2.118
405.20 2.115
405.30 2.111
405.40 2.107
405.50 2.103
405.60 2.099
405.70 2.095
405.80 2.091
405.90 2.086
406.00 2.082
406.10 2.077
406.20 2.072
406.30 2.067
406.40 2.062
406.50 2.056
406.60 2.051
406.70 2.045
406.80 2.039
406.90 2.033
407.00 2.027
407.10 2.02
407.20 2.014
407.30 2.007
407.40 2
407.50 1.992
407.60 1.985
407.70 1.977
407.80 1.969
407.90 1.961
408.00 1.952
408.10 1.943
408.20 1.934
408.30 1.925
408.40 1.915
408.50 1.905
408.60 1.895
408.70 1.885
408.80 1.874
408.90 1.863
409.00 1.851
409.10 1.84
409.20 1.828
409.30 1.816
409.40 1.804
409.50 1.792
409.60 1.78
409.70 1.768
409.80 1.757
409.90 1.746
410.00 1.74
410.10 1.738
410.20 1.74
410.30 1.736
410.40 1.737
410.50 1.742
410.60 1.75
410.70 1.759
410.80 1.768
410.90 1.777
411.00 1.786
411.10 1.795
411.20 1.804
411.30 1.812
411.40 1.82
411.50 1.828
411.60 1.836
411.70 1.843
411.80 1.85
411.90 1.857
412.00 1.863
412.10 1.869
412.20 1.875
412.30 1.881
412.40 1.886
412.50 1.891
412.60 1.896
412.70 1.9
412.80 1.904
412.90 1.908
413.00 1.912
413.10 1.915
413.20 1.919
413.30 1.922
413.40 1.925
413.50 1.928
413.60 1.93
413.70 1.932
413.80 1.935
413.90 1.937
414.00 1.938
414.10 1.94
414.20 1.942
414.30 1.943
414.40 1.945
414.50 1.946
414.60 1.947
414.70 1.948
414.80 1.948
414.90 1.949
415.00 1.95
415.10 1.95
415.20 1.951
415.30 1.951
415.40 1.951
415.50 1.952
415.60 1.952
415.70 1.952
415.80 1.952
415.90 1.951
416.00 1.951
416.10 1.951
416.20 1.951
416.30 1.95
416.40 1.95
416.50 1.949
416.60 1.949
416.70 1.948
416.80 1.948
416.90 1.947
417.00 1.946
417.10 1.946
417.20 1.945
417.30 1.944
417.40 1.943
417.50 1.942
417.60 1.941
417.70 1.94
417.80 1.939
417.90 1.938
418.00 1.937
418.10 1.936
418.20 1.935
418.30 1.934
418.40 1.933
418.50 1.932
418.60 1.93
418.70 1.929
418.80 1.928
418.90 1.927
419.00 1.925
419.10 1.924
419.20 1.923
419.30 1.921
419.40 1.92
419.50 1.919
419.60 1.917
419.70 1.916
419.80 1.915
419.90 1.913
420.00 1.912
420.10 1.91
420.20 1.909
420.30 1.907
420.40 1.906
420.50 1.904
420.60 1.903
420.70 1.901
420.80 1.9
420.90 1.898
421.00 1.897
421.10 1.895
421.20 1.894
421.30 1.892
421.40 1.89
421.50 1.889
421.60 1.887
421.70 1.886
421.80 1.884
421.90 1.882
422.00 1.881
422.10 1.879
422.20 1.877
422.30 1.876
422.40 1.874
422.50 1.872
422.60 1.871
422.70 1.869
422.80 1.867
422.90 1.865
423.00 1.864
423.10 1.862
423.20 1.86
423.30 1.858
423.40 1.857
423.50 1.855
423.60 1.853
423.70 1.851
423.80 1.849
423.90 1.848
424.00 1.846
424.10 1.844
424.20 1.842
424.30 1.84
424.40 1.838
424.50 1.836
424.60 1.834
424.70 1.832
424.80 1.83
424.90 1.828
425.00 1.826
425.10 1.825
425.20 1.822
425.30 1.82
425.40 1.818
425.50 1.816
425.60 1.814
425.70 1.812
425.80 1.81
425.90 1.808
426.00 1.806
426.10 1.804
426.20 1.801
426.30 1.799
426.40 1.797
426.50 1.795
426.60 1.792
426.70 1.79
426.80 1.787
426.90 1.785
427.00 1.783
427.10 1.78
427.20 1.778
427.30 1.775
427.40 1.772
427.50 1.77
427.60 1.767
427.70 1.764
427.80 1.762
427.90 1.759
428.00 1.756
428.10 1.753
428.20 1.75
428.30 1.747
428.40 1.744
428.50 1.741
428.60 1.737
428.70 1.734
428.80 1.731
428.90 1.727
429.00 1.724
429.10 1.72
429.20 1.716
429.30 1.712
429.40 1.708
429.50 1.704
429.60 1.7
429.70 1.696
429.80 1.692
429.90 1.687
430.00 1.683
430.10 1.678
430.20 1.673
430.30 1.668
430.40 1.663
430.50 1.657
430.60 1.652
430.70 1.646
430.80 1.64
430.90 1.634
431.00 1.628
431.10 1.621
431.20 1.615
431.30 1.608
431.40 1.601
431.50 1.593
431.60 1.586
431.70 1.578
431.80 1.57
431.90 1.561
432.00 1.553
432.10 1.544
432.20 1.534
432.30 1.525
432.40 1.515
432.50 1.505
432.60 1.494
432.70 1.484
432.80 1.472
432.90 1.461
433.00 1.449
433.10 1.437
433.20 1.425
433.30 1.413
433.40 1.4
433.50 1.388
433.60 1.376
433.70 1.364
433.80 1.352
433.90 1.341
434.00 1.328
434.10 1.328
434.20 1.338
434.30 1.348
434.40 1.357
434.50 1.367
434.60 1.377
434.70 1.387
434.80 1.397
434.90 1.407
435.00 1.417
435.10 1.426
435.20 1.436
435.30 1.444
435.40 1.453
435.50 1.461
435.60 1.469
435.70 1.477
435.80 1.484
435.90 1.49
436.00 1.497
436.10 1.503
436.20 1.509
436.30 1.515
436.40 1.52
436.50 1.525
436.60 1.53
436.70 1.534
436.80 1.539
436.90 1.543
437.00 1.546
437.10 1.55
437.20 1.553
437.30 1.556
437.40 1.559
437.50 1.562
437.60 1.565
437.70 1.567
437.80 1.569
437.90 1.571
438.00 1.573
438.10 1.575
438.20 1.577
438.30 1.578
438.40 1.579
438.50 1.581
438.60 1.582
438.70 1.583
438.80 1.584
438.90 1.585
439.00 1.585
439.10 1.586
439.20 1.587
439.30 1.587
439.40 1.587
439.50 1.588
439.60 1.588
439.70 1.588
439.80 1.588
439.90 1.588
440.00 1.588
440.10 1.588
440.20 1.588
440.30 1.588
440.40 1.588
440.50 1.588
440.60 1.587
440.70 1.587
440.80 1.586
440.90 1.586
441.00 1.586
441.10 1.585
441.20 1.585
441.30 1.584
441.40 1.583
441.50 1.583
441.60 1.582
441.70 1.581
441.80 1.581
441.90 1.58
442.00 1.579
442.10 1.578
442.20 1.578
442.30 1.577
442.40 1.576
442.50 1.575
442.60 1.574
442.70 1.573
442.80 1.573
442.90 1.572
443.00 1.571
443.10 1.57
443.20 1.569
443.30 1.568
443.40 1.567
443.50 1.566
443.60 1.565
443.70 1.564
443.80 1.563
443.90 1.562
444.00 1.561
444.10 1.56
444.20 1.559
444.30 1.558
444.40 1.557
444.50 1.556
444.60 1.554
444.70 1.553
444.80 1.552
444.90 1.551
445.00 1.55
445.10 1.549
445.20 1.548
445.30 1.547
445.40 1.546
445.50 1.544
445.60 1.543
445.70 1.542
445.80 1.541
445.90 1.54
446.00 1.539
446.10 1.538
446.20 1.536
446.30 1.535
446.40 1.534
446.50 1.533
446.60 1.532
446.70 1.531
446.80 1.53
446.90 1.528
447.00 1.527
447.10 1.526
447.20 1.525
447.30 1.524
447.40 1.522
447.50 1.521
447.60 1.52
447.70 1.519
447.80 1.518
447.90 1.517
448.00 1.515
448.10 1.514
448.20 1.513
448.30 1.512
448.40 1.511
448.50 1.509
448.60 1.508
448.70 1.507
448.80 1.506
448.90 1.505
449.00 1.503
449.10 1.502
449.20 1.501
449.30 1.5
449.40 1.499
449.50 1.497
449.60 1.496
449.70 1.495
449.80 1.494
449.90 1.493
450.00 1.491
450.10 1.49
450.20 1.489
450.30 1.488
450.40 1.487
450.50 1.485
450.60 1.484
450.70 1.483
450.80 1.482
450.90 1.481
451.00 1.479
451.10 1.478
451.20 1.477
451.30 1.476
451.40 1.475
451.50 1.473
451.60 1.472
451.70 1.471
451.80 1.47
451.90 1.469
452.00 1.468
452.10 1.466
452.20 1.465
452.30 1.464
452.40 1.463
452.50 1.462
452.60 1.46
452.70 1.459
452.80 1.458
452.90 1.457
453.00 1.456
453.10 1.454
453.20 1.453
453.30 1.452
453.40 1.451
453.50 1.45
453.60 1.448
453.70 1.447
453.80 1.446
453.90 1.445
454.00 1.444
454.10 1.443
454.20 1.441
454.30 1.44
454.40 1.439
454.50 1.438
454.60 1.437
454.70 1.435
454.80 1.434
454.90 1.433
455.00 1.432
455.10 1.431
455.20 1.43
455.30 1.428
455.40 1.427
455.50 1.426
455.60 1.425
455.70 1.424
455.80 1.423
455.90 1.421
456.00 1.42
456.10 1.419
456.20 1.418
456.30 1.417
456.40 1.416
456.50 1.414
456.60 1.413
456.70 1.412
456.80 1.411
456.90 1.41
457.00 1.409
457.10 1.407
457.20 1.406
457.30 1.405
457.40 1.404
457.50 1.403
457.60 1.402
457.70 1.4
457.80 1.399
457.90 1.398
458.00 1.397
458.10 1.396
458.20 1.395
458.30 1.394
458.40 1.392
458.50 1.391
458.60 1.39
458.70 1.389
458.80 1.388
458.90 1.387
459.00 1.386
459.10 1.384
459.20 1.383
459.30 1.382
459.40 1.381
459.50 1.38
459.60 1.379
459.70 1.378
459.80 1.376
459.90 1.375
460.00 1.374
460.10 1.373
460.20 1.372
460.30 1.371
460.40 1.37
460.50 1.369
460.60 1.367
460.70 1.366
460.80 1.365
460.90 1.364
461.00 1.363
461.10 1.362
461.20 1.361
461.30 1.36
461.40 1.358
461.50 1.357
461.60 1.356
461.70 1.355
461.80 1.354
461.90 1.353
462.00 1.352
462.10 1.351
462.20 1.349
462.30 1.348
462.40 1.347
462.50 1.346
462.60 1.345
462.70 1.344
462.80 1.343
462.90 1.342
463.00 1.341
463.10 1.339
463.20 1.338
463.30 1.337
463.40 1.336
463.50 1.335
463.60 1.334
463.70 1.333
463.80 1.332
463.90 1.331
464.00 1.33
464.10 1.328
464.20 1.327
464.30 1.326
464.40 1.325
464.50 1.324
464.60 1.323
464.70 1.322
464.80 1.321
464.90 1.32
465.00 1.319
465.10 1.317
465.20 1.316
465.30 1.315
465.40 1.314
465.50 1.313
465.60 1.312
465.70 1.311
465.80 1.31
465.90 1.309
466.00 1.308
466.10 1.307
466.20 1.305
466.30 1.304
466.40 1.303
466.50 1.302
466.60 1.301
466.70 1.3
466.80 1.299
466.90 1.298
467.00 1.297
467.10 1.296
467.20 1.295
467.30 1.294
467.40 1.292
467.50 1.291
467.60 1.29
467.70 1.289
467.80 1.288
467.90 1.287
468.00 1.286
468.10 1.285
468.20 1.284
468.30 1.283
468.40 1.282
468.50 1.281
468.60 1.28
468.70 1.278
468.80 1.277
468.90 1.276
469.00 1.275
469.10 1.274
469.20 1.273
469.30 1.272
469.40 1.271
469.50 1.27
469.60 1.269
469.70 1.268
469.80 1.267
469.90 1.266
470.00 1.264
470.10 1.263
470.20 1.262
470.30 1.261
470.40 1.26
470.50 1.259
470.60 1.258
470.70 1.257
470.80 1.256
470.90 1.255
471.00 1.254
471.10 1.253
471.20 1.252
471.30 1.25
471.40 1.249
471.50 1.248
471.60 1.247
471.70 1.246
471.80 1.245
471.90 1.244
472.00 1.243
472.10 1.242
472.20 1.241
472.30 1.24
472.40 1.239
472.50 1.237
472.60 1.236
472.70 1.235
472.80 1.234
472.90 1.233
473.00 1.232
473.10 1.231
473.20 1.23
473.30 1.229
473.40 1.228
473.50 1.226
473.60 1.225
473.70 1.224
473.80 1.223
473.90 1.222
474.00 1.221
474.10 1.22
474.20 1.219
474.30 1.218
474.40 1.216
474.50 1.215
474.60 1.214
474.70 1.213
474.80 1.212
474.90 1.211
475.00 1.21
475.10 1.208
475.20 1.207
475.30 1.206
475.40 1.205
475.50 1.204
475.60 1.203
475.70 1.201
475.80 1.2
475.90 1.199
476.00 1.198
476.10 1.197
476.20 1.196
476.30 1.194
476.40 1.193
476.50 1.192
476.60 1.191
476.70 1.189
476.80 1.188
476.90 1.187
477.00 1.186
477.10 1.184
477.20 1.183
477.30 1.182
477.40 1.18
477.50 1.179
477.60 1.178
477.70 1.176
477.80 1.175
477.90 1.174
478.00 1.172
478.10 1.171
478.20 1.17
478.30 1.168
478.40 1.167
478.50 1.165
478.60 1.164
478.70 1.162
478.80 1.161
478.90 1.159
479.00 1.158
479.10 1.157
479.20 1.155
479.30 1.153
479.40 1.152
479.50 1.15
479.60 1.148
479.70 1.146
479.80 1.145
479.90 1.143
480.00 1.141
480.10 1.14
480.20 1.138
480.30 1.136
480.40 1.134
480.50 1.132
480.60 1.13
480.70 1.128
480.80 1.126
480.90 1.124
481.00 1.121
481.10 1.119
481.20 1.117
481.30 1.114
481.40 1.112
481.50 1.109
481.60 1.107
481.70 1.104
481.80 1.102
481.90 1.099
482.00 1.096
482.10 1.094
482.20 1.091
482.30 1.087
482.40 1.084
482.50 1.08
482.60 1.077
482.70 1.073
482.80 1.07
482.90 1.067
483.00 1.063
483.10 1.06
483.20 1.055
483.30 1.051
483.40 1.046
483.50 1.041
483.60 1.036
483.70 1.032
483.80 1.027
483.90 1.022
484.00 1.017
484.10 1.013
484.20 1.007
484.30 1.001
484.40 0.9948
484.50 0.9887
484.60 0.9826
484.70 0.9759
484.80 0.9687
484.90 0.9616
485.00 0.9545
485.10 0.9475
485.20 0.9399
485.30 0.932
485.40 0.924
485.50 0.9158
485.60 0.9076
485.70 0.8993
485.80 0.8912
485.90 0.8833
486.00 0.8766
486.10 0.8823
486.20 0.8763
486.30 0.8764
486.40 0.8827
486.50 0.8893
486.60 0.8961
486.70 0.9031
486.80 0.9099
486.90 0.9167
487.00 0.9232
487.10 0.9296
487.20 0.9354
487.30 0.9411
487.40 0.9467
487.50 0.9523
487.60 0.9579
487.70 0.9627
487.80 0.9672
487.90 0.9717
488.00 0.9762
488.10 0.9807
488.20 0.9842
488.30 0.9873
488.40 0.9904
488.50 0.9935
488.60 0.9965
488.70 0.9996
488.80 1.003
488.90 1.006
489.00 1.009
489.10 1.012
489.20 1.014
489.30 1.016
489.40 1.017
489.50 1.019
489.60 1.021
489.70 1.022
489.80 1.024
489.90 1.026
490.00 1.027
490.10 1.029
490.20 1.03
490.30 1.031
490.40 1.032
490.50 1.033
490.60 1.033
490.70 1.034
490.80 1.035
490.90 1.036
491.00 1.037
491.10 1.037
491.20 1.038
491.30 1.038
491.40 1.038
491.50 1.038
491.60 1.039
491.70 1.039
491.80 1.039
491.90 1.039
492.00 1.04
492.10 1.04
492.20 1.04
492.30 1.04
492.40 1.04
492.50 1.04
492.60 1.039
492.70 1.039
492.80 1.039
492.90 1.039
493.00 1.039
493.10 1.039
493.20 1.039
493.30 1.038
493.40 1.038
493.50 1.038
493.60 1.037
493.70 1.037
493.80 1.037
493.90 1.036
494.00 1.036
494.10 1.036
494.20 1.035
494.30 1.035
494.40 1.034
494.50 1.034
494.60 1.033
494.70 1.033
494.80 1.032
494.90 1.032
495.00 1.031
495.10 1.031
495.20 1.03
495.30 1.03
495.40 1.029
495.50 1.029
495.60 1.028
495.70 1.028
495.80 1.027
495.90 1.027
496.00 1.026
496.10 1.025
496.20 1.025
496.30 1.024
496.40 1.024
496.50 1.023
496.60 1.022
496.70 1.022
496.80 1.021
496.90 1.021
497.00 1.02
497.10 1.019
497.20 1.019
497.30 1.018
497.40 1.017
497.50 1.017
497.60 1.016
497.70 1.016
497.80 1.015
497.90 1.014
498.00 1.014
498.10 1.013
498.20 1.012
498.30 1.012
498.40 1.011
498.50 1.01
498.60 1.01
498.70 1.009
498.80 1.008
498.90 1.008
499.00 1.007
499.10 1.006
499.20 1.006
499.30 1.005
499.40 1.004
499.50 1.003
499.60 1.003
499.70 1.002
499.80 1.001
499.90 1.001
500.00 1
500.10 0.9993
500.20 0.9986
500.30 0.9979
500.40 0.9972
500.50 0.9965
500.60 0.9958
500.70 0.9951
500.80 0.9944
500.90 0.9937
501.00 0.993
501.10 0.9923
501.20 0.9916
501.30 0.9909
501.40 0.9902
501.50 0.9895
501.60 0.9888
501.70 0.9881
501.80 0.9874
501.90 0.9867
502.00 0.986
502.10 0.9853
502.20 0.9846
502.30 0.9839
502.40 0.9832
502.50 0.9825
502.60 0.9818
502.70 0.9811
502.80 0.9804
502.90 0.9797
503.00 0.979
503.10 0.9783
503.20 0.9776
503.30 0.9768
503.40 0.9761
503.50 0.9754
503.60 0.9747
503.70 0.974
503.80 0.9733
503.90 0.9726
504.00 0.9719
504.10 0.9712
504.20 0.9705
504.30 0.9698
504.40 0.9691
504.50 0.9684
504.60 0.9677
504.70 0.967
504.80 0.9663
504.90 0.9656
505.00 0.9649
505.10 0.9642
505.20 0.9635
505.30 0.9628
505.40 0.9621
505.50 0.9614
505.60 0.9606
505.70 0.9599
505.80 0.9592
505.90 0.9585
506.00 0.9578
506.10 0.9571
506.20 0.9564
506.30 0.9557
506.40 0.955
506.50 0.9543
506.60 0.9536
506.70 0.953
506.80 0.9523
506.90 0.9516
507.00 0.9509
507.10 0.9502
507.20 0.9495
507.30 0.9488
507.40 0.9481
507.50 0.9474
507.60 0.9467
507.70 0.946
507.80 0.9453
507.90 0.9446
508.00 0.9439
508.10 0.9432
508.20 0.9425
508.30 0.9418
508.40 0.9411
508.50 0.9404
508.60 0.9398
508.70 0.9391
508.80 0.9384
508.90 0.9377
509.00 0.937
509.10 0.9363
509.20 0.9356
509.30 0.9349
509.40 0.9343
509.50 0.9336
509.60 0.9329
509.70 0.9322
509.80 0.9315
509.90 0.9308
510.00 0.9301
510.10 0.9295
510.20 0.9288
510.30 0.9281
510.40 0.9274
510.50 0.9267
510.60 0.926
510.70 0.9254
510.80 0.9247
510.90 0.924
511.00 0.9233
511.10 0.9227
511.20 0.922
511.30 0.9213
511.40 0.9206
511.50 0.9199
511.60 0.9193
511.70 0.9186
511.80 0.9179
511.90 0.9172
512.00 0.9166
512.10 0.9159
512.20 0.9152
512.30 0.9146
512.40 0.9139
512.50 0.9132
512.60 0.9125
512.70 0.9119
512.80 0.9112
512.90 0.9105
513.00 0.9099
513.10 0.9092
513.20 0.9085
513.30 0.9079
513.40 0.9072
513.50 0.9065
513.60 0.9059
513.70 0.9052
513.80 0.9045
513.90 0.9039
514.00 0.9032
514.10 0.9025
514.20 0.9019
514.30 0.9012
514.40 0.9006
514.50 0.8999
514.60 0.8992
514.70 0.8986
514.80 0.8979
514.90 0.8973
515.00 0.8966
515.10 0.8959
515.20 0.8953
515.30 0.8946
515.40 0.894
515.50 0.8933
515.60 0.8927
515.70 0.892
515.80 0.8914
515.90 0.8907
516.00 0.8901
516.10 0.8894
516.20 0.8888
516.30 0.8881
516.40 0.8875
516.50 0.8868
516.60 0.8862
516.70 0.8855
516.80 0.8849
516.90 0.8842
517.00 0.8836
517.10 0.8829
517.20 0.8823
517.30 0.8816
517.40 0.881
517.50 0.8803
517.60 0.8797
517.70 0.8791
517.80 0.8784
517.90 0.8778
518.00 0.8771
518.10 0.8765
518.20 0.8759
518.30 0.8752
518.40 0.8746
518.50 0.8739
518.60 0.8733
518.70 0.8727
518.80 0.872
518.90 0.8714
519.00 0.8708
519.10 0.8701
519.20 0.8695
519.30 0.8688
519.40 0.8682
519.50 0.8676
519.60 0.867
519.70 0.8663
519.80 0.8657
519.90 0.8651
520.00 0.8644
520.10 0.8638
520.20 0.8632
520.30 0.8625
520.40 0.8619
520.50 0.8613
520.60 0.8607
520.70 0.86
520.80 0.8594
520.90 0.8588
521.00 0.8582
521.10 0.8575
521.20 0.8569
521.30 0.8563
521.40 0.8557
521.50 0.855
521.60 0.8544
521.70 0.8538
521.80 0.8532
521.90 0.8526
522.00 0.8519
522.10 0.8513
522.20 0.8507
522.30 0.8501
522.40 0.8495
522.50 0.8489
522.60 0.8482
522.70 0.8476
522.80 0.847
522.90 0.8464
523.00 0.8458
523.10 0.8452
523.20 0.8446
523.30 0.8439
523.40 0.8433
523.50 0.8427
523.60 0.8421
523.70 0.8415
523.80 0.8409
523.90 0.8403
524.00 0.8397
524.10 0.8391
524.20 0.8385
524.30 0.8379
524.40 0.8372
524.50 0.8366
524.60 0.836
524.70 0.8354
524.80 0.8348
524.90 0.8342
525.00 0.8336
525.10 0.833
525.20 0.8324
525.30 0.8318
525.40 0.8312
525.50 0.8306
525.60 0.83
525.70 0.8294
525.80 0.8288
525.90 0.8282
526.00 0.8276
526.10 0.827
526.20 0.8264
526.30 0.8258
526.40 0.8252
526.50 0.8246
526.60 0.824
526.70 0.8235
526.80 0.8229
526.90 0.8223
527.00 0.8217
527.10 0.8211
527.20 0.8205
527.30 0.8199
527.40 0.8193
527.50 0.8187
527.60 0.8181
527.70 0.8175
527.80 0.817
527.90 0.8164
528.00 0.8158
528.10 0.8152
528.20 0.8146
528.30 0.814
528.40 0.8134
528.50 0.8128
528.60 0.8123
528.70 0.8117
528.80 0.8111
528.90 0.8105
529.00 0.8099
529.10 0.8094
529.20 0.8088
529.30 0.8082
529.40 0.8076
529.50 0.807
529.60 0.8065
529.70 0.8059
529.80 0.8053
529.90 0.8047
530.00 0.8041
530.10 0.8036
530.20 0.803
530.30 0.8024
530.40 0.8018
530.50 0.8013
530.60 0.8007
530.70 0.8001
530.80 0.7995
530.90 0.799
531.00 0.7984
531.10 0.7978
531.20 0.7973
531.30 0.7967
531.40 0.7961
531.50 0.7955
531.60 0.795
531.70 0.7944
531.80 0.7938
531.90 0.7933
532.00 0.7927
532.10 0.7921
532.20 0.7916
532.30 0.791
532.40 0.7904
532.50 0.7899
532.60 0.7893
532.70 0.7888
532.80 0.7882
532.90 0.7876
533.00 0.7871
533.10 0.7865
533.20 0.7859
533.30 0.7854
533.40 0.7848
533.50 0.7843
533.60 0.7837
533.70 0.7832
533.80 0.7826
533.90 0.782
534.00 0.7815
534.10 0.7809
534.20 0.7804
534.30 0.7798
534.40 0.7793
534.50 0.7787
534.60 0.7781
534.70 0.7776
534.80 0.777
534.90 0.7765
535.00 0.7759
535.10 0.7754
535.20 0.7748
535.30 0.7743
535.40 0.7737
535.50 0.7732
535.60 0.7726
535.70 0.7721
535.80 0.7715
535.90 0.771
536.00 0.7704
536.10 0.7699
536.20 0.7693
536.30 0.7688
536.40 0.7683
536.50 0.7677
536.60 0.7672
536.70 0.7666
536.80 0.7661
536.90 0.7655
537.00 0.765
537.10 0.7645
537.20 0.7639
537.30 0.7634
537.40 0.7628
537.50 0.7623
537.60 0.7618
537.70 0.7612
537.80 0.7607
537.90 0.7601
538.00 0.7596
538.10 0.7591
538.20 0.7585
538.30 0.758
538.40 0.7575
538.50 0.7569
538.60 0.7564
538.70 0.7559
538.80 0.7553
538.90 0.7548
539.00 0.7543
539.10 0.7537
539.20 0.7532
539.30 0.7527
539.40 0.7521
539.50 0.7516
539.60 0.7511
539.70 0.7505
539.80 0.75
539.90 0.7495
540.00 0.749
540.10 0.7484
540.20 0.7479
540.30 0.7474
540.40 0.7468
540.50 0.7463
540.60 0.7458
540.70 0.7453
540.80 0.7447
540.90 0.7442
541.00 0.7437
541.10 0.7432
541.20 0.7426
541.30 0.7421
541.40 0.7416
541.50 0.7411
541.60 0.7406
541.70 0.74
541.80 0.7395
541.90 0.739
542.00 0.7385
542.10 0.738
542.20 0.7374
542.30 0.7369
542.40 0.7364
542.50 0.7359
542.60 0.7354
542.70 0.7349
542.80 0.7343
542.90 0.7338
543.00 0.7333
543.10 0.7328
543.20 0.7323
543.30 0.7318
543.40 0.7313
543.50 0.7308
543.60 0.7302
543.70 0.7297
543.80 0.7292
543.90 0.7287
544.00 0.7282
544.10 0.7277
544.20 0.7272
544.30 0.7267
544.40 0.7262
544.50 0.7257
544.60 0.7251
544.70 0.7246
544.80 0.7241
544.90 0.7236
545.00 0.7231
545.10 0.7226
545.20 0.7221
545.30 0.7216
545.40 0.7211
545.50 0.7206
545.60 0.7201
545.70 0.7196
545.80 0.7191
545.90 0.7186
546.00 0.7181
546.10 0.7176
546.20 0.7171
546.30 0.7166
546.40 0.7161
546.50 0.7156
546.60 0.7151
546.70 0.7146
546.80 0.7141
546.90 0.7136
547.00 0.7131
547.10 0.7126
547.20 0.7121
547.30 0.7116
547.40 0.7111
547.50 0.7106
547.60 0.7101
547.70 0.7096
547.80 0.7091
547.90 0.7086
548.00 0.7082
548.10 0.7077
548.20 0.7072
548.30 0.7067
548.40 0.7062
548.50 0.7057
548.60 0.7052
548.70 0.7047
548.80 0.7042
548.90 0.7037
549.00 0.7033
549.10 0.7028
549.20 0.7023
549.30 0.7018
549.40 0.7013
549.50 0.7008
549.60 0.7003
549.70 0.6998
549.80 0.6994
549.90 0.6989
550.00 0.6984
550.10 0.6979
550.20 0.6974
550.30 0.6969
550.40 0.6965
550.50 0.696
550.60 0.6955
550.70 0.695
550.80 0.6945
550.90 0.6941
551.00 0.6936
551.10 0.6931
551.20 0.6926
551.30 0.6921
551.40 0.6917
551.50 0.6912
551.60 0.6907
551.70 0.6902
551.80 0.6897
551.90 0.6893
552.00 0.6888
552.10 0.6883
552.20 0.6878
552.30 0.6874
552.40 0.6869
552.50 0.6864
552.60 0.686
552.70 0.6855
552.80 0.685
552.90 0.6845
553.00 0.6841
553.10 0.6836
553.20 0.6831
553.30 0.6826
553.40 0.6822
553.50 0.6817
553.60 0.6812
553.70 0.6808
553.80 0.6803
553.90 0.6798
554.00 0.6794
554.10 0.6789
554.20 0.6784
554.30 0.678
554.40 0.6775
554.50 0.677
554.60 0.6766
554.70 0.6761
554.80 0.6756
554.90 0.6752
555.00 0.6747
555.10 0.6742
555.20 0.6738
555.30 0.6733
555.40 0.6729
555.50 0.6724
555.60 0.6719
555.70 0.6715
555.80 0.671
555.90 0.6706
556.00 0.6701
556.10 0.6696
556.20 0.6692
556.30 0.6687
556.40 0.6683
556.50 0.6678
556.60 0.6673
556.70 0.6669
556.80 0.6664
556.90 0.666
557.00 0.6655
557.10 0.6651
557.20 0.6646
557.30 0.6642
557.40 0.6637
557.50 0.6632
557.60 0.6628
557.70 0.6623
557.80 0.6619
557.90 0.6614
558.00 0.661
558.10 0.6605
558.20 0.6601
558.30 0.6596
558.40 0.6592
558.50 0.6587
558.60 0.6583
558.70 0.6578
558.80 0.6574
558.90 0.6569
559.00 0.6565
559.10 0.656
559.20 0.6556
559.30 0.6551
559.40 0.6547
559.50 0.6542
559.60 0.6538
559.70 0.6534
559.80 0.6529
559.90 0.6525
560.00 0.652
560.10 0.6516
560.20 0.6511
560.30 0.6507
560.40 0.6502
560.50 0.6498
560.60 0.6494
560.70 0.6489
560.80 0.6485
560.90 0.648
561.00 0.6476
561.10 0.6472
561.20 0.6467
561.30 0.6463
561.40 0.6458
561.50 0.6454
561.60 0.645
561.70 0.6445
561.80 0.6441
561.90 0.6437
562.00 0.6432
562.10 0.6428
562.20 0.6423
562.30 0.6419
562.40 0.6415
562.50 0.641
562.60 0.6406
562.70 0.6402
562.80 0.6397
562.90 0.6393
563.00 0.6389
563.10 0.6384
563.20 0.638
563.30 0.6376
563.40 0.6371
563.50 0.6367
563.60 0.6363
563.70 0.6358
563.80 0.6354
563.90 0.635
564.00 0.6346
564.10 0.6341
564.20 0.6337
564.30 0.6333
564.40 0.6328
564.50 0.6324
564.60 0.632
564.70 0.6316
564.80 0.6311
564.90 0.6307
565.00 0.6303
565.10 0.6299
565.20 0.6294
565.30 0.629
565.40 0.6286
565.50 0.6282
565.60 0.6277
565.70 0.6273
565.80 0.6269
565.90 0.6265
566.00 0.626
566.10 0.6256
566.20 0.6252
566.30 0.6248
566.40 0.6244
566.50 0.6239
566.60 0.6235
566.70 0.6231
566.80 0.6227
566.90 0.6223
567.00 0.6218
567.10 0.6214
567.20 0.621
567.30 0.6206
567.40 0.6202
567.50 0.6197
567.60 0.6193
567.70 0.6189
567.80 0.6185
567.90 0.6181
568.00 0.6177
568.10 0.6173
568.20 0.6168
568.30 0.6164
568.40 0.616
568.50 0.6156
568.60 0.6152
568.70 0.6148
568.80 0.6144
568.90 0.6139
569.00 0.6135
569.10 0.6131
569.20 0.6127
569.30 0.6123
569.40 0.6119
569.50 0.6115
569.60 0.6111
569.70 0.6107
569.80 0.6103
569.90 0.6098
570.00 0.6094
570.10 0.609
570.20 0.6086
570.30 0.6082
570.40 0.6078
570.50 0.6074
570.60 0.607
570.70 0.6066
570.80 0.6062
570.90 0.6058
571.00 0.6054
571.10 0.605
571.20 0.6046
571.30 0.6042
571.40 0.6038
571.50 0.6033
571.60 0.6029
571.70 0.6025
571.80 0.6021
571.90 0.6017
572.00 0.6013
572.10 0.6009
572.20 0.6005
572.30 0.6001
572.40 0.5997
572.50 0.5993
572.60 0.5989
572.70 0.5985
572.80 0.5981
572.90 0.5977
573.00 0.5973
573.10 0.5969
573.20 0.5965
573.30 0.5961
573.40 0.5958
573.50 0.5954
573.60 0.595
573.70 0.5946
573.80 0.5942
573.90 0.5938
574.00 0.5934
574.10 0.593
574.20 0.5926
574.30 0.5922
574.40 0.5918
574.50 0.5914
574.60 0.591
574.70 0.5906
574.80 0.5902
574.90 0.5898
575.00 0.5894
575.10 0.5891
575.20 0.5887
575.30 0.5883
575.40 0.5879
575.50 0.5875
575.60 0.5871
575.70 0.5867
575.80 0.5863
575.90 0.5859
576.00 0.5855
576.10 0.5852
576.20 0.5848
576.30 0.5844
576.40 0.584
576.50 0.5836
576.60 0.5832
576.70 0.5828
576.80 0.5824
576.90 0.5821
577.00 0.5817
577.10 0.5813
577.20 0.5809
577.30 0.5805
577.40 0.5801
577.50 0.5798
577.60 0.5794
577.70 0.579
577.80 0.5786
577.90 0.5782
578.00 0.5778
578.10 0.5775
578.20 0.5771
578.30 0.5767
578.40 0.5763
578.50 0.5759
578.60 0.5756
578.70 0.5752
578.80 0.5748
578.90 0.5744
579.00 0.574
579.10 0.5737
579.20 0.5733
579.30 0.5729
579.40 0.5725
579.50 0.5721
579.60 0.5718
579.70 0.5714
579.80 0.571
579.90 0.5706
580.00 0.5703
580.10 0.5699
580.20 0.5695
580.30 0.5691
580.40 0.5688
580.50 0.5684
580.60 0.568
580.70 0.5676
580.80 0.5673
580.90 0.5669
581.00 0.5665
581.10 0.5662
581.20 0.5658
581.30 0.5654
581.40 0.565
581.50 0.5647
581.60 0.5643
581.70 0.5639
581.80 0.5636
581.90 0.5632
582.00 0.5628
582.10 0.5624
582.20 0.5621
582.30 0.5617
582.40 0.5613
582.50 0.561
582.60 0.5606
582.70 0.5602
582.80 0.5599
582.90 0.5595
583.00 0.5591
583.10 0.5588
583.20 0.5584
583.30 0.558
583.40 0.5577
583.50 0.5573
583.60 0.5569
583.70 0.5566
583.80 0.5562
583.90 0.5558
584.00 0.5555
584.10 0.5551
584.20 0.5548
584.30 0.5544
584.40 0.554
584.50 0.5537
584.60 0.5533
584.70 0.5529
584.80 0.5526
584.90 0.5522
585.00 0.5519
585.10 0.5515
585.20 0.5511
585.30 0.5508
585.40 0.5504
585.50 0.5501
585.60 0.5497
585.70 0.5493
585.80 0.549
585.90 0.5486
586.00 0.5483
586.10 0.5479
586.20 0.5476
586.30 0.5472
586.40 0.5468
586.50 0.5465
586.60 0.5461
586.70 0.5458
586.80 0.5454
586.90 0.5451
587.00 0.5447
587.10 0.5444
587.20 0.544
587.30 0.5436
587.40 0.5433
587.50 0.5429
587.60 0.5426
587.70 0.5422
587.80 0.5419
587.90 0.5415
588.00 0.5412
588.10 0.5408
588.20 0.5405
588.30 0.5401
588.40 0.5398
588.50 0.5394
588.60 0.5391
588.70 0.5387
588.80 0.5384
588.90 0.538
589.00 0.5377
589.10 0.5373
589.20 0.537
589.30 0.5366
589.40 0.5363
589.50 0.5359
589.60 0.5356
589.70 0.5352
589.80 0.5349
589.90 0.5345
590.00 0.5342
590.10 0.5338
590.20 0.5335
590.30 0.5332
590.40 0.5328
590.50 0.5325
590.60 0.5321
590.70 0.5318
590.80 0.5314
590.90 0.5311
591.00 0.5307
591.10 0.5304
591.20 0.5301
591.30 0.5297
591.40 0.5294
591.50 0.529
591.60 0.5287
591.70 0.5283
591.80 0.528
591.90 0.5277
592.00 0.5273
592.10 0.527
592.20 0.5266
592.30 0.5263
592.40 0.526
592.50 0.5256
592.60 0.5253
592.70 0.5249
592.80 0.5246
592.90 0.5243
593.00 0.5239
593.10 0.5236
593.20 0.5232
593.30 0.5229
593.40 0.5226
593.50 0.5222
593.60 0.5219
593.70 0.5216
593.80 0.5212
593.90 0.5209
594.00 0.5206
594.10 0.5202
594.20 0.5199
594.30 0.5196
594.40 0.5192
594.50 0.5189
594.60 0.5186
594.70 0.5182
594.80 0.5179
594.90 0.5176
595.00 0.5172
595.10 0.5169
595.20 0.5166
595.30 0.5162
595.40 0.5159
595.50 0.5156
595.60 0.5152
595.70 0.5149
595.80 0.5146
595.90 0.5142
596.00 0.5139
596.10 0.5136
596.20 0.5132
596.30 0.5129
596.40 0.5126
596.50 0.5123
596.60 0.5119
596.70 0.5116
596.80 0.5113
596.90 0.5109
597.00 0.5106
597.10 0.5103
597.20 0.51
597.30 0.5096
597.40 0.5093
597.50 0.509
597.60 0.5087
597.70 0.5083
597.80 0.508
597.90 0.5077
598.00 0.5074
598.10 0.507
598.20 0.5067
598.30 0.5064
598.40 0.5061
598.50 0.5057
598.60 0.5054
598.70 0.5051
598.80 0.5048
598.90 0.5044
599.00 0.5041
599.10 0.5038
599.20 0.5035
599.30 0.5032
599.40 0.5028
599.50 0.5025
599.60 0.5022
599.70 0.5019
599.80 0.5016
599.90 0.5012
600.00 0.5009
600.10 0.5006
600.20 0.5003
600.30 0.5
600.40 0.4996
600.50 0.4993
600.60 0.499
600.70 0.4987
600.80 0.4984
600.90 0.498
601.00 0.4977
601.10 0.4974
601.20 0.4971
601.30 0.4968
601.40 0.4965
601.50 0.4961
601.60 0.4958
601.70 0.4955
601.80 0.4952
601.90 0.4949
602.00 0.4946
602.10 0.4943
602.20 0.4939
602.30 0.4936
602.40 0.4933
602.50 0.493
602.60 0.4927
602.70 0.4924
602.80 0.4921
602.90 0.4918
603.00 0.4914
603.10 0.4911
603.20 0.4908
603.30 0.4905
603.40 0.4902
603.50 0.4899
603.60 0.4896
603.70 0.4893
603.80 0.4889
603.90 0.4886
604.00 0.4883
604.10 0.488
604.20 0.4877
604.30 0.4874
604.40 0.4871
604.50 0.4868
604.60 0.4865
604.70 0.4862
604.80 0.4859
604.90 0.4856
605.00 0.4852
605.10 0.4849
605.20 0.4846
605.30 0.4843
605.40 0.484
605.50 0.4837
605.60 0.4834
605.70 0.4831
605.80 0.4828
605.90 0.4825
606.00 0.4822
606.10 0.4819
606.20 0.4816
606.30 0.4813
606.40 0.481
606.50 0.4807
606.60 0.4804
606.70 0.4801
606.80 0.4798
606.90 0.4794
607.00 0.4791
607.10 0.4788
607.20 0.4785
607.30 0.4782
607.40 0.4779
607.50 0.4776
607.60 0.4773
607.70 0.477
607.80 0.4767
607.90 0.4764
608.00 0.4761
608.10 0.4758
608.20 0.4755
608.30 0.4752
608.40 0.4749
608.50 0.4746
608.60 0.4743
608.70 0.474
608.80 0.4737
608.90 0.4734
609.00 0.4731
609.10 0.4728
609.20 0.4725
609.30 0.4722
609.40 0.472
609.50 0.4717
609.60 0.4714
609.70 0.4711
609.80 0.4708
609.90 0.4705
610.00 0.4702
610.10 0.4699
610.20 0.4696
610.30 0.4693
610.40 0.469
610.50 0.4687
610.60 0.4684
610.70 0.4681
610.80 0.4678
610.90 0.4675
611.00 0.4672
611.10 0.4669
611.20 0.4666
611.30 0.4664
611.40 0.4661
611.50 0.4658
611.60 0.4655
611.70 0.4652
611.80 0.4649
611.90 0.4646
612.00 0.4643
612.10 0.464
612.20 0.4637
612.30 0.4634
612.40 0.4631
612.50 0.4629
612.60 0.4626
612.70 0.4623
612.80 0.462
612.90 0.4617
613.00 0.4614
613.10 0.4611
613.20 0.4608
613.30 0.4605
613.40 0.4603
613.50 0.46
613.60 0.4597
613.70 0.4594
613.80 0.4591
613.90 0.4588
614.00 0.4585
614.10 0.4582
614.20 0.458
614.30 0.4577
614.40 0.4574
614.50 0.4571
614.60 0.4568
614.70 0.4565
614.80 0.4562
614.90 0.456
615.00 0.4557
615.10 0.4554
615.20 0.4551
615.30 0.4548
615.40 0.4545
615.50 0.4543
615.60 0.454
615.70 0.4537
615.80 0.4534
615.90 0.4531
616.00 0.4528
616.10 0.4526
616.20 0.4523
616.30 0.452
616.40 0.4517
616.50 0.4514
616.60 0.4512
616.70 0.4509
616.80 0.4506
616.90 0.4503
617.00 0.45
617.10 0.4498
617.20 0.4495
617.30 0.4492
617.40 0.4489
617.50 0.4486
617.60 0.4484
617.70 0.4481
617.80 0.4478
617.90 0.4475
618.00 0.4472
618.10 0.447
618.20 0.4467
618.30 0.4464
618.40 0.4461
618.50 0.4459
618.60 0.4456
618.70 0.4453
618.80 0.445
618.90 0.4447
619.00 0.4445
619.10 0.4442
619.20 0.4439
619.30 0.4436
619.40 0.4434
619.50 0.4431
619.60 0.4428
619.70 0.4425
619.80 0.4423
619.90 0.442
620.00 0.4417
620.10 0.4414
620.20 0.4412
620.30 0.4409
620.40 0.4406
620.50 0.4404
620.60 0.4401
620.70 0.4398
620.80 0.4395
620.90 0.4393
621.00 0.439
621.10 0.4387
621.20 0.4384
621.30 0.4382
621.40 0.4379
621.50 0.4376
621.60 0.4374
621.70 0.4371
621.80 0.4368
621.90 0.4366
622.00 0.4363
622.10 0.436
622.20 0.4357
622.30 0.4355
622.40 0.4352
622.50 0.4349
622.60 0.4347
622.70 0.4344
622.80 0.4341
622.90 0.4339
623.00 0.4336
623.10 0.4333
623.20 0.4331
623.30 0.4328
623.40 0.4325
623.50 0.4323
623.60 0.432
623.70 0.4317
623.80 0.4315
623.90 0.4312
624.00 0.4309
624.10 0.4307
624.20 0.4304
624.30 0.4301
624.40 0.4299
624.50 0.4296
624.60 0.4293
624.70 0.4291
624.80 0.4288
624.90 0.4285
625.00 0.4283
625.10 0.428
625.20 0.4277
625.30 0.4275
625.40 0.4272
625.50 0.4269
625.60 0.4267
625.70 0.4264
625.80 0.4262
625.90 0.4259
626.00 0.4256
626.10 0.4254
626.20 0.4251
626.30 0.4248
626.40 0.4246
626.50 0.4243
626.60 0.4241
626.70 0.4238
626.80 0.4235
626.90 0.4233
627.00 0.423
627.10 0.4228
627.20 0.4225
627.30 0.4222
627.40 0.422
627.50 0.4217
627.60 0.4215
627.70 0.4212
627.80 0.4209
627.90 0.4207
628.00 0.4204
628.10 0.4202
628.20 0.4199
628.30 0.4196
628.40 0.4194
628.50 0.4191
628.60 0.4189
628.70 0.4186
628.80 0.4184
628.90 0.4181
629.00 0.4178
629.10 0.4176
629.20 0.4173
629.30 0.4171
629.40 0.4168
629.50 0.4166
629.60 0.4163
629.70 0.416
629.80 0.4158
629.90 0.4155
630.00 0.4153
630.10 0.415
630.20 0.4148
630.30 0.4145
630.40 0.4143
630.50 0.414
630.60 0.4137
630.70 0.4135
630.80 0.4132
630.90 0.413
631.00 0.4127
631.10 0.4125
631.20 0.4122
631.30 0.412
631.40 0.4117
631.50 0.4115
631.60 0.4112
631.70 0.411
631.80 0.4107
631.90 0.4104
632.00 0.4102
632.10 0.4099
632.20 0.4097
632.30 0.4094
632.40 0.4092
632.50 0.4089
632.60 0.4087
632.70 0.4084
632.80 0.4082
632.90 0.4079
633.00 0.4077
633.10 0.4074
633.20 0.4072
633.30 0.4069
633.40 0.4067
633.50 0.4064
633.60 0.4062
633.70 0.4059
633.80 0.4057
633.90 0.4054
634.00 0.4052
634.10 0.4049
634.20 0.4047
634.30 0.4044
634.40 0.4042
634.50 0.4039
634.60 0.4037
634.70 0.4034
634.80 0.4032
634.90 0.4029
635.00 0.4027
635.10 0.4024
635.20 0.4022
635.30 0.4019
635.40 0.4017
635.50 0.4014
635.60 0.4012
635.70 0.4009
635.80 0.4007
635.90 0.4004
636.00 0.4002
636.10 0.3999
636.20 0.3997
636.30 0.3994
636.40 0.3992
636.50 0.3989
636.60 0.3987
636.70 0.3985
636.80 0.3982
636.90 0.398
637.00 0.3977
637.10 0.3975
637.20 0.3972
637.30 0.397
637.40 0.3967
637.50 0.3965
637.60 0.3962
637.70 0.396
637.80 0.3957
637.90 0.3955
638.00 0.3952
638.10 0.395
638.20 0.3947
638.30 0.3945
638.40 0.3943
638.50 0.394
638.60 0.3938
638.70 0.3935
638.80 0.3933
638.90 0.393
639.00 0.3928
639.10 0.3925
639.20 0.3923
639.30 0.392
639.40 0.3918
639.50 0.3915
639.60 0.3913
639.70 0.391
639.80 0.3908
639.90 0.3905
640.00 0.3903
640.10 0.3901
640.20 0.3898
640.30 0.3896
640.40 0.3893
640.50 0.3891
640.60 0.3888
640.70 0.3886
640.80 0.3883
640.90 0.3881
641.00 0.3878
641.10 0.3876
641.20 0.3873
641.30 0.3871
641.40 0.3868
641.50 0.3866
641.60 0.3863
641.70 0.3861
641.80 0.3858
641.90 0.3856
642.00 0.3853
642.10 0.3851
642.20 0.3848
642.30 0.3846
642.40 0.3843
642.50 0.3841
642.60 0.3838
642.70 0.3836
642.80 0.3833
642.90 0.3831
643.00 0.3828
643.10 0.3826
643.20 0.3823
643.30 0.3821
643.40 0.3818
643.50 0.3816
643.60 0.3813
643.70 0.381
643.80 0.3808
643.90 0.3805
644.00 0.3803
644.10 0.38
644.20 0.3798
644.30 0.3795
644.40 0.3792
644.50 0.379
644.60 0.3787
644.70 0.3784
644.80 0.3782
644.90 0.3779
645.00 0.3777
645.10 0.3774
645.20 0.3771
645.30 0.3769
645.40 0.3766
645.50 0.3763
645.60 0.3761
645.70 0.3758
645.80 0.3755
645.90 0.3752
646.00 0.375
646.10 0.3747
646.20 0.3744
646.30 0.3741
646.40 0.3739
646.50 0.3736
646.60 0.3733
646.70 0.373
646.80 0.3727
646.90 0.3724
647.00 0.3721
647.10 0.3719
647.20 0.3716
647.30 0.3713
647.40 0.371
647.50 0.3707
647.60 0.3704
647.70 0.37
647.80 0.3697
647.90 0.3694
648.00 0.3691
648.10 0.3688
648.20 0.3685
648.30 0.3682
648.40 0.3678
648.50 0.3675
648.60 0.3672
648.70 0.3668
648.80 0.3665
648.90 0.3661
649.00 0.3658
649.10 0.3655
649.20 0.3651
649.30 0.3648
649.40 0.3644
649.50 0.364
649.60 0.3636
649.70 0.3632
649.80 0.3628
649.90 0.3624
650.00 0.362
650.10 0.3616
650.20 0.3613
650.30 0.3608
650.40 0.3604
650.50 0.3599
650.60 0.3594
650.70 0.359
650.80 0.3585
650.90 0.358
651.00 0.3575
651.10 0.3571
651.20 0.3566
651.30 0.3561
651.40 0.3555
651.50 0.3549
651.60 0.3543
651.70 0.3537
651.80 0.3531
651.90 0.3525
652.00 0.3519
652.10 0.3513
652.20 0.3507
652.30 0.3501
652.40 0.3493
652.50 0.3485
652.60 0.3477
652.70 0.3469
652.80 0.3461
652.90 0.3453
653.00 0.3445
653.10 0.3437
653.20 0.3429
653.30 0.342
653.40 0.3409
653.50 0.3397
653.60 0.3386
653.70 0.3375
653.80 0.3364
653.90 0.3353
654.00 0.3342
654.10 0.333
654.20 0.3319
654.30 0.3307
654.40 0.3293
654.50 0.3279
654.60 0.3264
654.70 0.325
654.80 0.3235
654.90 0.3218
655.00 0.3201
655.10 0.3184
655.20 0.3167
655.30 0.315
655.40 0.3131
655.50 0.3112
655.60 0.3092
655.70 0.3073
655.80 0.3052
655.90 0.3031
656.00 0.3007
656.10 0.2982
656.20 0.2979
656.30 0.3079
656.40 0.2965
656.50 0.2984
656.60 0.3005
656.70 0.3025
656.80 0.3042
656.90 0.3059
657.00 0.3075
657.10 0.3091
657.20 0.3106
657.30 0.3121
657.40 0.3134
657.50 0.3148
657.60 0.3161
657.70 0.3174
657.80 0.3187
657.90 0.3197
658.00 0.3208
658.10 0.3218
658.20 0.3229
658.30 0.3239
658.40 0.3246
658.50 0.3253
658.60 0.326
658.70 0.3267
658.80 0.3274
658.90 0.3282
659.00 0.3289
659.10 0.3296
659.20 0.3303
659.30 0.3309
659.40 0.3313
659.50 0.3317
659.60 0.3321
659.70 0.3325
659.80 0.3329
659.90 0.3333
660.00 0.3336
660.10 0.334
660.20 0.3344
660.30 0.3348
660.40 0.3349
660.50 0.3351
660.60 0.3353
660.70 0.3355
660.80 0.3356
660.90 0.3358
661.00 0.336
661.10 0.3362
661.20 0.3363
661.30 0.3365
661.40 0.3365
661.50 0.3366
661.60 0.3366
661.70 0.3367
661.80 0.3367
661.90 0.3368
662.00 0.3368
662.10 0.3368
662.20 0.3369
662.30 0.3369
662.40 0.3369
662.50 0.3369
662.60 0.3368
662.70 0.3368
662.80 0.3367
662.90 0.3367
663.00 0.3367
663.10 0.3366
663.20 0.3366
663.30 0.3366
663.40 0.3365
663.50 0.3364
663.60 0.3363
663.70 0.3362
663.80 0.3361
663.90 0.3361
664.00 0.336
664.10 0.3359
664.20 0.3358
664.30 0.3357
664.40 0.3356
664.50 0.3355
664.60 0.3354
664.70 0.3352
664.80 0.3351
664.90 0.335
665.00 0.3349
665.10 0.3348
665.20 0.3347
665.30 0.3345
665.40 0.3344
665.50 0.3343
665.60 0.3341
665.70 0.334
665.80 0.3339
665.90 0.3337
666.00 0.3336
666.10 0.3334
666.20 0.3333
666.30 0.3332
666.40 0.333
666.50 0.3329
666.60 0.3327
666.70 0.3326
666.80 0.3324
666.90 0.3323
667.00 0.3321
667.10 0.332
667.20 0.3318
667.30 0.3317
667.40 0.3315
667.50 0.3313
667.60 0.3312
667.70 0.331
667.80 0.3309
667.90 0.3307
668.00 0.3305
668.10 0.3304
668.20 0.3302
668.30 0.3301
668.40 0.3299
668.50 0.3297
668.60 0.3296
668.70 0.3294
668.80 0.3292
668.90 0.3291
669.00 0.3289
669.10 0.3287
669.20 0.3286
669.30 0.3284
669.40 0.3282
669.50 0.3281
669.60 0.3279
669.70 0.3277
669.80 0.3276
669.90 0.3274
670.00 0.3272
670.10 0.327
670.20 0.3269
670.30 0.3267
670.40 0.3265
670.50 0.3264
670.60 0.3262
670.70 0.326
670.80 0.3258
670.90 0.3257
671.00 0.3255
671.10 0.3253
671.20 0.3252
671.30 0.325
671.40 0.3248
671.50 0.3246
671.60 0.3245
671.70 0.3243
671.80 0.3241
671.90 0.3239
672.00 0.3238
672.10 0.3236
672.20 0.3234
672.30 0.3232
672.40 0.3231
672.50 0.3229
672.60 0.3227
672.70 0.3225
672.80 0.3224
672.90 0.3222
673.00 0.322
673.10 0.3218
673.20 0.3217
673.30 0.3215
673.40 0.3213
673.50 0.3211
673.60 0.321
673.70 0.3208
673.80 0.3206
673.90 0.3204
674.00 0.3203
674.10 0.3201
674.20 0.3199
674.30 0.3197
674.40 0.3196
674.50 0.3194
674.60 0.3192
674.70 0.319
674.80 0.3189
674.90 0.3187
675.00 0.3185
675.10 0.3183
675.20 0.3182
675.30 0.318
675.40 0.3178
675.50 0.3176
675.60 0.3175
675.70 0.3173
675.80 0.3171
675.90 0.3169
676.00 0.3168
676.10 0.3166
676.20 0.3164
676.30 0.3162
676.40 0.3161
676.50 0.3159
676.60 0.3157
676.70 0.3155
676.80 0.3154
676.90 0.3152
677.00 0.315
677.10 0.3148
677.20 0.3147
677.30 0.3145
677.40 0.3143
677.50 0.3141
677.60 0.314
677.70 0.3138
677.80 0.3136
677.90 0.3134
678.00 0.3133
678.10 0.3131
678.20 0.3129
678.30 0.3128
678.40 0.3126
678.50 0.3124
678.60 0.3122
678.70 0.3121
678.80 0.3119
678.90 0.3117
679.00 0.3115
679.10 0.3114
679.20 0.3112
679.30 0.311
679.40 0.3108
679.50 0.3107
679.60 0.3105
679.70 0.3103
679.80 0.3102
679.90 0.31
680.00 0.3098
680.10 0.3096
680.20 0.3095
680.30 0.3093
680.40 0.3091
680.50 0.3089
680.60 0.3088
680.70 0.3086
680.80 0.3084
680.90 0.3083
681.00 0.3081
681.10 0.3079
681.20 0.3077
681.30 0.3076
681.40 0.3074
681.50 0.3072
681.60 0.3071
681.70 0.3069
681.80 0.3067
681.90 0.3065
682.00 0.3064
682.10 0.3062
682.20 0.306
682.30 0.3059
682.40 0.3057
682.50 0.3055
682.60 0.3054
682.70 0.3052
682.80 0.305
682.90 0.3048
683.00 0.3047
683.10 0.3045
683.20 0.3043
683.30 0.3042
683.40 0.304
683.50 0.3038
683.60 0.3037
683.70 0.3035
683.80 0.3033
683.90 0.3032
684.00 0.303
684.10 0.3028
684.20 0.3026
684.30 0.3025
684.40 0.3023
684.50 0.3021
684.60 0.302
684.70 0.3018
684.80 0.3016
684.90 0.3015
685.00 0.3013
685.10 0.3011
685.20 0.301
685.30 0.3008
685.40 0.3006
685.50 0.3005
685.60 0.3003
685.70 0.3001
685.80 0.3
685.90 0.2998
686.00 0.2996
686.10 0.2995
686.20 0.2993
686.30 0.2991
686.40 0.299
686.50 0.2988
686.60 0.2986
686.70 0.2985
686.80 0.2983
686.90 0.2981
687.00 0.298
687.10 0.2978
687.20 0.2976
687.30 0.2975
687.40 0.2973
687.50 0.2971
687.60 0.297
687.70 0.2968
687.80 0.2966
687.90 0.2965
688.00 0.2963
688.10 0.2961
688.20 0.296
688.30 0.2958
688.40 0.2957
688.50 0.2955
688.60 0.2953
688.70 0.2952
688.80 0.295
688.90 0.2948
689.00 0.2947
689.10 0.2945
689.20 0.2943
689.30 0.2942
689.40 0.294
689.50 0.2939
689.60 0.2937
689.70 0.2935
689.80 0.2934
689.90 0.2932
690.00 0.293
690.10 0.2929
690.20 0.2927
690.30 0.2926
690.40 0.2924
690.50 0.2922
690.60 0.2921
690.70 0.2919
690.80 0.2918
690.90 0.2916
691.00 0.2914
691.10 0.2913
691.20 0.2911
691.30 0.2909
691.40 0.2908
691.50 0.2906
691.60 0.2905
691.70 0.2903
691.80 0.2901
691.90 0.29
692.00 0.2898
692.10 0.2897
692.20 0.2895
692.30 0.2893
692.40 0.2892
692.50 0.289
692.60 0.2889
692.70 0.2887
692.80 0.2885
692.90 0.2884
693.00 0.2882
693.10 0.2881
693.20 0.2879
693.30 0.2877
693.40 0.2876
693.50 0.2874
693.60 0.2873
693.70 0.2871
693.80 0.2869
693.90 0.2868
694.00 0.2866
694.10 0.2865
694.20 0.2863
694.30 0.2862
694.40 0.286
694.50 0.2858
694.60 0.2857
694.70 0.2855
694.80 0.2854
694.90 0.2852
695.00 0.285
695.10 0.2849
695.20 0.2847
695.30 0.2846
695.40 0.2844
695.50 0.2843
695.60 0.2841
695.70 0.284
695.80 0.2838
695.90 0.2836
696.00 0.2835
696.10 0.2833
696.20 0.2832
696.30 0.283
696.40 0.2829
696.50 0.2827
696.60 0.2825
696.70 0.2824
696.80 0.2822
696.90 0.2821
697.00 0.2819
697.10 0.2818
697.20 0.2816
697.30 0.2815
697.40 0.2813
697.50 0.2812
697.60 0.281
697.70 0.2808
697.80 0.2807
697.90 0.2805
698.00 0.2804
698.10 0.2802
698.20 0.2801
698.30 0.2799
698.40 0.2798
698.50 0.2796
698.60 0.2795
698.70 0.2793
698.80 0.2791
698.90 0.279
699.00 0.2788
699.10 0.2787
699.20 0.2785
699.30 0.2784
699.40 0.2782
699.50 0.2781
699.60 0.2779
699.70 0.2778
699.80 0.2776
699.90 0.2775
700.00 0.2773
700.10 0.2772
700.20 0.277
700.30 0.2769
700.40 0.2767
700.50 0.2766
700.60 0.2764
700.70 0.2763
700.80 0.2761
700.90 0.276
701.00 0.2758
701.10 0.2756
701.20 0.2755
701.30 0.2753
701.40 0.2752
701.50 0.275
701.60 0.2749
701.70 0.2747
701.80 0.2746
701.90 0.2744
702.00 0.2743
702.10 0.2741
702.20 0.274
702.30 0.2738
702.40 0.2737
702.50 0.2735
702.60 0.2734
702.70 0.2732
702.80 0.2731
702.90 0.2729
703.00 0.2728
703.10 0.2727
703.20 0.2725
703.30 0.2724
703.40 0.2722
703.50 0.2721
703.60 0.2719
703.70 0.2718
703.80 0.2716
703.90 0.2715
704.00 0.2713
704.10 0.2712
704.20 0.271
704.30 0.2709
704.40 0.2707
704.50 0.2706
704.60 0.2704
704.70 0.2703
704.80 0.2701
704.90 0.27
705.00 0.2698
705.10 0.2697
705.20 0.2695
705.30 0.2694
705.40 0.2692
705.50 0.2691
705.60 0.269
705.70 0.2688
705.80 0.2687
705.90 0.2685
706.00 0.2684
706.10 0.2682
706.20 0.2681
706.30 0.2679
706.40 0.2678
706.50 0.2676
706.60 0.2675
706.70 0.2674
706.80 0.2672
706.90 0.2671
707.00 0.2669
707.10 0.2668
707.20 0.2666
707.30 0.2665
707.40 0.2663
707.50 0.2662
707.60 0.266
707.70 0.2659
707.80 0.2658
707.90 0.2656
708.00 0.2655
708.10 0.2653
708.20 0.2652
708.30 0.265
708.40 0.2649
708.50 0.2647
708.60 0.2646
708.70 0.2645
708.80 0.2643
708.90 0.2642
709.00 0.264
709.10 0.2639
709.20 0.2637
709.30 0.2636
709.40 0.2635
709.50 0.2633
709.60 0.2632
709.70 0.263
709.80 0.2629
709.90 0.2627
710.00 0.2626
710.10 0.2625
710.20 0.2623
710.30 0.2622
710.40 0.262
710.50 0.2619
710.60 0.2618
710.70 0.2616
710.80 0.2615
710.90 0.2613
711.00 0.2612
711.10 0.261
711.20 0.2609
711.30 0.2608
711.40 0.2606
711.50 0.2605
711.60 0.2603
711.70 0.2602
711.80 0.2601
711.90 0.2599
712.00 0.2598
712.10 0.2596
712.20 0.2595
712.30 0.2594
712.40 0.2592
712.50 0.2591
712.60 0.2589
712.70 0.2588
712.80 0.2587
712.90 0.2585
713.00 0.2584
713.10 0.2582
713.20 0.2581
713.30 0.258
713.40 0.2578
713.50 0.2577
713.60 0.2575
713.70 0.2574
713.80 0.2573
713.90 0.2571
714.00 0.257
714.10 0.2569
714.20 0.2567
714.30 0.2566
714.40 0.2564
714.50 0.2563
714.60 0.2562
714.70 0.256
714.80 0.2559
714.90 0.2557
715.00 0.2556
715.10 0.2555
715.20 0.2553
715.30 0.2552
715.40 0.2551
715.50 0.2549
715.60 0.2548
715.70 0.2547
715.80 0.2545
715.90 0.2544
716.00 0.2542
716.10 0.2541
716.20 0.254
716.30 0.2538
716.40 0.2537
716.50 0.2536
716.60 0.2534
716.70 0.2533
716.80 0.2532
716.90 0.253
717.00 0.2529
717.10 0.2527
717.20 0.2526
717.30 0.2525
717.40 0.2523
717.50 0.2522
717.60 0.2521
717.70 0.2519
717.80 0.2518
717.90 0.2517
718.00 0.2515
718.10 0.2514
718.20 0.2513
718.30 0.2511
718.40 0.251
718.50 0.2509
718.60 0.2507
718.70 0.2506
718.80 0.2505
718.90 0.2503
719.00 0.2502
719.10 0.25
719.20 0.2499
719.30 0.2498
719.40 0.2496
719.50 0.2495
719.60 0.2494
719.70 0.2492
719.80 0.2491
719.90 0.249
720.00 0.2488
720.10 0.2487
720.20 0.2486
720.30 0.2484
720.40 0.2483
720.50 0.2482
720.60 0.2481
720.70 0.2479
720.80 0.2478
720.90 0.2477
721.00 0.2475
721.10 0.2474
721.20 0.2473
721.30 0.2471
721.40 0.247
721.50 0.2469
721.60 0.2467
721.70 0.2466
721.80 0.2465
721.90 0.2463
722.00 0.2462
722.10 0.2461
722.20 0.2459
722.30 0.2458
722.40 0.2457
722.50 0.2456
722.60 0.2454
722.70 0.2453
722.80 0.2452
722.90 0.245
723.00 0.2449
723.10 0.2448
723.20 0.2446
723.30 0.2445
723.40 0.2444
723.50 0.2443
723.60 0.2441
723.70 0.244
723.80 0.2439
723.90 0.2437
724.00 0.2436
724.10 0.2435
724.20 0.2433
724.30 0.2432
724.40 0.2431
724.50 0.243
724.60 0.2428
724.70 0.2427
724.80 0.2426
724.90 0.2424
725.00 0.2423
725.10 0.2422
725.20 0.242
725.30 0.2419
725.40 0.2418
725.50 0.2417
725.60 0.2415
725.70 0.2414
725.80 0.2413
725.90 0.2412
726.00 0.241
726.10 0.2409
726.20 0.2408
726.30 0.2406
726.40 0.2405
726.50 0.2404
726.60 0.2403
726.70 0.2401
726.80 0.24
726.90 0.2399
727.00 0.2398
727.10 0.2396
727.20 0.2395
727.30 0.2394
727.40 0.2392
727.50 0.2391
727.60 0.239
727.70 0.2389
727.80 0.2387
727.90 0.2386
728.00 0.2385
728.10 0.2384
728.20 0.2382
728.30 0.2381
728.40 0.238
728.50 0.2379
728.60 0.2377
728.70 0.2376
728.80 0.2375
728.90 0.2374
729.00 0.2372
729.10 0.2371
729.20 0.237
729.30 0.2369
729.40 0.2367
729.50 0.2366
729.60 0.2365
729.70 0.2364
729.80 0.2362
729.90 0.2361
730.00 0.236
730.10 0.2359
730.20 0.2357
730.30 0.2356
730.40 0.2355
730.50 0.2354
730.60 0.2352
730.70 0.2351
730.80 0.235
730.90 0.2349
731.00 0.2347
731.10 0.2346
731.20 0.2345
731.30 0.2344
731.40 0.2343
731.50 0.2341
731.60 0.234
731.70 0.2339
731.80 0.2338
731.90 0.2336
732.00 0.2335
732.10 0.2334
732.20 0.2333
732.30 0.2332
732.40 0.233
732.50 0.2329
732.60 0.2328
732.70 0.2327
732.80 0.2325
732.90 0.2324
733.00 0.2323
733.10 0.2322
733.20 0.2321
733.30 0.2319
733.40 0.2318
733.50 0.2317
733.60 0.2316
733.70 0.2315
733.80 0.2313
733.90 0.2312
734.00 0.2311
734.10 0.231
734.20 0.2308
734.30 0.2307
734.40 0.2306
734.50 0.2305
734.60 0.2304
734.70 0.2302
734.80 0.2301
734.90 0.23
735.00 0.2299
735.10 0.2298
735.20 0.2296
735.30 0.2295
735.40 0.2294
735.50 0.2293
735.60 0.2292
735.70 0.229
735.80 0.2289
735.90 0.2288
736.00 0.2287
736.10 0.2286
736.20 0.2284
736.30 0.2283
736.40 0.2282
736.50 0.2281
736.60 0.228
736.70 0.2278
736.80 0.2277
736.90 0.2276
737.00 0.2275
737.10 0.2274
737.20 0.2272
737.30 0.2271
737.40 0.227
737.50 0.2269
737.60 0.2268
737.70 0.2266
737.80 0.2265
737.90 0.2264
738.00 0.2263
738.10 0.2262
738.20 0.2261
738.30 0.2259
738.40 0.2258
738.50 0.2257
738.60 0.2256
738.70 0.2255
738.80 0.2253
738.90 0.2252
739.00 0.2251
739.10 0.225
739.20 0.2249
739.30 0.2248
739.40 0.2246
739.50 0.2245
739.60 0.2244
739.70 0.2243
739.80 0.2242
739.90 0.224
740.00 0.2239
740.10 0.2238
740.20 0.2237
740.30 0.2236
740.40 0.2235
740.50 0.2234
740.60 0.2232
740.70 0.2231
740.80 0.223
740.90 0.2229
741.00 0.2228
741.10 0.2227
741.20 0.2225
741.30 0.2224
741.40 0.2223
741.50 0.2222
741.60 0.2221
741.70 0.222
741.80 0.2219
741.90 0.2217
742.00 0.2216
742.10 0.2215
742.20 0.2214
742.30 0.2213
742.40 0.2212
742.50 0.2211
742.60 0.2209
742.70 0.2208
742.80 0.2207
742.90 0.2206
743.00 0.2205
743.10 0.2204
743.20 0.2203
743.30 0.2201
743.40 0.22
743.50 0.2199
743.60 0.2198
743.70 0.2197
743.80 0.2196
743.90 0.2195
744.00 0.2194
744.10 0.2192
744.20 0.2191
744.30 0.219
744.40 0.2189
744.50 0.2188
744.60 0.2187
744.70 0.2186
744.80 0.2184
744.90 0.2183
745.00 0.2182
745.10 0.2181
745.20 0.218
745.30 0.2179
745.40 0.2178
745.50 0.2177
745.60 0.2175
745.70 0.2174
745.80 0.2173
745.90 0.2172
746.00 0.2171
746.10 0.217
746.20 0.2169
746.30 0.2168
746.40 0.2166
746.50 0.2165
746.60 0.2164
746.70 0.2163
746.80 0.2162
746.90 0.2161
747.00 0.216
747.10 0.2159
747.20 0.2157
747.30 0.2156
747.40 0.2155
747.50 0.2154
747.60 0.2153
747.70 0.2152
747.80 0.2151
747.90 0.215
748.00 0.2149
748.10 0.2147
748.20 0.2146
748.30 0.2145
748.40 0.2144
748.50 0.2143
748.60 0.2142
748.70 0.2141
748.80 0.214
748.90 0.2139
749.00 0.2137
749.10 0.2136
749.20 0.2135
749.30 0.2134
749.40 0.2133
749.50 0.2132
749.60 0.2131
749.70 0.213
749.80 0.2129
749.90 0.2128
750.00 0.2126
750.10 0.2125
750.20 0.2124
750.30 0.2123
750.40 0.2122
750.50 0.2121
750.60 0.212
750.70 0.2119
750.80 0.2118
750.90 0.2117
751.00 0.2116
751.10 0.2115
751.20 0.2113
751.30 0.2112
751.40 0.2111
751.50 0.211
751.60 0.2109
751.70 0.2108
751.80 0.2107
751.90 0.2106
752.00 0.2105
752.10 0.2104
752.20 0.2103
752.30 0.2102
752.40 0.2101
752.50 0.2099
752.60 0.2098
752.70 0.2097
752.80 0.2096
752.90 0.2095
753.00 0.2094
753.10 0.2093
753.20 0.2092
753.30 0.2091
753.40 0.209
753.50 0.2089
753.60 0.2088
753.70 0.2087
753.80 0.2086
753.90 0.2085
754.00 0.2083
754.10 0.2082
754.20 0.2081
754.30 0.208
754.40 0.2079
754.50 0.2078
754.60 0.2077
754.70 0.2076
754.80 0.2075
754.90 0.2074
755.00 0.2073
755.10 0.2072
755.20 0.2071
755.30 0.207
755.40 0.2069
755.50 0.2068
755.60 0.2067
755.70 0.2065
755.80 0.2064
755.90 0.2063
756.00 0.2062
756.10 0.2061
756.20 0.206
756.30 0.2059
756.40 0.2058
756.50 0.2057
756.60 0.2056
756.70 0.2055
756.80 0.2054
756.90 0.2053
757.00 0.2052
757.10 0.2051
757.20 0.205
757.30 0.2049
757.40 0.2048
757.50 0.2047
757.60 0.2046
757.70 0.2044
757.80 0.2043
757.90 0.2042
758.00 0.2041
758.10 0.204
758.20 0.2039
758.30 0.2038
758.40 0.2037
758.50 0.2036
758.60 0.2035
758.70 0.2034
758.80 0.2033
758.90 0.2032
759.00 0.2031
759.10 0.203
759.20 0.2029
759.30 0.2028
759.40 0.2027
759.50 0.2026
759.60 0.2025
759.70 0.2024
759.80 0.2023
759.90 0.2022
760.00 0.2021
760.10 0.202
760.20 0.2019
760.30 0.2017
760.40 0.2016
760.50 0.2015
760.60 0.2014
760.70 0.2013
760.80 0.2012
760.90 0.2011
761.00 0.201
761.10 0.2009
761.20 0.2008
761.30 0.2007
761.40 0.2006
761.50 0.2005
761.60 0.2004
761.70 0.2003
761.80 0.2002
761.90 0.2001
762.00 0.2
762.10 0.1999
762.20 0.1998
762.30 0.1997
762.40 0.1996
762.50 0.1995
762.60 0.1994
762.70 0.1993
762.80 0.1992
762.90 0.1991
763.00 0.199
763.10 0.1989
763.20 0.1988
763.30 0.1987
763.40 0.1986
763.50 0.1985
763.60 0.1984
763.70 0.1983
763.80 0.1982
763.90 0.1981
764.00 0.198
764.10 0.1979
764.20 0.1978
764.30 0.1977
764.40 0.1976
764.50 0.1975
764.60 0.1974
764.70 0.1973
764.80 0.1972
764.90 0.1971
765.00 0.197
765.10 0.1969
765.20 0.1968
765.30 0.1967
765.40 0.1966
765.50 0.1965
765.60 0.1964
765.70 0.1963
765.80 0.1962
765.90 0.1961
766.00 0.196
766.10 0.1959
766.20 0.1958
766.30 0.1957
766.40 0.1956
766.50 0.1955
766.60 0.1954
766.70 0.1953
766.80 0.1952
766.90 0.1952
767.00 0.1951
767.10 0.195
767.20 0.1949
767.30 0.1948
767.40 0.1947
767.50 0.1946
767.60 0.1945
767.70 0.1944
767.80 0.1943
767.90 0.1942
768.00 0.1941
768.10 0.194
768.20 0.1939
768.30 0.1938
768.40 0.1937
768.50 0.1936
768.60 0.1935
768.70 0.1934
768.80 0.1933
768.90 0.1932
769.00 0.1931
769.10 0.193
769.20 0.1929
769.30 0.1928
769.40 0.1927
769.50 0.1926
769.60 0.1925
769.70 0.1924
769.80 0.1923
769.90 0.1922
770.00 0.1921
770.10 0.192
770.20 0.1919
770.30 0.1918
770.40 0.1917
770.50 0.1916
770.60 0.1915
770.70 0.1915
770.80 0.1914
770.90 0.1913
771.00 0.1912
771.10 0.1911
771.20 0.191
771.30 0.1909
771.40 0.1908
771.50 0.1907
771.60 0.1906
771.70 0.1905
771.80 0.1904
771.90 0.1903
772.00 0.1902
772.10 0.1901
772.20 0.19
772.30 0.1899
772.40 0.1898
772.50 0.1897
772.60 0.1897
772.70 0.1896
772.80 0.1895
772.90 0.1894
773.00 0.1893
773.10 0.1892
773.20 0.1891
773.30 0.189
773.40 0.1889
773.50 0.1888
773.60 0.1887
773.70 0.1886
773.80 0.1885
773.90 0.1884
774.00 0.1883
774.10 0.1882
774.20 0.1881
774.30 0.1881
774.40 0.188
774.50 0.1879
774.60 0.1878
774.70 0.1877
774.80 0.1876
774.90 0.1875
775.00 0.1874
775.10 0.1873
775.20 0.1872
775.30 0.1871
775.40 0.187
775.50 0.1869
775.60 0.1868
775.70 0.1867
775.80 0.1867
775.90 0.1866
776.00 0.1865
776.10 0.1864
776.20 0.1863
776.30 0.1862
776.40 0.1861
776.50 0.186
776.60 0.1859
776.70 0.1858
776.80 0.1857
776.90 0.1856
777.00 0.1855
777.10 0.1855
777.20 0.1854
777.30 0.1853
777.40 0.1852
777.50 0.1851
777.60 0.185
777.70 0.1849
777.80 0.1848
777.90 0.1847
778.00 0.1846
778.10 0.1845
778.20 0.1844
778.30 0.1843
778.40 0.1843
778.50 0.1842
778.60 0.1841
778.70 0.184
778.80 0.1839
778.90 0.1838
779.00 0.1837
779.10 0.1836
779.20 0.1835
779.30 0.1834
779.40 0.1833
779.50 0.1832
779.60 0.1832
779.70 0.1831
779.80 0.183
779.90 0.1829
780.00 0.1828
780.10 0.1827
780.20 0.1826
780.30 0.1825
780.40 0.1824
780.50 0.1823
780.60 0.1823
780.70 0.1822
780.80 0.1821
780.90 0.182
781.00 0.1819
781.10 0.1818
781.20 0.1817
781.30 0.1816
781.40 0.1815
781.50 0.1814
781.60 0.1814
781.70 0.1813
781.80 0.1812
781.90 0.1811
782.00 0.181
782.10 0.1809
782.20 0.1808
782.30 0.1807
782.40 0.1806
782.50 0.1806
782.60 0.1805
782.70 0.1804
782.80 0.1803
782.90 0.1802
783.00 0.1801
783.10 0.18
783.20 0.1799
783.30 0.1799
783.40 0.1798
783.50 0.1797
783.60 0.1796
783.70 0.1795
783.80 0.1794
783.90 0.1793
784.00 0.1792
784.10 0.1791
784.20 0.1791
784.30 0.179
784.40 0.1789
784.50 0.1788
784.60 0.1787
784.70 0.1786
784.80 0.1785
784.90 0.1784
785.00 0.1784
785.10 0.1783
785.20 0.1782
785.30 0.1781
785.40 0.178
785.50 0.1779
785.60 0.1778
785.70 0.1777
785.80 0.1777
785.90 0.1776
786.00 0.1775
786.10 0.1774
786.20 0.1773
786.30 0.1772
786.40 0.1771
786.50 0.177
786.60 0.177
786.70 0.1769
786.80 0.1768
786.90 0.1767
787.00 0.1766
787.10 0.1765
787.20 0.1764
787.30 0.1763
787.40 0.1763
787.50 0.1762
787.60 0.1761
787.70 0.176
787.80 0.1759
787.90 0.1758
788.00 0.1757
788.10 0.1757
788.20 0.1756
788.30 0.1755
788.40 0.1754
788.50 0.1753
788.60 0.1752
788.70 0.1751
788.80 0.175
788.90 0.175
789.00 0.1749
789.10 0.1748
789.20 0.1747
789.30 0.1746
789.40 0.1745
789.50 0.1744
789.60 0.1744
789.70 0.1743
789.80 0.1742
789.90 0.1741
790.00 0.174
790.10 0.1739
790.20 0.1738
790.30 0.1738
790.40 0.1737
790.50 0.1736
790.60 0.1735
790.70 0.1734
790.80 0.1733
790.90 0.1733
791.00 0.1732
791.10 0.1731
791.20 0.173
791.30 0.1729
791.40 0.1728
791.50 0.1728
791.60 0.1727
791.70 0.1726
791.80 0.1725
791.90 0.1724
792.00 0.1723
792.10 0.1723
792.20 0.1722
792.30 0.1721
792.40 0.172
792.50 0.1719
792.60 0.1718
792.70 0.1718
792.80 0.1717
792.90 0.1716
793.00 0.1715
793.10 0.1714
793.20 0.1713
793.30 0.1713
793.40 0.1712
793.50 0.1711
793.60 0.171
793.70 0.1709
793.80 0.1708
793.90 0.1708
794.00 0.1707
794.10 0.1706
794.20 0.1705
794.30 0.1704
794.40 0.1703
794.50 0.1703
794.60 0.1702
794.70 0.1701
794.80 0.17
794.90 0.1699
795.00 0.1698
795.10 0.1698
795.20 0.1697
795.30 0.1696
795.40 0.1695
795.50 0.1694
795.60 0.1694
795.70 0.1693
795.80 0.1692
795.90 0.1691
796.00 0.169
796.10 0.1689
796.20 0.1689
796.30 0.1688
796.40 0.1687
796.50 0.1686
796.60 0.1685
796.70 0.1684
796.80 0.1684
796.90 0.1683
797.00 0.1682
797.10 0.1681
797.20 0.168
797.30 0.168
797.40 0.1679
797.50 0.1678
797.60 0.1677
797.70 0.1676
797.80 0.1676
797.90 0.1675
798.00 0.1674
798.10 0.1673
798.20 0.1672
798.30 0.1671
798.40 0.1671
798.50 0.167
798.60 0.1669
798.70 0.1668
798.80 0.1667
798.90 0.1667
799.00 0.1666
799.10 0.1665
799.20 0.1664
799.30 0.1663
799.40 0.1663
799.50 0.1662
799.60 0.1661
799.70 0.166
799.80 0.1659
799.90 0.1658
800.00 0.1658
800.10 0.1657
800.20 0.1656
800.30 0.1655
800.40 0.1654
800.50 0.1654
800.60 0.1653
800.70 0.1652
800.80 0.1651
800.90 0.1651
801.00 0.165
801.10 0.1649
801.20 0.1648
801.30 0.1647
801.40 0.1647
801.50 0.1646
801.60 0.1645
801.70 0.1644
801.80 0.1643
801.90 0.1643
802.00 0.1642
802.10 0.1641
802.20 0.164
802.30 0.1639
802.40 0.1639
802.50 0.1638
802.60 0.1637
802.70 0.1636
802.80 0.1636
802.90 0.1635
803.00 0.1634
803.10 0.1633
803.20 0.1632
803.30 0.1632
803.40 0.1631
803.50 0.163
803.60 0.1629
803.70 0.1629
803.80 0.1628
803.90 0.1627
804.00 0.1626
804.10 0.1625
804.20 0.1625
804.30 0.1624
804.40 0.1623
804.50 0.1622
804.60 0.1622
804.70 0.1621
804.80 0.162
804.90 0.1619
805.00 0.1618
805.10 0.1618
805.20 0.1617
805.30 0.1616
805.40 0.1615
805.50 0.1615
805.60 0.1614
805.70 0.1613
805.80 0.1612
805.90 0.1611
806.00 0.1611
806.10 0.161
806.20 0.1609
806.30 0.1608
806.40 0.1608
806.50 0.1607
806.60 0.1606
806.70 0.1605
806.80 0.1604
806.90 0.1604
807.00 0.1603
807.10 0.1602
807.20 0.1601
807.30 0.1601
807.40 0.16
807.50 0.1599
807.60 0.1598
807.70 0.1598
807.80 0.1597
807.90 0.1596
808.00 0.1595
808.10 0.1594
808.20 0.1594
808.30 0.1593
808.40 0.1592
808.50 0.1591
808.60 0.1591
808.70 0.159
808.80 0.1589
808.90 0.1588
809.00 0.1588
809.10 0.1587
809.20 0.1586
809.30 0.1585
809.40 0.1585
809.50 0.1584
809.60 0.1583
809.70 0.1582
809.80 0.1582
809.90 0.1581
810.00 0.158
810.10 0.1579
810.20 0.1578
810.30 0.1578
810.40 0.1577
810.50 0.1576
810.60 0.1576
810.70 0.1575
810.80 0.1574
810.90 0.1573
811.00 0.1573
811.10 0.1572
811.20 0.1571
811.30 0.157
811.40 0.157
811.50 0.1569
811.60 0.1568
811.70 0.1567
811.80 0.1567
811.90 0.1566
812.00 0.1565
812.10 0.1564
812.20 0.1564
812.30 0.1563
812.40 0.1562
812.50 0.1561
812.60 0.1561
812.70 0.156
812.80 0.1559
812.90 0.1558
813.00 0.1558
813.10 0.1557
813.20 0.1556
813.30 0.1555
813.40 0.1555
813.50 0.1554
813.60 0.1553
813.70 0.1553
813.80 0.1552
813.90 0.1551
814.00 0.155
814.10 0.155
814.20 0.1549
814.30 0.1548
814.40 0.1547
814.50 0.1547
814.60 0.1546
814.70 0.1545
814.80 0.1544
814.90 0.1544
815.00 0.1543
815.10 0.1542
815.20 0.1542
815.30 0.1541
815.40 0.154
815.50 0.1539
815.60 0.1539
815.70 0.1538
815.80 0.1537
815.90 0.1536
816.00 0.1536
816.10 0.1535
816.20 0.1534
816.30 0.1534
816.40 0.1533
816.50 0.1532
816.60 0.1531
816.70 0.1531
816.80 0.153
816.90 0.1529
817.00 0.1528
817.10 0.1528
817.20 0.1527
817.30 0.1526
817.40 0.1526
817.50 0.1525
817.60 0.1524
817.70 0.1523
817.80 0.1523
817.90 0.1522
818.00 0.1521
818.10 0.152
818.20 0.152
818.30 0.1519
818.40 0.1518
818.50 0.1518
818.60 0.1517
818.70 0.1516
818.80 0.1515
818.90 0.1515
819.00 0.1514
819.10 0.1513
819.20 0.1513
819.30 0.1512
819.40 0.1511
819.50 0.151
819.60 0.151
819.70 0.1509
819.80 0.1508
819.90 0.1508
820.00 0.1507
820.10 0.1506
820.20 0.1505
820.30 0.1505
820.40 0.1504
820.50 0.1503
820.60 0.1503
820.70 0.1502
820.80 0.1501
820.90 0.15
821.00 0.15
821.10 0.1499
821.20 0.1498
821.30 0.1498
821.40 0.1497
821.50 0.1496
821.60 0.1496
821.70 0.1495
821.80 0.1494
821.90 0.1493
822.00 0.1493
822.10 0.1492
822.20 0.1491
822.30 0.1491
822.40 0.149
822.50 0.1489
822.60 0.1489
822.70 0.1488
822.80 0.1487
822.90 0.1486
823.00 0.1486
823.10 0.1485
823.20 0.1484
823.30 0.1484
823.40 0.1483
823.50 0.1482
823.60 0.1482
823.70 0.1481
823.80 0.148
823.90 0.1479
824.00 0.1479
824.10 0.1478
824.20 0.1477
824.30 0.1477
824.40 0.1476
824.50 0.1475
824.60 0.1475
824.70 0.1474
824.80 0.1473
824.90 0.1473
825.00 0.1472
825.10 0.1471
825.20 0.147
825.30 0.147
825.40 0.1469
825.50 0.1468
825.60 0.1468
825.70 0.1467
825.80 0.1466
825.90 0.1466
826.00 0.1465
826.10 0.1464
826.20 0.1464
826.30 0.1463
826.40 0.1462
826.50 0.1462
826.60 0.1461
826.70 0.146
826.80 0.1459
826.90 0.1459
827.00 0.1458
827.10 0.1457
827.20 0.1457
827.30 0.1456
827.40 0.1455
827.50 0.1455
827.60 0.1454
827.70 0.1453
827.80 0.1453
827.90 0.1452
828.00 0.1451
828.10 0.1451
828.20 0.145
828.30 0.1449
828.40 0.1449
828.50 0.1448
828.60 0.1447
828.70 0.1447
828.80 0.1446
828.90 0.1445
829.00 0.1445
829.10 0.1444
829.20 0.1443
829.30 0.1443
829.40 0.1442
829.50 0.1441
829.60 0.1441
829.70 0.144
829.80 0.1439
829.90 0.1439
830.00 0.1438
830.10 0.1437
830.20 0.1437
830.30 0.1436
830.40 0.1435
830.50 0.1435
830.60 0.1434
830.70 0.1433
830.80 0.1433
830.90 0.1432
831.00 0.1431
831.10 0.1431
831.20 0.143
831.30 0.1429
831.40 0.1429
831.50 0.1428
831.60 0.1427
831.70 0.1427
831.80 0.1426
831.90 0.1425
832.00 0.1425
832.10 0.1424
832.20 0.1423
832.30 0.1423
832.40 0.1422
832.50 0.1421
832.60 0.1421
832.70 0.142
832.80 0.1419
832.90 0.1419
833.00 0.1418
833.10 0.1417
833.20 0.1417
833.30 0.1416
833.40 0.1415
833.50 0.1415
833.60 0.1414
833.70 0.1413
833.80 0.1413
833.90 0.1412
834.00 0.1411
834.10 0.1411
834.20 0.141
834.30 0.1409
834.40 0.1409
834.50 0.1408
834.60 0.1407
834.70 0.1407
834.80 0.1406
834.90 0.1405
835.00 0.1405
835.10 0.1404
835.20 0.1403
835.30 0.1403
835.40 0.1402
835.50 0.1401
835.60 0.1401
835.70 0.14
835.80 0.1399
835.90 0.1399
836.00 0.1398
836.10 0.1398
836.20 0.1397
836.30 0.1396
836.40 0.1396
836.50 0.1395
836.60 0.1394
836.70 0.1394
836.80 0.1393
836.90 0.1392
837.00 0.1392
837.10 0.1391
837.20 0.139
837.30 0.139
837.40 0.1389
837.50 0.1388
837.60 0.1388
837.70 0.1387
837.80 0.1387
837.90 0.1386
838.00 0.1385
838.10 0.1385
838.20 0.1384
838.30 0.1383
838.40 0.1383
838.50 0.1382
838.60 0.1381
838.70 0.1381
838.80 0.138
838.90 0.1379
839.00 0.1379
839.10 0.1378
839.20 0.1378
839.30 0.1377
839.40 0.1376
839.50 0.1376
839.60 0.1375
839.70 0.1374
839.80 0.1374
839.90 0.1373
840.00 0.1372
840.10 0.1372
840.20 0.1371
840.30 0.1371
840.40 0.137
840.50 0.1369
840.60 0.1369
840.70 0.1368
840.80 0.1367
840.90 0.1367
841.00 0.1366
841.10 0.1365
841.20 0.1365
841.30 0.1364
841.40 0.1364
841.50 0.1363
841.60 0.1362
841.70 0.1362
841.80 0.1361
841.90 0.136
842.00 0.136
842.10 0.1359
842.20 0.1359
842.30 0.1358
842.40 0.1357
842.50 0.1357
842.60 0.1356
842.70 0.1355
842.80 0.1355
842.90 0.1354
843.00 0.1354
843.10 0.1353
843.20 0.1352
843.30 0.1352
843.40 0.1351
843.50 0.135
843.60 0.135
843.70 0.1349
843.80 0.1349
843.90 0.1348
844.00 0.1347
844.10 0.1347
844.20 0.1346
844.30 0.1345
844.40 0.1345
844.50 0.1344
844.60 0.1344
844.70 0.1343
844.80 0.1342
844.90 0.1342
845.00 0.1341
845.10 0.1341
845.20 0.134
845.30 0.1339
845.40 0.1339
845.50 0.1338
845.60 0.1337
845.70 0.1337
845.80 0.1336
845.90 0.1336
846.00 0.1335
846.10 0.1334
846.20 0.1334
846.30 0.1333
846.40 0.1332
846.50 0.1332
846.60 0.1331
846.70 0.1331
846.80 0.133
846.90 0.1329
847.00 0.1329
847.10 0.1328
847.20 0.1328
847.30 0.1327
847.40 0.1326
847.50 0.1326
847.60 0.1325
847.70 0.1325
847.80 0.1324
847.90 0.1323
848.00 0.1323
848.10 0.1322
848.20 0.1322
848.30 0.1321
848.40 0.132
848.50 0.132
848.60 0.1319
848.70 0.1319
848.80 0.1318
848.90 0.1317
849.00 0.1317
849.10 0.1316
849.20 0.1316
849.30 0.1315
849.40 0.1314
849.50 0.1314
849.60 0.1313
849.70 0.1312
849.80 0.1312
849.90 0.1311
850.00 0.1311
850.10 0.131
850.20 0.1309
850.30 0.1309
850.40 0.1308
850.50 0.1308
850.60 0.1307
850.70 0.1306
850.80 0.1306
850.90 0.1305
851.00 0.1305
851.10 0.1304
851.20 0.1304
851.30 0.1303
851.40 0.1302
851.50 0.1302
851.60 0.1301
851.70 0.1301
851.80 0.13
851.90 0.1299
852.00 0.1299
852.10 0.1298
852.20 0.1298
852.30 0.1297
852.40 0.1296
852.50 0.1296
852.60 0.1295
852.70 0.1295
852.80 0.1294
852.90 0.1293
853.00 0.1293
853.10 0.1292
853.20 0.1292
853.30 0.1291
853.40 0.129
853.50 0.129
853.60 0.1289
853.70 0.1289
853.80 0.1288
853.90 0.1288
854.00 0.1287
854.10 0.1286
854.20 0.1286
854.30 0.1285
854.40 0.1285
854.50 0.1284
854.60 0.1283
854.70 0.1283
854.80 0.1282
854.90 0.1282
855.00 0.1281
855.10 0.1281
855.20 0.128
855.30 0.1279
855.40 0.1279
855.50 0.1278
855.60 0.1278
855.70 0.1277
855.80 0.1276
855.90 0.1276
856.00 0.1275
856.10 0.1275
856.20 0.1274
856.30 0.1274
856.40 0.1273
856.50 0.1272
856.60 0.1272
856.70 0.1271
856.80 0.1271
856.90 0.127
857.00 0.127
857.10 0.1269
857.20 0.1268
857.30 0.1268
857.40 0.1267
857.50 0.1267
857.60 0.1266
857.70 0.1266
857.80 0.1265
857.90 0.1264
858.00 0.1264
858.10 0.1263
858.20 0.1263
858.30 0.1262
858.40 0.1262
858.50 0.1261
858.60 0.126
858.70 0.126
858.80 0.1259
858.90 0.1259
859.00 0.1258
859.10 0.1258
859.20 0.1257
859.30 0.1256
859.40 0.1256
859.50 0.1255
859.60 0.1255
859.70 0.1254
859.80 0.1254
859.90 0.1253
860.00 0.1252
860.10 0.1252
860.20 0.1251
860.30 0.1251
860.40 0.125
860.50 0.125
860.60 0.1249
860.70 0.1249
860.80 0.1248
860.90 0.1247
861.00 0.1247
861.10 0.1246
861.20 0.1246
861.30 0.1245
861.40 0.1245
861.50 0.1244
861.60 0.1243
861.70 0.1243
861.80 0.1242
861.90 0.1242
862.00 0.1241
862.10 0.1241
862.20 0.124
862.30 0.124
862.40 0.1239
862.50 0.1238
862.60 0.1238
862.70 0.1237
862.80 0.1237
862.90 0.1236
863.00 0.1236
863.10 0.1235
863.20 0.1235
863.30 0.1234
863.40 0.1233
863.50 0.1233
863.60 0.1232
863.70 0.1232
863.80 0.1231
863.90 0.1231
864.00 0.123
864.10 0.123
864.20 0.1229
864.30 0.1228
864.40 0.1228
864.50 0.1227
864.60 0.1227
864.70 0.1226
864.80 0.1226
864.90 0.1225
865.00 0.1225
865.10 0.1224
865.20 0.1224
865.30 0.1223
865.40 0.1222
865.50 0.1222
865.60 0.1221
865.70 0.1221
865.80 0.122
865.90 0.122
866.00 0.1219
866.10 0.1219
866.20 0.1218
866.30 0.1217
866.40 0.1217
866.50 0.1216
866.60 0.1216
866.70 0.1215
866.80 0.1215
866.90 0.1214
867.00 0.1214
867.10 0.1213
867.20 0.1213
867.30 0.1212
867.40 0.1212
867.50 0.1211
867.60 0.121
867.70 0.121
867.80 0.1209
867.90 0.1209
868.00 0.1208
868.10 0.1208
868.20 0.1207
868.30 0.1207
868.40 0.1206
868.50 0.1206
868.60 0.1205
868.70 0.1205
868.80 0.1204
868.90 0.1203
869.00 0.1203
869.10 0.1202
869.20 0.1202
869.30 0.1201
869.40 0.1201
869.50 0.12
869.60 0.12
869.70 0.1199
869.80 0.1199
869.90 0.1198
870.00 0.1198
870.10 0.1197
870.20 0.1196
870.30 0.1196
870.40 0.1195
870.50 0.1195
870.60 0.1194
870.70 0.1194
870.80 0.1193
870.90 0.1193
871.00 0.1192
871.10 0.1192
871.20 0.1191
871.30 0.1191
871.40 0.119
871.50 0.119
871.60 0.1189
871.70 0.1189
871.80 0.1188
871.90 0.1187
872.00 0.1187
872.10 0.1186
872.20 0.1186
872.30 0.1185
872.40 0.1185
872.50 0.1184
872.60 0.1184
872.70 0.1183
872.80 0.1183
872.90 0.1182
873.00 0.1182
873.10 0.1181
873.20 0.1181
873.30 0.118
873.40 0.118
873.50 0.1179
873.60 0.1179
873.70 0.1178
873.80 0.1178
873.90 0.1177
874.00 0.1176
874.10 0.1176
874.20 0.1175
874.30 0.1175
874.40 0.1174
874.50 0.1174
874.60 0.1173
874.70 0.1173
874.80 0.1172
874.90 0.1172
875.00 0.1171
875.10 0.1171
875.20 0.117
875.30 0.117
875.40 0.1169
875.50 0.1169
875.60 0.1168
875.70 0.1168
875.80 0.1167
875.90 0.1167
876.00 0.1166
876.10 0.1166
876.20 0.1165
876.30 0.1165
876.40 0.1164
876.50 0.1164
876.60 0.1163
876.70 0.1163
876.80 0.1162
876.90 0.1161
877.00 0.1161
877.10 0.116
877.20 0.116
877.30 0.1159
877.40 0.1159
877.50 0.1158
877.60 0.1158
877.70 0.1157
877.80 0.1157
877.90 0.1156
878.00 0.1156
878.10 0.1155
878.20 0.1155
878.30 0.1154
878.40 0.1154
878.50 0.1153
878.60 0.1153
878.70 0.1152
878.80 0.1152
878.90 0.1151
879.00 0.1151
879.10 0.115
879.20 0.115
879.30 0.1149
879.40 0.1149
879.50 0.1148
879.60 0.1148
879.70 0.1147
879.80 0.1147
879.90 0.1146
880.00 0.1146
880.10 0.1145
880.20 0.1145
880.30 0.1144
880.40 0.1144
880.50 0.1143
880.60 0.1143
880.70 0.1142
880.80 0.1142
880.90 0.1141
881.00 0.1141
881.10 0.114
881.20 0.114
881.30 0.1139
881.40 0.1139
881.50 0.1138
881.60 0.1138
881.70 0.1137
881.80 0.1137
881.90 0.1136
882.00 0.1136
882.10 0.1135
882.20 0.1135
882.30 0.1134
882.40 0.1134
882.50 0.1133
882.60 0.1133
882.70 0.1132
882.80 0.1132
882.90 0.1131
883.00 0.1131
883.10 0.113
883.20 0.113
883.30 0.1129
883.40 0.1129
883.50 0.1128
883.60 0.1128
883.70 0.1127
883.80 0.1127
883.90 0.1126
884.00 0.1126
884.10 0.1125
884.20 0.1125
884.30 0.1124
884.40 0.1124
884.50 0.1124
884.60 0.1123
884.70 0.1123
884.80 0.1122
884.90 0.1122
885.00 0.1121
885.10 0.1121
885.20 0.112
885.30 0.112
885.40 0.1119
885.50 0.1119
885.60 0.1118
885.70 0.1118
885.80 0.1117
885.90 0.1117
886.00 0.1116
886.10 0.1116
886.20 0.1115
886.30 0.1115
886.40 0.1114
886.50 0.1114
886.60 0.1113
886.70 0.1113
886.80 0.1112
886.90 0.1112
887.00 0.1111
887.10 0.1111
887.20 0.111
887.30 0.111
887.40 0.1109
887.50 0.1109
887.60 0.1108
887.70 0.1108
887.80 0.1108
887.90 0.1107
888.00 0.1107
888.10 0.1106
888.20 0.1106
888.30 0.1105
888.40 0.1105
888.50 0.1104
888.60 0.1104
888.70 0.1103
888.80 0.1103
888.90 0.1102
889.00 0.1102
889.10 0.1101
889.20 0.1101
889.30 0.11
889.40 0.11
889.50 0.1099
889.60 0.1099
889.70 0.1098
889.80 0.1098
889.90 0.1098
890.00 0.1097
890.10 0.1097
890.20 0.1096
890.30 0.1096
890.40 0.1095
890.50 0.1095
890.60 0.1094
890.70 0.1094
890.80 0.1093
890.90 0.1093
891.00 0.1092
891.10 0.1092
891.20 0.1091
891.30 0.1091
891.40 0.109
891.50 0.109
891.60 0.1089
891.70 0.1089
891.80 0.1089
891.90 0.1088
892.00 0.1088
892.10 0.1087
892.20 0.1087
892.30 0.1086
892.40 0.1086
892.50 0.1085
892.60 0.1085
892.70 0.1084
892.80 0.1084
892.90 0.1083
893.00 0.1083
893.10 0.1082
893.20 0.1082
893.30 0.1082
893.40 0.1081
893.50 0.1081
893.60 0.108
893.70 0.108
893.80 0.1079
893.90 0.1079
894.00 0.1078
894.10 0.1078
894.20 0.1077
894.30 0.1077
894.40 0.1076
894.50 0.1076
894.60 0.1075
894.70 0.1075
894.80 0.1075
894.90 0.1074
895.00 0.1074
895.10 0.1073
895.20 0.1073
895.30 0.1072
895.40 0.1072
895.50 0.1071
895.60 0.1071
895.70 0.107
895.80 0.107
895.90 0.1069
896.00 0.1069
896.10 0.1069
896.20 0.1068
896.30 0.1068
896.40 0.1067
896.50 0.1067
896.60 0.1066
896.70 0.1066
896.80 0.1065
896.90 0.1065
897.00 0.1064
897.10 0.1064
897.20 0.1063
897.30 0.1063
897.40 0.1063
897.50 0.1062
897.60 0.1062
897.70 0.1061
897.80 0.1061
897.90 0.106
898.00 0.106
898.10 0.1059
898.20 0.1059
898.30 0.1058
898.40 0.1058
898.50 0.1058
898.60 0.1057
898.70 0.1057
898.80 0.1056
898.90 0.1056
899.00 0.1055
899.10 0.1055
899.20 0.1054
899.30 0.1054
899.40 0.1054
899.50 0.1053
899.60 0.1053
899.70 0.1052
899.80 0.1052
899.90 0.1051
900.00 0.1051
900.10 0.105
900.20 0.105
900.30 0.1049
900.40 0.1049
900.50 0.1049
900.60 0.1048
900.70 0.1048
900.80 0.1047
900.90 0.1047
901.00 0.1046
901.10 0.1046
901.20 0.1045
901.30 0.1045
901.40 0.1045
901.50 0.1044
901.60 0.1044
901.70 0.1043
901.80 0.1043
901.90 0.1042
902.00 0.1042
902.10 0.1041
902.20 0.1041
902.30 0.1041
902.40 0.104
902.50 0.104
902.60 0.1039
902.70 0.1039
902.80 0.1038
902.90 0.1038
903.00 0.1038
903.10 0.1037
903.20 0.1037
903.30 0.1036
903.40 0.1036
903.50 0.1035
903.60 0.1035
903.70 0.1034
903.80 0.1034
903.90 0.1034
904.00 0.1033
904.10 0.1033
904.20 0.1032
904.30 0.1032
904.40 0.1031
904.50 0.1031
904.60 0.1031
904.70 0.103
904.80 0.103
904.90 0.1029
905.00 0.1029
905.10 0.1028
905.20 0.1028
905.30 0.1028
905.40 0.1027
905.50 0.1027
905.60 0.1026
905.70 0.1026
905.80 0.1025
905.90 0.1025
906.00 0.1025
906.10 0.1024
906.20 0.1024
906.30 0.1023
906.40 0.1023
906.50 0.1022
906.60 0.1022
906.70 0.1022
906.80 0.1021
906.90 0.1021
907.00 0.102
907.10 0.102
907.20 0.1019
907.30 0.1019
907.40 0.1019
907.50 0.1018
907.60 0.1018
907.70 0.1017
907.80 0.1017
907.90 0.1016
908.00 0.1016
908.10 0.1016
908.20 0.1015
908.30 0.1015
908.40 0.1014
908.50 0.1014
908.60 0.1013
908.70 0.1013
908.80 0.1013
908.90 0.1012
909.00 0.1012
909.10 0.1011
909.20 0.1011
909.30 0.101
909.40 0.101
909.50 0.101
909.60 0.1009
909.70 0.1009
909.80 0.1008
909.90 0.1008
910.00 0.1007
910.10 0.1007
910.20 0.1007
910.30 0.1006
910.40 0.1006
910.50 0.1005
910.60 0.1005
910.70 0.1004
910.80 0.1004
910.90 0.1004
911.00 0.1003
911.10 0.1003
911.20 0.1002
911.30 0.1002
911.40 0.1001
911.50 0.1001
911.60 0.1001
911.70 0.1
911.80 0.09998
911.90 0.09993
912.00 0.09989
912.10 0.09985
912.20 0.09981
912.30 0.09976
912.40 0.09972
912.50 0.09968
912.60 0.09963
912.70 0.09959
912.80 0.09955
912.90 0.0995
913.00 0.09946
913.10 0.09942
913.20 0.09937
913.30 0.09933
913.40 0.09929
913.50 0.09925
913.60 0.0992
913.70 0.09916
913.80 0.09912
913.90 0.09907
914.00 0.09903
914.10 0.09899
914.20 0.09894
914.30 0.0989
914.40 0.09886
914.50 0.09882
914.60 0.09877
914.70 0.09873
914.80 0.09869
914.90 0.09864
915.00 0.0986
915.10 0.09856
915.20 0.09852
915.30 0.09847
915.40 0.09843
915.50 0.09839
915.60 0.09835
915.70 0.0983
915.80 0.09826
915.90 0.09822
916.00 0.09817
916.10 0.09813
916.20 0.09809
916.30 0.09805
916.40 0.098
916.50 0.09796
916.60 0.09792
916.70 0.09788
916.80 0.09783
916.90 0.09779
917.00 0.09775
917.10 0.09771
917.20 0.09767
917.30 0.09762
917.40 0.09758
917.50 0.09754
917.60 0.0975
917.70 0.09745
917.80 0.09741
917.90 0.09737
918.00 0.09733
918.10 0.09729
918.20 0.09724
918.30 0.0972
918.40 0.09716
918.50 0.09712
918.60 0.09708
918.70 0.09703
918.80 0.09699
918.90 0.09695
919.00 0.09691
919.10 0.09687
919.20 0.09682
919.30 0.09678
919.40 0.09674
919.50 0.0967
919.60 0.09666
919.70 0.09661
919.80 0.09657
919.90 0.09653
920.00 0.09649
920.10 0.09645
920.20 0.09641
920.30 0.09636
920.40 0.09632
920.50 0.09628
920.60 0.09624
920.70 0.0962
920.80 0.09616
920.90 0.09611
921.00 0.09607
921.10 0.09603
921.20 0.09599
921.30 0.09595
921.40 0.09591
921.50 0.09586
921.60 0.09582
921.70 0.09578
921.80 0.09574
921.90 0.0957
922.00 0.09566
922.10 0.09562
922.20 0.09558
922.30 0.09554
922.40 0.09551
922.50 0.09547
922.60 0.09543
922.70 0.09539
922.80 0.09535
922.90 0.09531
923.00 0.09528
923.10 0.09524
923.20 0.0952
923.30 0.09516
923.40 0.09513
923.50 0.09509
923.60 0.09505
923.70 0.09501
923.80 0.09497
923.90 0.09494
924.00 0.0949
924.10 0.09486
924.20 0.09482
924.30 0.09478
924.40 0.09475
924.50 0.09471
924.60 0.09467
924.70 0.09463
924.80 0.0946
924.90 0.09456
925.00 0.09452
925.10 0.09448
925.20 0.09444
925.30 0.09441
925.40 0.09437
925.50 0.09433
925.60 0.09429
925.70 0.09426
925.80 0.09422
925.90 0.09418
926.00 0.09414
926.10 0.09411
926.20 0.09407
926.30 0.09403
926.40 0.09399
926.50 0.09396
926.60 0.09392
926.70 0.09388
926.80 0.09384
926.90 0.09381
927.00 0.09377
927.10 0.09373
927.20 0.0937
927.30 0.09366
927.40 0.09362
927.50 0.09359
927.60 0.09355
927.70 0.09351
927.80 0.09348
927.90 0.09344
928.00 0.09341
928.10 0.09337
928.20 0.09333
928.30 0.0933
928.40 0.09326
928.50 0.09322
928.60 0.09319
928.70 0.09315
928.80 0.09312
928.90 0.09308
929.00 0.09304
929.10 0.09301
929.20 0.09297
929.30 0.09294
929.40 0.0929
929.50 0.09286
929.60 0.09283
929.70 0.09279
929.80 0.09276
929.90 0.09272
930.00 0.09268
930.10 0.09265
930.20 0.09261
930.30 0.09258
930.40 0.09254
930.50 0.0925
930.60 0.09247
930.70 0.09243
930.80 0.0924
930.90 0.09236
931.00 0.09233
931.10 0.09229
931.20 0.09225
931.30 0.09222
931.40 0.09218
931.50 0.09215
931.60 0.09211
931.70 0.09208
931.80 0.09204
931.90 0.092
932.00 0.09197
932.10 0.09193
932.20 0.09189
932.30 0.09186
932.40 0.09182
932.50 0.09178
932.60 0.09175
932.70 0.09171
932.80 0.09167
932.90 0.09164
933.00 0.0916
933.10 0.09156
933.20 0.09153
933.30 0.09149
933.40 0.09146
933.50 0.09142
933.60 0.09138
933.70 0.09135
933.80 0.09131
933.90 0.09127
934.00 0.09124
934.10 0.0912
934.20 0.09116
934.30 0.09113
934.40 0.09109
934.50 0.09105
934.60 0.09101
934.70 0.09098
934.80 0.09094
934.90 0.0909
935.00 0.09087
935.10 0.09083
935.20 0.09079
935.30 0.09075
935.40 0.09072
935.50 0.09068
935.60 0.09064
935.70 0.09061
935.80 0.09057
935.90 0.09053
936.00 0.09049
936.10 0.09046
936.20 0.09042
936.30 0.09038
936.40 0.09035
936.50 0.09031
936.60 0.09027
936.70 0.09023
936.80 0.0902
936.90 0.09016
937.00 0.09012
937.10 0.09009
937.20 0.09005
937.30 0.09001
937.40 0.08997
937.50 0.08993
937.60 0.0899
937.70 0.08986
937.80 0.08982
937.90 0.08978
938.00 0.08975
938.10 0.08971
938.20 0.08967
938.30 0.08963
938.40 0.08959
938.50 0.08956
938.60 0.08952
938.70 0.08948
938.80 0.08944
938.90 0.0894
939.00 0.08936
939.10 0.08933
939.20 0.08929
939.30 0.08925
939.40 0.08921
939.50 0.08917
939.60 0.08914
939.70 0.0891
939.80 0.08906
939.90 0.08902
940.00 0.08898
940.10 0.08894
940.20 0.08891
940.30 0.08887
940.40 0.08883
940.50 0.08879
940.60 0.08875
940.70 0.08871
940.80 0.08867
940.90 0.08864
941.00 0.0886
941.10 0.08856
941.20 0.08852
941.30 0.08848
941.40 0.08844
941.50 0.0884
941.60 0.08836
941.70 0.08832
941.80 0.08829
941.90 0.08825
942.00 0.08821
942.10 0.08817
942.20 0.08813
942.30 0.08809
942.40 0.08805
942.50 0.08801
942.60 0.08797
942.70 0.08793
942.80 0.08789
942.90 0.08785
943.00 0.08781
943.10 0.08777
943.20 0.08773
943.30 0.0877
943.40 0.08766
943.50 0.08762
943.60 0.08758
943.70 0.08754
943.80 0.0875
943.90 0.08746
944.00 0.08742
944.10 0.08738
944.20 0.08734
944.30 0.0873
944.40 0.08726
944.50 0.08722
944.60 0.08718
944.70 0.08714
944.80 0.0871
944.90 0.08706
945.00 0.08702
945.10 0.08698
945.20 0.08694
945.30 0.0869
945.40 0.08686
945.50 0.08682
945.60 0.08678
945.70 0.08674
945.80 0.0867
945.90 0.08666
946.00 0.08662
946.10 0.08658
946.20 0.08654
946.30 0.08649
946.40 0.08645
946.50 0.08641
946.60 0.08637
946.70 0.08633
946.80 0.08629
946.90 0.08625
947.00 0.08621
947.10 0.08617
947.20 0.08613
947.30 0.08609
947.40 0.08605
947.50 0.08601
947.60 0.08597
947.70 0.08592
947.80 0.08588
947.90 0.08584
948.00 0.0858
948.10 0.08576
948.20 0.08572
948.30 0.08568
948.40 0.08564
948.50 0.0856
948.60 0.08556
948.70 0.08551
948.80 0.08547
948.90 0.08543
949.00 0.08539
949.10 0.08535
949.20 0.08531
949.30 0.08527
949.40 0.08523
949.50 0.08519
949.60 0.08515
949.70 0.0851
949.80 0.08506
949.90 0.08502
950.00 0.08498
950.10 0.08494
950.20 0.0849
950.30 0.08486
950.40 0.08482
950.50 0.08478
950.60 0.08474
950.70 0.08469
950.80 0.08465
950.90 0.08461
951.00 0.08457
951.10 0.08453
951.20 0.08449
951.30 0.08445
951.40 0.08441
951.50 0.08437
951.60 0.08433
951.70 0.08429
951.80 0.08425
951.90 0.08421
952.00 0.08417
952.10 0.08413
952.20 0.08409
952.30 0.08405
952.40 0.08401
952.50 0.08397
952.60 0.08393
952.70 0.08389
952.80 0.08385
952.90 0.08381
953.00 0.08377
953.10 0.08374
953.20 0.0837
953.30 0.08366
953.40 0.08362
953.50 0.08358
953.60 0.08355
953.70 0.08351
953.80 0.08348
953.90 0.08344
954.00 0.0834
954.10 0.08337
954.20 0.08334
954.30 0.0833
954.40 0.08327
954.50 0.08324
954.60 0.08321
954.70 0.08317
954.80 0.08314
954.90 0.08311
955.00 0.08307
955.10 0.08304
955.20 0.08301
955.30 0.08298
955.40 0.08295
955.50 0.08292
955.60 0.08289
955.70 0.08286
955.80 0.08283
955.90 0.0828
956.00 0.08277
956.10 0.08275
956.20 0.08272
956.30 0.08269
956.40 0.08266
956.50 0.08264
956.60 0.08261
956.70 0.08258
956.80 0.08256
956.90 0.08253
957.00 0.0825
957.10 0.08247
957.20 0.08245
957.30 0.08242
957.40 0.0824
957.50 0.08237
957.60 0.08234
957.70 0.08232
957.80 0.08229
957.90 0.08227
958.00 0.08224
958.10 0.08222
958.20 0.08219
958.30 0.08216
958.40 0.08214
958.50 0.08211
958.60 0.08209
958.70 0.08206
958.80 0.08204
958.90 0.08201
959.00 0.08199
959.10 0.08196
959.20 0.08193
959.30 0.08191
959.40 0.08188
959.50 0.08186
959.60 0.08183
959.70 0.08181
959.80 0.08178
959.90 0.08175
960.00 0.08173
960.10 0.0817
960.20 0.08168
960.30 0.08165
960.40 0.08163
960.50 0.0816
960.60 0.08157
960.70 0.08155
960.80 0.08152
960.90 0.0815
961.00 0.08147
961.10 0.08145
961.20 0.08142
961.30 0.0814
961.40 0.08137
961.50 0.08134
961.60 0.08132
961.70 0.08129
961.80 0.08127
961.90 0.08124
962.00 0.08121
962.10 0.08119
962.20 0.08116
962.30 0.08113
962.40 0.08111
962.50 0.08108
962.60 0.08106
962.70 0.08103
962.80 0.081
962.90 0.08098
963.00 0.08095
963.10 0.08092
963.20 0.0809
963.30 0.08087
963.40 0.08084
963.50 0.08082
963.60 0.08079
963.70 0.08076
963.80 0.08074
963.90 0.08071
964.00 0.08068
964.10 0.08066
964.20 0.08063
964.30 0.0806
964.40 0.08058
964.50 0.08055
964.60 0.08052
964.70 0.08049
964.80 0.08047
964.90 0.08044
965.00 0.08041
965.10 0.08038
965.20 0.08036
965.30 0.08033
965.40 0.0803
965.50 0.08027
965.60 0.08025
965.70 0.08022
965.80 0.08019
965.90 0.08016
966.00 0.08014
966.10 0.08011
966.20 0.08008
966.30 0.08006
966.40 0.08003
966.50 0.08
966.60 0.07997
966.70 0.07994
966.80 0.07992
966.90 0.07989
967.00 0.07986
967.10 0.07983
967.20 0.0798
967.30 0.07978
967.40 0.07975
967.50 0.07972
967.60 0.07969
967.70 0.07966
967.80 0.07963
967.90 0.07961
968.00 0.07958
968.10 0.07955
968.20 0.07952
968.30 0.07949
968.40 0.07947
968.50 0.07944
968.60 0.07941
968.70 0.07938
968.80 0.07935
968.90 0.07932
969.00 0.07929
969.10 0.07926
969.20 0.07924
969.30 0.07921
969.40 0.07918
969.50 0.07915
969.60 0.07912
969.70 0.07909
969.80 0.07906
969.90 0.07904
970.00 0.07901
970.10 0.07898
970.20 0.07895
970.30 0.07892
970.40 0.07889
970.50 0.07886
970.60 0.07883
970.70 0.0788
970.80 0.07877
970.90 0.07875
971.00 0.07872
971.10 0.07869
971.20 0.07866
971.30 0.07863
971.40 0.0786
971.50 0.07857
971.60 0.07854
971.70 0.07851
971.80 0.07848
971.90 0.07845
972.00 0.07843
972.10 0.0784
972.20 0.07837
972.30 0.07834
972.40 0.07831
972.50 0.07828
972.60 0.07825
972.70 0.07822
972.80 0.07819
972.90 0.07816
973.00 0.07813
973.10 0.0781
973.20 0.07807
973.30 0.07804
973.40 0.07801
973.50 0.07798
973.60 0.07795
973.70 0.07792
973.80 0.07789
973.90 0.07786
974.00 0.07783
974.10 0.0778
974.20 0.07778
974.30 0.07775
974.40 0.07772
974.50 0.07769
974.60 0.07766
974.70 0.07763
974.80 0.0776
974.90 0.07757
975.00 0.07753
975.10 0.0775
975.20 0.07747
975.30 0.07744
975.40 0.07741
975.50 0.07738
975.60 0.07735
975.70 0.07732
975.80 0.07729
975.90 0.07726
976.00 0.07723
976.10 0.0772
976.20 0.07717
976.30 0.07715
976.40 0.07712
976.50 0.07709
976.60 0.07706
976.70 0.07703
976.80 0.077
976.90 0.07697
977.00 0.07694
977.10 0.0769
977.20 0.07687
977.30 0.07684
977.40 0.07681
977.50 0.07678
977.60 0.07675
977.70 0.07672
977.80 0.07669
977.90 0.07666
978.00 0.07663
978.10 0.0766
978.20 0.07657
978.30 0.07653
978.40 0.0765
978.50 0.07647
978.60 0.07644
978.70 0.07641
978.80 0.07638
978.90 0.07635
979.00 0.07632
979.10 0.07629
979.20 0.07626
979.30 0.07623
979.40 0.0762
979.50 0.07617
979.60 0.07614
979.70 0.07611
979.80 0.07607
979.90 0.07604
980.00 0.07601
980.10 0.07598
980.20 0.07595
980.30 0.07592
980.40 0.07589
980.50 0.07586
980.60 0.07583
980.70 0.0758
980.80 0.07577
980.90 0.07574
981.00 0.07571
981.10 0.07568
981.20 0.07565
981.30 0.07562
981.40 0.07559
981.50 0.07556
981.60 0.07553
981.70 0.07549
981.80 0.07546
981.90 0.07543
982.00 0.0754
982.10 0.07537
982.20 0.07534
982.30 0.07531
982.40 0.07528
982.50 0.07525
982.60 0.07521
982.70 0.07518
982.80 0.07515
982.90 0.07512
983.00 0.07509
983.10 0.07506
983.20 0.07503
983.30 0.07499
983.40 0.07496
983.50 0.07493
983.60 0.0749
983.70 0.07487
983.80 0.07484
983.90 0.07481
984.00 0.07478
984.10 0.07474
984.20 0.07471
984.30 0.07468
984.40 0.07465
984.50 0.07462
984.60 0.07459
984.70 0.07456
984.80 0.07452
984.90 0.07449
985.00 0.07446
985.10 0.07443
985.20 0.0744
985.30 0.07436
985.40 0.07433
985.50 0.0743
985.60 0.07427
985.70 0.07423
985.80 0.0742
985.90 0.07417
986.00 0.07414
986.10 0.07411
986.20 0.07407
986.30 0.07404
986.40 0.07401
986.50 0.07398
986.60 0.07395
986.70 0.07391
986.80 0.07388
986.90 0.07385
987.00 0.07382
987.10 0.07379
987.20 0.07375
987.30 0.07372
987.40 0.07369
987.50 0.07366
987.60 0.07362
987.70 0.07359
987.80 0.07356
987.90 0.07352
988.00 0.07349
988.10 0.07346
988.20 0.07343
988.30 0.07339
988.40 0.07336
988.50 0.07333
988.60 0.0733
988.70 0.07326
988.80 0.07323
988.90 0.07319
989.00 0.07316
989.10 0.07313
989.20 0.07309
989.30 0.07306
989.40 0.07303
989.50 0.07299
989.60 0.07296
989.70 0.07293
989.80 0.07289
989.90 0.07286
990.00 0.07283
990.10 0.07279
990.20 0.07276
990.30 0.07272
990.40 0.07269
990.50 0.07266
990.60 0.07262
990.70 0.07259
990.80 0.07256
990.90 0.07252
991.00 0.07249
991.10 0.07245
991.20 0.07242
991.30 0.07238
991.40 0.07235
991.50 0.07231
991.60 0.07228
991.70 0.07224
991.80 0.07221
991.90 0.07218
992.00 0.07214
992.10 0.07211
992.20 0.07207
992.30 0.07204
992.40 0.072
992.50 0.07197
992.60 0.07193
992.70 0.07189
992.80 0.07186
992.90 0.07182
993.00 0.07179
993.10 0.07175
993.20 0.07171
993.30 0.07168
993.40 0.07164
993.50 0.0716
993.60 0.07157
993.70 0.07153
993.80 0.0715
993.90 0.07146
994.00 0.07142
994.10 0.07139
994.20 0.07135
994.30 0.07132
994.40 0.07128
994.50 0.07124
994.60 0.07121
994.70 0.07117
994.80 0.07113
994.90 0.0711
995.00 0.07106
995.10 0.07102
995.20 0.07098
995.30 0.07095
995.40 0.07091
995.50 0.07087
995.60 0.07083
995.70 0.0708
995.80 0.07076
995.90 0.07072
996.00 0.07068
996.10 0.07064
996.20 0.0706
996.30 0.07056
996.40 0.07052
996.50 0.07049
996.60 0.07045
996.70 0.07041
996.80 0.07037
996.90 0.07033
997.00 0.07029
997.10 0.07025
997.20 0.07021
997.30 0.07017
997.40 0.07013
997.50 0.0701
997.60 0.07006
997.70 0.07002
997.80 0.06997
997.90 0.06993
998.00 0.06989
998.10 0.06985
998.20 0.06981
998.30 0.06977
998.40 0.06973
998.50 0.06969
998.60 0.06965
998.70 0.0696
998.80 0.06956
998.90 0.06952
999.00 0.06948
999.10 0.06944
999.20 0.0694
999.30 0.06936
999.40 0.06932
999.50 0.06928
999.60 0.06924
999.70 0.06919
999.80 0.06915
999.90 0.06911
1000.00 0.06906
1000.10 0.06902
1000.20 0.06898
1000.30 0.06893
1000.40 0.06889
1000.50 0.06885
1000.60 0.06881
1000.70 0.06876
1000.80 0.06872
1000.90 0.06868
1001.00 0.06863
1001.10 0.06859
1001.20 0.06855
1001.30 0.0685
1001.40 0.06846
1001.50 0.06842
1001.60 0.06838
1001.70 0.06833
1001.80 0.06829
1001.90 0.06825
1002.00 0.06821
1002.10 0.06817
1002.20 0.06813
1002.30 0.06809
1002.40 0.06805
1002.50 0.06801
1002.60 0.06797
1002.70 0.06793
1002.80 0.06789
1002.90 0.06785
1003.00 0.06781
1003.10 0.06777
1003.20 0.06774
1003.30 0.06771
1003.40 0.06768
1003.50 0.06764
1003.60 0.06761
1003.70 0.06758
1003.80 0.06755
1003.90 0.06752
1004.00 0.0675
1004.10 0.06748
1004.20 0.06746
1004.30 0.06744
1004.40 0.06743
1004.50 0.06742
1004.60 0.06741
1004.70 0.0674
1004.80 0.06739
1004.90 0.06737
1005.00 0.06735
1005.10 0.06731
1005.20 0.06727
1005.30 0.06722
1005.40 0.06718
1005.50 0.06715
1005.60 0.06712
1005.70 0.06709
1005.80 0.06706
1005.90 0.06702
1006.00 0.06699
1006.10 0.06696
1006.20 0.06694
1006.30 0.06693
1006.40 0.06691
1006.50 0.06689
1006.60 0.06688
1006.70 0.06686
1006.80 0.06684
1006.90 0.06683
1007.00 0.06681
1007.10 0.0668
1007.20 0.06678
1007.30 0.06677
1007.40 0.06676
1007.50 0.06675
1007.60 0.06674
1007.70 0.06673
1007.80 0.06672
1007.90 0.06671
1008.00 0.0667
1008.10 0.06669
1008.20 0.06668
1008.30 0.06667
1008.40 0.06666
1008.50 0.06665
1008.60 0.06664
1008.70 0.06663
1008.80 0.06662
1008.90 0.06661
1009.00 0.0666
1009.10 0.06659
1009.20 0.06658
1009.30 0.06657
1009.40 0.06656
1009.50 0.06655
1009.60 0.06654
1009.70 0.06653
1009.80 0.06652
1009.90 0.06651
1010.00 0.0665
1010.10 0.06649
1010.20 0.06648
1010.30 0.06647
1010.40 0.06646
1010.50 0.06644
1010.60 0.06643
1010.70 0.06642
1010.80 0.06641
1010.90 0.0664
1011.00 0.06639
1011.10 0.06638
1011.20 0.06637
1011.30 0.06636
1011.40 0.06635
1011.50 0.06633
1011.60 0.06632
1011.70 0.06631
1011.80 0.0663
1011.90 0.06629
1012.00 0.06627
1012.10 0.06626
1012.20 0.06625
1012.30 0.06623
1012.40 0.06622
1012.50 0.06621
1012.60 0.06619
1012.70 0.06618
1012.80 0.06616
1012.90 0.06615
1013.00 0.06614
1013.10 0.06612
1013.20 0.06611
1013.30 0.0661
1013.40 0.06608
1013.50 0.06607
1013.60 0.06605
1013.70 0.06604
1013.80 0.06602
1013.90 0.06601
1014.00 0.06599
1014.10 0.06598
1014.20 0.06596
1014.30 0.06595
1014.40 0.06593
1014.50 0.06592
1014.60 0.0659
1014.70 0.06589
1014.80 0.06587
1014.90 0.06585
1015.00 0.06584
1015.10 0.06582
1015.20 0.0658
1015.30 0.06579
1015.40 0.06577
1015.50 0.06575
1015.60 0.06574
1015.70 0.06572
1015.80 0.0657
1015.90 0.06569
1016.00 0.06567
1016.10 0.06565
1016.20 0.06563
1016.30 0.06562
1016.40 0.0656
1016.50 0.06558
1016.60 0.06557
1016.70 0.06555
1016.80 0.06553
1016.90 0.06552
1017.00 0.0655
1017.10 0.06548
1017.20 0.06546
1017.30 0.06544
1017.40 0.06542
1017.50 0.0654
1017.60 0.06539
1017.70 0.06537
1017.80 0.06535
1017.90 0.06533
1018.00 0.06531
1018.10 0.06529
1018.20 0.06527
1018.30 0.06526
1018.40 0.06524
1018.50 0.06522
1018.60 0.0652
1018.70 0.06518
1018.80 0.06516
1018.90 0.06514
1019.00 0.06512
1019.10 0.0651
1019.20 0.06508
1019.30 0.06506
1019.40 0.06504
1019.50 0.06502
1019.60 0.065
1019.70 0.06498
1019.80 0.06496
1019.90 0.06494
1020.00 0.06492
1020.10 0.0649
1020.20 0.06489
1020.30 0.06487
1020.40 0.06485
1020.50 0.06483
1020.60 0.06481
1020.70 0.06479
1020.80 0.06477
1020.90 0.06475
1021.00 0.06472
1021.10 0.0647
1021.20 0.06468
1021.30 0.06466
1021.40 0.06464
1021.50 0.06462
1021.60 0.0646
1021.70 0.06458
1021.80 0.06456
1021.90 0.06454
1022.00 0.06452
1022.10 0.0645
1022.20 0.06448
1022.30 0.06446
1022.40 0.06443
1022.50 0.06441
1022.60 0.06439
1022.70 0.06437
1022.80 0.06435
1022.90 0.06433
1023.00 0.06431
1023.10 0.06429
1023.20 0.06426
1023.30 0.06424
1023.40 0.06422
1023.50 0.0642
1023.60 0.06418
1023.70 0.06416
1023.80 0.06414
1023.90 0.06412
1024.00 0.06409
1024.10 0.06407
1024.20 0.06405
1024.30 0.06403
1024.40 0.06401
1024.50 0.06399
1024.60 0.06397
1024.70 0.06395
1024.80 0.06392
1024.90 0.0639
1025.00 0.06388
1025.10 0.06386
1025.20 0.06384
1025.30 0.06381
1025.40 0.06379
1025.50 0.06377
1025.60 0.06375
1025.70 0.06373
1025.80 0.06371
1025.90 0.06368
1026.00 0.06366
1026.10 0.06364
1026.20 0.06362
1026.30 0.0636
1026.40 0.06357
1026.50 0.06355
1026.60 0.06353
1026.70 0.06351
1026.80 0.06349
1026.90 0.06347
1027.00 0.06344
1027.10 0.06342
1027.20 0.0634
1027.30 0.06338
1027.40 0.06335
1027.50 0.06333
1027.60 0.06331
1027.70 0.06329
1027.80 0.06326
1027.90 0.06324
1028.00 0.06322
1028.10 0.0632
1028.20 0.06317
1028.30 0.06315
1028.40 0.06313
1028.50 0.06311
1028.60 0.06309
1028.70 0.06306
1028.80 0.06304
1028.90 0.06302
1029.00 0.063
1029.10 0.06297
1029.20 0.06295
1029.30 0.06293
1029.40 0.06291
1029.50 0.06288
1029.60 0.06286
1029.70 0.06284
1029.80 0.06282
1029.90 0.0628
1030.00 0.06277
1030.10 0.06275
1030.20 0.06273
1030.30 0.06271
1030.40 0.06268
1030.50 0.06266
1030.60 0.06264
1030.70 0.06262
1030.80 0.0626
1030.90 0.06257
1031.00 0.06255
1031.10 0.06253
1031.20 0.06251
1031.30 0.06248
1031.40 0.06246
1031.50 0.06244
1031.60 0.06242
1031.70 0.0624
1031.80 0.06237
1031.90 0.06235
1032.00 0.06233
1032.10 0.06231
1032.20 0.06228
1032.30 0.06226
1032.40 0.06224
1032.50 0.06222
1032.60 0.06219
1032.70 0.06217
1032.80 0.06215
1032.90 0.06213
1033.00 0.0621
1033.10 0.06208
1033.20 0.06206
1033.30 0.06204
1033.40 0.06201
1033.50 0.06199
1033.60 0.06197
1033.70 0.06195
1033.80 0.06192
1033.90 0.0619
1034.00 0.06188
1034.10 0.06186
1034.20 0.06183
1034.30 0.06181
1034.40 0.06179
1034.50 0.06177
1034.60 0.06174
1034.70 0.06172
1034.80 0.0617
1034.90 0.06168
1035.00 0.06165
1035.10 0.06163
1035.20 0.06161
1035.30 0.06159
1035.40 0.06156
1035.50 0.06154
1035.60 0.06152
1035.70 0.0615
1035.80 0.06148
1035.90 0.06145
1036.00 0.06143
1036.10 0.06141
1036.20 0.06139
1036.30 0.06136
1036.40 0.06134
1036.50 0.06132
1036.60 0.0613
1036.70 0.06127
1036.80 0.06125
1036.90 0.06123
1037.00 0.06121
1037.10 0.06119
1037.20 0.06116
1037.30 0.06114
1037.40 0.06112
1037.50 0.0611
1037.60 0.06107
1037.70 0.06105
1037.80 0.06103
1037.90 0.06101
1038.00 0.06098
1038.10 0.06096
1038.20 0.06094
1038.30 0.06092
1038.40 0.06089
1038.50 0.06087
1038.60 0.06085
1038.70 0.06083
1038.80 0.0608
1038.90 0.06078
1039.00 0.06076
1039.10 0.06074
1039.20 0.06071
1039.30 0.06069
1039.40 0.06067
1039.50 0.06065
1039.60 0.06063
1039.70 0.0606
1039.80 0.06058
1039.90 0.06056
1040.00 0.06054
1040.10 0.06051
1040.20 0.06049
1040.30 0.06047
1040.40 0.06045
1040.50 0.06042
1040.60 0.0604
1040.70 0.06038
1040.80 0.06036
1040.90 0.06034
1041.00 0.06031
1041.10 0.06029
1041.20 0.06027
1041.30 0.06025
1041.40 0.06022
1041.50 0.0602
1041.60 0.06018
1041.70 0.06016
1041.80 0.06014
1041.90 0.06011
1042.00 0.06009
1042.10 0.06007
1042.20 0.06005
1042.30 0.06003
1042.40 0.06
1042.50 0.05998
1042.60 0.05996
1042.70 0.05994
1042.80 0.05991
1042.90 0.05989
1043.00 0.05987
1043.10 0.05985
1043.20 0.05983
1043.30 0.0598
1043.40 0.05978
1043.50 0.05976
1043.60 0.05974
1043.70 0.05971
1043.80 0.05969
1043.90 0.05967
1044.00 0.05965
1044.10 0.05963
1044.20 0.0596
1044.30 0.05958
1044.40 0.05956
1044.50 0.05954
1044.60 0.05952
1044.70 0.05949
1044.80 0.05947
1044.90 0.05945
1045.00 0.05943
1045.10 0.05941
1045.20 0.05938
1045.30 0.05936
1045.40 0.05934
1045.50 0.05932
1045.60 0.0593
1045.70 0.05927
1045.80 0.05925
1045.90 0.05923
1046.00 0.05921
1046.10 0.05919
1046.20 0.05916
1046.30 0.05914
1046.40 0.05912
1046.50 0.0591
1046.60 0.05908
1046.70 0.05905
1046.80 0.05903
1046.90 0.05901
1047.00 0.05899
1047.10 0.05897
1047.20 0.05894
1047.30 0.05892
1047.40 0.0589
1047.50 0.05888
1047.60 0.05886
1047.70 0.05884
1047.80 0.05881
1047.90 0.05879
1048.00 0.05877
1048.10 0.05875
1048.20 0.05873
1048.30 0.0587
1048.40 0.05868
1048.50 0.05866
1048.60 0.05864
1048.70 0.05862
1048.80 0.05859
1048.90 0.05857
1049.00 0.05855
1049.10 0.05853
1049.20 0.05851
1049.30 0.05849
1049.40 0.05846
1049.50 0.05844
1049.60 0.05842
1049.70 0.0584
1049.80 0.05838
1049.90 0.05836
1050.00 0.05833
1050.10 0.05831
1050.20 0.05829
1050.30 0.05827
1050.40 0.05825
1050.50 0.05822
1050.60 0.0582
1050.70 0.05818
1050.80 0.05816
1050.90 0.05814
1051.00 0.05812
1051.10 0.05809
1051.20 0.05807
1051.30 0.05805
1051.40 0.05803
1051.50 0.05801
1051.60 0.05799
1051.70 0.05797
1051.80 0.05794
1051.90 0.05792
1052.00 0.0579
1052.10 0.05788
1052.20 0.05786
1052.30 0.05784
1052.40 0.05781
1052.50 0.05779
1052.60 0.05777
1052.70 0.05775
1052.80 0.05773
1052.90 0.05771
1053.00 0.05768
1053.10 0.05766
1053.20 0.05764
1053.30 0.05762
1053.40 0.0576
1053.50 0.05758
1053.60 0.05755
1053.70 0.05753
1053.80 0.05751
1053.90 0.05749
1054.00 0.05747
1054.10 0.05745
1054.20 0.05743
1054.30 0.0574
1054.40 0.05738
1054.50 0.05736
1054.60 0.05734
1054.70 0.05732
1054.80 0.0573
1054.90 0.05728
1055.00 0.05725
1055.10 0.05723
1055.20 0.05721
1055.30 0.05719
1055.40 0.05717
1055.50 0.05715
1055.60 0.05713
1055.70 0.0571
1055.80 0.05708
1055.90 0.05706
1056.00 0.05704
1056.10 0.05702
1056.20 0.057
1056.30 0.05698
1056.40 0.05695
1056.50 0.05693
1056.60 0.05691
1056.70 0.05689
1056.80 0.05687
1056.90 0.05685
1057.00 0.05683
1057.10 0.0568
1057.20 0.05678
1057.30 0.05676
1057.40 0.05674
1057.50 0.05672
1057.60 0.0567
1057.70 0.05668
1057.80 0.05665
1057.90 0.05663
1058.00 0.05661
1058.10 0.05659
1058.20 0.05657
1058.30 0.05655
1058.40 0.05653
1058.50 0.05651
1058.60 0.05648
1058.70 0.05646
1058.80 0.05644
1058.90 0.05642
1059.00 0.0564
1059.10 0.05638
1059.20 0.05636
1059.30 0.05633
1059.40 0.05631
1059.50 0.05629
1059.60 0.05627
1059.70 0.05625
1059.80 0.05623
1059.90 0.05621
1060.00 0.05619
1060.10 0.05616
1060.20 0.05614
1060.30 0.05612
1060.40 0.0561
1060.50 0.05608
1060.60 0.05606
1060.70 0.05604
1060.80 0.05602
1060.90 0.056
1061.00 0.05597
1061.10 0.05595
1061.20 0.05593
1061.30 0.05591
1061.40 0.05589
1061.50 0.05587
1061.60 0.05585
1061.70 0.05583
1061.80 0.0558
1061.90 0.05578
1062.00 0.05576
1062.10 0.05574
1062.20 0.05572
1062.30 0.0557
1062.40 0.05568
1062.50 0.05566
1062.60 0.05563
1062.70 0.05561
1062.80 0.05559
1062.90 0.05557
1063.00 0.05555
1063.10 0.05553
1063.20 0.05551
1063.30 0.05549
1063.40 0.05546
1063.50 0.05544
1063.60 0.05542
1063.70 0.0554
1063.80 0.05538
1063.90 0.05536
1064.00 0.05534
1064.10 0.05532
1064.20 0.05529
1064.30 0.05527
1064.40 0.05525
1064.50 0.05523
1064.60 0.05521
1064.70 0.05519
1064.80 0.05517
1064.90 0.05515
1065.00 0.05512
1065.10 0.0551
1065.20 0.05508
1065.30 0.05506
1065.40 0.05504
1065.50 0.05502
1065.60 0.055
1065.70 0.05498
1065.80 0.05495
1065.90 0.05493
1066.00 0.05491
1066.10 0.05489
1066.20 0.05487
1066.30 0.05485
1066.40 0.05483
1066.50 0.05481
1066.60 0.05479
1066.70 0.05477
1066.80 0.05474
1066.90 0.05472
1067.00 0.0547
1067.10 0.05468
1067.20 0.05466
1067.30 0.05464
1067.40 0.05462
1067.50 0.05459
1067.60 0.05457
1067.70 0.05455
1067.80 0.05453
1067.90 0.05451
1068.00 0.05449
1068.10 0.05446
1068.20 0.05444
1068.30 0.05442
1068.40 0.0544
1068.50 0.05438
1068.60 0.05436
1068.70 0.05433
1068.80 0.05431
1068.90 0.05429
1069.00 0.05427
1069.10 0.05425
1069.20 0.05423
1069.30 0.0542
1069.40 0.05418
1069.50 0.05416
1069.60 0.05414
1069.70 0.05412
1069.80 0.0541
1069.90 0.05408
1070.00 0.05405
1070.10 0.05403
1070.20 0.05401
1070.30 0.05399
1070.40 0.05397
1070.50 0.05395
1070.60 0.05393
1070.70 0.0539
1070.80 0.05388
1070.90 0.05386
1071.00 0.05384
1071.10 0.05382
1071.20 0.0538
1071.30 0.05378
1071.40 0.05375
1071.50 0.05373
1071.60 0.05371
1071.70 0.05369
1071.80 0.05367
1071.90 0.05365
1072.00 0.05363
1072.10 0.0536
1072.20 0.05358
1072.30 0.05356
1072.40 0.05354
1072.50 0.05352
1072.60 0.05349
1072.70 0.05347
1072.80 0.05345
1072.90 0.05343
1073.00 0.05341
1073.10 0.05338
1073.20 0.05336
1073.30 0.05334
1073.40 0.05332
1073.50 0.0533
1073.60 0.05327
1073.70 0.05325
1073.80 0.05323
1073.90 0.0532
1074.00 0.05318
1074.10 0.05316
1074.20 0.05314
1074.30 0.05311
1074.40 0.05309
1074.50 0.05307
1074.60 0.05304
1074.70 0.05302
1074.80 0.053
1074.90 0.05298
1075.00 0.05295
1075.10 0.05293
1075.20 0.05291
1075.30 0.05288
1075.40 0.05286
1075.50 0.05284
1075.60 0.05282
1075.70 0.05279
1075.80 0.05277
1075.90 0.05275
1076.00 0.05273
1076.10 0.0527
1076.20 0.05268
1076.30 0.05266
1076.40 0.05264
1076.50 0.05261
1076.60 0.05259
1076.70 0.05257
1076.80 0.05254
1076.90 0.05252
1077.00 0.0525
1077.10 0.05248
1077.20 0.05245
1077.30 0.05243
1077.40 0.05241
1077.50 0.05238
1077.60 0.05236
1077.70 0.05233
1077.80 0.05231
1077.90 0.05228
1078.00 0.05226
1078.10 0.05224
1078.20 0.05221
1078.30 0.05219
1078.40 0.05216
1078.50 0.05214
1078.60 0.05211
1078.70 0.05209
1078.80 0.05207
1078.90 0.05204
1079.00 0.05202
1079.10 0.05199
1079.20 0.05197
1079.30 0.05194
1079.40 0.05192
1079.50 0.0519
1079.60 0.05187
1079.70 0.05184
1079.80 0.05182
1079.90 0.05179
1080.00 0.05177
1080.10 0.05174
1080.20 0.05172
1080.30 0.05169
1080.40 0.05166
1080.50 0.05164
1080.60 0.05161
1080.70 0.05159
1080.80 0.05156
1080.90 0.05154
1081.00 0.05151
1081.10 0.05148
1081.20 0.05146
1081.30 0.05143
1081.40 0.05141
1081.50 0.05138
1081.60 0.05136
1081.70 0.05133
1081.80 0.0513
1081.90 0.05127
1082.00 0.05125
1082.10 0.05122
1082.20 0.05119
1082.30 0.05116
1082.40 0.05114
1082.50 0.05111
1082.60 0.05108
1082.70 0.05105
1082.80 0.05102
1082.90 0.051
1083.00 0.05097
1083.10 0.05094
1083.20 0.05091
1083.30 0.05088
1083.40 0.05086
1083.50 0.05083
1083.60 0.0508
1083.70 0.05077
1083.80 0.05074
1083.90 0.05071
1084.00 0.05068
1084.10 0.05065
1084.20 0.05062
1084.30 0.05059
1084.40 0.05056
1084.50 0.05053
1084.60 0.0505
1084.70 0.05047
1084.80 0.05044
1084.90 0.05041
1085.00 0.05037
1085.10 0.05034
1085.20 0.05031
1085.30 0.05028
1085.40 0.05025
1085.50 0.05021
1085.60 0.05018
1085.70 0.05015
1085.80 0.05012
1085.90 0.05009
1086.00 0.05006
1086.10 0.05002
1086.20 0.04999
1086.30 0.04996
1086.40 0.04993
1086.50 0.0499
1086.60 0.04986
1086.70 0.04983
1086.80 0.0498
1086.90 0.04976
1087.00 0.04973
1087.10 0.04969
1087.20 0.04966
1087.30 0.04962
1087.40 0.04959
1087.50 0.04955
1087.60 0.04952
1087.70 0.04948
1087.80 0.04945
1087.90 0.04941
1088.00 0.04938
1088.10 0.04934
1088.20 0.04931
1088.30 0.04927
1088.40 0.04924
1088.50 0.0492
1088.60 0.04916
1088.70 0.04913
1088.80 0.04909
1088.90 0.04905
1089.00 0.04901
1089.10 0.04898
1089.20 0.04894
1089.30 0.0489
1089.40 0.04887
1089.50 0.04883
1089.60 0.04879
1089.70 0.04875
1089.80 0.04872
1089.90 0.04868
1090.00 0.04864
1090.10 0.04861
1090.20 0.04857
1090.30 0.04853
1090.40 0.04849
1090.50 0.04846
1090.60 0.04842
1090.70 0.04838
1090.80 0.04835
1090.90 0.04831
1091.00 0.04827
1091.10 0.04824
1091.20 0.0482
1091.30 0.04816
1091.40 0.04813
1091.50 0.04809
1091.60 0.04805
1091.70 0.04802
1091.80 0.04798
1091.90 0.04795
1092.00 0.04791
1092.10 0.04787
1092.20 0.04784
1092.30 0.0478
1092.40 0.04777
1092.50 0.04773
1092.60 0.0477
1092.70 0.04766
1092.80 0.04763
1092.90 0.04759
1093.00 0.04756
1093.10 0.04752
1093.20 0.04748
1093.30 0.04745
1093.40 0.04741
1093.50 0.04738
1093.60 0.04736
1093.70 0.04735
1093.80 0.04734
1093.90 0.04734
1094.00 0.04732
1094.10 0.04731
1094.20 0.04729
1094.30 0.04728
1094.40 0.04729
1094.50 0.04729
1094.60 0.04729
1094.70 0.0473
1094.80 0.0473
1094.90 0.0473
1095.00 0.0473
1095.10 0.04731
1095.20 0.04731
1095.30 0.04731
1095.40 0.04731
1095.50 0.04732
1095.60 0.04732
1095.70 0.04732
1095.80 0.04732
1095.90 0.04732
1096.00 0.04733
1096.10 0.04733
1096.20 0.04733
1096.30 0.04733
1096.40 0.04734
1096.50 0.04734
1096.60 0.04734
1096.70 0.04735
1096.80 0.04735
1096.90 0.04735
1097.00 0.04736
1097.10 0.04736
1097.20 0.04736
1097.30 0.04737
1097.40 0.04737
1097.50 0.04737
1097.60 0.04738
1097.70 0.04738
1097.80 0.04738
1097.90 0.04739
1098.00 0.04739
1098.10 0.04739
1098.20 0.0474
1098.30 0.0474
1098.40 0.0474
1098.50 0.0474
1098.60 0.04741
1098.70 0.04741
1098.80 0.04741
1098.90 0.04741
1099.00 0.04741
1099.10 0.04741
1099.20 0.04741
1099.30 0.04741
1099.40 0.04741
1099.50 0.04741
1099.60 0.04742
1099.70 0.04742
1099.80 0.04742
1099.90 0.04742
1100.00 0.04742
1100.10 0.04742
1100.20 0.04742
1100.30 0.04742
1100.40 0.04742
1100.50 0.04742
1100.60 0.04742
1100.70 0.04742
1100.80 0.04742
1100.90 0.04742
1101.00 0.04741
1101.10 0.04741
1101.20 0.04741
1101.30 0.04741
1101.40 0.04741
1101.50 0.0474
1101.60 0.0474
1101.70 0.0474
1101.80 0.0474
1101.90 0.04739
1102.00 0.04739
1102.10 0.04739
1102.20 0.04739
1102.30 0.04738
1102.40 0.04738
1102.50 0.04737
1102.60 0.04737
1102.70 0.04736
1102.80 0.04736
1102.90 0.04735
1103.00 0.04735
1103.10 0.04734
1103.20 0.04734
1103.30 0.04733
1103.40 0.04733
1103.50 0.04732
1103.60 0.04731
1103.70 0.04731
1103.80 0.0473
1103.90 0.04729
1104.00 0.04729
1104.10 0.04728
1104.20 0.04727
1104.30 0.04726
1104.40 0.04726
1104.50 0.04725
1104.60 0.04724
1104.70 0.04723
1104.80 0.04723
1104.90 0.04722
1105.00 0.04721
1105.10 0.04721
1105.20 0.0472
1105.30 0.04719
1105.40 0.04718
1105.50 0.04718
1105.60 0.04717
1105.70 0.04716
1105.80 0.04715
1105.90 0.04714
1106.00 0.04713
1106.10 0.04712
1106.20 0.04711
1106.30 0.0471
1106.40 0.04709
1106.50 0.04708
1106.60 0.04707
1106.70 0.04706
1106.80 0.04705
1106.90 0.04705
1107.00 0.04704
1107.10 0.04703
1107.20 0.04702
1107.30 0.047
1107.40 0.04699
1107.50 0.04698
1107.60 0.04697
1107.70 0.04696
1107.80 0.04695
1107.90 0.04694
1108.00 0.04693
1108.10 0.04692
1108.20 0.0469
1108.30 0.04689
1108.40 0.04688
1108.50 0.04687
1108.60 0.04686
1108.70 0.04685
1108.80 0.04684
1108.90 0.04683
1109.00 0.04681
1109.10 0.0468
1109.20 0.04679
1109.30 0.04678
1109.40 0.04677
1109.50 0.04676
1109.60 0.04675
1109.70 0.04673
1109.80 0.04672
1109.90 0.04671
1110.00 0.0467
1110.10 0.04668
1110.20 0.04667
1110.30 0.04666
1110.40 0.04664
1110.50 0.04663
1110.60 0.04662
1110.70 0.04661
1110.80 0.04659
1110.90 0.04658
1111.00 0.04657
1111.10 0.04656
1111.20 0.04654
1111.30 0.04653
1111.40 0.04652
1111.50 0.04651
1111.60 0.04649
1111.70 0.04648
1111.80 0.04647
1111.90 0.04646
1112.00 0.04644
1112.10 0.04643
1112.20 0.04642
1112.30 0.0464
1112.40 0.04639
1112.50 0.04638
1112.60 0.04636
1112.70 0.04635
1112.80 0.04634
1112.90 0.04632
1113.00 0.04631
1113.10 0.0463
1113.20 0.04628
1113.30 0.04627
1113.40 0.04626
1113.50 0.04624
1113.60 0.04623
1113.70 0.04621
1113.80 0.0462
1113.90 0.04619
1114.00 0.04617
1114.10 0.04616
1114.20 0.04614
1114.30 0.04613
1114.40 0.04612
1114.50 0.0461
1114.60 0.04609
1114.70 0.04607
1114.80 0.04606
1114.90 0.04604
1115.00 0.04603
1115.10 0.04602
1115.20 0.046
1115.30 0.04599
1115.40 0.04597
1115.50 0.04596
1115.60 0.04595
1115.70 0.04593
1115.80 0.04592
1115.90 0.0459
1116.00 0.04589
1116.10 0.04588
1116.20 0.04586
1116.30 0.04585
1116.40 0.04583
1116.50 0.04582
1116.60 0.04581
1116.70 0.04579
1116.80 0.04578
1116.90 0.04576
1117.00 0.04575
1117.10 0.04574
1117.20 0.04572
1117.30 0.04571
1117.40 0.04569
1117.50 0.04568
1117.60 0.04566
1117.70 0.04565
1117.80 0.04563
1117.90 0.04562
1118.00 0.0456
1118.10 0.04559
1118.20 0.04557
1118.30 0.04556
1118.40 0.04554
1118.50 0.04553
1118.60 0.04551
1118.70 0.0455
1118.80 0.04549
1118.90 0.04547
1119.00 0.04546
1119.10 0.04544
1119.20 0.04543
1119.30 0.04541
1119.40 0.0454
1119.50 0.04538
1119.60 0.04537
1119.70 0.04535
1119.80 0.04534
1119.90 0.04532
1120.00 0.04531
1120.10 0.0453
1120.20 0.04528
1120.30 0.04527
1120.40 0.04525
1120.50 0.04524
1120.60 0.04522
1120.70 0.04521
1120.80 0.04519
1120.90 0.04518
1121.00 0.04516
1121.10 0.04515
1121.20 0.04513
1121.30 0.04512
1121.40 0.04511
1121.50 0.04509
1121.60 0.04508
1121.70 0.04506
1121.80 0.04505
1121.90 0.04503
1122.00 0.04502
1122.10 0.045
1122.20 0.04499
1122.30 0.04497
1122.40 0.04496
1122.50 0.04494
1122.60 0.04493
1122.70 0.04491
1122.80 0.0449
1122.90 0.04488
1123.00 0.04487
1123.10 0.04485
1123.20 0.04484
1123.30 0.04482
1123.40 0.04481
1123.50 0.04479
1123.60 0.04478
1123.70 0.04476
1123.80 0.04475
1123.90 0.04474
1124.00 0.04472
1124.10 0.04471
1124.20 0.04469
1124.30 0.04468
1124.40 0.04466
1124.50 0.04465
1124.60 0.04463
1124.70 0.04462
1124.80 0.0446
1124.90 0.04459
1125.00 0.04457
1125.10 0.04456
1125.20 0.04454
1125.30 0.04453
1125.40 0.04451
1125.50 0.0445
1125.60 0.04448
1125.70 0.04447
1125.80 0.04445
1125.90 0.04444
1126.00 0.04442
1126.10 0.04441
1126.20 0.04439
1126.30 0.04438
1126.40 0.04436
1126.50 0.04435
1126.60 0.04434
1126.70 0.04432
1126.80 0.04431
1126.90 0.04429
1127.00 0.04428
1127.10 0.04426
1127.20 0.04425
1127.30 0.04423
1127.40 0.04422
1127.50 0.0442
1127.60 0.04419
1127.70 0.04417
1127.80 0.04416
1127.90 0.04414
1128.00 0.04413
1128.10 0.04411
1128.20 0.0441
1128.30 0.04408
1128.40 0.04407
1128.50 0.04405
1128.60 0.04404
1128.70 0.04402
1128.80 0.04401
1128.90 0.04399
1129.00 0.04398
1129.10 0.04396
1129.20 0.04395
1129.30 0.04393
1129.40 0.04392
1129.50 0.04391
1129.60 0.04389
1129.70 0.04388
1129.80 0.04386
1129.90 0.04385
1130.00 0.04383
1130.10 0.04382
1130.20 0.0438
1130.30 0.04379
1130.40 0.04377
1130.50 0.04376
1130.60 0.04374
1130.70 0.04373
1130.80 0.04371
1130.90 0.0437
1131.00 0.04368
1131.10 0.04367
1131.20 0.04365
1131.30 0.04364
1131.40 0.04363
1131.50 0.04361
1131.60 0.0436
1131.70 0.04358
1131.80 0.04357
1131.90 0.04355
1132.00 0.04354
1132.10 0.04352
1132.20 0.04351
1132.30 0.04349
1132.40 0.04348
1132.50 0.04346
1132.60 0.04345
1132.70 0.04343
1132.80 0.04342
1132.90 0.0434
1133.00 0.04339
1133.10 0.04338
1133.20 0.04336
1133.30 0.04335
1133.40 0.04333
1133.50 0.04332
1133.60 0.0433
1133.70 0.04329
1133.80 0.04327
1133.90 0.04326
1134.00 0.04324
1134.10 0.04323
1134.20 0.04321
1134.30 0.0432
1134.40 0.04318
1134.50 0.04317
1134.60 0.04316
1134.70 0.04314
1134.80 0.04313
1134.90 0.04311
1135.00 0.0431
1135.10 0.04308
1135.20 0.04307
1135.30 0.04305
1135.40 0.04304
1135.50 0.04302
1135.60 0.04301
1135.70 0.04299
1135.80 0.04298
1135.90 0.04297
1136.00 0.04295
1136.10 0.04294
1136.20 0.04292
1136.30 0.04291
1136.40 0.04289
1136.50 0.04288
1136.60 0.04286
1136.70 0.04285
1136.80 0.04283
1136.90 0.04282
1137.00 0.04281
1137.10 0.04279
1137.20 0.04278
1137.30 0.04276
1137.40 0.04275
1137.50 0.04273
1137.60 0.04272
1137.70 0.0427
1137.80 0.04269
1137.90 0.04268
1138.00 0.04266
1138.10 0.04265
1138.20 0.04263
1138.30 0.04262
1138.40 0.0426
1138.50 0.04259
1138.60 0.04257
1138.70 0.04256
1138.80 0.04255
1138.90 0.04253
1139.00 0.04252
1139.10 0.0425
1139.20 0.04249
1139.30 0.04247
1139.40 0.04246
1139.50 0.04244
1139.60 0.04243
1139.70 0.04242
1139.80 0.0424
1139.90 0.04239
1140.00 0.04237
1140.10 0.04236
1140.20 0.04234
1140.30 0.04233
1140.40 0.04232
1140.50 0.0423
1140.60 0.04229
1140.70 0.04227
1140.80 0.04226
1140.90 0.04224
1141.00 0.04223
1141.10 0.04221
1141.20 0.0422
1141.30 0.04219
1141.40 0.04217
1141.50 0.04216
1141.60 0.04214
1141.70 0.04213
1141.80 0.04211
1141.90 0.0421
1142.00 0.04209
1142.10 0.04207
1142.20 0.04206
1142.30 0.04204
1142.40 0.04203
1142.50 0.04201
1142.60 0.042
1142.70 0.04199
1142.80 0.04197
1142.90 0.04196
1143.00 0.04194
1143.10 0.04193
1143.20 0.04192
1143.30 0.0419
1143.40 0.04189
1143.50 0.04187
1143.60 0.04186
1143.70 0.04184
1143.80 0.04183
1143.90 0.04182
1144.00 0.0418
1144.10 0.04179
1144.20 0.04177
1144.30 0.04176
1144.40 0.04175
1144.50 0.04173
1144.60 0.04172
1144.70 0.0417
1144.80 0.04169
1144.90 0.04167
1145.00 0.04166
1145.10 0.04165
1145.20 0.04163
1145.30 0.04162
1145.40 0.0416
1145.50 0.04159
1145.60 0.04158
1145.70 0.04156
1145.80 0.04155
1145.90 0.04153
1146.00 0.04152
1146.10 0.04151
1146.20 0.04149
1146.30 0.04148
1146.40 0.04146
1146.50 0.04145
1146.60 0.04144
1146.70 0.04142
1146.80 0.04141
1146.90 0.04139
1147.00 0.04138
1147.10 0.04137
1147.20 0.04135
1147.30 0.04134
1147.40 0.04132
1147.50 0.04131
1147.60 0.0413
1147.70 0.04128
1147.80 0.04127
1147.90 0.04125
1148.00 0.04124
1148.10 0.04123
1148.20 0.04121
1148.30 0.0412
1148.40 0.04118
1148.50 0.04117
1148.60 0.04116
1148.70 0.04114
1148.80 0.04113
1148.90 0.04111
1149.00 0.0411
1149.10 0.04109
1149.20 0.04107
1149.30 0.04106
1149.40 0.04104
1149.50 0.04103
1149.60 0.04102
1149.70 0.041
1149.80 0.04099
1149.90 0.04098
1150.00 0.04096
1150.10 0.04095
1150.20 0.04093
1150.30 0.04092
1150.40 0.04091
1150.50 0.04089
1150.60 0.04088
1150.70 0.04086
1150.80 0.04085
1150.90 0.04084
1151.00 0.04082
1151.10 0.04081
1151.20 0.0408
1151.30 0.04078
1151.40 0.04077
1151.50 0.04075
1151.60 0.04074
1151.70 0.04073
1151.80 0.04071
1151.90 0.0407
1152.00 0.04069
1152.10 0.04067
1152.20 0.04066
1152.30 0.04064
1152.40 0.04063
1152.50 0.04062
1152.60 0.0406
1152.70 0.04059
1152.80 0.04058
1152.90 0.04056
1153.00 0.04055
1153.10 0.04053
1153.20 0.04052
1153.30 0.04051
1153.40 0.04049
1153.50 0.04048
1153.60 0.04047
1153.70 0.04045
1153.80 0.04044
1153.90 0.04043
1154.00 0.04041
1154.10 0.0404
1154.20 0.04038
1154.30 0.04037
1154.40 0.04036
1154.50 0.04034
1154.60 0.04033
1154.70 0.04032
1154.80 0.0403
1154.90 0.04029
1155.00 0.04028
1155.10 0.04026
1155.20 0.04025
1155.30 0.04023
1155.40 0.04022
1155.50 0.04021
1155.60 0.04019
1155.70 0.04018
1155.80 0.04017
1155.90 0.04015
1156.00 0.04014
1156.10 0.04013
1156.20 0.04011
1156.30 0.0401
1156.40 0.04009
1156.50 0.04007
1156.60 0.04006
1156.70 0.04005
1156.80 0.04003
1156.90 0.04002
1157.00 0.04
1157.10 0.03999
1157.20 0.03998
1157.30 0.03996
1157.40 0.03995
1157.50 0.03994
1157.60 0.03992
1157.70 0.03991
1157.80 0.0399
1157.90 0.03988
1158.00 0.03987
1158.10 0.03986
1158.20 0.03984
1158.30 0.03983
1158.40 0.03982
1158.50 0.0398
1158.60 0.03979
1158.70 0.03978
1158.80 0.03976
1158.90 0.03975
1159.00 0.03974
1159.10 0.03972
1159.20 0.03971
1159.30 0.0397
1159.40 0.03968
1159.50 0.03967
1159.60 0.03966
1159.70 0.03964
1159.80 0.03963
1159.90 0.03962
1160.00 0.0396
1160.10 0.03959
1160.20 0.03958
1160.30 0.03956
1160.40 0.03955
1160.50 0.03954
1160.60 0.03952
1160.70 0.03951
1160.80 0.0395
1160.90 0.03948
1161.00 0.03947
1161.10 0.03946
1161.20 0.03944
1161.30 0.03943
1161.40 0.03942
1161.50 0.0394
1161.60 0.03939
1161.70 0.03938
1161.80 0.03936
1161.90 0.03935
1162.00 0.03934
1162.10 0.03932
1162.20 0.03931
1162.30 0.0393
1162.40 0.03929
1162.50 0.03927
1162.60 0.03926
1162.70 0.03925
1162.80 0.03923
1162.90 0.03922
1163.00 0.03921
1163.10 0.03919
1163.20 0.03918
1163.30 0.03917
1163.40 0.03915
1163.50 0.03914
1163.60 0.03913
1163.70 0.03911
1163.80 0.0391
1163.90 0.03909
1164.00 0.03908
1164.10 0.03906
1164.20 0.03905
1164.30 0.03904
1164.40 0.03902
1164.50 0.03901
1164.60 0.039
1164.70 0.03898
1164.80 0.03897
1164.90 0.03896
1165.00 0.03894
1165.10 0.03893
1165.20 0.03892
1165.30 0.03891
1165.40 0.03889
1165.50 0.03888
1165.60 0.03887
1165.70 0.03885
1165.80 0.03884
1165.90 0.03883
1166.00 0.03881
1166.10 0.0388
1166.20 0.03879
1166.30 0.03878
1166.40 0.03876
1166.50 0.03875
1166.60 0.03874
1166.70 0.03872
1166.80 0.03871
1166.90 0.0387
1167.00 0.03868
1167.10 0.03867
1167.20 0.03866
1167.30 0.03865
1167.40 0.03863
1167.50 0.03862
1167.60 0.03861
1167.70 0.03859
1167.80 0.03858
1167.90 0.03857
1168.00 0.03856
1168.10 0.03854
1168.20 0.03853
1168.30 0.03852
1168.40 0.0385
1168.50 0.03849
1168.60 0.03848
1168.70 0.03847
1168.80 0.03845
1168.90 0.03844
1169.00 0.03843
1169.10 0.03841
1169.20 0.0384
1169.30 0.03839
1169.40 0.03838
1169.50 0.03836
1169.60 0.03835
1169.70 0.03834
1169.80 0.03832
1169.90 0.03831
1170.00 0.0383
1170.10 0.03829
1170.20 0.03827
1170.30 0.03826
1170.40 0.03825
1170.50 0.03823
1170.60 0.03822
1170.70 0.03821
1170.80 0.0382
1170.90 0.03818
1171.00 0.03817
1171.10 0.03816
1171.20 0.03815
1171.30 0.03813
1171.40 0.03812
1171.50 0.03811
1171.60 0.03809
1171.70 0.03808
1171.80 0.03807
1171.90 0.03806
1172.00 0.03804
1172.10 0.03803
1172.20 0.03802
1172.30 0.03801
1172.40 0.03799
1172.50 0.03798
1172.60 0.03797
1172.70 0.03796
1172.80 0.03794
1172.90 0.03793
1173.00 0.03792
1173.10 0.0379
1173.20 0.03789
1173.30 0.03788
1173.40 0.03787
1173.50 0.03785
1173.60 0.03784
1173.70 0.03783
1173.80 0.03782
1173.90 0.0378
1174.00 0.03779
1174.10 0.03778
1174.20 0.03777
1174.30 0.03775
1174.40 0.03774
1174.50 0.03773
1174.60 0.03772
1174.70 0.0377
1174.80 0.03769
1174.90 0.03768
1175.00 0.03767
1175.10 0.03765
1175.20 0.03764
1175.30 0.03763
1175.40 0.03762
1175.50 0.0376
1175.60 0.03759
1175.70 0.03758
1175.80 0.03757
1175.90 0.03755
1176.00 0.03754
1176.10 0.03753
1176.20 0.03752
1176.30 0.0375
1176.40 0.03749
1176.50 0.03748
1176.60 0.03747
1176.70 0.03745
1176.80 0.03744
1176.90 0.03743
1177.00 0.03742
1177.10 0.0374
1177.20 0.03739
1177.30 0.03738
1177.40 0.03737
1177.50 0.03735
1177.60 0.03734
1177.70 0.03733
1177.80 0.03732
1177.90 0.0373
1178.00 0.03729
1178.10 0.03728
1178.20 0.03727
1178.30 0.03726
1178.40 0.03724
1178.50 0.03723
1178.60 0.03722
1178.70 0.03721
1178.80 0.03719
1178.90 0.03718
1179.00 0.03717
1179.10 0.03716
1179.20 0.03714
1179.30 0.03713
1179.40 0.03712
1179.50 0.03711
1179.60 0.0371
1179.70 0.03708
1179.80 0.03707
1179.90 0.03706
1180.00 0.03705
1180.10 0.03703
1180.20 0.03702
1180.30 0.03701
1180.40 0.037
1180.50 0.03698
1180.60 0.03697
1180.70 0.03696
1180.80 0.03695
1180.90 0.03694
1181.00 0.03692
1181.10 0.03691
1181.20 0.0369
1181.30 0.03689
1181.40 0.03687
1181.50 0.03686
1181.60 0.03685
1181.70 0.03684
1181.80 0.03683
1181.90 0.03681
1182.00 0.0368
1182.10 0.03679
1182.20 0.03678
1182.30 0.03677
1182.40 0.03675
1182.50 0.03674
1182.60 0.03673
1182.70 0.03672
1182.80 0.0367
1182.90 0.03669
1183.00 0.03668
1183.10 0.03667
1183.20 0.03666
1183.30 0.03664
1183.40 0.03663
1183.50 0.03662
1183.60 0.03661
1183.70 0.0366
1183.80 0.03658
1183.90 0.03657
1184.00 0.03656
1184.10 0.03655
1184.20 0.03654
1184.30 0.03652
1184.40 0.03651
1184.50 0.0365
1184.60 0.03649
1184.70 0.03647
1184.80 0.03646
1184.90 0.03645
1185.00 0.03644
1185.10 0.03643
1185.20 0.03641
1185.30 0.0364
1185.40 0.03639
1185.50 0.03638
1185.60 0.03637
1185.70 0.03635
1185.80 0.03634
1185.90 0.03633
1186.00 0.03632
1186.10 0.03631
1186.20 0.03629
1186.30 0.03628
1186.40 0.03627
1186.50 0.03626
1186.60 0.03625
1186.70 0.03623
1186.80 0.03622
1186.90 0.03621
1187.00 0.0362
1187.10 0.03619
1187.20 0.03618
1187.30 0.03616
1187.40 0.03615
1187.50 0.03614
1187.60 0.03613
1187.70 0.03612
1187.80 0.0361
1187.90 0.03609
1188.00 0.03608
1188.10 0.03607
1188.20 0.03606
1188.30 0.03604
1188.40 0.03603
1188.50 0.03602
1188.60 0.03601
1188.70 0.036
1188.80 0.03599
1188.90 0.03597
1189.00 0.03596
1189.10 0.03595
1189.20 0.03594
1189.30 0.03593
1189.40 0.03591
1189.50 0.0359
1189.60 0.03589
1189.70 0.03588
1189.80 0.03587
1189.90 0.03586
1190.00 0.03584
1190.10 0.03583
1190.20 0.03582
1190.30 0.03581
1190.40 0.0358
1190.50 0.03578
1190.60 0.03577
1190.70 0.03576
1190.80 0.03575
1190.90 0.03574
1191.00 0.03573
1191.10 0.03571
1191.20 0.0357
1191.30 0.03569
1191.40 0.03568
1191.50 0.03567
1191.60 0.03566
1191.70 0.03564
1191.80 0.03563
1191.90 0.03562
1192.00 0.03561
1192.10 0.0356
1192.20 0.03559
1192.30 0.03557
1192.40 0.03556
1192.50 0.03555
1192.60 0.03554
1192.70 0.03553
1192.80 0.03552
1192.90 0.0355
1193.00 0.03549
1193.10 0.03548
1193.20 0.03547
1193.30 0.03546
1193.40 0.03545
1193.50 0.03543
1193.60 0.03542
1193.70 0.03541
1193.80 0.0354
1193.90 0.03539
1194.00 0.03538
1194.10 0.03536
1194.20 0.03535
1194.30 0.03534
1194.40 0.03533
1194.50 0.03532
1194.60 0.03531
1194.70 0.03529
1194.80 0.03528
1194.90 0.03527
1195.00 0.03526
1195.10 0.03525
1195.20 0.03524
1195.30 0.03523
1195.40 0.03521
1195.50 0.0352
1195.60 0.03519
1195.70 0.03518
1195.80 0.03517
1195.90 0.03516
1196.00 0.03514
1196.10 0.03513
1196.20 0.03512
1196.30 0.03511
1196.40 0.0351
1196.50 0.03509
1196.60 0.03508
1196.70 0.03506
1196.80 0.03505
1196.90 0.03504
1197.00 0.03503
1197.10 0.03502
1197.20 0.03501
1197.30 0.035
1197.40 0.03498
1197.50 0.03497
1197.60 0.03496
1197.70 0.03495
1197.80 0.03494
1197.90 0.03493
1198.00 0.03492
1198.10 0.0349
1198.20 0.03489
1198.30 0.03488
1198.40 0.03487
1198.50 0.03486
1198.60 0.03485
1198.70 0.03484
1198.80 0.03482
1198.90 0.03481
1199.00 0.0348
1199.10 0.03479
1199.20 0.03478
1199.30 0.03477
1199.40 0.03476
1199.50 0.03474
1199.60 0.03473
1199.70 0.03472
1199.80 0.03471
1199.90 0.0347
1200.00 0
