# Version 2.1 - nm, norm@500 to 1, cut digits, bergeron_35000_75.dat_35000
# Wavelength(nm)  Flambda(ergs/cm^s/s/nm)
300.00 5.517
300.10 5.51
300.20 5.504
300.30 5.498
300.40 5.491
300.50 5.485
300.60 5.479
300.70 5.472
300.80 5.466
300.90 5.459
301.00 5.453
301.10 5.447
301.20 5.441
301.30 5.434
301.40 5.428
301.50 5.422
301.60 5.415
301.70 5.409
301.80 5.403
301.90 5.397
302.00 5.39
302.10 5.384
302.20 5.378
302.30 5.372
302.40 5.365
302.50 5.359
302.60 5.353
302.70 5.347
302.80 5.341
302.90 5.335
303.00 5.328
303.10 5.322
303.20 5.316
303.30 5.31
303.40 5.304
303.50 5.298
303.60 5.292
303.70 5.286
303.80 5.28
303.90 5.274
304.00 5.267
304.10 5.261
304.20 5.255
304.30 5.249
304.40 5.243
304.50 5.237
304.60 5.231
304.70 5.225
304.80 5.219
304.90 5.213
305.00 5.207
305.10 5.201
305.20 5.196
305.30 5.19
305.40 5.184
305.50 5.178
305.60 5.172
305.70 5.166
305.80 5.16
305.90 5.154
306.00 5.148
306.10 5.142
306.20 5.136
306.30 5.131
306.40 5.125
306.50 5.119
306.60 5.113
306.70 5.107
306.80 5.101
306.90 5.096
307.00 5.09
307.10 5.084
307.20 5.078
307.30 5.072
307.40 5.067
307.50 5.061
307.60 5.055
307.70 5.049
307.80 5.044
307.90 5.038
308.00 5.032
308.10 5.026
308.20 5.021
308.30 5.015
308.40 5.009
308.50 5.004
308.60 4.998
308.70 4.992
308.80 4.987
308.90 4.981
309.00 4.975
309.10 4.97
309.20 4.964
309.30 4.959
309.40 4.953
309.50 4.947
309.60 4.942
309.70 4.936
309.80 4.931
309.90 4.925
310.00 4.92
310.10 4.914
310.20 4.908
310.30 4.903
310.40 4.897
310.50 4.892
310.60 4.886
310.70 4.881
310.80 4.875
310.90 4.87
311.00 4.864
311.10 4.859
311.20 4.853
311.30 4.848
311.40 4.843
311.50 4.837
311.60 4.832
311.70 4.826
311.80 4.821
311.90 4.815
312.00 4.81
312.10 4.805
312.20 4.799
312.30 4.794
312.40 4.788
312.50 4.783
312.60 4.778
312.70 4.772
312.80 4.767
312.90 4.762
313.00 4.756
313.10 4.751
313.20 4.746
313.30 4.74
313.40 4.735
313.50 4.73
313.60 4.725
313.70 4.719
313.80 4.714
313.90 4.709
314.00 4.704
314.10 4.698
314.20 4.693
314.30 4.688
314.40 4.683
314.50 4.677
314.60 4.672
314.70 4.667
314.80 4.662
314.90 4.657
315.00 4.651
315.10 4.646
315.20 4.641
315.30 4.636
315.40 4.631
315.50 4.626
315.60 4.62
315.70 4.615
315.80 4.61
315.90 4.605
316.00 4.6
316.10 4.595
316.20 4.59
316.30 4.585
316.40 4.58
316.50 4.575
316.60 4.569
316.70 4.564
316.80 4.559
316.90 4.554
317.00 4.549
317.10 4.544
317.20 4.539
317.30 4.534
317.40 4.529
317.50 4.524
317.60 4.519
317.70 4.514
317.80 4.509
317.90 4.504
318.00 4.499
318.10 4.494
318.20 4.489
318.30 4.484
318.40 4.479
318.50 4.475
318.60 4.47
318.70 4.465
318.80 4.46
318.90 4.455
319.00 4.45
319.10 4.445
319.20 4.44
319.30 4.435
319.40 4.43
319.50 4.426
319.60 4.421
319.70 4.416
319.80 4.411
319.90 4.406
320.00 4.401
320.10 4.397
320.20 4.392
320.30 4.387
320.40 4.382
320.50 4.377
320.60 4.373
320.70 4.368
320.80 4.363
320.90 4.358
321.00 4.353
321.10 4.349
321.20 4.344
321.30 4.339
321.40 4.334
321.50 4.33
321.60 4.325
321.70 4.32
321.80 4.316
321.90 4.311
322.00 4.306
322.10 4.301
322.20 4.297
322.30 4.292
322.40 4.287
322.50 4.283
322.60 4.278
322.70 4.273
322.80 4.269
322.90 4.264
323.00 4.259
323.10 4.255
323.20 4.25
323.30 4.246
323.40 4.241
323.50 4.236
323.60 4.232
323.70 4.227
323.80 4.223
323.90 4.218
324.00 4.213
324.10 4.209
324.20 4.204
324.30 4.2
324.40 4.195
324.50 4.191
324.60 4.186
324.70 4.182
324.80 4.177
324.90 4.173
325.00 4.168
325.10 4.164
325.20 4.159
325.30 4.155
325.40 4.15
325.50 4.146
325.60 4.141
325.70 4.137
325.80 4.132
325.90 4.128
326.00 4.123
326.10 4.119
326.20 4.114
326.30 4.11
326.40 4.106
326.50 4.101
326.60 4.097
326.70 4.092
326.80 4.088
326.90 4.083
327.00 4.079
327.10 4.075
327.20 4.07
327.30 4.066
327.40 4.062
327.50 4.057
327.60 4.053
327.70 4.048
327.80 4.044
327.90 4.04
328.00 4.035
328.10 4.031
328.20 4.027
328.30 4.023
328.40 4.018
328.50 4.014
328.60 4.01
328.70 4.005
328.80 4.001
328.90 3.997
329.00 3.992
329.10 3.988
329.20 3.984
329.30 3.98
329.40 3.975
329.50 3.971
329.60 3.967
329.70 3.963
329.80 3.958
329.90 3.954
330.00 3.95
330.10 3.946
330.20 3.942
330.30 3.937
330.40 3.933
330.50 3.929
330.60 3.925
330.70 3.921
330.80 3.917
330.90 3.912
331.00 3.908
331.10 3.904
331.20 3.9
331.30 3.896
331.40 3.892
331.50 3.888
331.60 3.883
331.70 3.879
331.80 3.875
331.90 3.871
332.00 3.867
332.10 3.863
332.20 3.859
332.30 3.855
332.40 3.851
332.50 3.846
332.60 3.842
332.70 3.838
332.80 3.834
332.90 3.83
333.00 3.826
333.10 3.822
333.20 3.818
333.30 3.814
333.40 3.81
333.50 3.806
333.60 3.802
333.70 3.798
333.80 3.794
333.90 3.79
334.00 3.786
334.10 3.782
334.20 3.778
334.30 3.774
334.40 3.77
334.50 3.766
334.60 3.762
334.70 3.758
334.80 3.754
334.90 3.75
335.00 3.746
335.10 3.742
335.20 3.738
335.30 3.734
335.40 3.731
335.50 3.727
335.60 3.723
335.70 3.719
335.80 3.715
335.90 3.711
336.00 3.707
336.10 3.703
336.20 3.699
336.30 3.695
336.40 3.692
336.50 3.688
336.60 3.684
336.70 3.68
336.80 3.676
336.90 3.672
337.00 3.668
337.10 3.665
337.20 3.661
337.30 3.657
337.40 3.653
337.50 3.649
337.60 3.646
337.70 3.642
337.80 3.638
337.90 3.634
338.00 3.63
338.10 3.626
338.20 3.623
338.30 3.619
338.40 3.615
338.50 3.611
338.60 3.608
338.70 3.604
338.80 3.6
338.90 3.596
339.00 3.593
339.10 3.589
339.20 3.585
339.30 3.581
339.40 3.578
339.50 3.574
339.60 3.57
339.70 3.567
339.80 3.563
339.90 3.559
340.00 3.555
340.10 3.552
340.20 3.548
340.30 3.544
340.40 3.541
340.50 3.537
340.60 3.533
340.70 3.53
340.80 3.526
340.90 3.522
341.00 3.519
341.10 3.515
341.20 3.512
341.30 3.508
341.40 3.504
341.50 3.501
341.60 3.497
341.70 3.493
341.80 3.49
341.90 3.486
342.00 3.483
342.10 3.479
342.20 3.475
342.30 3.472
342.40 3.468
342.50 3.465
342.60 3.461
342.70 3.458
342.80 3.454
342.90 3.45
343.00 3.447
343.10 3.443
343.20 3.44
343.30 3.436
343.40 3.433
343.50 3.429
343.60 3.426
343.70 3.422
343.80 3.419
343.90 3.415
344.00 3.412
344.10 3.408
344.20 3.405
344.30 3.401
344.40 3.398
344.50 3.394
344.60 3.391
344.70 3.387
344.80 3.384
344.90 3.38
345.00 3.377
345.10 3.373
345.20 3.37
345.30 3.366
345.40 3.363
345.50 3.36
345.60 3.356
345.70 3.353
345.80 3.349
345.90 3.346
346.00 3.342
346.10 3.339
346.20 3.336
346.30 3.332
346.40 3.329
346.50 3.325
346.60 3.322
346.70 3.319
346.80 3.315
346.90 3.312
347.00 3.308
347.10 3.305
347.20 3.302
347.30 3.298
347.40 3.295
347.50 3.292
347.60 3.288
347.70 3.285
347.80 3.282
347.90 3.278
348.00 3.275
348.10 3.272
348.20 3.268
348.30 3.265
348.40 3.262
348.50 3.258
348.60 3.255
348.70 3.252
348.80 3.248
348.90 3.245
349.00 3.242
349.10 3.239
349.20 3.235
349.30 3.232
349.40 3.229
349.50 3.225
349.60 3.222
349.70 3.219
349.80 3.216
349.90 3.212
350.00 3.209
350.10 3.206
350.20 3.203
350.30 3.199
350.40 3.196
350.50 3.193
350.60 3.19
350.70 3.187
350.80 3.183
350.90 3.18
351.00 3.177
351.10 3.174
351.20 3.171
351.30 3.167
351.40 3.164
351.50 3.161
351.60 3.158
351.70 3.155
351.80 3.151
351.90 3.148
352.00 3.145
352.10 3.142
352.20 3.139
352.30 3.136
352.40 3.132
352.50 3.129
352.60 3.126
352.70 3.123
352.80 3.12
352.90 3.117
353.00 3.114
353.10 3.111
353.20 3.107
353.30 3.104
353.40 3.101
353.50 3.098
353.60 3.095
353.70 3.092
353.80 3.089
353.90 3.086
354.00 3.083
354.10 3.08
354.20 3.076
354.30 3.073
354.40 3.07
354.50 3.067
354.60 3.064
354.70 3.061
354.80 3.058
354.90 3.055
355.00 3.052
355.10 3.049
355.20 3.046
355.30 3.043
355.40 3.04
355.50 3.037
355.60 3.034
355.70 3.031
355.80 3.028
355.90 3.025
356.00 3.022
356.10 3.019
356.20 3.016
356.30 3.013
356.40 3.01
356.50 3.007
356.60 3.004
356.70 3.001
356.80 2.998
356.90 2.995
357.00 2.992
357.10 2.989
357.20 2.986
357.30 2.983
357.40 2.98
357.50 2.977
357.60 2.974
357.70 2.971
357.80 2.968
357.90 2.965
358.00 2.962
358.10 2.959
358.20 2.956
358.30 2.953
358.40 2.951
358.50 2.948
358.60 2.945
358.70 2.942
358.80 2.939
358.90 2.936
359.00 2.933
359.10 2.93
359.20 2.927
359.30 2.924
359.40 2.922
359.50 2.919
359.60 2.916
359.70 2.913
359.80 2.91
359.90 2.907
360.00 2.904
360.10 2.901
360.20 2.899
360.30 2.896
360.40 2.893
360.50 2.89
360.60 2.887
360.70 2.884
360.80 2.882
360.90 2.879
361.00 2.876
361.10 2.873
361.20 2.87
361.30 2.867
361.40 2.865
361.50 2.862
361.60 2.859
361.70 2.856
361.80 2.853
361.90 2.851
362.00 2.848
362.10 2.845
362.20 2.842
362.30 2.839
362.40 2.837
362.50 2.834
362.60 2.831
362.70 2.828
362.80 2.825
362.90 2.823
363.00 2.82
363.10 2.817
363.20 2.814
363.30 2.812
363.40 2.809
363.50 2.806
363.60 2.803
363.70 2.801
363.80 2.798
363.90 2.795
364.00 2.793
364.10 2.79
364.20 2.787
364.30 2.784
364.40 2.782
364.50 2.779
364.60 2.776
364.70 2.774
364.80 2.771
364.90 2.768
365.00 2.765
365.10 2.763
365.20 2.76
365.30 2.757
365.40 2.755
365.50 2.752
365.60 2.749
365.70 2.747
365.80 2.744
365.90 2.741
366.00 2.739
366.10 2.736
366.20 2.733
366.30 2.73
366.40 2.727
366.50 2.724
366.60 2.722
366.70 2.719
366.80 2.716
366.90 2.713
367.00 2.71
367.10 2.707
367.20 2.705
367.30 2.702
367.40 2.699
367.50 2.696
367.60 2.693
367.70 2.69
367.80 2.688
367.90 2.685
368.00 2.682
368.10 2.679
368.20 2.676
368.30 2.674
368.40 2.671
368.50 2.668
368.60 2.665
368.70 2.663
368.80 2.66
368.90 2.657
369.00 2.654
369.10 2.652
369.20 2.649
369.30 2.646
369.40 2.643
369.50 2.641
369.60 2.638
369.70 2.635
369.80 2.632
369.90 2.63
370.00 2.627
370.10 2.624
370.20 2.622
370.30 2.619
370.40 2.616
370.50 2.614
370.60 2.611
370.70 2.608
370.80 2.606
370.90 2.603
371.00 2.6
371.10 2.598
371.20 2.595
371.30 2.592
371.40 2.59
371.50 2.587
371.60 2.584
371.70 2.582
371.80 2.579
371.90 2.576
372.00 2.574
372.10 2.571
372.20 2.569
372.30 2.566
372.40 2.564
372.50 2.562
372.60 2.559
372.70 2.557
372.80 2.554
372.90 2.552
373.00 2.549
373.10 2.547
373.20 2.544
373.30 2.542
373.40 2.54
373.50 2.537
373.60 2.535
373.70 2.532
373.80 2.53
373.90 2.528
374.00 2.525
374.10 2.523
374.20 2.521
374.30 2.519
374.40 2.516
374.50 2.514
374.60 2.512
374.70 2.51
374.80 2.508
374.90 2.505
375.00 2.503
375.10 2.501
375.20 2.499
375.30 2.497
375.40 2.494
375.50 2.492
375.60 2.49
375.70 2.488
375.80 2.486
375.90 2.484
376.00 2.481
376.10 2.479
376.20 2.477
376.30 2.474
376.40 2.472
376.50 2.47
376.60 2.467
376.70 2.465
376.80 2.463
376.90 2.46
377.00 2.458
377.10 2.457
377.20 2.455
377.30 2.454
377.40 2.452
377.50 2.451
377.60 2.449
377.70 2.448
377.80 2.446
377.90 2.445
378.00 2.444
378.10 2.441
378.20 2.439
378.30 2.436
378.40 2.434
378.50 2.432
378.60 2.429
378.70 2.427
378.80 2.425
378.90 2.422
379.00 2.42
379.10 2.417
379.20 2.415
379.30 2.413
379.40 2.41
379.50 2.408
379.60 2.405
379.70 2.403
379.80 2.401
379.90 2.398
380.00 2.396
380.10 2.396
380.20 2.395
380.30 2.395
380.40 2.395
380.50 2.395
380.60 2.394
380.70 2.394
380.80 2.394
380.90 2.394
381.00 2.394
381.10 2.392
381.20 2.39
381.30 2.389
381.40 2.387
381.50 2.385
381.60 2.383
381.70 2.38
381.80 2.377
381.90 2.373
382.00 2.37
382.10 2.366
382.20 2.361
382.30 2.356
382.40 2.35
382.50 2.345
382.60 2.339
382.70 2.333
382.80 2.328
382.90 2.322
383.00 2.317
383.10 2.311
383.20 2.305
383.30 2.299
383.40 2.294
383.50 2.29
383.60 2.289
383.70 2.291
383.80 2.295
383.90 2.298
384.00 2.302
384.10 2.306
384.20 2.309
384.30 2.313
384.40 2.316
384.50 2.319
384.60 2.322
384.70 2.325
384.80 2.327
384.90 2.329
385.00 2.331
385.10 2.332
385.20 2.333
385.30 2.334
385.40 2.334
385.50 2.333
385.60 2.333
385.70 2.332
385.80 2.33
385.90 2.329
386.00 2.326
386.10 2.324
386.20 2.321
386.30 2.317
386.40 2.313
386.50 2.309
386.60 2.304
386.70 2.299
386.80 2.293
386.90 2.287
387.00 2.28
387.10 2.273
387.20 2.266
387.30 2.258
387.40 2.249
387.50 2.24
387.60 2.23
387.70 2.22
387.80 2.209
387.90 2.198
388.00 2.187
388.10 2.175
388.20 2.163
388.30 2.15
388.40 2.138
388.50 2.125
388.60 2.113
388.70 2.103
388.80 2.095
388.90 2.09
389.00 2.092
389.10 2.097
389.20 2.105
389.30 2.114
389.40 2.124
389.50 2.133
389.60 2.143
389.70 2.153
389.80 2.162
389.90 2.171
390.00 2.18
390.10 2.189
390.20 2.196
390.30 2.204
390.40 2.211
390.50 2.217
390.60 2.224
390.70 2.229
390.80 2.235
390.90 2.24
391.00 2.244
391.10 2.248
391.20 2.252
391.30 2.255
391.40 2.258
391.50 2.26
391.60 2.262
391.70 2.264
391.80 2.266
391.90 2.267
392.00 2.267
392.10 2.268
392.20 2.268
392.30 2.267
392.40 2.267
392.50 2.266
392.60 2.265
392.70 2.263
392.80 2.261
392.90 2.259
393.00 2.256
393.10 2.253
393.20 2.25
393.30 2.246
393.40 2.242
393.50 2.237
393.60 2.233
393.70 2.228
393.80 2.222
393.90 2.216
394.00 2.21
394.10 2.203
394.20 2.195
394.30 2.188
394.40 2.18
394.50 2.171
394.60 2.162
394.70 2.152
394.80 2.142
394.90 2.131
395.00 2.12
395.10 2.108
395.20 2.095
395.30 2.082
395.40 2.068
395.50 2.054
395.60 2.039
395.70 2.023
395.80 2.006
395.90 1.989
396.00 1.971
396.10 1.953
396.20 1.933
396.30 1.914
396.40 1.893
396.50 1.873
396.60 1.852
396.70 1.831
396.80 1.81
396.90 1.789
397.00 1.77
397.10 1.785
397.20 1.801
397.30 1.819
397.40 1.838
397.50 1.856
397.60 1.873
397.70 1.891
397.80 1.907
397.90 1.924
398.00 1.939
398.10 1.954
398.20 1.968
398.30 1.982
398.40 1.994
398.50 2.006
398.60 2.018
398.70 2.029
398.80 2.039
398.90 2.048
399.00 2.058
399.10 2.066
399.20 2.074
399.30 2.081
399.40 2.089
399.50 2.095
399.60 2.101
399.70 2.107
399.80 2.112
399.90 2.117
400.00 2.122
400.10 2.126
400.20 2.13
400.30 2.133
400.40 2.136
400.50 2.139
400.60 2.142
400.70 2.145
400.80 2.147
400.90 2.149
401.00 2.15
401.10 2.152
401.20 2.153
401.30 2.154
401.40 2.155
401.50 2.156
401.60 2.157
401.70 2.157
401.80 2.157
401.90 2.157
402.00 2.157
402.10 2.157
402.20 2.157
402.30 2.156
402.40 2.156
402.50 2.155
402.60 2.154
402.70 2.153
402.80 2.152
402.90 2.151
403.00 2.15
403.10 2.148
403.20 2.147
403.30 2.145
403.40 2.143
403.50 2.141
403.60 2.139
403.70 2.137
403.80 2.135
403.90 2.133
404.00 2.13
404.10 2.128
404.20 2.125
404.30 2.123
404.40 2.12
404.50 2.117
404.60 2.114
404.70 2.111
404.80 2.107
404.90 2.104
405.00 2.1
405.10 2.096
405.20 2.092
405.30 2.088
405.40 2.084
405.50 2.08
405.60 2.075
405.70 2.07
405.80 2.065
405.90 2.06
406.00 2.055
406.10 2.049
406.20 2.043
406.30 2.038
406.40 2.031
406.50 2.025
406.60 2.018
406.70 2.011
406.80 2.003
406.90 1.996
407.00 1.987
407.10 1.979
407.20 1.97
407.30 1.961
407.40 1.951
407.50 1.941
407.60 1.931
407.70 1.92
407.80 1.909
407.90 1.896
408.00 1.884
408.10 1.871
408.20 1.857
408.30 1.843
408.40 1.828
408.50 1.812
408.60 1.796
408.70 1.779
408.80 1.761
408.90 1.742
409.00 1.723
409.10 1.703
409.20 1.681
409.30 1.659
409.40 1.636
409.50 1.612
409.60 1.587
409.70 1.561
409.80 1.535
409.90 1.508
410.00 1.483
410.10 1.468
410.20 1.464
410.30 1.473
410.40 1.49
410.50 1.514
410.60 1.539
410.70 1.562
410.80 1.585
410.90 1.607
411.00 1.627
411.10 1.647
411.20 1.666
411.30 1.683
411.40 1.701
411.50 1.716
411.60 1.731
411.70 1.746
411.80 1.759
411.90 1.771
412.00 1.783
412.10 1.795
412.20 1.805
412.30 1.815
412.40 1.824
412.50 1.833
412.60 1.842
412.70 1.849
412.80 1.856
412.90 1.863
413.00 1.869
413.10 1.875
413.20 1.881
413.30 1.886
413.40 1.891
413.50 1.895
413.60 1.899
413.70 1.903
413.80 1.907
413.90 1.91
414.00 1.913
414.10 1.916
414.20 1.918
414.30 1.921
414.40 1.923
414.50 1.925
414.60 1.927
414.70 1.928
414.80 1.93
414.90 1.931
415.00 1.932
415.10 1.933
415.20 1.934
415.30 1.934
415.40 1.935
415.50 1.935
415.60 1.936
415.70 1.936
415.80 1.936
415.90 1.936
416.00 1.936
416.10 1.936
416.20 1.936
416.30 1.936
416.40 1.936
416.50 1.935
416.60 1.935
416.70 1.934
416.80 1.934
416.90 1.933
417.00 1.933
417.10 1.932
417.20 1.931
417.30 1.93
417.40 1.93
417.50 1.929
417.60 1.928
417.70 1.927
417.80 1.926
417.90 1.925
418.00 1.924
418.10 1.923
418.20 1.922
418.30 1.921
418.40 1.92
418.50 1.919
418.60 1.917
418.70 1.916
418.80 1.915
418.90 1.914
419.00 1.912
419.10 1.911
419.20 1.91
419.30 1.909
419.40 1.907
419.50 1.906
419.60 1.905
419.70 1.903
419.80 1.902
419.90 1.9
420.00 1.899
420.10 1.898
420.20 1.896
420.30 1.895
420.40 1.893
420.50 1.892
420.60 1.89
420.70 1.889
420.80 1.887
420.90 1.886
421.00 1.884
421.10 1.883
421.20 1.881
421.30 1.879
421.40 1.878
421.50 1.876
421.60 1.875
421.70 1.873
421.80 1.872
421.90 1.87
422.00 1.868
422.10 1.867
422.20 1.865
422.30 1.863
422.40 1.862
422.50 1.86
422.60 1.858
422.70 1.857
422.80 1.855
422.90 1.853
423.00 1.852
423.10 1.85
423.20 1.848
423.30 1.847
423.40 1.845
423.50 1.843
423.60 1.841
423.70 1.84
423.80 1.838
423.90 1.836
424.00 1.834
424.10 1.832
424.20 1.831
424.30 1.829
424.40 1.827
424.50 1.825
424.60 1.823
424.70 1.821
424.80 1.819
424.90 1.818
425.00 1.816
425.10 1.814
425.20 1.812
425.30 1.81
425.40 1.808
425.50 1.806
425.60 1.804
425.70 1.802
425.80 1.8
425.90 1.798
426.00 1.796
426.10 1.793
426.20 1.791
426.30 1.789
426.40 1.787
426.50 1.785
426.60 1.782
426.70 1.78
426.80 1.778
426.90 1.776
427.00 1.773
427.10 1.771
427.20 1.768
427.30 1.766
427.40 1.763
427.50 1.761
427.60 1.758
427.70 1.755
427.80 1.753
427.90 1.75
428.00 1.747
428.10 1.744
428.20 1.741
428.30 1.738
428.40 1.735
428.50 1.732
428.60 1.729
428.70 1.725
428.80 1.722
428.90 1.718
429.00 1.714
429.10 1.711
429.20 1.707
429.30 1.703
429.40 1.699
429.50 1.694
429.60 1.69
429.70 1.686
429.80 1.681
429.90 1.676
430.00 1.671
430.10 1.666
430.20 1.66
430.30 1.655
430.40 1.649
430.50 1.643
430.60 1.636
430.70 1.63
430.80 1.623
430.90 1.616
431.00 1.609
431.10 1.601
431.20 1.593
431.30 1.584
431.40 1.576
431.50 1.567
431.60 1.557
431.70 1.547
431.80 1.537
431.90 1.526
432.00 1.514
432.10 1.502
432.20 1.49
432.30 1.477
432.40 1.463
432.50 1.448
432.60 1.433
432.70 1.417
432.80 1.401
432.90 1.383
433.00 1.365
433.10 1.345
433.20 1.325
433.30 1.304
433.40 1.282
433.50 1.258
433.60 1.235
433.70 1.21
433.80 1.184
433.90 1.159
434.00 1.134
434.10 1.133
434.20 1.159
434.30 1.182
434.40 1.205
434.50 1.228
434.60 1.25
434.70 1.271
434.80 1.291
434.90 1.31
435.00 1.328
435.10 1.345
435.20 1.36
435.30 1.376
435.40 1.39
435.50 1.403
435.60 1.415
435.70 1.427
435.80 1.438
435.90 1.449
436.00 1.459
436.10 1.468
436.20 1.476
436.30 1.485
436.40 1.492
436.50 1.499
436.60 1.506
436.70 1.512
436.80 1.518
436.90 1.524
437.00 1.529
437.10 1.533
437.20 1.538
437.30 1.542
437.40 1.546
437.50 1.549
437.60 1.553
437.70 1.556
437.80 1.559
437.90 1.561
438.00 1.564
438.10 1.566
438.20 1.568
438.30 1.57
438.40 1.572
438.50 1.573
438.60 1.574
438.70 1.576
438.80 1.577
438.90 1.578
439.00 1.579
439.10 1.579
439.20 1.58
439.30 1.581
439.40 1.581
439.50 1.582
439.60 1.582
439.70 1.582
439.80 1.582
439.90 1.582
440.00 1.582
440.10 1.582
440.20 1.582
440.30 1.582
440.40 1.582
440.50 1.581
440.60 1.581
440.70 1.581
440.80 1.58
440.90 1.58
441.00 1.579
441.10 1.579
441.20 1.578
441.30 1.577
441.40 1.577
441.50 1.576
441.60 1.575
441.70 1.575
441.80 1.574
441.90 1.573
442.00 1.572
442.10 1.572
442.20 1.571
442.30 1.57
442.40 1.569
442.50 1.568
442.60 1.567
442.70 1.566
442.80 1.566
442.90 1.565
443.00 1.564
443.10 1.563
443.20 1.562
443.30 1.561
443.40 1.56
443.50 1.559
443.60 1.558
443.70 1.557
443.80 1.556
443.90 1.555
444.00 1.554
444.10 1.553
444.20 1.551
444.30 1.55
444.40 1.549
444.50 1.548
444.60 1.547
444.70 1.546
444.80 1.545
444.90 1.544
445.00 1.543
445.10 1.542
445.20 1.541
445.30 1.539
445.40 1.538
445.50 1.537
445.60 1.536
445.70 1.535
445.80 1.534
445.90 1.533
446.00 1.532
446.10 1.53
446.20 1.529
446.30 1.528
446.40 1.527
446.50 1.526
446.60 1.525
446.70 1.523
446.80 1.522
446.90 1.521
447.00 1.52
447.10 1.519
447.20 1.518
447.30 1.516
447.40 1.515
447.50 1.514
447.60 1.513
447.70 1.512
447.80 1.511
447.90 1.509
448.00 1.508
448.10 1.507
448.20 1.506
448.30 1.505
448.40 1.503
448.50 1.502
448.60 1.501
448.70 1.5
448.80 1.499
448.90 1.498
449.00 1.496
449.10 1.495
449.20 1.494
449.30 1.493
449.40 1.492
449.50 1.49
449.60 1.489
449.70 1.488
449.80 1.487
449.90 1.486
450.00 1.485
450.10 1.483
450.20 1.482
450.30 1.481
450.40 1.48
450.50 1.479
450.60 1.477
450.70 1.476
450.80 1.475
450.90 1.474
451.00 1.473
451.10 1.472
451.20 1.47
451.30 1.469
451.40 1.468
451.50 1.467
451.60 1.466
451.70 1.464
451.80 1.463
451.90 1.462
452.00 1.461
452.10 1.46
452.20 1.459
452.30 1.457
452.40 1.456
452.50 1.455
452.60 1.454
452.70 1.453
452.80 1.451
452.90 1.45
453.00 1.449
453.10 1.448
453.20 1.447
453.30 1.446
453.40 1.444
453.50 1.443
453.60 1.442
453.70 1.441
453.80 1.44
453.90 1.439
454.00 1.437
454.10 1.436
454.20 1.435
454.30 1.434
454.40 1.433
454.50 1.432
454.60 1.43
454.70 1.429
454.80 1.428
454.90 1.427
455.00 1.426
455.10 1.425
455.20 1.423
455.30 1.422
455.40 1.421
455.50 1.42
455.60 1.419
455.70 1.418
455.80 1.417
455.90 1.415
456.00 1.414
456.10 1.413
456.20 1.412
456.30 1.411
456.40 1.41
456.50 1.408
456.60 1.407
456.70 1.406
456.80 1.405
456.90 1.404
457.00 1.403
457.10 1.402
457.20 1.4
457.30 1.399
457.40 1.398
457.50 1.397
457.60 1.396
457.70 1.395
457.80 1.394
457.90 1.393
458.00 1.391
458.10 1.39
458.20 1.389
458.30 1.388
458.40 1.387
458.50 1.386
458.60 1.385
458.70 1.383
458.80 1.382
458.90 1.381
459.00 1.38
459.10 1.379
459.20 1.378
459.30 1.377
459.40 1.376
459.50 1.375
459.60 1.373
459.70 1.372
459.80 1.371
459.90 1.37
460.00 1.369
460.10 1.368
460.20 1.367
460.30 1.366
460.40 1.364
460.50 1.363
460.60 1.362
460.70 1.361
460.80 1.36
460.90 1.359
461.00 1.358
461.10 1.357
461.20 1.356
461.30 1.354
461.40 1.353
461.50 1.352
461.60 1.351
461.70 1.35
461.80 1.349
461.90 1.348
462.00 1.347
462.10 1.346
462.20 1.345
462.30 1.343
462.40 1.342
462.50 1.341
462.60 1.34
462.70 1.339
462.80 1.338
462.90 1.337
463.00 1.336
463.10 1.335
463.20 1.334
463.30 1.333
463.40 1.331
463.50 1.33
463.60 1.329
463.70 1.328
463.80 1.327
463.90 1.326
464.00 1.325
464.10 1.324
464.20 1.323
464.30 1.322
464.40 1.321
464.50 1.32
464.60 1.319
464.70 1.317
464.80 1.316
464.90 1.315
465.00 1.314
465.10 1.313
465.20 1.312
465.30 1.311
465.40 1.31
465.50 1.309
465.60 1.308
465.70 1.307
465.80 1.306
465.90 1.305
466.00 1.303
466.10 1.302
466.20 1.301
466.30 1.3
466.40 1.299
466.50 1.298
466.60 1.297
466.70 1.296
466.80 1.295
466.90 1.294
467.00 1.293
467.10 1.292
467.20 1.291
467.30 1.29
467.40 1.289
467.50 1.288
467.60 1.286
467.70 1.285
467.80 1.284
467.90 1.283
468.00 1.282
468.10 1.281
468.20 1.28
468.30 1.279
468.40 1.278
468.50 1.277
468.60 1.276
468.70 1.275
468.80 1.274
468.90 1.273
469.00 1.272
469.10 1.271
469.20 1.27
469.30 1.268
469.40 1.267
469.50 1.266
469.60 1.265
469.70 1.264
469.80 1.263
469.90 1.262
470.00 1.261
470.10 1.26
470.20 1.259
470.30 1.258
470.40 1.257
470.50 1.256
470.60 1.255
470.70 1.254
470.80 1.253
470.90 1.252
471.00 1.251
471.10 1.25
471.20 1.248
471.30 1.247
471.40 1.246
471.50 1.245
471.60 1.244
471.70 1.243
471.80 1.242
471.90 1.241
472.00 1.24
472.10 1.239
472.20 1.238
472.30 1.237
472.40 1.236
472.50 1.235
472.60 1.234
472.70 1.233
472.80 1.231
472.90 1.23
473.00 1.229
473.10 1.228
473.20 1.227
473.30 1.226
473.40 1.225
473.50 1.224
473.60 1.223
473.70 1.222
473.80 1.221
473.90 1.22
474.00 1.219
474.10 1.217
474.20 1.216
474.30 1.215
474.40 1.214
474.50 1.213
474.60 1.212
474.70 1.211
474.80 1.21
474.90 1.209
475.00 1.207
475.10 1.206
475.20 1.205
475.30 1.204
475.40 1.203
475.50 1.202
475.60 1.201
475.70 1.2
475.80 1.198
475.90 1.197
476.00 1.196
476.10 1.195
476.20 1.194
476.30 1.193
476.40 1.191
476.50 1.19
476.60 1.189
476.70 1.188
476.80 1.187
476.90 1.185
477.00 1.184
477.10 1.183
477.20 1.182
477.30 1.18
477.40 1.179
477.50 1.178
477.60 1.176
477.70 1.175
477.80 1.174
477.90 1.173
478.00 1.171
478.10 1.17
478.20 1.169
478.30 1.167
478.40 1.166
478.50 1.164
478.60 1.163
478.70 1.161
478.80 1.16
478.90 1.158
479.00 1.157
479.10 1.156
479.20 1.154
479.30 1.152
479.40 1.151
479.50 1.149
479.60 1.147
479.70 1.146
479.80 1.144
479.90 1.142
480.00 1.141
480.10 1.139
480.20 1.137
480.30 1.135
480.40 1.133
480.50 1.131
480.60 1.129
480.70 1.127
480.80 1.124
480.90 1.122
481.00 1.12
481.10 1.118
481.20 1.116
481.30 1.113
481.40 1.11
481.50 1.108
481.60 1.105
481.70 1.102
481.80 1.099
481.90 1.097
482.00 1.094
482.10 1.091
482.20 1.088
482.30 1.084
482.40 1.08
482.50 1.076
482.60 1.072
482.70 1.068
482.80 1.064
482.90 1.061
483.00 1.057
483.10 1.053
483.20 1.048
483.30 1.042
483.40 1.036
483.50 1.03
483.60 1.024
483.70 1.019
483.80 1.013
483.90 1.007
484.00 1.001
484.10 0.9952
484.20 0.9879
484.30 0.9797
484.40 0.9716
484.50 0.9635
484.60 0.9553
484.70 0.9457
484.80 0.9353
484.90 0.925
485.00 0.9147
485.10 0.9043
485.20 0.8927
485.30 0.8803
485.40 0.8671
485.50 0.8535
485.60 0.839
485.70 0.824
485.80 0.8079
485.90 0.7913
486.00 0.7735
486.10 0.7529
486.20 0.7585
486.30 0.7782
486.40 0.7941
486.50 0.8095
486.60 0.8238
486.70 0.8377
486.80 0.8505
486.90 0.8628
487.00 0.8741
487.10 0.885
487.20 0.8946
487.30 0.9035
487.40 0.9124
487.50 0.9213
487.60 0.9302
487.70 0.9375
487.80 0.944
487.90 0.9506
488.00 0.9571
488.10 0.9636
488.20 0.9686
488.30 0.9727
488.40 0.9769
488.50 0.981
488.60 0.9851
488.70 0.9893
488.80 0.9934
488.90 0.9975
489.00 1.002
489.10 1.006
489.20 1.009
489.30 1.011
489.40 1.013
489.50 1.015
489.60 1.017
489.70 1.019
489.80 1.021
489.90 1.023
490.00 1.025
490.10 1.027
490.20 1.029
490.30 1.03
490.40 1.031
490.50 1.032
490.60 1.033
490.70 1.033
490.80 1.034
490.90 1.035
491.00 1.036
491.10 1.037
491.20 1.038
491.30 1.038
491.40 1.038
491.50 1.039
491.60 1.039
491.70 1.039
491.80 1.039
491.90 1.04
492.00 1.04
492.10 1.04
492.20 1.04
492.30 1.04
492.40 1.04
492.50 1.04
492.60 1.04
492.70 1.04
492.80 1.04
492.90 1.039
493.00 1.039
493.10 1.039
493.20 1.039
493.30 1.039
493.40 1.038
493.50 1.038
493.60 1.038
493.70 1.037
493.80 1.037
493.90 1.037
494.00 1.036
494.10 1.036
494.20 1.035
494.30 1.035
494.40 1.035
494.50 1.034
494.60 1.034
494.70 1.033
494.80 1.033
494.90 1.032
495.00 1.032
495.10 1.031
495.20 1.031
495.30 1.03
495.40 1.03
495.50 1.029
495.60 1.028
495.70 1.028
495.80 1.027
495.90 1.027
496.00 1.026
496.10 1.026
496.20 1.025
496.30 1.024
496.40 1.024
496.50 1.023
496.60 1.023
496.70 1.022
496.80 1.021
496.90 1.021
497.00 1.02
497.10 1.019
497.20 1.019
497.30 1.018
497.40 1.017
497.50 1.017
497.60 1.016
497.70 1.016
497.80 1.015
497.90 1.014
498.00 1.014
498.10 1.013
498.20 1.012
498.30 1.012
498.40 1.011
498.50 1.01
498.60 1.01
498.70 1.009
498.80 1.008
498.90 1.008
499.00 1.007
499.10 1.006
499.20 1.006
499.30 1.005
499.40 1.004
499.50 1.003
499.60 1.003
499.70 1.002
499.80 1.001
499.90 1.001
500.00 1
500.10 0.9993
500.20 0.9986
500.30 0.9979
500.40 0.9972
500.50 0.9965
500.60 0.9958
500.70 0.9951
500.80 0.9944
500.90 0.9937
501.00 0.9931
501.10 0.9924
501.20 0.9917
501.30 0.991
501.40 0.9903
501.50 0.9896
501.60 0.9889
501.70 0.9882
501.80 0.9875
501.90 0.9868
502.00 0.9861
502.10 0.9854
502.20 0.9847
502.30 0.984
502.40 0.9833
502.50 0.9826
502.60 0.9818
502.70 0.9811
502.80 0.9804
502.90 0.9797
503.00 0.979
503.10 0.9783
503.20 0.9776
503.30 0.9769
503.40 0.9762
503.50 0.9755
503.60 0.9748
503.70 0.9741
503.80 0.9734
503.90 0.9727
504.00 0.972
504.10 0.9713
504.20 0.9706
504.30 0.9699
504.40 0.9692
504.50 0.9685
504.60 0.9678
504.70 0.9671
504.80 0.9664
504.90 0.9657
505.00 0.965
505.10 0.9643
505.20 0.9636
505.30 0.9629
505.40 0.9622
505.50 0.9616
505.60 0.9609
505.70 0.9602
505.80 0.9595
505.90 0.9588
506.00 0.9581
506.10 0.9574
506.20 0.9567
506.30 0.956
506.40 0.9553
506.50 0.9546
506.60 0.9539
506.70 0.9532
506.80 0.9525
506.90 0.9518
507.00 0.9511
507.10 0.9505
507.20 0.9498
507.30 0.9491
507.40 0.9484
507.50 0.9477
507.60 0.947
507.70 0.9463
507.80 0.9456
507.90 0.9449
508.00 0.9442
508.10 0.9436
508.20 0.9429
508.30 0.9422
508.40 0.9415
508.50 0.9408
508.60 0.9401
508.70 0.9395
508.80 0.9388
508.90 0.9381
509.00 0.9374
509.10 0.9367
509.20 0.936
509.30 0.9354
509.40 0.9347
509.50 0.934
509.60 0.9333
509.70 0.9326
509.80 0.932
509.90 0.9313
510.00 0.9306
510.10 0.9299
510.20 0.9292
510.30 0.9286
510.40 0.9279
510.50 0.9272
510.60 0.9265
510.70 0.9259
510.80 0.9252
510.90 0.9245
511.00 0.9238
511.10 0.9232
511.20 0.9225
511.30 0.9218
511.40 0.9212
511.50 0.9205
511.60 0.9198
511.70 0.9192
511.80 0.9185
511.90 0.9178
512.00 0.9171
512.10 0.9165
512.20 0.9158
512.30 0.9151
512.40 0.9145
512.50 0.9138
512.60 0.9132
512.70 0.9125
512.80 0.9118
512.90 0.9112
513.00 0.9105
513.10 0.9098
513.20 0.9092
513.30 0.9085
513.40 0.9079
513.50 0.9072
513.60 0.9065
513.70 0.9059
513.80 0.9052
513.90 0.9046
514.00 0.9039
514.10 0.9033
514.20 0.9026
514.30 0.9019
514.40 0.9013
514.50 0.9006
514.60 0.9
514.70 0.8993
514.80 0.8987
514.90 0.898
515.00 0.8974
515.10 0.8967
515.20 0.8961
515.30 0.8954
515.40 0.8948
515.50 0.8941
515.60 0.8935
515.70 0.8928
515.80 0.8922
515.90 0.8915
516.00 0.8909
516.10 0.8902
516.20 0.8896
516.30 0.8889
516.40 0.8883
516.50 0.8877
516.60 0.887
516.70 0.8864
516.80 0.8857
516.90 0.8851
517.00 0.8844
517.10 0.8838
517.20 0.8832
517.30 0.8825
517.40 0.8819
517.50 0.8813
517.60 0.8806
517.70 0.88
517.80 0.8793
517.90 0.8787
518.00 0.8781
518.10 0.8774
518.20 0.8768
518.30 0.8762
518.40 0.8755
518.50 0.8749
518.60 0.8743
518.70 0.8736
518.80 0.873
518.90 0.8724
519.00 0.8717
519.10 0.8711
519.20 0.8705
519.30 0.8699
519.40 0.8692
519.50 0.8686
519.60 0.868
519.70 0.8674
519.80 0.8667
519.90 0.8661
520.00 0.8655
520.10 0.8649
520.20 0.8642
520.30 0.8636
520.40 0.863
520.50 0.8624
520.60 0.8617
520.70 0.8611
520.80 0.8605
520.90 0.8599
521.00 0.8593
521.10 0.8586
521.20 0.858
521.30 0.8574
521.40 0.8568
521.50 0.8562
521.60 0.8556
521.70 0.855
521.80 0.8543
521.90 0.8537
522.00 0.8531
522.10 0.8525
522.20 0.8519
522.30 0.8513
522.40 0.8507
522.50 0.85
522.60 0.8494
522.70 0.8488
522.80 0.8482
522.90 0.8476
523.00 0.847
523.10 0.8464
523.20 0.8458
523.30 0.8452
523.40 0.8446
523.50 0.844
523.60 0.8434
523.70 0.8428
523.80 0.8422
523.90 0.8416
524.00 0.8409
524.10 0.8403
524.20 0.8397
524.30 0.8391
524.40 0.8385
524.50 0.8379
524.60 0.8373
524.70 0.8367
524.80 0.8361
524.90 0.8355
525.00 0.8349
525.10 0.8343
525.20 0.8338
525.30 0.8332
525.40 0.8326
525.50 0.832
525.60 0.8314
525.70 0.8308
525.80 0.8302
525.90 0.8296
526.00 0.829
526.10 0.8284
526.20 0.8278
526.30 0.8272
526.40 0.8266
526.50 0.826
526.60 0.8255
526.70 0.8249
526.80 0.8243
526.90 0.8237
527.00 0.8231
527.10 0.8225
527.20 0.8219
527.30 0.8213
527.40 0.8208
527.50 0.8202
527.60 0.8196
527.70 0.819
527.80 0.8184
527.90 0.8178
528.00 0.8173
528.10 0.8167
528.20 0.8161
528.30 0.8155
528.40 0.8149
528.50 0.8144
528.60 0.8138
528.70 0.8132
528.80 0.8126
528.90 0.812
529.00 0.8115
529.10 0.8109
529.20 0.8103
529.30 0.8097
529.40 0.8092
529.50 0.8086
529.60 0.808
529.70 0.8074
529.80 0.8069
529.90 0.8063
530.00 0.8057
530.10 0.8051
530.20 0.8046
530.30 0.804
530.40 0.8034
530.50 0.8029
530.60 0.8023
530.70 0.8017
530.80 0.8012
530.90 0.8006
531.00 0.8
531.10 0.7995
531.20 0.7989
531.30 0.7983
531.40 0.7978
531.50 0.7972
531.60 0.7966
531.70 0.7961
531.80 0.7955
531.90 0.7949
532.00 0.7944
532.10 0.7938
532.20 0.7933
532.30 0.7927
532.40 0.7921
532.50 0.7916
532.60 0.791
532.70 0.7905
532.80 0.7899
532.90 0.7893
533.00 0.7888
533.10 0.7882
533.20 0.7877
533.30 0.7871
533.40 0.7866
533.50 0.786
533.60 0.7855
533.70 0.7849
533.80 0.7843
533.90 0.7838
534.00 0.7832
534.10 0.7827
534.20 0.7821
534.30 0.7816
534.40 0.781
534.50 0.7805
534.60 0.7799
534.70 0.7794
534.80 0.7788
534.90 0.7783
535.00 0.7777
535.10 0.7772
535.20 0.7767
535.30 0.7761
535.40 0.7756
535.50 0.775
535.60 0.7745
535.70 0.7739
535.80 0.7734
535.90 0.7728
536.00 0.7723
536.10 0.7718
536.20 0.7712
536.30 0.7707
536.40 0.7701
536.50 0.7696
536.60 0.769
536.70 0.7685
536.80 0.768
536.90 0.7674
537.00 0.7669
537.10 0.7664
537.20 0.7658
537.30 0.7653
537.40 0.7647
537.50 0.7642
537.60 0.7637
537.70 0.7631
537.80 0.7626
537.90 0.7621
538.00 0.7615
538.10 0.761
538.20 0.7605
538.30 0.7599
538.40 0.7594
538.50 0.7589
538.60 0.7583
538.70 0.7578
538.80 0.7573
538.90 0.7568
539.00 0.7562
539.10 0.7557
539.20 0.7552
539.30 0.7546
539.40 0.7541
539.50 0.7536
539.60 0.7531
539.70 0.7525
539.80 0.752
539.90 0.7515
540.00 0.751
540.10 0.7504
540.20 0.7499
540.30 0.7494
540.40 0.7489
540.50 0.7484
540.60 0.7478
540.70 0.7473
540.80 0.7468
540.90 0.7463
541.00 0.7457
541.10 0.7452
541.20 0.7447
541.30 0.7442
541.40 0.7437
541.50 0.7432
541.60 0.7426
541.70 0.7421
541.80 0.7416
541.90 0.7411
542.00 0.7406
542.10 0.7401
542.20 0.7395
542.30 0.739
542.40 0.7385
542.50 0.738
542.60 0.7375
542.70 0.737
542.80 0.7365
542.90 0.736
543.00 0.7354
543.10 0.7349
543.20 0.7344
543.30 0.7339
543.40 0.7334
543.50 0.7329
543.60 0.7324
543.70 0.7319
543.80 0.7314
543.90 0.7309
544.00 0.7304
544.10 0.7299
544.20 0.7294
544.30 0.7288
544.40 0.7283
544.50 0.7278
544.60 0.7273
544.70 0.7268
544.80 0.7263
544.90 0.7258
545.00 0.7253
545.10 0.7248
545.20 0.7243
545.30 0.7238
545.40 0.7233
545.50 0.7228
545.60 0.7223
545.70 0.7218
545.80 0.7213
545.90 0.7208
546.00 0.7203
546.10 0.7198
546.20 0.7193
546.30 0.7188
546.40 0.7183
546.50 0.7178
546.60 0.7174
546.70 0.7169
546.80 0.7164
546.90 0.7159
547.00 0.7154
547.10 0.7149
547.20 0.7144
547.30 0.7139
547.40 0.7134
547.50 0.7129
547.60 0.7124
547.70 0.7119
547.80 0.7114
547.90 0.711
548.00 0.7105
548.10 0.71
548.20 0.7095
548.30 0.709
548.40 0.7085
548.50 0.708
548.60 0.7075
548.70 0.7071
548.80 0.7066
548.90 0.7061
549.00 0.7056
549.10 0.7051
549.20 0.7046
549.30 0.7041
549.40 0.7037
549.50 0.7032
549.60 0.7027
549.70 0.7022
549.80 0.7017
549.90 0.7012
550.00 0.7008
550.10 0.7003
550.20 0.6998
550.30 0.6993
550.40 0.6988
550.50 0.6984
550.60 0.6979
550.70 0.6974
550.80 0.6969
550.90 0.6965
551.00 0.696
551.10 0.6955
551.20 0.695
551.30 0.6946
551.40 0.6941
551.50 0.6936
551.60 0.6931
551.70 0.6927
551.80 0.6922
551.90 0.6917
552.00 0.6912
552.10 0.6908
552.20 0.6903
552.30 0.6898
552.40 0.6893
552.50 0.6889
552.60 0.6884
552.70 0.6879
552.80 0.6875
552.90 0.687
553.00 0.6865
553.10 0.6861
553.20 0.6856
553.30 0.6851
553.40 0.6847
553.50 0.6842
553.60 0.6837
553.70 0.6833
553.80 0.6828
553.90 0.6823
554.00 0.6819
554.10 0.6814
554.20 0.6809
554.30 0.6805
554.40 0.68
554.50 0.6795
554.60 0.6791
554.70 0.6786
554.80 0.6782
554.90 0.6777
555.00 0.6772
555.10 0.6768
555.20 0.6763
555.30 0.6759
555.40 0.6754
555.50 0.6749
555.60 0.6745
555.70 0.674
555.80 0.6736
555.90 0.6731
556.00 0.6727
556.10 0.6722
556.20 0.6717
556.30 0.6713
556.40 0.6708
556.50 0.6704
556.60 0.6699
556.70 0.6695
556.80 0.669
556.90 0.6686
557.00 0.6681
557.10 0.6677
557.20 0.6672
557.30 0.6667
557.40 0.6663
557.50 0.6658
557.60 0.6654
557.70 0.6649
557.80 0.6645
557.90 0.664
558.00 0.6636
558.10 0.6631
558.20 0.6627
558.30 0.6622
558.40 0.6618
558.50 0.6614
558.60 0.6609
558.70 0.6605
558.80 0.66
558.90 0.6596
559.00 0.6591
559.10 0.6587
559.20 0.6582
559.30 0.6578
559.40 0.6573
559.50 0.6569
559.60 0.6565
559.70 0.656
559.80 0.6556
559.90 0.6551
560.00 0.6547
560.10 0.6542
560.20 0.6538
560.30 0.6534
560.40 0.6529
560.50 0.6525
560.60 0.652
560.70 0.6516
560.80 0.6512
560.90 0.6507
561.00 0.6503
561.10 0.6499
561.20 0.6494
561.30 0.649
561.40 0.6485
561.50 0.6481
561.60 0.6477
561.70 0.6472
561.80 0.6468
561.90 0.6464
562.00 0.6459
562.10 0.6455
562.20 0.6451
562.30 0.6446
562.40 0.6442
562.50 0.6438
562.60 0.6433
562.70 0.6429
562.80 0.6425
562.90 0.642
563.00 0.6416
563.10 0.6412
563.20 0.6407
563.30 0.6403
563.40 0.6399
563.50 0.6395
563.60 0.639
563.70 0.6386
563.80 0.6382
563.90 0.6377
564.00 0.6373
564.10 0.6369
564.20 0.6365
564.30 0.636
564.40 0.6356
564.50 0.6352
564.60 0.6348
564.70 0.6343
564.80 0.6339
564.90 0.6335
565.00 0.6331
565.10 0.6326
565.20 0.6322
565.30 0.6318
565.40 0.6314
565.50 0.631
565.60 0.6305
565.70 0.6301
565.80 0.6297
565.90 0.6293
566.00 0.6289
566.10 0.6284
566.20 0.628
566.30 0.6276
566.40 0.6272
566.50 0.6268
566.60 0.6263
566.70 0.6259
566.80 0.6255
566.90 0.6251
567.00 0.6247
567.10 0.6243
567.20 0.6238
567.30 0.6234
567.40 0.623
567.50 0.6226
567.60 0.6222
567.70 0.6218
567.80 0.6213
567.90 0.6209
568.00 0.6205
568.10 0.6201
568.20 0.6197
568.30 0.6193
568.40 0.6189
568.50 0.6185
568.60 0.6181
568.70 0.6176
568.80 0.6172
568.90 0.6168
569.00 0.6164
569.10 0.616
569.20 0.6156
569.30 0.6152
569.40 0.6148
569.50 0.6144
569.60 0.614
569.70 0.6136
569.80 0.6131
569.90 0.6127
570.00 0.6123
570.10 0.6119
570.20 0.6115
570.30 0.6111
570.40 0.6107
570.50 0.6103
570.60 0.6099
570.70 0.6095
570.80 0.6091
570.90 0.6087
571.00 0.6083
571.10 0.6079
571.20 0.6075
571.30 0.6071
571.40 0.6067
571.50 0.6063
571.60 0.6059
571.70 0.6055
571.80 0.6051
571.90 0.6047
572.00 0.6043
572.10 0.6039
572.20 0.6035
572.30 0.6031
572.40 0.6027
572.50 0.6023
572.60 0.6019
572.70 0.6015
572.80 0.6011
572.90 0.6007
573.00 0.6003
573.10 0.5999
573.20 0.5995
573.30 0.5991
573.40 0.5987
573.50 0.5983
573.60 0.5979
573.70 0.5975
573.80 0.5971
573.90 0.5967
574.00 0.5964
574.10 0.596
574.20 0.5956
574.30 0.5952
574.40 0.5948
574.50 0.5944
574.60 0.594
574.70 0.5936
574.80 0.5932
574.90 0.5928
575.00 0.5924
575.10 0.592
575.20 0.5917
575.30 0.5913
575.40 0.5909
575.50 0.5905
575.60 0.5901
575.70 0.5897
575.80 0.5893
575.90 0.5889
576.00 0.5886
576.10 0.5882
576.20 0.5878
576.30 0.5874
576.40 0.587
576.50 0.5866
576.60 0.5862
576.70 0.5859
576.80 0.5855
576.90 0.5851
577.00 0.5847
577.10 0.5843
577.20 0.5839
577.30 0.5836
577.40 0.5832
577.50 0.5828
577.60 0.5824
577.70 0.582
577.80 0.5816
577.90 0.5813
578.00 0.5809
578.10 0.5805
578.20 0.5801
578.30 0.5797
578.40 0.5794
578.50 0.579
578.60 0.5786
578.70 0.5782
578.80 0.5779
578.90 0.5775
579.00 0.5771
579.10 0.5767
579.20 0.5763
579.30 0.576
579.40 0.5756
579.50 0.5752
579.60 0.5748
579.70 0.5745
579.80 0.5741
579.90 0.5737
580.00 0.5733
580.10 0.573
580.20 0.5726
580.30 0.5722
580.40 0.5719
580.50 0.5715
580.60 0.5711
580.70 0.5707
580.80 0.5704
580.90 0.57
581.00 0.5696
581.10 0.5692
581.20 0.5689
581.30 0.5685
581.40 0.5681
581.50 0.5678
581.60 0.5674
581.70 0.567
581.80 0.5667
581.90 0.5663
582.00 0.5659
582.10 0.5656
582.20 0.5652
582.30 0.5648
582.40 0.5645
582.50 0.5641
582.60 0.5637
582.70 0.5634
582.80 0.563
582.90 0.5626
583.00 0.5623
583.10 0.5619
583.20 0.5615
583.30 0.5612
583.40 0.5608
583.50 0.5604
583.60 0.5601
583.70 0.5597
583.80 0.5593
583.90 0.559
584.00 0.5586
584.10 0.5583
584.20 0.5579
584.30 0.5575
584.40 0.5572
584.50 0.5568
584.60 0.5565
584.70 0.5561
584.80 0.5557
584.90 0.5554
585.00 0.555
585.10 0.5547
585.20 0.5543
585.30 0.5539
585.40 0.5536
585.50 0.5532
585.60 0.5529
585.70 0.5525
585.80 0.5521
585.90 0.5518
586.00 0.5514
586.10 0.5511
586.20 0.5507
586.30 0.5504
586.40 0.55
586.50 0.5497
586.60 0.5493
586.70 0.5489
586.80 0.5486
586.90 0.5482
587.00 0.5479
587.10 0.5475
587.20 0.5472
587.30 0.5468
587.40 0.5465
587.50 0.5461
587.60 0.5458
587.70 0.5454
587.80 0.5451
587.90 0.5447
588.00 0.5444
588.10 0.544
588.20 0.5437
588.30 0.5433
588.40 0.543
588.50 0.5426
588.60 0.5423
588.70 0.5419
588.80 0.5416
588.90 0.5412
589.00 0.5409
589.10 0.5405
589.20 0.5402
589.30 0.5398
589.40 0.5395
589.50 0.5391
589.60 0.5388
589.70 0.5384
589.80 0.5381
589.90 0.5378
590.00 0.5374
590.10 0.5371
590.20 0.5367
590.30 0.5364
590.40 0.536
590.50 0.5357
590.60 0.5353
590.70 0.535
590.80 0.5347
590.90 0.5343
591.00 0.534
591.10 0.5336
591.20 0.5333
591.30 0.5329
591.40 0.5326
591.50 0.5323
591.60 0.5319
591.70 0.5316
591.80 0.5312
591.90 0.5309
592.00 0.5306
592.10 0.5302
592.20 0.5299
592.30 0.5295
592.40 0.5292
592.50 0.5289
592.60 0.5285
592.70 0.5282
592.80 0.5279
592.90 0.5275
593.00 0.5272
593.10 0.5268
593.20 0.5265
593.30 0.5262
593.40 0.5258
593.50 0.5255
593.60 0.5252
593.70 0.5248
593.80 0.5245
593.90 0.5242
594.00 0.5238
594.10 0.5235
594.20 0.5232
594.30 0.5228
594.40 0.5225
594.50 0.5222
594.60 0.5218
594.70 0.5215
594.80 0.5212
594.90 0.5208
595.00 0.5205
595.10 0.5202
595.20 0.5198
595.30 0.5195
595.40 0.5192
595.50 0.5188
595.60 0.5185
595.70 0.5182
595.80 0.5178
595.90 0.5175
596.00 0.5172
596.10 0.5169
596.20 0.5165
596.30 0.5162
596.40 0.5159
596.50 0.5155
596.60 0.5152
596.70 0.5149
596.80 0.5146
596.90 0.5142
597.00 0.5139
597.10 0.5136
597.20 0.5133
597.30 0.5129
597.40 0.5126
597.50 0.5123
597.60 0.512
597.70 0.5116
597.80 0.5113
597.90 0.511
598.00 0.5107
598.10 0.5103
598.20 0.51
598.30 0.5097
598.40 0.5094
598.50 0.509
598.60 0.5087
598.70 0.5084
598.80 0.5081
598.90 0.5078
599.00 0.5074
599.10 0.5071
599.20 0.5068
599.30 0.5065
599.40 0.5062
599.50 0.5058
599.60 0.5055
599.70 0.5052
599.80 0.5049
599.90 0.5046
600.00 0.5042
600.10 0.5039
600.20 0.5036
600.30 0.5033
600.40 0.503
600.50 0.5026
600.60 0.5023
600.70 0.502
600.80 0.5017
600.90 0.5014
601.00 0.5011
601.10 0.5007
601.20 0.5004
601.30 0.5001
601.40 0.4998
601.50 0.4995
601.60 0.4992
601.70 0.4989
601.80 0.4985
601.90 0.4982
602.00 0.4979
602.10 0.4976
602.20 0.4973
602.30 0.497
602.40 0.4967
602.50 0.4963
602.60 0.496
602.70 0.4957
602.80 0.4954
602.90 0.4951
603.00 0.4948
603.10 0.4945
603.20 0.4942
603.30 0.4939
603.40 0.4935
603.50 0.4932
603.60 0.4929
603.70 0.4926
603.80 0.4923
603.90 0.492
604.00 0.4917
604.10 0.4914
604.20 0.4911
604.30 0.4908
604.40 0.4904
604.50 0.4901
604.60 0.4898
604.70 0.4895
604.80 0.4892
604.90 0.4889
605.00 0.4886
605.10 0.4883
605.20 0.488
605.30 0.4877
605.40 0.4874
605.50 0.4871
605.60 0.4868
605.70 0.4865
605.80 0.4862
605.90 0.4859
606.00 0.4856
606.10 0.4852
606.20 0.4849
606.30 0.4846
606.40 0.4843
606.50 0.484
606.60 0.4837
606.70 0.4834
606.80 0.4831
606.90 0.4828
607.00 0.4825
607.10 0.4822
607.20 0.4819
607.30 0.4816
607.40 0.4813
607.50 0.481
607.60 0.4807
607.70 0.4804
607.80 0.4801
607.90 0.4798
608.00 0.4795
608.10 0.4792
608.20 0.4789
608.30 0.4786
608.40 0.4783
608.50 0.478
608.60 0.4777
608.70 0.4774
608.80 0.4771
608.90 0.4768
609.00 0.4765
609.10 0.4762
609.20 0.4759
609.30 0.4756
609.40 0.4753
609.50 0.475
609.60 0.4748
609.70 0.4745
609.80 0.4742
609.90 0.4739
610.00 0.4736
610.10 0.4733
610.20 0.473
610.30 0.4727
610.40 0.4724
610.50 0.4721
610.60 0.4718
610.70 0.4715
610.80 0.4712
610.90 0.4709
611.00 0.4706
611.10 0.4703
611.20 0.47
611.30 0.4698
611.40 0.4695
611.50 0.4692
611.60 0.4689
611.70 0.4686
611.80 0.4683
611.90 0.468
612.00 0.4677
612.10 0.4674
612.20 0.4671
612.30 0.4668
612.40 0.4666
612.50 0.4663
612.60 0.466
612.70 0.4657
612.80 0.4654
612.90 0.4651
613.00 0.4648
613.10 0.4645
613.20 0.4642
613.30 0.464
613.40 0.4637
613.50 0.4634
613.60 0.4631
613.70 0.4628
613.80 0.4625
613.90 0.4622
614.00 0.462
614.10 0.4617
614.20 0.4614
614.30 0.4611
614.40 0.4608
614.50 0.4605
614.60 0.4602
614.70 0.46
614.80 0.4597
614.90 0.4594
615.00 0.4591
615.10 0.4588
615.20 0.4585
615.30 0.4582
615.40 0.458
615.50 0.4577
615.60 0.4574
615.70 0.4571
615.80 0.4568
615.90 0.4566
616.00 0.4563
616.10 0.456
616.20 0.4557
616.30 0.4554
616.40 0.4551
616.50 0.4549
616.60 0.4546
616.70 0.4543
616.80 0.454
616.90 0.4537
617.00 0.4535
617.10 0.4532
617.20 0.4529
617.30 0.4526
617.40 0.4523
617.50 0.4521
617.60 0.4518
617.70 0.4515
617.80 0.4512
617.90 0.451
618.00 0.4507
618.10 0.4504
618.20 0.4501
618.30 0.4498
618.40 0.4496
618.50 0.4493
618.60 0.449
618.70 0.4487
618.80 0.4485
618.90 0.4482
619.00 0.4479
619.10 0.4476
619.20 0.4474
619.30 0.4471
619.40 0.4468
619.50 0.4465
619.60 0.4463
619.70 0.446
619.80 0.4457
619.90 0.4454
620.00 0.4452
620.10 0.4449
620.20 0.4446
620.30 0.4443
620.40 0.4441
620.50 0.4438
620.60 0.4435
620.70 0.4433
620.80 0.443
620.90 0.4427
621.00 0.4424
621.10 0.4422
621.20 0.4419
621.30 0.4416
621.40 0.4414
621.50 0.4411
621.60 0.4408
621.70 0.4405
621.80 0.4403
621.90 0.44
622.00 0.4397
622.10 0.4395
622.20 0.4392
622.30 0.4389
622.40 0.4387
622.50 0.4384
622.60 0.4381
622.70 0.4379
622.80 0.4376
622.90 0.4373
623.00 0.437
623.10 0.4368
623.20 0.4365
623.30 0.4362
623.40 0.436
623.50 0.4357
623.60 0.4354
623.70 0.4352
623.80 0.4349
623.90 0.4346
624.00 0.4344
624.10 0.4341
624.20 0.4338
624.30 0.4336
624.40 0.4333
624.50 0.4331
624.60 0.4328
624.70 0.4325
624.80 0.4323
624.90 0.432
625.00 0.4317
625.10 0.4315
625.20 0.4312
625.30 0.4309
625.40 0.4307
625.50 0.4304
625.60 0.4302
625.70 0.4299
625.80 0.4296
625.90 0.4294
626.00 0.4291
626.10 0.4288
626.20 0.4286
626.30 0.4283
626.40 0.4281
626.50 0.4278
626.60 0.4275
626.70 0.4273
626.80 0.427
626.90 0.4267
627.00 0.4265
627.10 0.4262
627.20 0.426
627.30 0.4257
627.40 0.4254
627.50 0.4252
627.60 0.4249
627.70 0.4247
627.80 0.4244
627.90 0.4242
628.00 0.4239
628.10 0.4236
628.20 0.4234
628.30 0.4231
628.40 0.4229
628.50 0.4226
628.60 0.4223
628.70 0.4221
628.80 0.4218
628.90 0.4216
629.00 0.4213
629.10 0.4211
629.20 0.4208
629.30 0.4205
629.40 0.4203
629.50 0.42
629.60 0.4198
629.70 0.4195
629.80 0.4193
629.90 0.419
630.00 0.4188
630.10 0.4185
630.20 0.4182
630.30 0.418
630.40 0.4177
630.50 0.4175
630.60 0.4172
630.70 0.417
630.80 0.4167
630.90 0.4165
631.00 0.4162
631.10 0.416
631.20 0.4157
631.30 0.4154
631.40 0.4152
631.50 0.4149
631.60 0.4147
631.70 0.4144
631.80 0.4142
631.90 0.4139
632.00 0.4137
632.10 0.4134
632.20 0.4132
632.30 0.4129
632.40 0.4127
632.50 0.4124
632.60 0.4122
632.70 0.4119
632.80 0.4117
632.90 0.4114
633.00 0.4112
633.10 0.4109
633.20 0.4107
633.30 0.4104
633.40 0.4102
633.50 0.4099
633.60 0.4097
633.70 0.4094
633.80 0.4092
633.90 0.4089
634.00 0.4087
634.10 0.4084
634.20 0.4082
634.30 0.4079
634.40 0.4077
634.50 0.4074
634.60 0.4072
634.70 0.4069
634.80 0.4067
634.90 0.4064
635.00 0.4062
635.10 0.4059
635.20 0.4057
635.30 0.4054
635.40 0.4052
635.50 0.4049
635.60 0.4047
635.70 0.4044
635.80 0.4042
635.90 0.4039
636.00 0.4037
636.10 0.4034
636.20 0.4032
636.30 0.403
636.40 0.4027
636.50 0.4025
636.60 0.4022
636.70 0.402
636.80 0.4017
636.90 0.4015
637.00 0.4012
637.10 0.401
637.20 0.4007
637.30 0.4005
637.40 0.4002
637.50 0.4
637.60 0.3997
637.70 0.3995
637.80 0.3992
637.90 0.399
638.00 0.3988
638.10 0.3985
638.20 0.3983
638.30 0.398
638.40 0.3978
638.50 0.3975
638.60 0.3973
638.70 0.397
638.80 0.3968
638.90 0.3965
639.00 0.3963
639.10 0.396
639.20 0.3958
639.30 0.3956
639.40 0.3953
639.50 0.3951
639.60 0.3948
639.70 0.3946
639.80 0.3943
639.90 0.3941
640.00 0.3938
640.10 0.3936
640.20 0.3933
640.30 0.3931
640.40 0.3928
640.50 0.3926
640.60 0.3924
640.70 0.3921
640.80 0.3919
640.90 0.3916
641.00 0.3914
641.10 0.3911
641.20 0.3909
641.30 0.3906
641.40 0.3904
641.50 0.3901
641.60 0.3899
641.70 0.3896
641.80 0.3894
641.90 0.3891
642.00 0.3889
642.10 0.3886
642.20 0.3884
642.30 0.3881
642.40 0.3879
642.50 0.3876
642.60 0.3874
642.70 0.3871
642.80 0.3869
642.90 0.3866
643.00 0.3864
643.10 0.3861
643.20 0.3859
643.30 0.3856
643.40 0.3854
643.50 0.3851
643.60 0.3849
643.70 0.3846
643.80 0.3843
643.90 0.3841
644.00 0.3838
644.10 0.3836
644.20 0.3833
644.30 0.3831
644.40 0.3828
644.50 0.3825
644.60 0.3823
644.70 0.382
644.80 0.3818
644.90 0.3815
645.00 0.3812
645.10 0.381
645.20 0.3807
645.30 0.3805
645.40 0.3802
645.50 0.3799
645.60 0.3796
645.70 0.3794
645.80 0.3791
645.90 0.3788
646.00 0.3786
646.10 0.3783
646.20 0.378
646.30 0.3777
646.40 0.3775
646.50 0.3772
646.60 0.3769
646.70 0.3766
646.80 0.3763
646.90 0.376
647.00 0.3757
647.10 0.3755
647.20 0.3752
647.30 0.3749
647.40 0.3746
647.50 0.3743
647.60 0.374
647.70 0.3736
647.80 0.3733
647.90 0.373
648.00 0.3727
648.10 0.3724
648.20 0.3721
648.30 0.3718
648.40 0.3714
648.50 0.3711
648.60 0.3708
648.70 0.3704
648.80 0.3701
648.90 0.3697
649.00 0.3694
649.10 0.3691
649.20 0.3687
649.30 0.3684
649.40 0.368
649.50 0.3676
649.60 0.3672
649.70 0.3668
649.80 0.3664
649.90 0.366
650.00 0.3656
650.10 0.3652
650.20 0.3648
650.30 0.3643
650.40 0.3639
650.50 0.3634
650.60 0.3629
650.70 0.3624
650.80 0.3619
650.90 0.3614
651.00 0.3609
651.10 0.3604
651.20 0.3599
651.30 0.3594
651.40 0.3587
651.50 0.3581
651.60 0.3574
651.70 0.3568
651.80 0.3561
651.90 0.3555
652.00 0.3548
652.10 0.3542
652.20 0.3535
652.30 0.3528
652.40 0.3519
652.50 0.351
652.60 0.3501
652.70 0.3491
652.80 0.3482
652.90 0.3473
653.00 0.3464
653.10 0.3454
653.20 0.3445
653.30 0.3435
653.40 0.3421
653.50 0.3406
653.60 0.3392
653.70 0.3378
653.80 0.3364
653.90 0.335
654.00 0.3336
654.10 0.3322
654.20 0.3307
654.30 0.3292
654.40 0.3272
654.50 0.3252
654.60 0.3232
654.70 0.3212
654.80 0.3191
654.90 0.3166
655.00 0.314
655.10 0.3115
655.20 0.3089
655.30 0.3063
655.40 0.3032
655.50 0.3001
655.60 0.2968
655.70 0.2933
655.80 0.2896
655.90 0.2856
656.00 0.281
656.10 0.2761
656.20 0.2641
656.30 0.2538
656.40 0.27
656.50 0.2774
656.60 0.2818
656.70 0.2859
656.80 0.2894
656.90 0.2927
657.00 0.2957
657.10 0.2987
657.20 0.3014
657.30 0.304
657.40 0.3062
657.50 0.3083
657.60 0.3105
657.70 0.3127
657.80 0.3148
657.90 0.3164
658.00 0.318
658.10 0.3196
658.20 0.3212
658.30 0.3227
658.40 0.3237
658.50 0.3247
658.60 0.3257
658.70 0.3267
658.80 0.3277
658.90 0.3287
659.00 0.3297
659.10 0.3307
659.20 0.3317
659.30 0.3326
659.40 0.3331
659.50 0.3336
659.60 0.3341
659.70 0.3346
659.80 0.3351
659.90 0.3356
660.00 0.3362
660.10 0.3367
660.20 0.3372
660.30 0.3376
660.40 0.3378
660.50 0.338
660.60 0.3383
660.70 0.3385
660.80 0.3387
660.90 0.3389
661.00 0.3392
661.10 0.3394
661.20 0.3396
661.30 0.3398
661.40 0.3398
661.50 0.3399
661.60 0.34
661.70 0.34
661.80 0.3401
661.90 0.3402
662.00 0.3402
662.10 0.3403
662.20 0.3403
662.30 0.3404
662.40 0.3404
662.50 0.3403
662.60 0.3403
662.70 0.3403
662.80 0.3402
662.90 0.3402
663.00 0.3402
663.10 0.3402
663.20 0.3401
663.30 0.3401
663.40 0.34
663.50 0.3399
663.60 0.3398
663.70 0.3398
663.80 0.3397
663.90 0.3396
664.00 0.3395
664.10 0.3394
664.20 0.3393
664.30 0.3392
664.40 0.3391
664.50 0.339
664.60 0.3389
664.70 0.3388
664.80 0.3387
664.90 0.3385
665.00 0.3384
665.10 0.3383
665.20 0.3382
665.30 0.3381
665.40 0.3379
665.50 0.3378
665.60 0.3376
665.70 0.3375
665.80 0.3374
665.90 0.3372
666.00 0.3371
666.10 0.337
666.20 0.3368
666.30 0.3367
666.40 0.3365
666.50 0.3364
666.60 0.3362
666.70 0.3361
666.80 0.3359
666.90 0.3358
667.00 0.3356
667.10 0.3355
667.20 0.3353
667.30 0.3351
667.40 0.335
667.50 0.3348
667.60 0.3347
667.70 0.3345
667.80 0.3343
667.90 0.3342
668.00 0.334
668.10 0.3339
668.20 0.3337
668.30 0.3335
668.40 0.3334
668.50 0.3332
668.60 0.333
668.70 0.3329
668.80 0.3327
668.90 0.3325
669.00 0.3324
669.10 0.3322
669.20 0.332
669.30 0.3319
669.40 0.3317
669.50 0.3315
669.60 0.3313
669.70 0.3312
669.80 0.331
669.90 0.3308
670.00 0.3307
670.10 0.3305
670.20 0.3303
670.30 0.3301
670.40 0.33
670.50 0.3298
670.60 0.3296
670.70 0.3295
670.80 0.3293
670.90 0.3291
671.00 0.3289
671.10 0.3288
671.20 0.3286
671.30 0.3284
671.40 0.3282
671.50 0.3281
671.60 0.3279
671.70 0.3277
671.80 0.3275
671.90 0.3274
672.00 0.3272
672.10 0.327
672.20 0.3268
672.30 0.3267
672.40 0.3265
672.50 0.3263
672.60 0.3261
672.70 0.326
672.80 0.3258
672.90 0.3256
673.00 0.3254
673.10 0.3253
673.20 0.3251
673.30 0.3249
673.40 0.3247
673.50 0.3246
673.60 0.3244
673.70 0.3242
673.80 0.324
673.90 0.3238
674.00 0.3237
674.10 0.3235
674.20 0.3233
674.30 0.3231
674.40 0.323
674.50 0.3228
674.60 0.3226
674.70 0.3224
674.80 0.3223
674.90 0.3221
675.00 0.3219
675.10 0.3217
675.20 0.3216
675.30 0.3214
675.40 0.3212
675.50 0.321
675.60 0.3209
675.70 0.3207
675.80 0.3205
675.90 0.3203
676.00 0.3201
676.10 0.32
676.20 0.3198
676.30 0.3196
676.40 0.3194
676.50 0.3193
676.60 0.3191
676.70 0.3189
676.80 0.3187
676.90 0.3186
677.00 0.3184
677.10 0.3182
677.20 0.318
677.30 0.3179
677.40 0.3177
677.50 0.3175
677.60 0.3173
677.70 0.3172
677.80 0.317
677.90 0.3168
678.00 0.3166
678.10 0.3165
678.20 0.3163
678.30 0.3161
678.40 0.3159
678.50 0.3158
678.60 0.3156
678.70 0.3154
678.80 0.3152
678.90 0.3151
679.00 0.3149
679.10 0.3147
679.20 0.3146
679.30 0.3144
679.40 0.3142
679.50 0.314
679.60 0.3139
679.70 0.3137
679.80 0.3135
679.90 0.3133
680.00 0.3132
680.10 0.313
680.20 0.3128
680.30 0.3126
680.40 0.3125
680.50 0.3123
680.60 0.3121
680.70 0.312
680.80 0.3118
680.90 0.3116
681.00 0.3114
681.10 0.3113
681.20 0.3111
681.30 0.3109
681.40 0.3107
681.50 0.3106
681.60 0.3104
681.70 0.3102
681.80 0.3101
681.90 0.3099
682.00 0.3097
682.10 0.3095
682.20 0.3094
682.30 0.3092
682.40 0.309
682.50 0.3089
682.60 0.3087
682.70 0.3085
682.80 0.3084
682.90 0.3082
683.00 0.308
683.10 0.3078
683.20 0.3077
683.30 0.3075
683.40 0.3073
683.50 0.3072
683.60 0.307
683.70 0.3068
683.80 0.3067
683.90 0.3065
684.00 0.3063
684.10 0.3061
684.20 0.306
684.30 0.3058
684.40 0.3056
684.50 0.3055
684.60 0.3053
684.70 0.3051
684.80 0.305
684.90 0.3048
685.00 0.3046
685.10 0.3045
685.20 0.3043
685.30 0.3041
685.40 0.304
685.50 0.3038
685.60 0.3036
685.70 0.3034
685.80 0.3033
685.90 0.3031
686.00 0.3029
686.10 0.3028
686.20 0.3026
686.30 0.3024
686.40 0.3023
686.50 0.3021
686.60 0.3019
686.70 0.3018
686.80 0.3016
686.90 0.3014
687.00 0.3013
687.10 0.3011
687.20 0.3009
687.30 0.3008
687.40 0.3006
687.50 0.3004
687.60 0.3003
687.70 0.3001
687.80 0.2999
687.90 0.2998
688.00 0.2996
688.10 0.2995
688.20 0.2993
688.30 0.2991
688.40 0.299
688.50 0.2988
688.60 0.2986
688.70 0.2985
688.80 0.2983
688.90 0.2981
689.00 0.298
689.10 0.2978
689.20 0.2976
689.30 0.2975
689.40 0.2973
689.50 0.2972
689.60 0.297
689.70 0.2968
689.80 0.2967
689.90 0.2965
690.00 0.2963
690.10 0.2962
690.20 0.296
690.30 0.2958
690.40 0.2957
690.50 0.2955
690.60 0.2954
690.70 0.2952
690.80 0.295
690.90 0.2949
691.00 0.2947
691.10 0.2946
691.20 0.2944
691.30 0.2942
691.40 0.2941
691.50 0.2939
691.60 0.2937
691.70 0.2936
691.80 0.2934
691.90 0.2933
692.00 0.2931
692.10 0.2929
692.20 0.2928
692.30 0.2926
692.40 0.2925
692.50 0.2923
692.60 0.2921
692.70 0.292
692.80 0.2918
692.90 0.2917
693.00 0.2915
693.10 0.2913
693.20 0.2912
693.30 0.291
693.40 0.2909
693.50 0.2907
693.60 0.2905
693.70 0.2904
693.80 0.2902
693.90 0.2901
694.00 0.2899
694.10 0.2897
694.20 0.2896
694.30 0.2894
694.40 0.2893
694.50 0.2891
694.60 0.2889
694.70 0.2888
694.80 0.2886
694.90 0.2885
695.00 0.2883
695.10 0.2881
695.20 0.288
695.30 0.2878
695.40 0.2877
695.50 0.2875
695.60 0.2874
695.70 0.2872
695.80 0.2871
695.90 0.2869
696.00 0.2867
696.10 0.2866
696.20 0.2864
696.30 0.2863
696.40 0.2861
696.50 0.286
696.60 0.2858
696.70 0.2856
696.80 0.2855
696.90 0.2853
697.00 0.2852
697.10 0.285
697.20 0.2849
697.30 0.2847
697.40 0.2846
697.50 0.2844
697.60 0.2842
697.70 0.2841
697.80 0.2839
697.90 0.2838
698.00 0.2836
698.10 0.2835
698.20 0.2833
698.30 0.2832
698.40 0.283
698.50 0.2829
698.60 0.2827
698.70 0.2825
698.80 0.2824
698.90 0.2822
699.00 0.2821
699.10 0.2819
699.20 0.2818
699.30 0.2816
699.40 0.2815
699.50 0.2813
699.60 0.2812
699.70 0.281
699.80 0.2808
699.90 0.2807
700.00 0.2805
700.10 0.2804
700.20 0.2802
700.30 0.2801
700.40 0.2799
700.50 0.2798
700.60 0.2796
700.70 0.2795
700.80 0.2793
700.90 0.2792
701.00 0.279
701.10 0.2789
701.20 0.2787
701.30 0.2786
701.40 0.2784
701.50 0.2783
701.60 0.2781
701.70 0.278
701.80 0.2778
701.90 0.2777
702.00 0.2775
702.10 0.2774
702.20 0.2772
702.30 0.2771
702.40 0.2769
702.50 0.2768
702.60 0.2766
702.70 0.2765
702.80 0.2763
702.90 0.2762
703.00 0.276
703.10 0.2759
703.20 0.2757
703.30 0.2756
703.40 0.2754
703.50 0.2753
703.60 0.2751
703.70 0.275
703.80 0.2748
703.90 0.2747
704.00 0.2745
704.10 0.2744
704.20 0.2742
704.30 0.2741
704.40 0.2739
704.50 0.2738
704.60 0.2736
704.70 0.2735
704.80 0.2733
704.90 0.2732
705.00 0.273
705.10 0.2729
705.20 0.2727
705.30 0.2726
705.40 0.2724
705.50 0.2723
705.60 0.2721
705.70 0.272
705.80 0.2719
705.90 0.2717
706.00 0.2716
706.10 0.2714
706.20 0.2713
706.30 0.2711
706.40 0.271
706.50 0.2708
706.60 0.2707
706.70 0.2705
706.80 0.2704
706.90 0.2702
707.00 0.2701
707.10 0.27
707.20 0.2698
707.30 0.2697
707.40 0.2695
707.50 0.2694
707.60 0.2692
707.70 0.2691
707.80 0.2689
707.90 0.2688
708.00 0.2687
708.10 0.2685
708.20 0.2684
708.30 0.2682
708.40 0.2681
708.50 0.2679
708.60 0.2678
708.70 0.2676
708.80 0.2675
708.90 0.2674
709.00 0.2672
709.10 0.2671
709.20 0.2669
709.30 0.2668
709.40 0.2666
709.50 0.2665
709.60 0.2663
709.70 0.2662
709.80 0.2661
709.90 0.2659
710.00 0.2658
710.10 0.2656
710.20 0.2655
710.30 0.2653
710.40 0.2652
710.50 0.2651
710.60 0.2649
710.70 0.2648
710.80 0.2646
710.90 0.2645
711.00 0.2643
711.10 0.2642
711.20 0.2641
711.30 0.2639
711.40 0.2638
711.50 0.2636
711.60 0.2635
711.70 0.2634
711.80 0.2632
711.90 0.2631
712.00 0.2629
712.10 0.2628
712.20 0.2627
712.30 0.2625
712.40 0.2624
712.50 0.2622
712.60 0.2621
712.70 0.262
712.80 0.2618
712.90 0.2617
713.00 0.2615
713.10 0.2614
713.20 0.2613
713.30 0.2611
713.40 0.261
713.50 0.2608
713.60 0.2607
713.70 0.2606
713.80 0.2604
713.90 0.2603
714.00 0.2601
714.10 0.26
714.20 0.2599
714.30 0.2597
714.40 0.2596
714.50 0.2594
714.60 0.2593
714.70 0.2592
714.80 0.259
714.90 0.2589
715.00 0.2587
715.10 0.2586
715.20 0.2585
715.30 0.2583
715.40 0.2582
715.50 0.2581
715.60 0.2579
715.70 0.2578
715.80 0.2576
715.90 0.2575
716.00 0.2574
716.10 0.2572
716.20 0.2571
716.30 0.257
716.40 0.2568
716.50 0.2567
716.60 0.2566
716.70 0.2564
716.80 0.2563
716.90 0.2561
717.00 0.256
717.10 0.2559
717.20 0.2557
717.30 0.2556
717.40 0.2555
717.50 0.2553
717.60 0.2552
717.70 0.2551
717.80 0.2549
717.90 0.2548
718.00 0.2546
718.10 0.2545
718.20 0.2544
718.30 0.2542
718.40 0.2541
718.50 0.254
718.60 0.2538
718.70 0.2537
718.80 0.2536
718.90 0.2534
719.00 0.2533
719.10 0.2532
719.20 0.253
719.30 0.2529
719.40 0.2528
719.50 0.2526
719.60 0.2525
719.70 0.2523
719.80 0.2522
719.90 0.2521
720.00 0.2519
720.10 0.2518
720.20 0.2517
720.30 0.2515
720.40 0.2514
720.50 0.2513
720.60 0.2511
720.70 0.251
720.80 0.2509
720.90 0.2508
721.00 0.2506
721.10 0.2505
721.20 0.2504
721.30 0.2502
721.40 0.2501
721.50 0.25
721.60 0.2498
721.70 0.2497
721.80 0.2496
721.90 0.2494
722.00 0.2493
722.10 0.2492
722.20 0.249
722.30 0.2489
722.40 0.2488
722.50 0.2486
722.60 0.2485
722.70 0.2484
722.80 0.2482
722.90 0.2481
723.00 0.248
723.10 0.2479
723.20 0.2477
723.30 0.2476
723.40 0.2475
723.50 0.2473
723.60 0.2472
723.70 0.2471
723.80 0.2469
723.90 0.2468
724.00 0.2467
724.10 0.2465
724.20 0.2464
724.30 0.2463
724.40 0.2462
724.50 0.246
724.60 0.2459
724.70 0.2458
724.80 0.2456
724.90 0.2455
725.00 0.2454
725.10 0.2452
725.20 0.2451
725.30 0.245
725.40 0.2449
725.50 0.2447
725.60 0.2446
725.70 0.2445
725.80 0.2443
725.90 0.2442
726.00 0.2441
726.10 0.244
726.20 0.2438
726.30 0.2437
726.40 0.2436
726.50 0.2434
726.60 0.2433
726.70 0.2432
726.80 0.2431
726.90 0.2429
727.00 0.2428
727.10 0.2427
727.20 0.2426
727.30 0.2424
727.40 0.2423
727.50 0.2422
727.60 0.242
727.70 0.2419
727.80 0.2418
727.90 0.2417
728.00 0.2415
728.10 0.2414
728.20 0.2413
728.30 0.2412
728.40 0.241
728.50 0.2409
728.60 0.2408
728.70 0.2407
728.80 0.2405
728.90 0.2404
729.00 0.2403
729.10 0.2401
729.20 0.24
729.30 0.2399
729.40 0.2398
729.50 0.2396
729.60 0.2395
729.70 0.2394
729.80 0.2393
729.90 0.2391
730.00 0.239
730.10 0.2389
730.20 0.2388
730.30 0.2386
730.40 0.2385
730.50 0.2384
730.60 0.2383
730.70 0.2381
730.80 0.238
730.90 0.2379
731.00 0.2378
731.10 0.2376
731.20 0.2375
731.30 0.2374
731.40 0.2373
731.50 0.2372
731.60 0.237
731.70 0.2369
731.80 0.2368
731.90 0.2367
732.00 0.2365
732.10 0.2364
732.20 0.2363
732.30 0.2362
732.40 0.2361
732.50 0.2359
732.60 0.2358
732.70 0.2357
732.80 0.2356
732.90 0.2354
733.00 0.2353
733.10 0.2352
733.20 0.2351
733.30 0.2349
733.40 0.2348
733.50 0.2347
733.60 0.2346
733.70 0.2345
733.80 0.2343
733.90 0.2342
734.00 0.2341
734.10 0.234
734.20 0.2339
734.30 0.2337
734.40 0.2336
734.50 0.2335
734.60 0.2334
734.70 0.2332
734.80 0.2331
734.90 0.233
735.00 0.2329
735.10 0.2328
735.20 0.2326
735.30 0.2325
735.40 0.2324
735.50 0.2323
735.60 0.2322
735.70 0.232
735.80 0.2319
735.90 0.2318
736.00 0.2317
736.10 0.2316
736.20 0.2314
736.30 0.2313
736.40 0.2312
736.50 0.2311
736.60 0.2309
736.70 0.2308
736.80 0.2307
736.90 0.2306
737.00 0.2305
737.10 0.2303
737.20 0.2302
737.30 0.2301
737.40 0.23
737.50 0.2299
737.60 0.2298
737.70 0.2296
737.80 0.2295
737.90 0.2294
738.00 0.2293
738.10 0.2292
738.20 0.229
738.30 0.2289
738.40 0.2288
738.50 0.2287
738.60 0.2286
738.70 0.2284
738.80 0.2283
738.90 0.2282
739.00 0.2281
739.10 0.228
739.20 0.2278
739.30 0.2277
739.40 0.2276
739.50 0.2275
739.60 0.2274
739.70 0.2272
739.80 0.2271
739.90 0.227
740.00 0.2269
740.10 0.2268
740.20 0.2267
740.30 0.2265
740.40 0.2264
740.50 0.2263
740.60 0.2262
740.70 0.2261
740.80 0.226
740.90 0.2259
741.00 0.2257
741.10 0.2256
741.20 0.2255
741.30 0.2254
741.40 0.2253
741.50 0.2252
741.60 0.225
741.70 0.2249
741.80 0.2248
741.90 0.2247
742.00 0.2246
742.10 0.2245
742.20 0.2243
742.30 0.2242
742.40 0.2241
742.50 0.224
742.60 0.2239
742.70 0.2238
742.80 0.2237
742.90 0.2235
743.00 0.2234
743.10 0.2233
743.20 0.2232
743.30 0.2231
743.40 0.223
743.50 0.2229
743.60 0.2227
743.70 0.2226
743.80 0.2225
743.90 0.2224
744.00 0.2223
744.10 0.2222
744.20 0.2221
744.30 0.2219
744.40 0.2218
744.50 0.2217
744.60 0.2216
744.70 0.2215
744.80 0.2214
744.90 0.2213
745.00 0.2211
745.10 0.221
745.20 0.2209
745.30 0.2208
745.40 0.2207
745.50 0.2206
745.60 0.2205
745.70 0.2204
745.80 0.2202
745.90 0.2201
746.00 0.22
746.10 0.2199
746.20 0.2198
746.30 0.2197
746.40 0.2196
746.50 0.2194
746.60 0.2193
746.70 0.2192
746.80 0.2191
746.90 0.219
747.00 0.2189
747.10 0.2188
747.20 0.2187
747.30 0.2185
747.40 0.2184
747.50 0.2183
747.60 0.2182
747.70 0.2181
747.80 0.218
747.90 0.2179
748.00 0.2178
748.10 0.2177
748.20 0.2175
748.30 0.2174
748.40 0.2173
748.50 0.2172
748.60 0.2171
748.70 0.217
748.80 0.2169
748.90 0.2168
749.00 0.2166
749.10 0.2165
749.20 0.2164
749.30 0.2163
749.40 0.2162
749.50 0.2161
749.60 0.216
749.70 0.2159
749.80 0.2158
749.90 0.2156
750.00 0.2155
750.10 0.2154
750.20 0.2153
750.30 0.2152
750.40 0.2151
750.50 0.215
750.60 0.2149
750.70 0.2148
750.80 0.2147
750.90 0.2146
751.00 0.2144
751.10 0.2143
751.20 0.2142
751.30 0.2141
751.40 0.214
751.50 0.2139
751.60 0.2138
751.70 0.2137
751.80 0.2136
751.90 0.2135
752.00 0.2134
752.10 0.2133
752.20 0.2131
752.30 0.213
752.40 0.2129
752.50 0.2128
752.60 0.2127
752.70 0.2126
752.80 0.2125
752.90 0.2124
753.00 0.2123
753.10 0.2122
753.20 0.2121
753.30 0.212
753.40 0.2119
753.50 0.2117
753.60 0.2116
753.70 0.2115
753.80 0.2114
753.90 0.2113
754.00 0.2112
754.10 0.2111
754.20 0.211
754.30 0.2109
754.40 0.2108
754.50 0.2107
754.60 0.2106
754.70 0.2105
754.80 0.2104
754.90 0.2102
755.00 0.2101
755.10 0.21
755.20 0.2099
755.30 0.2098
755.40 0.2097
755.50 0.2096
755.60 0.2095
755.70 0.2094
755.80 0.2093
755.90 0.2092
756.00 0.2091
756.10 0.209
756.20 0.2089
756.30 0.2088
756.40 0.2087
756.50 0.2086
756.60 0.2084
756.70 0.2083
756.80 0.2082
756.90 0.2081
757.00 0.208
757.10 0.2079
757.20 0.2078
757.30 0.2077
757.40 0.2076
757.50 0.2075
757.60 0.2074
757.70 0.2073
757.80 0.2072
757.90 0.2071
758.00 0.207
758.10 0.2069
758.20 0.2068
758.30 0.2067
758.40 0.2065
758.50 0.2064
758.60 0.2063
758.70 0.2062
758.80 0.2061
758.90 0.206
759.00 0.2059
759.10 0.2058
759.20 0.2057
759.30 0.2056
759.40 0.2055
759.50 0.2054
759.60 0.2053
759.70 0.2052
759.80 0.2051
759.90 0.205
760.00 0.2049
760.10 0.2048
760.20 0.2047
760.30 0.2046
760.40 0.2045
760.50 0.2044
760.60 0.2043
760.70 0.2042
760.80 0.2041
760.90 0.204
761.00 0.2039
761.10 0.2038
761.20 0.2037
761.30 0.2035
761.40 0.2034
761.50 0.2033
761.60 0.2032
761.70 0.2031
761.80 0.203
761.90 0.2029
762.00 0.2028
762.10 0.2027
762.20 0.2026
762.30 0.2025
762.40 0.2024
762.50 0.2023
762.60 0.2022
762.70 0.2021
762.80 0.202
762.90 0.2019
763.00 0.2018
763.10 0.2017
763.20 0.2016
763.30 0.2015
763.40 0.2014
763.50 0.2013
763.60 0.2012
763.70 0.2011
763.80 0.201
763.90 0.2009
764.00 0.2008
764.10 0.2007
764.20 0.2006
764.30 0.2005
764.40 0.2004
764.50 0.2003
764.60 0.2002
764.70 0.2001
764.80 0.2
764.90 0.1999
765.00 0.1998
765.10 0.1997
765.20 0.1996
765.30 0.1995
765.40 0.1994
765.50 0.1993
765.60 0.1992
765.70 0.1991
765.80 0.199
765.90 0.1989
766.00 0.1988
766.10 0.1987
766.20 0.1986
766.30 0.1985
766.40 0.1984
766.50 0.1983
766.60 0.1982
766.70 0.1981
766.80 0.198
766.90 0.1979
767.00 0.1978
767.10 0.1977
767.20 0.1976
767.30 0.1975
767.40 0.1974
767.50 0.1973
767.60 0.1972
767.70 0.1971
767.80 0.197
767.90 0.1969
768.00 0.1968
768.10 0.1967
768.20 0.1966
768.30 0.1965
768.40 0.1964
768.50 0.1963
768.60 0.1962
768.70 0.1961
768.80 0.196
768.90 0.1959
769.00 0.1958
769.10 0.1958
769.20 0.1957
769.30 0.1956
769.40 0.1955
769.50 0.1954
769.60 0.1953
769.70 0.1952
769.80 0.1951
769.90 0.195
770.00 0.1949
770.10 0.1948
770.20 0.1947
770.30 0.1946
770.40 0.1945
770.50 0.1944
770.60 0.1943
770.70 0.1942
770.80 0.1941
770.90 0.194
771.00 0.1939
771.10 0.1938
771.20 0.1937
771.30 0.1936
771.40 0.1935
771.50 0.1934
771.60 0.1933
771.70 0.1932
771.80 0.1931
771.90 0.193
772.00 0.193
772.10 0.1929
772.20 0.1928
772.30 0.1927
772.40 0.1926
772.50 0.1925
772.60 0.1924
772.70 0.1923
772.80 0.1922
772.90 0.1921
773.00 0.192
773.10 0.1919
773.20 0.1918
773.30 0.1917
773.40 0.1916
773.50 0.1915
773.60 0.1914
773.70 0.1913
773.80 0.1912
773.90 0.1912
774.00 0.1911
774.10 0.191
774.20 0.1909
774.30 0.1908
774.40 0.1907
774.50 0.1906
774.60 0.1905
774.70 0.1904
774.80 0.1903
774.90 0.1902
775.00 0.1901
775.10 0.19
775.20 0.1899
775.30 0.1898
775.40 0.1897
775.50 0.1896
775.60 0.1896
775.70 0.1895
775.80 0.1894
775.90 0.1893
776.00 0.1892
776.10 0.1891
776.20 0.189
776.30 0.1889
776.40 0.1888
776.50 0.1887
776.60 0.1886
776.70 0.1885
776.80 0.1884
776.90 0.1883
777.00 0.1882
777.10 0.1881
777.20 0.1881
777.30 0.188
777.40 0.1879
777.50 0.1878
777.60 0.1877
777.70 0.1876
777.80 0.1875
777.90 0.1874
778.00 0.1873
778.10 0.1872
778.20 0.1871
778.30 0.187
778.40 0.1869
778.50 0.1868
778.60 0.1868
778.70 0.1867
778.80 0.1866
778.90 0.1865
779.00 0.1864
779.10 0.1863
779.20 0.1862
779.30 0.1861
779.40 0.186
779.50 0.1859
779.60 0.1858
779.70 0.1857
779.80 0.1856
779.90 0.1856
780.00 0.1855
780.10 0.1854
780.20 0.1853
780.30 0.1852
780.40 0.1851
780.50 0.185
780.60 0.1849
780.70 0.1848
780.80 0.1847
780.90 0.1847
781.00 0.1846
781.10 0.1845
781.20 0.1844
781.30 0.1843
781.40 0.1842
781.50 0.1841
781.60 0.184
781.70 0.1839
781.80 0.1838
781.90 0.1838
782.00 0.1837
782.10 0.1836
782.20 0.1835
782.30 0.1834
782.40 0.1833
782.50 0.1832
782.60 0.1831
782.70 0.183
782.80 0.1829
782.90 0.1829
783.00 0.1828
783.10 0.1827
783.20 0.1826
783.30 0.1825
783.40 0.1824
783.50 0.1823
783.60 0.1822
783.70 0.1821
783.80 0.1821
783.90 0.182
784.00 0.1819
784.10 0.1818
784.20 0.1817
784.30 0.1816
784.40 0.1815
784.50 0.1814
784.60 0.1813
784.70 0.1813
784.80 0.1812
784.90 0.1811
785.00 0.181
785.10 0.1809
785.20 0.1808
785.30 0.1807
785.40 0.1806
785.50 0.1806
785.60 0.1805
785.70 0.1804
785.80 0.1803
785.90 0.1802
786.00 0.1801
786.10 0.18
786.20 0.1799
786.30 0.1798
786.40 0.1798
786.50 0.1797
786.60 0.1796
786.70 0.1795
786.80 0.1794
786.90 0.1793
787.00 0.1792
787.10 0.1791
787.20 0.1791
787.30 0.179
787.40 0.1789
787.50 0.1788
787.60 0.1787
787.70 0.1786
787.80 0.1785
787.90 0.1784
788.00 0.1784
788.10 0.1783
788.20 0.1782
788.30 0.1781
788.40 0.178
788.50 0.1779
788.60 0.1778
788.70 0.1777
788.80 0.1777
788.90 0.1776
789.00 0.1775
789.10 0.1774
789.20 0.1773
789.30 0.1772
789.40 0.1771
789.50 0.1771
789.60 0.177
789.70 0.1769
789.80 0.1768
789.90 0.1767
790.00 0.1766
790.10 0.1765
790.20 0.1765
790.30 0.1764
790.40 0.1763
790.50 0.1762
790.60 0.1761
790.70 0.176
790.80 0.1759
790.90 0.1759
791.00 0.1758
791.10 0.1757
791.20 0.1756
791.30 0.1755
791.40 0.1754
791.50 0.1754
791.60 0.1753
791.70 0.1752
791.80 0.1751
791.90 0.175
792.00 0.1749
792.10 0.1748
792.20 0.1748
792.30 0.1747
792.40 0.1746
792.50 0.1745
792.60 0.1744
792.70 0.1743
792.80 0.1743
792.90 0.1742
793.00 0.1741
793.10 0.174
793.20 0.1739
793.30 0.1738
793.40 0.1738
793.50 0.1737
793.60 0.1736
793.70 0.1735
793.80 0.1734
793.90 0.1733
794.00 0.1732
794.10 0.1732
794.20 0.1731
794.30 0.173
794.40 0.1729
794.50 0.1728
794.60 0.1727
794.70 0.1727
794.80 0.1726
794.90 0.1725
795.00 0.1724
795.10 0.1723
795.20 0.1722
795.30 0.1722
795.40 0.1721
795.50 0.172
795.60 0.1719
795.70 0.1718
795.80 0.1718
795.90 0.1717
796.00 0.1716
796.10 0.1715
796.20 0.1714
796.30 0.1713
796.40 0.1713
796.50 0.1712
796.60 0.1711
796.70 0.171
796.80 0.1709
796.90 0.1708
797.00 0.1708
797.10 0.1707
797.20 0.1706
797.30 0.1705
797.40 0.1704
797.50 0.1703
797.60 0.1703
797.70 0.1702
797.80 0.1701
797.90 0.17
798.00 0.1699
798.10 0.1699
798.20 0.1698
798.30 0.1697
798.40 0.1696
798.50 0.1695
798.60 0.1694
798.70 0.1694
798.80 0.1693
798.90 0.1692
799.00 0.1691
799.10 0.169
799.20 0.169
799.30 0.1689
799.40 0.1688
799.50 0.1687
799.60 0.1686
799.70 0.1685
799.80 0.1685
799.90 0.1684
800.00 0.1683
800.10 0.1682
800.20 0.1681
800.30 0.1681
800.40 0.168
800.50 0.1679
800.60 0.1678
800.70 0.1677
800.80 0.1677
800.90 0.1676
801.00 0.1675
801.10 0.1674
801.20 0.1673
801.30 0.1673
801.40 0.1672
801.50 0.1671
801.60 0.167
801.70 0.1669
801.80 0.1669
801.90 0.1668
802.00 0.1667
802.10 0.1666
802.20 0.1665
802.30 0.1665
802.40 0.1664
802.50 0.1663
802.60 0.1662
802.70 0.1662
802.80 0.1661
802.90 0.166
803.00 0.1659
803.10 0.1658
803.20 0.1658
803.30 0.1657
803.40 0.1656
803.50 0.1655
803.60 0.1654
803.70 0.1654
803.80 0.1653
803.90 0.1652
804.00 0.1651
804.10 0.165
804.20 0.165
804.30 0.1649
804.40 0.1648
804.50 0.1647
804.60 0.1647
804.70 0.1646
804.80 0.1645
804.90 0.1644
805.00 0.1643
805.10 0.1643
805.20 0.1642
805.30 0.1641
805.40 0.164
805.50 0.1639
805.60 0.1639
805.70 0.1638
805.80 0.1637
805.90 0.1636
806.00 0.1636
806.10 0.1635
806.20 0.1634
806.30 0.1633
806.40 0.1632
806.50 0.1632
806.60 0.1631
806.70 0.163
806.80 0.1629
806.90 0.1629
807.00 0.1628
807.10 0.1627
807.20 0.1626
807.30 0.1625
807.40 0.1625
807.50 0.1624
807.60 0.1623
807.70 0.1622
807.80 0.1622
807.90 0.1621
808.00 0.162
808.10 0.1619
808.20 0.1618
808.30 0.1618
808.40 0.1617
808.50 0.1616
808.60 0.1615
808.70 0.1615
808.80 0.1614
808.90 0.1613
809.00 0.1612
809.10 0.1612
809.20 0.1611
809.30 0.161
809.40 0.1609
809.50 0.1608
809.60 0.1608
809.70 0.1607
809.80 0.1606
809.90 0.1605
810.00 0.1605
810.10 0.1604
810.20 0.1603
810.30 0.1602
810.40 0.1602
810.50 0.1601
810.60 0.16
810.70 0.1599
810.80 0.1599
810.90 0.1598
811.00 0.1597
811.10 0.1596
811.20 0.1596
811.30 0.1595
811.40 0.1594
811.50 0.1593
811.60 0.1593
811.70 0.1592
811.80 0.1591
811.90 0.159
812.00 0.159
812.10 0.1589
812.20 0.1588
812.30 0.1587
812.40 0.1587
812.50 0.1586
812.60 0.1585
812.70 0.1584
812.80 0.1584
812.90 0.1583
813.00 0.1582
813.10 0.1581
813.20 0.1581
813.30 0.158
813.40 0.1579
813.50 0.1578
813.60 0.1578
813.70 0.1577
813.80 0.1576
813.90 0.1575
814.00 0.1575
814.10 0.1574
814.20 0.1573
814.30 0.1572
814.40 0.1572
814.50 0.1571
814.60 0.157
814.70 0.157
814.80 0.1569
814.90 0.1568
815.00 0.1567
815.10 0.1567
815.20 0.1566
815.30 0.1565
815.40 0.1564
815.50 0.1564
815.60 0.1563
815.70 0.1562
815.80 0.1561
815.90 0.1561
816.00 0.156
816.10 0.1559
816.20 0.1558
816.30 0.1558
816.40 0.1557
816.50 0.1556
816.60 0.1556
816.70 0.1555
816.80 0.1554
816.90 0.1553
817.00 0.1553
817.10 0.1552
817.20 0.1551
817.30 0.155
817.40 0.155
817.50 0.1549
817.60 0.1548
817.70 0.1547
817.80 0.1547
817.90 0.1546
818.00 0.1545
818.10 0.1545
818.20 0.1544
818.30 0.1543
818.40 0.1542
818.50 0.1542
818.60 0.1541
818.70 0.154
818.80 0.1539
818.90 0.1539
819.00 0.1538
819.10 0.1537
819.20 0.1537
819.30 0.1536
819.40 0.1535
819.50 0.1534
819.60 0.1534
819.70 0.1533
819.80 0.1532
819.90 0.1531
820.00 0.1531
820.10 0.153
820.20 0.1529
820.30 0.1529
820.40 0.1528
820.50 0.1527
820.60 0.1526
820.70 0.1526
820.80 0.1525
820.90 0.1524
821.00 0.1524
821.10 0.1523
821.20 0.1522
821.30 0.1521
821.40 0.1521
821.50 0.152
821.60 0.1519
821.70 0.1519
821.80 0.1518
821.90 0.1517
822.00 0.1516
822.10 0.1516
822.20 0.1515
822.30 0.1514
822.40 0.1514
822.50 0.1513
822.60 0.1512
822.70 0.1512
822.80 0.1511
822.90 0.151
823.00 0.1509
823.10 0.1509
823.20 0.1508
823.30 0.1507
823.40 0.1507
823.50 0.1506
823.60 0.1505
823.70 0.1505
823.80 0.1504
823.90 0.1503
824.00 0.1502
824.10 0.1502
824.20 0.1501
824.30 0.15
824.40 0.15
824.50 0.1499
824.60 0.1498
824.70 0.1498
824.80 0.1497
824.90 0.1496
825.00 0.1495
825.10 0.1495
825.20 0.1494
825.30 0.1493
825.40 0.1493
825.50 0.1492
825.60 0.1491
825.70 0.1491
825.80 0.149
825.90 0.1489
826.00 0.1488
826.10 0.1488
826.20 0.1487
826.30 0.1486
826.40 0.1486
826.50 0.1485
826.60 0.1484
826.70 0.1484
826.80 0.1483
826.90 0.1482
827.00 0.1482
827.10 0.1481
827.20 0.148
827.30 0.148
827.40 0.1479
827.50 0.1478
827.60 0.1477
827.70 0.1477
827.80 0.1476
827.90 0.1475
828.00 0.1475
828.10 0.1474
828.20 0.1473
828.30 0.1473
828.40 0.1472
828.50 0.1471
828.60 0.1471
828.70 0.147
828.80 0.1469
828.90 0.1469
829.00 0.1468
829.10 0.1467
829.20 0.1467
829.30 0.1466
829.40 0.1465
829.50 0.1464
829.60 0.1464
829.70 0.1463
829.80 0.1462
829.90 0.1462
830.00 0.1461
830.10 0.146
830.20 0.146
830.30 0.1459
830.40 0.1458
830.50 0.1458
830.60 0.1457
830.70 0.1456
830.80 0.1456
830.90 0.1455
831.00 0.1454
831.10 0.1454
831.20 0.1453
831.30 0.1452
831.40 0.1452
831.50 0.1451
831.60 0.145
831.70 0.145
831.80 0.1449
831.90 0.1448
832.00 0.1448
832.10 0.1447
832.20 0.1446
832.30 0.1446
832.40 0.1445
832.50 0.1444
832.60 0.1444
832.70 0.1443
832.80 0.1442
832.90 0.1441
833.00 0.1441
833.10 0.144
833.20 0.1439
833.30 0.1439
833.40 0.1438
833.50 0.1437
833.60 0.1437
833.70 0.1436
833.80 0.1435
833.90 0.1435
834.00 0.1434
834.10 0.1433
834.20 0.1433
834.30 0.1432
834.40 0.1431
834.50 0.1431
834.60 0.143
834.70 0.1429
834.80 0.1429
834.90 0.1428
835.00 0.1427
835.10 0.1427
835.20 0.1426
835.30 0.1425
835.40 0.1425
835.50 0.1424
835.60 0.1423
835.70 0.1423
835.80 0.1422
835.90 0.1421
836.00 0.1421
836.10 0.142
836.20 0.1419
836.30 0.1419
836.40 0.1418
836.50 0.1417
836.60 0.1417
836.70 0.1416
836.80 0.1415
836.90 0.1415
837.00 0.1414
837.10 0.1413
837.20 0.1413
837.30 0.1412
837.40 0.1412
837.50 0.1411
837.60 0.141
837.70 0.141
837.80 0.1409
837.90 0.1408
838.00 0.1408
838.10 0.1407
838.20 0.1406
838.30 0.1406
838.40 0.1405
838.50 0.1404
838.60 0.1404
838.70 0.1403
838.80 0.1402
838.90 0.1402
839.00 0.1401
839.10 0.14
839.20 0.14
839.30 0.1399
839.40 0.1399
839.50 0.1398
839.60 0.1397
839.70 0.1397
839.80 0.1396
839.90 0.1395
840.00 0.1395
840.10 0.1394
840.20 0.1393
840.30 0.1393
840.40 0.1392
840.50 0.1391
840.60 0.1391
840.70 0.139
840.80 0.1389
840.90 0.1389
841.00 0.1388
841.10 0.1388
841.20 0.1387
841.30 0.1386
841.40 0.1386
841.50 0.1385
841.60 0.1384
841.70 0.1384
841.80 0.1383
841.90 0.1382
842.00 0.1382
842.10 0.1381
842.20 0.1381
842.30 0.138
842.40 0.1379
842.50 0.1379
842.60 0.1378
842.70 0.1377
842.80 0.1377
842.90 0.1376
843.00 0.1375
843.10 0.1375
843.20 0.1374
843.30 0.1374
843.40 0.1373
843.50 0.1372
843.60 0.1372
843.70 0.1371
843.80 0.137
843.90 0.137
844.00 0.1369
844.10 0.1369
844.20 0.1368
844.30 0.1367
844.40 0.1367
844.50 0.1366
844.60 0.1365
844.70 0.1365
844.80 0.1364
844.90 0.1364
845.00 0.1363
845.10 0.1362
845.20 0.1362
845.30 0.1361
845.40 0.136
845.50 0.136
845.60 0.1359
845.70 0.1359
845.80 0.1358
845.90 0.1357
846.00 0.1357
846.10 0.1356
846.20 0.1355
846.30 0.1355
846.40 0.1354
846.50 0.1354
846.60 0.1353
846.70 0.1352
846.80 0.1352
846.90 0.1351
847.00 0.135
847.10 0.135
847.20 0.1349
847.30 0.1349
847.40 0.1348
847.50 0.1347
847.60 0.1347
847.70 0.1346
847.80 0.1345
847.90 0.1345
848.00 0.1344
848.10 0.1344
848.20 0.1343
848.30 0.1342
848.40 0.1342
848.50 0.1341
848.60 0.1341
848.70 0.134
848.80 0.1339
848.90 0.1339
849.00 0.1338
849.10 0.1338
849.20 0.1337
849.30 0.1336
849.40 0.1336
849.50 0.1335
849.60 0.1334
849.70 0.1334
849.80 0.1333
849.90 0.1333
850.00 0.1332
850.10 0.1331
850.20 0.1331
850.30 0.133
850.40 0.133
850.50 0.1329
850.60 0.1328
850.70 0.1328
850.80 0.1327
850.90 0.1327
851.00 0.1326
851.10 0.1325
851.20 0.1325
851.30 0.1324
851.40 0.1324
851.50 0.1323
851.60 0.1322
851.70 0.1322
851.80 0.1321
851.90 0.1321
852.00 0.132
852.10 0.1319
852.20 0.1319
852.30 0.1318
852.40 0.1318
852.50 0.1317
852.60 0.1316
852.70 0.1316
852.80 0.1315
852.90 0.1315
853.00 0.1314
853.10 0.1313
853.20 0.1313
853.30 0.1312
853.40 0.1312
853.50 0.1311
853.60 0.131
853.70 0.131
853.80 0.1309
853.90 0.1309
854.00 0.1308
854.10 0.1307
854.20 0.1307
854.30 0.1306
854.40 0.1306
854.50 0.1305
854.60 0.1304
854.70 0.1304
854.80 0.1303
854.90 0.1303
855.00 0.1302
855.10 0.1302
855.20 0.1301
855.30 0.13
855.40 0.13
855.50 0.1299
855.60 0.1299
855.70 0.1298
855.80 0.1297
855.90 0.1297
856.00 0.1296
856.10 0.1296
856.20 0.1295
856.30 0.1294
856.40 0.1294
856.50 0.1293
856.60 0.1293
856.70 0.1292
856.80 0.1292
856.90 0.1291
857.00 0.129
857.10 0.129
857.20 0.1289
857.30 0.1289
857.40 0.1288
857.50 0.1287
857.60 0.1287
857.70 0.1286
857.80 0.1286
857.90 0.1285
858.00 0.1285
858.10 0.1284
858.20 0.1283
858.30 0.1283
858.40 0.1282
858.50 0.1282
858.60 0.1281
858.70 0.1281
858.80 0.128
858.90 0.1279
859.00 0.1279
859.10 0.1278
859.20 0.1278
859.30 0.1277
859.40 0.1277
859.50 0.1276
859.60 0.1275
859.70 0.1275
859.80 0.1274
859.90 0.1274
860.00 0.1273
860.10 0.1273
860.20 0.1272
860.30 0.1271
860.40 0.1271
860.50 0.127
860.60 0.127
860.70 0.1269
860.80 0.1269
860.90 0.1268
861.00 0.1267
861.10 0.1267
861.20 0.1266
861.30 0.1266
861.40 0.1265
861.50 0.1265
861.60 0.1264
861.70 0.1264
861.80 0.1263
861.90 0.1262
862.00 0.1262
862.10 0.1261
862.20 0.1261
862.30 0.126
862.40 0.126
862.50 0.1259
862.60 0.1258
862.70 0.1258
862.80 0.1257
862.90 0.1257
863.00 0.1256
863.10 0.1256
863.20 0.1255
863.30 0.1255
863.40 0.1254
863.50 0.1253
863.60 0.1253
863.70 0.1252
863.80 0.1252
863.90 0.1251
864.00 0.1251
864.10 0.125
864.20 0.125
864.30 0.1249
864.40 0.1248
864.50 0.1248
864.60 0.1247
864.70 0.1247
864.80 0.1246
864.90 0.1246
865.00 0.1245
865.10 0.1245
865.20 0.1244
865.30 0.1243
865.40 0.1243
865.50 0.1242
865.60 0.1242
865.70 0.1241
865.80 0.1241
865.90 0.124
866.00 0.124
866.10 0.1239
866.20 0.1239
866.30 0.1238
866.40 0.1237
866.50 0.1237
866.60 0.1236
866.70 0.1236
866.80 0.1235
866.90 0.1235
867.00 0.1234
867.10 0.1234
867.20 0.1233
867.30 0.1233
867.40 0.1232
867.50 0.1231
867.60 0.1231
867.70 0.123
867.80 0.123
867.90 0.1229
868.00 0.1229
868.10 0.1228
868.20 0.1228
868.30 0.1227
868.40 0.1227
868.50 0.1226
868.60 0.1226
868.70 0.1225
868.80 0.1224
868.90 0.1224
869.00 0.1223
869.10 0.1223
869.20 0.1222
869.30 0.1222
869.40 0.1221
869.50 0.1221
869.60 0.122
869.70 0.122
869.80 0.1219
869.90 0.1219
870.00 0.1218
870.10 0.1217
870.20 0.1217
870.30 0.1216
870.40 0.1216
870.50 0.1215
870.60 0.1215
870.70 0.1214
870.80 0.1214
870.90 0.1213
871.00 0.1213
871.10 0.1212
871.20 0.1212
871.30 0.1211
871.40 0.1211
871.50 0.121
871.60 0.1209
871.70 0.1209
871.80 0.1208
871.90 0.1208
872.00 0.1207
872.10 0.1207
872.20 0.1206
872.30 0.1206
872.40 0.1205
872.50 0.1205
872.60 0.1204
872.70 0.1204
872.80 0.1203
872.90 0.1203
873.00 0.1202
873.10 0.1202
873.20 0.1201
873.30 0.1201
873.40 0.12
873.50 0.12
873.60 0.1199
873.70 0.1199
873.80 0.1198
873.90 0.1197
874.00 0.1197
874.10 0.1196
874.20 0.1196
874.30 0.1195
874.40 0.1195
874.50 0.1194
874.60 0.1194
874.70 0.1193
874.80 0.1193
874.90 0.1192
875.00 0.1192
875.10 0.1191
875.20 0.1191
875.30 0.119
875.40 0.119
875.50 0.1189
875.60 0.1189
875.70 0.1188
875.80 0.1188
875.90 0.1187
876.00 0.1187
876.10 0.1186
876.20 0.1186
876.30 0.1185
876.40 0.1185
876.50 0.1184
876.60 0.1184
876.70 0.1183
876.80 0.1183
876.90 0.1182
877.00 0.1181
877.10 0.1181
877.20 0.118
877.30 0.118
877.40 0.1179
877.50 0.1179
877.60 0.1178
877.70 0.1178
877.80 0.1177
877.90 0.1177
878.00 0.1176
878.10 0.1176
878.20 0.1175
878.30 0.1175
878.40 0.1174
878.50 0.1174
878.60 0.1173
878.70 0.1173
878.80 0.1172
878.90 0.1172
879.00 0.1171
879.10 0.1171
879.20 0.117
879.30 0.117
879.40 0.1169
879.50 0.1169
879.60 0.1168
879.70 0.1168
879.80 0.1167
879.90 0.1167
880.00 0.1166
880.10 0.1166
880.20 0.1165
880.30 0.1165
880.40 0.1164
880.50 0.1164
880.60 0.1163
880.70 0.1163
880.80 0.1162
880.90 0.1162
881.00 0.1161
881.10 0.1161
881.20 0.116
881.30 0.116
881.40 0.1159
881.50 0.1159
881.60 0.1158
881.70 0.1158
881.80 0.1157
881.90 0.1157
882.00 0.1156
882.10 0.1156
882.20 0.1155
882.30 0.1155
882.40 0.1154
882.50 0.1154
882.60 0.1153
882.70 0.1153
882.80 0.1152
882.90 0.1152
883.00 0.1151
883.10 0.1151
883.20 0.115
883.30 0.115
883.40 0.1149
883.50 0.1149
883.60 0.1148
883.70 0.1148
883.80 0.1147
883.90 0.1147
884.00 0.1146
884.10 0.1146
884.20 0.1145
884.30 0.1145
884.40 0.1144
884.50 0.1144
884.60 0.1143
884.70 0.1143
884.80 0.1142
884.90 0.1142
885.00 0.1141
885.10 0.1141
885.20 0.114
885.30 0.114
885.40 0.1139
885.50 0.1139
885.60 0.1139
885.70 0.1138
885.80 0.1138
885.90 0.1137
886.00 0.1137
886.10 0.1136
886.20 0.1136
886.30 0.1135
886.40 0.1135
886.50 0.1134
886.60 0.1134
886.70 0.1133
886.80 0.1133
886.90 0.1132
887.00 0.1132
887.10 0.1131
887.20 0.1131
887.30 0.113
887.40 0.113
887.50 0.1129
887.60 0.1129
887.70 0.1128
887.80 0.1128
887.90 0.1127
888.00 0.1127
888.10 0.1127
888.20 0.1126
888.30 0.1126
888.40 0.1125
888.50 0.1125
888.60 0.1124
888.70 0.1124
888.80 0.1123
888.90 0.1123
889.00 0.1122
889.10 0.1122
889.20 0.1121
889.30 0.1121
889.40 0.1121
889.50 0.112
889.60 0.112
889.70 0.1119
889.80 0.1119
889.90 0.1118
890.00 0.1118
890.10 0.1117
890.20 0.1117
890.30 0.1116
890.40 0.1116
890.50 0.1115
890.60 0.1115
890.70 0.1115
890.80 0.1114
890.90 0.1114
891.00 0.1113
891.10 0.1113
891.20 0.1112
891.30 0.1112
891.40 0.1111
891.50 0.1111
891.60 0.111
891.70 0.111
891.80 0.1109
891.90 0.1109
892.00 0.1109
892.10 0.1108
892.20 0.1108
892.30 0.1107
892.40 0.1107
892.50 0.1106
892.60 0.1106
892.70 0.1105
892.80 0.1105
892.90 0.1104
893.00 0.1104
893.10 0.1103
893.20 0.1103
893.30 0.1102
893.40 0.1102
893.50 0.1101
893.60 0.1101
893.70 0.11
893.80 0.11
893.90 0.1099
894.00 0.1099
894.10 0.1098
894.20 0.1098
894.30 0.1097
894.40 0.1097
894.50 0.1096
894.60 0.1096
894.70 0.1095
894.80 0.1095
894.90 0.1094
895.00 0.1094
895.10 0.1093
895.20 0.1093
895.30 0.1092
895.40 0.1092
895.50 0.1091
895.60 0.1091
895.70 0.109
895.80 0.109
895.90 0.1089
896.00 0.1089
896.10 0.1089
896.20 0.1088
896.30 0.1088
896.40 0.1087
896.50 0.1087
896.60 0.1086
896.70 0.1086
896.80 0.1085
896.90 0.1085
897.00 0.1084
897.10 0.1084
897.20 0.1083
897.30 0.1083
897.40 0.1082
897.50 0.1082
897.60 0.1081
897.70 0.1081
897.80 0.108
897.90 0.108
898.00 0.1079
898.10 0.1079
898.20 0.1078
898.30 0.1078
898.40 0.1077
898.50 0.1077
898.60 0.1076
898.70 0.1076
898.80 0.1075
898.90 0.1075
899.00 0.1074
899.10 0.1074
899.20 0.1073
899.30 0.1073
899.40 0.1072
899.50 0.1072
899.60 0.1071
899.70 0.1071
899.80 0.107
899.90 0.107
900.00 0.107
900.10 0.1069
900.20 0.1069
900.30 0.1068
900.40 0.1068
900.50 0.1067
900.60 0.1067
900.70 0.1066
900.80 0.1066
900.90 0.1065
901.00 0.1065
901.10 0.1064
901.20 0.1064
901.30 0.1063
901.40 0.1063
901.50 0.1062
901.60 0.1062
901.70 0.1061
901.80 0.1061
901.90 0.106
902.00 0.106
902.10 0.1059
902.20 0.1059
902.30 0.1059
902.40 0.1058
902.50 0.1058
902.60 0.1058
902.70 0.1057
902.80 0.1057
902.90 0.1056
903.00 0.1056
903.10 0.1056
903.20 0.1055
903.30 0.1055
903.40 0.1055
903.50 0.1054
903.60 0.1054
903.70 0.1053
903.80 0.1053
903.90 0.1053
904.00 0.1052
904.10 0.1052
904.20 0.1052
904.30 0.1051
904.40 0.1051
904.50 0.105
904.60 0.105
904.70 0.105
904.80 0.1049
904.90 0.1049
905.00 0.1049
905.10 0.1048
905.20 0.1048
905.30 0.1047
905.40 0.1047
905.50 0.1047
905.60 0.1046
905.70 0.1046
905.80 0.1046
905.90 0.1045
906.00 0.1045
906.10 0.1045
906.20 0.1044
906.30 0.1044
906.40 0.1043
906.50 0.1043
906.60 0.1043
906.70 0.1042
906.80 0.1042
906.90 0.1042
907.00 0.1041
907.10 0.1041
907.20 0.104
907.30 0.104
907.40 0.1039
907.50 0.1039
907.60 0.1039
907.70 0.1038
907.80 0.1038
907.90 0.1037
908.00 0.1037
908.10 0.1037
908.20 0.1036
908.30 0.1036
908.40 0.1035
908.50 0.1035
908.60 0.1034
908.70 0.1034
908.80 0.1034
908.90 0.1033
909.00 0.1033
909.10 0.1032
909.20 0.1032
909.30 0.1032
909.40 0.1031
909.50 0.1031
909.60 0.103
909.70 0.103
909.80 0.1029
909.90 0.1029
910.00 0.1029
910.10 0.1028
910.20 0.1028
910.30 0.1027
910.40 0.1027
910.50 0.1027
910.60 0.1026
910.70 0.1026
910.80 0.1025
910.90 0.1025
911.00 0.1024
911.10 0.1024
911.20 0.1024
911.30 0.1023
911.40 0.1023
911.50 0.1022
911.60 0.1022
911.70 0.1022
911.80 0.1021
911.90 0.1021
912.00 0.102
912.10 0.102
912.20 0.1019
912.30 0.1019
912.40 0.1018
912.50 0.1018
912.60 0.1017
912.70 0.1017
912.80 0.1016
912.90 0.1016
913.00 0.1015
913.10 0.1015
913.20 0.1014
913.30 0.1014
913.40 0.1013
913.50 0.1013
913.60 0.1012
913.70 0.1012
913.80 0.1011
913.90 0.1011
914.00 0.101
914.10 0.101
914.20 0.1009
914.30 0.1009
914.40 0.1008
914.50 0.1008
914.60 0.1007
914.70 0.1007
914.80 0.1007
914.90 0.1006
915.00 0.1006
915.10 0.1005
915.20 0.1005
915.30 0.1004
915.40 0.1004
915.50 0.1003
915.60 0.1003
915.70 0.1002
915.80 0.1002
915.90 0.1001
916.00 0.1001
916.10 0.1
916.20 0.09996
916.30 0.09991
916.40 0.09986
916.50 0.09982
916.60 0.09977
916.70 0.09972
916.80 0.09967
916.90 0.09962
917.00 0.09957
917.10 0.09952
917.20 0.09946
917.30 0.09941
917.40 0.09935
917.50 0.0993
917.60 0.09924
917.70 0.09918
917.80 0.09913
917.90 0.09907
918.00 0.09902
918.10 0.09896
918.20 0.09891
918.30 0.09885
918.40 0.0988
918.50 0.09874
918.60 0.09869
918.70 0.09863
918.80 0.09858
918.90 0.09852
919.00 0.09847
919.10 0.09842
919.20 0.09836
919.30 0.09831
919.40 0.09825
919.50 0.0982
919.60 0.09814
919.70 0.09809
919.80 0.09803
919.90 0.09798
920.00 0.09792
920.10 0.09787
920.20 0.09781
920.30 0.09776
920.40 0.0977
920.50 0.09765
920.60 0.09759
920.70 0.09754
920.80 0.09749
920.90 0.09743
921.00 0.09738
921.10 0.09732
921.20 0.09727
921.30 0.09721
921.40 0.09716
921.50 0.09711
921.60 0.09705
921.70 0.097
921.80 0.09694
921.90 0.09689
922.00 0.09683
922.10 0.09681
922.20 0.09678
922.30 0.09675
922.40 0.09672
922.50 0.09669
922.60 0.09666
922.70 0.09664
922.80 0.09661
922.90 0.09658
923.00 0.09655
923.10 0.09652
923.20 0.09649
923.30 0.09647
923.40 0.09644
923.50 0.09641
923.60 0.09638
923.70 0.09635
923.80 0.09632
923.90 0.0963
924.00 0.09627
924.10 0.09624
924.20 0.09621
924.30 0.09618
924.40 0.09615
924.50 0.09613
924.60 0.0961
924.70 0.09607
924.80 0.09604
924.90 0.09601
925.00 0.09599
925.10 0.09596
925.20 0.09593
925.30 0.0959
925.40 0.09587
925.50 0.09585
925.60 0.09582
925.70 0.09579
925.80 0.09576
925.90 0.09573
926.00 0.09571
926.10 0.09568
926.20 0.09565
926.30 0.09562
926.40 0.09559
926.50 0.09557
926.60 0.09554
926.70 0.09551
926.80 0.09548
926.90 0.09545
927.00 0.09543
927.10 0.0954
927.20 0.09537
927.30 0.09535
927.40 0.09532
927.50 0.0953
927.60 0.09527
927.70 0.09524
927.80 0.09522
927.90 0.09519
928.00 0.09517
928.10 0.09514
928.20 0.09511
928.30 0.09509
928.40 0.09506
928.50 0.09504
928.60 0.09501
928.70 0.09498
928.80 0.09496
928.90 0.09493
929.00 0.09491
929.10 0.09488
929.20 0.09485
929.30 0.09483
929.40 0.0948
929.50 0.09478
929.60 0.09475
929.70 0.09473
929.80 0.0947
929.90 0.09467
930.00 0.09465
930.10 0.09462
930.20 0.0946
930.30 0.09457
930.40 0.09455
930.50 0.09452
930.60 0.09449
930.70 0.09447
930.80 0.09444
930.90 0.09442
931.00 0.09439
931.10 0.09437
931.20 0.09434
931.30 0.09431
931.40 0.09429
931.50 0.09426
931.60 0.09424
931.70 0.09421
931.80 0.09419
931.90 0.09416
932.00 0.09413
932.10 0.0941
932.20 0.09407
932.30 0.09404
932.40 0.09401
932.50 0.09398
932.60 0.09394
932.70 0.09391
932.80 0.09388
932.90 0.09385
933.00 0.09382
933.10 0.09378
933.20 0.09375
933.30 0.09372
933.40 0.09369
933.50 0.09366
933.60 0.09363
933.70 0.09359
933.80 0.09356
933.90 0.09353
934.00 0.0935
934.10 0.09347
934.20 0.09344
934.30 0.0934
934.40 0.09337
934.50 0.09333
934.60 0.0933
934.70 0.09326
934.80 0.09323
934.90 0.09319
935.00 0.09316
935.10 0.09312
935.20 0.09308
935.30 0.09305
935.40 0.09301
935.50 0.09298
935.60 0.09294
935.70 0.09291
935.80 0.09287
935.90 0.09284
936.00 0.0928
936.10 0.09277
936.20 0.09273
936.30 0.09269
936.40 0.09266
936.50 0.09262
936.60 0.09259
936.70 0.09255
936.80 0.09252
936.90 0.09248
937.00 0.09245
937.10 0.09241
937.20 0.09237
937.30 0.09233
937.40 0.0923
937.50 0.09226
937.60 0.09222
937.70 0.09218
937.80 0.09214
937.90 0.0921
938.00 0.09207
938.10 0.09203
938.20 0.09199
938.30 0.09195
938.40 0.09191
938.50 0.09187
938.60 0.09183
938.70 0.09179
938.80 0.09175
938.90 0.09171
939.00 0.09167
939.10 0.09163
939.20 0.09159
939.30 0.09155
939.40 0.09151
939.50 0.09147
939.60 0.09143
939.70 0.09139
939.80 0.09134
939.90 0.0913
940.00 0.09126
940.10 0.09122
940.20 0.09118
940.30 0.09114
940.40 0.0911
940.50 0.09106
940.60 0.09101
940.70 0.09097
940.80 0.09093
940.90 0.09088
941.00 0.09084
941.10 0.0908
941.20 0.09075
941.30 0.09071
941.40 0.09067
941.50 0.09062
941.60 0.09058
941.70 0.09054
941.80 0.09049
941.90 0.09045
942.00 0.09041
942.10 0.09036
942.20 0.09032
942.30 0.09027
942.40 0.09023
942.50 0.09018
942.60 0.09013
942.70 0.09008
942.80 0.09004
942.90 0.08999
943.00 0.08994
943.10 0.08989
943.20 0.08985
943.30 0.0898
943.40 0.08975
943.50 0.08971
943.60 0.08966
943.70 0.08961
943.80 0.08956
943.90 0.08952
944.00 0.08947
944.10 0.08942
944.20 0.08938
944.30 0.08933
944.40 0.08928
944.50 0.08923
944.60 0.08918
944.70 0.08913
944.80 0.08908
944.90 0.08903
945.00 0.08898
945.10 0.08893
945.20 0.08888
945.30 0.08883
945.40 0.08877
945.50 0.08872
945.60 0.08866
945.70 0.08861
945.80 0.08856
945.90 0.0885
946.00 0.08845
946.10 0.0884
946.20 0.08834
946.30 0.08829
946.40 0.08823
946.50 0.08818
946.60 0.08813
946.70 0.08807
946.80 0.08802
946.90 0.08797
947.00 0.08791
947.10 0.08786
947.20 0.0878
947.30 0.08774
947.40 0.08768
947.50 0.08762
947.60 0.08756
947.70 0.0875
947.80 0.08744
947.90 0.08738
948.00 0.08732
948.10 0.08726
948.20 0.0872
948.30 0.08714
948.40 0.08708
948.50 0.08702
948.60 0.08696
948.70 0.0869
948.80 0.08684
948.90 0.08678
949.00 0.08672
949.10 0.08667
949.20 0.08661
949.30 0.08655
949.40 0.08648
949.50 0.08641
949.60 0.08635
949.70 0.08628
949.80 0.08622
949.90 0.08615
950.00 0.08608
950.10 0.08602
950.20 0.08595
950.30 0.08589
950.40 0.08582
950.50 0.08576
950.60 0.08569
950.70 0.08562
950.80 0.08556
950.90 0.08549
951.00 0.08543
951.10 0.08536
951.20 0.0853
951.30 0.08523
951.40 0.08516
951.50 0.08509
951.60 0.08503
951.70 0.08496
951.80 0.08489
951.90 0.08482
952.00 0.08475
952.10 0.08468
952.20 0.08461
952.30 0.08454
952.40 0.08448
952.50 0.08441
952.60 0.08434
952.70 0.08427
952.80 0.0842
952.90 0.08413
953.00 0.08407
953.10 0.084
953.20 0.08393
953.30 0.08387
953.40 0.0838
953.50 0.08373
953.60 0.08367
953.70 0.08361
953.80 0.08355
953.90 0.08348
954.00 0.08343
954.10 0.08337
954.20 0.08331
954.30 0.08326
954.40 0.08322
954.50 0.08317
954.60 0.08314
954.70 0.08311
954.80 0.08309
954.90 0.08308
955.00 0.08306
955.10 0.08305
955.20 0.08304
955.30 0.08304
955.40 0.08304
955.50 0.08303
955.60 0.08303
955.70 0.08303
955.80 0.08302
955.90 0.08303
956.00 0.08303
956.10 0.08303
956.20 0.08303
956.30 0.08304
956.40 0.08304
956.50 0.08304
956.60 0.08304
956.70 0.08304
956.80 0.08305
956.90 0.08305
957.00 0.08305
957.10 0.08305
957.20 0.08306
957.30 0.08306
957.40 0.08306
957.50 0.08306
957.60 0.08306
957.70 0.08306
957.80 0.08306
957.90 0.08306
958.00 0.08306
958.10 0.08306
958.20 0.08306
958.30 0.08306
958.40 0.08306
958.50 0.08306
958.60 0.08306
958.70 0.08306
958.80 0.08306
958.90 0.08306
959.00 0.08306
959.10 0.08306
959.20 0.08306
959.30 0.08306
959.40 0.08306
959.50 0.08305
959.60 0.08304
959.70 0.08304
959.80 0.08303
959.90 0.08303
960.00 0.08302
960.10 0.08301
960.20 0.08301
960.30 0.083
960.40 0.083
960.50 0.08299
960.60 0.08298
960.70 0.08298
960.80 0.08297
960.90 0.08296
961.00 0.08296
961.10 0.08295
961.20 0.08295
961.30 0.08294
961.40 0.08293
961.50 0.08292
961.60 0.08291
961.70 0.0829
961.80 0.08289
961.90 0.08288
962.00 0.08287
962.10 0.08285
962.20 0.08284
962.30 0.08283
962.40 0.08281
962.50 0.0828
962.60 0.08278
962.70 0.08277
962.80 0.08276
962.90 0.08274
963.00 0.08273
963.10 0.08272
963.20 0.0827
963.30 0.08269
963.40 0.08267
963.50 0.08266
963.60 0.08264
963.70 0.08262
963.80 0.08261
963.90 0.08259
964.00 0.08257
964.10 0.08256
964.20 0.08254
964.30 0.08252
964.40 0.08251
964.50 0.08249
964.60 0.08247
964.70 0.08245
964.80 0.08243
964.90 0.08241
965.00 0.08239
965.10 0.08237
965.20 0.08235
965.30 0.08233
965.40 0.08231
965.50 0.08229
965.60 0.08227
965.70 0.08225
965.80 0.08223
965.90 0.08221
966.00 0.08219
966.10 0.08217
966.20 0.08215
966.30 0.08213
966.40 0.08211
966.50 0.08209
966.60 0.08206
966.70 0.08204
966.80 0.08202
966.90 0.082
967.00 0.08198
967.10 0.08195
967.20 0.08193
967.30 0.0819
967.40 0.08188
967.50 0.08186
967.60 0.08183
967.70 0.08181
967.80 0.08179
967.90 0.08176
968.00 0.08174
968.10 0.08172
968.20 0.08169
968.30 0.08167
968.40 0.08164
968.50 0.08162
968.60 0.08159
968.70 0.08157
968.80 0.08154
968.90 0.08151
969.00 0.08149
969.10 0.08146
969.20 0.08144
969.30 0.08141
969.40 0.08139
969.50 0.08136
969.60 0.08134
969.70 0.08131
969.80 0.08129
969.90 0.08126
970.00 0.08123
970.10 0.08121
970.20 0.08118
970.30 0.08116
970.40 0.08113
970.50 0.0811
970.60 0.08108
970.70 0.08105
970.80 0.08102
970.90 0.08099
971.00 0.08097
971.10 0.08094
971.20 0.08091
971.30 0.08089
971.40 0.08086
971.50 0.08083
971.60 0.0808
971.70 0.08078
971.80 0.08075
971.90 0.08072
972.00 0.08069
972.10 0.08067
972.20 0.08064
972.30 0.08061
972.40 0.08058
972.50 0.08055
972.60 0.08052
972.70 0.08049
972.80 0.08047
972.90 0.08044
973.00 0.08041
973.10 0.08038
973.20 0.08035
973.30 0.08032
973.40 0.08029
973.50 0.08027
973.60 0.08024
973.70 0.08021
973.80 0.08018
973.90 0.08015
974.00 0.08012
974.10 0.0801
974.20 0.08007
974.30 0.08004
974.40 0.08001
974.50 0.07998
974.60 0.07995
974.70 0.07992
974.80 0.07989
974.90 0.07986
975.00 0.07983
975.10 0.0798
975.20 0.07977
975.30 0.07974
975.40 0.07971
975.50 0.07968
975.60 0.07965
975.70 0.07962
975.80 0.07959
975.90 0.07956
976.00 0.07953
976.10 0.0795
976.20 0.07947
976.30 0.07944
976.40 0.07941
976.50 0.07938
976.60 0.07935
976.70 0.07932
976.80 0.07929
976.90 0.07926
977.00 0.07923
977.10 0.0792
977.20 0.07917
977.30 0.07914
977.40 0.07911
977.50 0.07908
977.60 0.07905
977.70 0.07901
977.80 0.07898
977.90 0.07895
978.00 0.07892
978.10 0.07889
978.20 0.07886
978.30 0.07883
978.40 0.0788
978.50 0.07876
978.60 0.07873
978.70 0.0787
978.80 0.07867
978.90 0.07864
979.00 0.07861
979.10 0.07858
979.20 0.07855
979.30 0.07851
979.40 0.07848
979.50 0.07845
979.60 0.07842
979.70 0.07839
979.80 0.07836
979.90 0.07833
980.00 0.0783
980.10 0.07826
980.20 0.07823
980.30 0.0782
980.40 0.07817
980.50 0.07814
980.60 0.07811
980.70 0.07808
980.80 0.07805
980.90 0.07802
981.00 0.07799
981.10 0.07795
981.20 0.07792
981.30 0.07789
981.40 0.07786
981.50 0.07783
981.60 0.0778
981.70 0.07777
981.80 0.07774
981.90 0.07771
982.00 0.07768
982.10 0.07764
982.20 0.07761
982.30 0.07758
982.40 0.07754
982.50 0.07751
982.60 0.07748
982.70 0.07745
982.80 0.07741
982.90 0.07738
983.00 0.07735
983.10 0.07732
983.20 0.07728
983.30 0.07725
983.40 0.07722
983.50 0.07718
983.60 0.07715
983.70 0.07712
983.80 0.07709
983.90 0.07705
984.00 0.07702
984.10 0.07699
984.20 0.07696
984.30 0.07692
984.40 0.07689
984.50 0.07686
984.60 0.07683
984.70 0.07679
984.80 0.07676
984.90 0.07672
985.00 0.07669
985.10 0.07666
985.20 0.07662
985.30 0.07659
985.40 0.07655
985.50 0.07652
985.60 0.07649
985.70 0.07645
985.80 0.07642
985.90 0.07638
986.00 0.07635
986.10 0.07632
986.20 0.07628
986.30 0.07625
986.40 0.07621
986.50 0.07618
986.60 0.07615
986.70 0.07611
986.80 0.07608
986.90 0.07605
987.00 0.07601
987.10 0.07598
987.20 0.07594
987.30 0.07591
987.40 0.07587
987.50 0.07583
987.60 0.0758
987.70 0.07576
987.80 0.07573
987.90 0.07569
988.00 0.07566
988.10 0.07562
988.20 0.07559
988.30 0.07555
988.40 0.07552
988.50 0.07548
988.60 0.07545
988.70 0.07541
988.80 0.07537
988.90 0.07533
989.00 0.0753
989.10 0.07526
989.20 0.07522
989.30 0.07518
989.40 0.07515
989.50 0.07511
989.60 0.07507
989.70 0.07503
989.80 0.075
989.90 0.07496
990.00 0.07492
990.10 0.07489
990.20 0.07485
990.30 0.07481
990.40 0.07477
990.50 0.07474
990.60 0.0747
990.70 0.07466
990.80 0.07462
990.90 0.07458
991.00 0.07454
991.10 0.0745
991.20 0.07446
991.30 0.07442
991.40 0.07438
991.50 0.07434
991.60 0.0743
991.70 0.07426
991.80 0.07422
991.90 0.07418
992.00 0.07414
992.10 0.0741
992.20 0.07406
992.30 0.07402
992.40 0.07398
992.50 0.07394
992.60 0.0739
992.70 0.07385
992.80 0.07381
992.90 0.07376
993.00 0.07372
993.10 0.07367
993.20 0.07363
993.30 0.07358
993.40 0.07354
993.50 0.07349
993.60 0.07345
993.70 0.07341
993.80 0.07336
993.90 0.07332
994.00 0.07327
994.10 0.07323
994.20 0.07318
994.30 0.07314
994.40 0.07309
994.50 0.07305
994.60 0.07301
994.70 0.07296
994.80 0.07291
994.90 0.07286
995.00 0.07281
995.10 0.07276
995.20 0.07271
995.30 0.07266
995.40 0.07262
995.50 0.07257
995.60 0.07252
995.70 0.07247
995.80 0.07241
995.90 0.07236
996.00 0.07231
996.10 0.07225
996.20 0.0722
996.30 0.07215
996.40 0.07209
996.50 0.07204
996.60 0.07199
996.70 0.07193
996.80 0.07188
996.90 0.07183
997.00 0.07177
997.10 0.07172
997.20 0.07166
997.30 0.0716
997.40 0.07154
997.50 0.07148
997.60 0.07143
997.70 0.07136
997.80 0.0713
997.90 0.07123
998.00 0.07117
998.10 0.0711
998.20 0.07104
998.30 0.07097
998.40 0.07091
998.50 0.07084
998.60 0.07078
998.70 0.07071
998.80 0.07065
998.90 0.07058
999.00 0.07052
999.10 0.07045
999.20 0.07039
999.30 0.07033
999.40 0.07026
999.50 0.0702
999.60 0.07013
999.70 0.07006
999.80 0.06998
999.90 0.0699
1000.00 0.06982
1000.10 0.06974
1000.20 0.06966
1000.30 0.06959
1000.40 0.06951
1000.50 0.06943
1000.60 0.06935
1000.70 0.06927
1000.80 0.06919
1000.90 0.06912
1001.00 0.06904
1001.10 0.06896
1001.20 0.06888
1001.30 0.0688
1001.40 0.06873
1001.50 0.06865
1001.60 0.06857
1001.70 0.06849
1001.80 0.0684
1001.90 0.06831
1002.00 0.06823
1002.10 0.06814
1002.20 0.06805
1002.30 0.06796
1002.40 0.06787
1002.50 0.06778
1002.60 0.06769
1002.70 0.0676
1002.80 0.06751
1002.90 0.06742
1003.00 0.06734
1003.10 0.06725
1003.20 0.06716
1003.30 0.06708
1003.40 0.06699
1003.50 0.06691
1003.60 0.06682
1003.70 0.06674
1003.80 0.06665
1003.90 0.06658
1004.00 0.06652
1004.10 0.06645
1004.20 0.06639
1004.30 0.06634
1004.40 0.0663
1004.50 0.06628
1004.60 0.06628
1004.70 0.06631
1004.80 0.06635
1004.90 0.06634
1005.00 0.06633
1005.10 0.06627
1005.20 0.0662
1005.30 0.06613
1005.40 0.06606
1005.50 0.06605
1005.60 0.06606
1005.70 0.06607
1005.80 0.06608
1005.90 0.06609
1006.00 0.0661
1006.10 0.06611
1006.20 0.06614
1006.30 0.06618
1006.40 0.06621
1006.50 0.06625
1006.60 0.06629
1006.70 0.06632
1006.80 0.06636
1006.90 0.0664
1007.00 0.06643
1007.10 0.06647
1007.20 0.06651
1007.30 0.06655
1007.40 0.06659
1007.50 0.06662
1007.60 0.06666
1007.70 0.06669
1007.80 0.06672
1007.90 0.06675
1008.00 0.06678
1008.10 0.06681
1008.20 0.06684
1008.30 0.06687
1008.40 0.0669
1008.50 0.06693
1008.60 0.06696
1008.70 0.06699
1008.80 0.06702
1008.90 0.06705
1009.00 0.06708
1009.10 0.06711
1009.20 0.06714
1009.30 0.06716
1009.40 0.06719
1009.50 0.06722
1009.60 0.06725
1009.70 0.06727
1009.80 0.06729
1009.90 0.0673
1010.00 0.06731
1010.10 0.06733
1010.20 0.06734
1010.30 0.06736
1010.40 0.06737
1010.50 0.06739
1010.60 0.0674
1010.70 0.06742
1010.80 0.06743
1010.90 0.06744
1011.00 0.06746
1011.10 0.06747
1011.20 0.06749
1011.30 0.0675
1011.40 0.06752
1011.50 0.06753
1011.60 0.06755
1011.70 0.06755
1011.80 0.06756
1011.90 0.06757
1012.00 0.06757
1012.10 0.06757
1012.20 0.06758
1012.30 0.06758
1012.40 0.06758
1012.50 0.06758
1012.60 0.06758
1012.70 0.06758
1012.80 0.06758
1012.90 0.06759
1013.00 0.06759
1013.10 0.06759
1013.20 0.06759
1013.30 0.06759
1013.40 0.06759
1013.50 0.06759
1013.60 0.0676
1013.70 0.06759
1013.80 0.06759
1013.90 0.06758
1014.00 0.06758
1014.10 0.06758
1014.20 0.06757
1014.30 0.06757
1014.40 0.06756
1014.50 0.06756
1014.60 0.06755
1014.70 0.06755
1014.80 0.06754
1014.90 0.06753
1015.00 0.06752
1015.10 0.06751
1015.20 0.0675
1015.30 0.06749
1015.40 0.06748
1015.50 0.06747
1015.60 0.06746
1015.70 0.06745
1015.80 0.06744
1015.90 0.06743
1016.00 0.06742
1016.10 0.06741
1016.20 0.06741
1016.30 0.0674
1016.40 0.06739
1016.50 0.06738
1016.60 0.06737
1016.70 0.06736
1016.80 0.06734
1016.90 0.06733
1017.00 0.06732
1017.10 0.0673
1017.20 0.06729
1017.30 0.06728
1017.40 0.06726
1017.50 0.06725
1017.60 0.06723
1017.70 0.06722
1017.80 0.0672
1017.90 0.06719
1018.00 0.06717
1018.10 0.06716
1018.20 0.06714
1018.30 0.06713
1018.40 0.06711
1018.50 0.0671
1018.60 0.06709
1018.70 0.06707
1018.80 0.06705
1018.90 0.06703
1019.00 0.06702
1019.10 0.067
1019.20 0.06698
1019.30 0.06696
1019.40 0.06695
1019.50 0.06693
1019.60 0.06691
1019.70 0.0669
1019.80 0.06688
1019.90 0.06686
1020.00 0.06684
1020.10 0.06683
1020.20 0.06681
1020.30 0.06679
1020.40 0.06677
1020.50 0.06676
1020.60 0.06674
1020.70 0.06672
1020.80 0.0667
1020.90 0.06668
1021.00 0.06666
1021.10 0.06664
1021.20 0.06662
1021.30 0.06661
1021.40 0.06659
1021.50 0.06657
1021.60 0.06655
1021.70 0.06653
1021.80 0.06651
1021.90 0.06649
1022.00 0.06647
1022.10 0.06645
1022.20 0.06643
1022.30 0.06641
1022.40 0.06639
1022.50 0.06637
1022.60 0.06635
1022.70 0.06633
1022.80 0.0663
1022.90 0.06628
1023.00 0.06626
1023.10 0.06624
1023.20 0.06622
1023.30 0.0662
1023.40 0.06618
1023.50 0.06616
1023.60 0.06614
1023.70 0.06612
1023.80 0.0661
1023.90 0.06608
1024.00 0.06606
1024.10 0.06604
1024.20 0.06601
1024.30 0.06599
1024.40 0.06597
1024.50 0.06595
1024.60 0.06593
1024.70 0.06591
1024.80 0.06589
1024.90 0.06587
1025.00 0.06584
1025.10 0.06582
1025.20 0.0658
1025.30 0.06578
1025.40 0.06576
1025.50 0.06574
1025.60 0.06571
1025.70 0.06569
1025.80 0.06567
1025.90 0.06565
1026.00 0.06563
1026.10 0.0656
1026.20 0.06558
1026.30 0.06556
1026.40 0.06554
1026.50 0.06552
1026.60 0.06549
1026.70 0.06547
1026.80 0.06545
1026.90 0.06543
1027.00 0.06541
1027.10 0.06538
1027.20 0.06536
1027.30 0.06534
1027.40 0.06532
1027.50 0.06529
1027.60 0.06527
1027.70 0.06525
1027.80 0.06523
1027.90 0.0652
1028.00 0.06518
1028.10 0.06516
1028.20 0.06513
1028.30 0.06511
1028.40 0.06509
1028.50 0.06507
1028.60 0.06504
1028.70 0.06502
1028.80 0.065
1028.90 0.06497
1029.00 0.06495
1029.10 0.06493
1029.20 0.06491
1029.30 0.06488
1029.40 0.06486
1029.50 0.06484
1029.60 0.06482
1029.70 0.06479
1029.80 0.06477
1029.90 0.06475
1030.00 0.06472
1030.10 0.0647
1030.20 0.06468
1030.30 0.06466
1030.40 0.06463
1030.50 0.06461
1030.60 0.06459
1030.70 0.06457
1030.80 0.06454
1030.90 0.06452
1031.00 0.0645
1031.10 0.06448
1031.20 0.06445
1031.30 0.06443
1031.40 0.06441
1031.50 0.06439
1031.60 0.06436
1031.70 0.06434
1031.80 0.06432
1031.90 0.0643
1032.00 0.06427
1032.10 0.06425
1032.20 0.06423
1032.30 0.0642
1032.40 0.06418
1032.50 0.06416
1032.60 0.06413
1032.70 0.06411
1032.80 0.06409
1032.90 0.06406
1033.00 0.06404
1033.10 0.06402
1033.20 0.064
1033.30 0.06397
1033.40 0.06395
1033.50 0.06393
1033.60 0.0639
1033.70 0.06388
1033.80 0.06386
1033.90 0.06383
1034.00 0.06381
1034.10 0.06379
1034.20 0.06376
1034.30 0.06374
1034.40 0.06372
1034.50 0.0637
1034.60 0.06367
1034.70 0.06365
1034.80 0.06363
1034.90 0.0636
1035.00 0.06358
1035.10 0.06356
1035.20 0.06353
1035.30 0.06351
1035.40 0.06349
1035.50 0.06347
1035.60 0.06344
1035.70 0.06342
1035.80 0.0634
1035.90 0.06337
1036.00 0.06335
1036.10 0.06333
1036.20 0.0633
1036.30 0.06328
1036.40 0.06326
1036.50 0.06324
1036.60 0.06321
1036.70 0.06319
1036.80 0.06317
1036.90 0.06314
1037.00 0.06312
1037.10 0.0631
1037.20 0.06308
1037.30 0.06305
1037.40 0.06303
1037.50 0.06301
1037.60 0.06298
1037.70 0.06296
1037.80 0.06294
1037.90 0.06291
1038.00 0.06289
1038.10 0.06287
1038.20 0.06284
1038.30 0.06282
1038.40 0.0628
1038.50 0.06278
1038.60 0.06275
1038.70 0.06273
1038.80 0.06271
1038.90 0.06268
1039.00 0.06266
1039.10 0.06264
1039.20 0.06261
1039.30 0.06259
1039.40 0.06257
1039.50 0.06255
1039.60 0.06252
1039.70 0.0625
1039.80 0.06248
1039.90 0.06245
1040.00 0.06243
1040.10 0.06241
1040.20 0.06238
1040.30 0.06236
1040.40 0.06234
1040.50 0.06232
1040.60 0.06229
1040.70 0.06227
1040.80 0.06225
1040.90 0.06222
1041.00 0.0622
1041.10 0.06218
1041.20 0.06216
1041.30 0.06213
1041.40 0.06211
1041.50 0.06209
1041.60 0.06206
1041.70 0.06204
1041.80 0.06202
1041.90 0.062
1042.00 0.06197
1042.10 0.06195
1042.20 0.06193
1042.30 0.0619
1042.40 0.06188
1042.50 0.06186
1042.60 0.06184
1042.70 0.06181
1042.80 0.06179
1042.90 0.06177
1043.00 0.06174
1043.10 0.06172
1043.20 0.0617
1043.30 0.06168
1043.40 0.06165
1043.50 0.06163
1043.60 0.06161
1043.70 0.06159
1043.80 0.06156
1043.90 0.06154
1044.00 0.06152
1044.10 0.06149
1044.20 0.06147
1044.30 0.06145
1044.40 0.06143
1044.50 0.0614
1044.60 0.06138
1044.70 0.06136
1044.80 0.06134
1044.90 0.06131
1045.00 0.06129
1045.10 0.06127
1045.20 0.06124
1045.30 0.06122
1045.40 0.0612
1045.50 0.06118
1045.60 0.06115
1045.70 0.06113
1045.80 0.06111
1045.90 0.06109
1046.00 0.06106
1046.10 0.06104
1046.20 0.06102
1046.30 0.061
1046.40 0.06097
1046.50 0.06095
1046.60 0.06093
1046.70 0.06091
1046.80 0.06088
1046.90 0.06086
1047.00 0.06084
1047.10 0.06082
1047.20 0.06079
1047.30 0.06077
1047.40 0.06075
1047.50 0.06073
1047.60 0.0607
1047.70 0.06068
1047.80 0.06066
1047.90 0.06064
1048.00 0.06061
1048.10 0.06059
1048.20 0.06057
1048.30 0.06055
1048.40 0.06052
1048.50 0.0605
1048.60 0.06048
1048.70 0.06046
1048.80 0.06043
1048.90 0.06041
1049.00 0.06039
1049.10 0.06037
1049.20 0.06034
1049.30 0.06032
1049.40 0.0603
1049.50 0.06028
1049.60 0.06025
1049.70 0.06023
1049.80 0.06021
1049.90 0.06019
1050.00 0.06017
1050.10 0.06014
1050.20 0.06012
1050.30 0.0601
1050.40 0.06008
1050.50 0.06005
1050.60 0.06003
1050.70 0.06001
1050.80 0.05999
1050.90 0.05996
1051.00 0.05994
1051.10 0.05992
1051.20 0.0599
1051.30 0.05988
1051.40 0.05985
1051.50 0.05983
1051.60 0.05981
1051.70 0.05979
1051.80 0.05976
1051.90 0.05974
1052.00 0.05972
1052.10 0.0597
1052.20 0.05968
1052.30 0.05965
1052.40 0.05963
1052.50 0.05961
1052.60 0.05959
1052.70 0.05956
1052.80 0.05954
1052.90 0.05952
1053.00 0.0595
1053.10 0.05948
1053.20 0.05945
1053.30 0.05943
1053.40 0.05941
1053.50 0.05939
1053.60 0.05936
1053.70 0.05934
1053.80 0.05932
1053.90 0.0593
1054.00 0.05928
1054.10 0.05925
1054.20 0.05923
1054.30 0.05921
1054.40 0.05919
1054.50 0.05917
1054.60 0.05914
1054.70 0.05912
1054.80 0.0591
1054.90 0.05908
1055.00 0.05905
1055.10 0.05903
1055.20 0.05901
1055.30 0.05899
1055.40 0.05897
1055.50 0.05894
1055.60 0.05892
1055.70 0.0589
1055.80 0.05888
1055.90 0.05886
1056.00 0.05883
1056.10 0.05881
1056.20 0.05879
1056.30 0.05877
1056.40 0.05875
1056.50 0.05872
1056.60 0.0587
1056.70 0.05868
1056.80 0.05866
1056.90 0.05864
1057.00 0.05862
1057.10 0.05859
1057.20 0.05857
1057.30 0.05855
1057.40 0.05853
1057.50 0.05851
1057.60 0.05848
1057.70 0.05846
1057.80 0.05844
1057.90 0.05842
1058.00 0.0584
1058.10 0.05837
1058.20 0.05835
1058.30 0.05833
1058.40 0.05831
1058.50 0.05829
1058.60 0.05826
1058.70 0.05824
1058.80 0.05822
1058.90 0.0582
1059.00 0.05818
1059.10 0.05815
1059.20 0.05813
1059.30 0.05811
1059.40 0.05809
1059.50 0.05807
1059.60 0.05804
1059.70 0.05802
1059.80 0.058
1059.90 0.05798
1060.00 0.05796
1060.10 0.05794
1060.20 0.05791
1060.30 0.05789
1060.40 0.05787
1060.50 0.05785
1060.60 0.05783
1060.70 0.05781
1060.80 0.05778
1060.90 0.05776
1061.00 0.05774
1061.10 0.05772
1061.20 0.0577
1061.30 0.05767
1061.40 0.05765
1061.50 0.05763
1061.60 0.05761
1061.70 0.05759
1061.80 0.05757
1061.90 0.05754
1062.00 0.05752
1062.10 0.0575
1062.20 0.05748
1062.30 0.05746
1062.40 0.05743
1062.50 0.05741
1062.60 0.05739
1062.70 0.05737
1062.80 0.05735
1062.90 0.05732
1063.00 0.0573
1063.10 0.05728
1063.20 0.05726
1063.30 0.05724
1063.40 0.05722
1063.50 0.05719
1063.60 0.05717
1063.70 0.05715
1063.80 0.05713
1063.90 0.05711
1064.00 0.05708
1064.10 0.05706
1064.20 0.05704
1064.30 0.05702
1064.40 0.057
1064.50 0.05697
1064.60 0.05695
1064.70 0.05693
1064.80 0.05691
1064.90 0.05689
1065.00 0.05687
1065.10 0.05684
1065.20 0.05682
1065.30 0.0568
1065.40 0.05678
1065.50 0.05676
1065.60 0.05674
1065.70 0.05671
1065.80 0.05669
1065.90 0.05667
1066.00 0.05665
1066.10 0.05663
1066.20 0.05661
1066.30 0.05658
1066.40 0.05656
1066.50 0.05654
1066.60 0.05652
1066.70 0.0565
1066.80 0.05648
1066.90 0.05645
1067.00 0.05643
1067.10 0.05641
1067.20 0.05639
1067.30 0.05636
1067.40 0.05634
1067.50 0.05632
1067.60 0.0563
1067.70 0.05628
1067.80 0.05625
1067.90 0.05623
1068.00 0.05621
1068.10 0.05619
1068.20 0.05616
1068.30 0.05614
1068.40 0.05612
1068.50 0.0561
1068.60 0.05607
1068.70 0.05605
1068.80 0.05603
1068.90 0.05601
1069.00 0.05599
1069.10 0.05596
1069.20 0.05594
1069.30 0.05592
1069.40 0.0559
1069.50 0.05587
1069.60 0.05585
1069.70 0.05583
1069.80 0.05581
1069.90 0.05579
1070.00 0.05576
1070.10 0.05574
1070.20 0.05572
1070.30 0.0557
1070.40 0.05567
1070.50 0.05565
1070.60 0.05563
1070.70 0.05561
1070.80 0.05559
1070.90 0.05556
1071.00 0.05554
1071.10 0.05552
1071.20 0.0555
1071.30 0.05548
1071.40 0.05545
1071.50 0.05543
1071.60 0.05541
1071.70 0.05539
1071.80 0.05536
1071.90 0.05534
1072.00 0.05532
1072.10 0.0553
1072.20 0.05527
1072.30 0.05525
1072.40 0.05523
1072.50 0.05521
1072.60 0.05518
1072.70 0.05516
1072.80 0.05514
1072.90 0.05511
1073.00 0.05509
1073.10 0.05507
1073.20 0.05505
1073.30 0.05502
1073.40 0.055
1073.50 0.05498
1073.60 0.05495
1073.70 0.05493
1073.80 0.0549
1073.90 0.05488
1074.00 0.05486
1074.10 0.05483
1074.20 0.05481
1074.30 0.05478
1074.40 0.05476
1074.50 0.05474
1074.60 0.05471
1074.70 0.05469
1074.80 0.05466
1074.90 0.05464
1075.00 0.05462
1075.10 0.05459
1075.20 0.05457
1075.30 0.05454
1075.40 0.05452
1075.50 0.0545
1075.60 0.05447
1075.70 0.05445
1075.80 0.05442
1075.90 0.0544
1076.00 0.05438
1076.10 0.05435
1076.20 0.05433
1076.30 0.0543
1076.40 0.05428
1076.50 0.05426
1076.60 0.05423
1076.70 0.05421
1076.80 0.05419
1076.90 0.05416
1077.00 0.05414
1077.10 0.05411
1077.20 0.05409
1077.30 0.05406
1077.40 0.05404
1077.50 0.05401
1077.60 0.05398
1077.70 0.05396
1077.80 0.05393
1077.90 0.05391
1078.00 0.05388
1078.10 0.05385
1078.20 0.05383
1078.30 0.0538
1078.40 0.05377
1078.50 0.05375
1078.60 0.05372
1078.70 0.05369
1078.80 0.05367
1078.90 0.05364
1079.00 0.05361
1079.10 0.05359
1079.20 0.05356
1079.30 0.05354
1079.40 0.05351
1079.50 0.05348
1079.60 0.05345
1079.70 0.05342
1079.80 0.05339
1079.90 0.05337
1080.00 0.05334
1080.10 0.05331
1080.20 0.05328
1080.30 0.05325
1080.40 0.05322
1080.50 0.05319
1080.60 0.05316
1080.70 0.05313
1080.80 0.0531
1080.90 0.05308
1081.00 0.05305
1081.10 0.05302
1081.20 0.05299
1081.30 0.05296
1081.40 0.05293
1081.50 0.0529
1081.60 0.05287
1081.70 0.05284
1081.80 0.05281
1081.90 0.05277
1082.00 0.05274
1082.10 0.05271
1082.20 0.05268
1082.30 0.05264
1082.40 0.05261
1082.50 0.05257
1082.60 0.05254
1082.70 0.05251
1082.80 0.05247
1082.90 0.05244
1083.00 0.05241
1083.10 0.05237
1083.20 0.05234
1083.30 0.05231
1083.40 0.05227
1083.50 0.05224
1083.60 0.0522
1083.70 0.05216
1083.80 0.05212
1083.90 0.05209
1084.00 0.05205
1084.10 0.05201
1084.20 0.05197
1084.30 0.05194
1084.40 0.0519
1084.50 0.05186
1084.60 0.05182
1084.70 0.05177
1084.80 0.05173
1084.90 0.05169
1085.00 0.05164
1085.10 0.0516
1085.20 0.05156
1085.30 0.05151
1085.40 0.05147
1085.50 0.05143
1085.60 0.05138
1085.70 0.05134
1085.80 0.0513
1085.90 0.05125
1086.00 0.05121
1086.10 0.05117
1086.20 0.05112
1086.30 0.05108
1086.40 0.05104
1086.50 0.05099
1086.60 0.05094
1086.70 0.05089
1086.80 0.05084
1086.90 0.05079
1087.00 0.05074
1087.10 0.05069
1087.20 0.05063
1087.30 0.05057
1087.40 0.05052
1087.50 0.05046
1087.60 0.0504
1087.70 0.05035
1087.80 0.05029
1087.90 0.05024
1088.00 0.05018
1088.10 0.05012
1088.20 0.05007
1088.30 0.05001
1088.40 0.04996
1088.50 0.04989
1088.60 0.04983
1088.70 0.04976
1088.80 0.04969
1088.90 0.04962
1089.00 0.04955
1089.10 0.04948
1089.20 0.04941
1089.30 0.04934
1089.40 0.04927
1089.50 0.0492
1089.60 0.04913
1089.70 0.04906
1089.80 0.049
1089.90 0.04893
1090.00 0.04886
1090.10 0.04879
1090.20 0.04872
1090.30 0.04865
1090.40 0.04858
1090.50 0.04851
1090.60 0.04843
1090.70 0.04835
1090.80 0.04827
1090.90 0.04818
1091.00 0.0481
1091.10 0.04802
1091.20 0.04794
1091.30 0.04786
1091.40 0.04778
1091.50 0.0477
1091.60 0.04762
1091.70 0.04754
1091.80 0.04746
1091.90 0.04738
1092.00 0.0473
1092.10 0.04722
1092.20 0.04714
1092.30 0.04706
1092.40 0.04698
1092.50 0.0469
1092.60 0.04682
1092.70 0.04674
1092.80 0.04666
1092.90 0.04659
1093.00 0.04651
1093.10 0.04643
1093.20 0.04636
1093.30 0.04628
1093.40 0.0462
1093.50 0.04612
1093.60 0.04604
1093.70 0.04599
1093.80 0.04597
1093.90 0.04597
1094.00 0.04601
1094.10 0.04605
1094.20 0.04608
1094.30 0.04612
1094.40 0.04616
1094.50 0.04621
1094.60 0.04625
1094.70 0.0463
1094.80 0.04634
1094.90 0.04639
1095.00 0.04643
1095.10 0.04648
1095.20 0.04653
1095.30 0.04658
1095.40 0.04662
1095.50 0.04667
1095.60 0.04672
1095.70 0.04677
1095.80 0.04682
1095.90 0.04687
1096.00 0.04691
1096.10 0.04696
1096.20 0.04701
1096.30 0.04706
1096.40 0.04711
1096.50 0.04715
1096.60 0.0472
1096.70 0.04725
1096.80 0.04729
1096.90 0.04734
1097.00 0.04738
1097.10 0.04742
1097.20 0.04746
1097.30 0.04749
1097.40 0.04753
1097.50 0.04757
1097.60 0.04761
1097.70 0.04764
1097.80 0.04768
1097.90 0.04772
1098.00 0.04776
1098.10 0.04779
1098.20 0.04783
1098.30 0.04787
1098.40 0.04791
1098.50 0.04794
1098.60 0.04796
1098.70 0.04798
1098.80 0.04801
1098.90 0.04803
1099.00 0.04805
1099.10 0.04808
1099.20 0.0481
1099.30 0.04812
1099.40 0.04815
1099.50 0.04817
1099.60 0.04819
1099.70 0.04821
1099.80 0.04824
1099.90 0.04826
1100.00 0.04828
1100.10 0.04831
1100.20 0.04833
1100.30 0.04835
1100.40 0.04838
1100.50 0.04839
1100.60 0.04841
1100.70 0.04842
1100.80 0.04843
1100.90 0.04844
1101.00 0.04845
1101.10 0.04846
1101.20 0.04847
1101.30 0.04848
1101.40 0.0485
1101.50 0.04851
1101.60 0.04852
1101.70 0.04853
1101.80 0.04854
1101.90 0.04855
1102.00 0.04856
1102.10 0.04857
1102.20 0.04857
1102.30 0.04858
1102.40 0.04859
1102.50 0.04859
1102.60 0.04859
1102.70 0.0486
1102.80 0.0486
1102.90 0.0486
1103.00 0.0486
1103.10 0.04861
1103.20 0.04861
1103.30 0.04861
1103.40 0.04861
1103.50 0.04862
1103.60 0.04861
1103.70 0.04861
1103.80 0.04861
1103.90 0.04861
1104.00 0.0486
1104.10 0.0486
1104.20 0.0486
1104.30 0.0486
1104.40 0.04859
1104.50 0.04859
1104.60 0.04859
1104.70 0.04859
1104.80 0.04859
1104.90 0.04858
1105.00 0.04858
1105.10 0.04858
1105.20 0.04858
1105.30 0.04857
1105.40 0.04857
1105.50 0.04857
1105.60 0.04856
1105.70 0.04855
1105.80 0.04855
1105.90 0.04854
1106.00 0.04853
1106.10 0.04853
1106.20 0.04852
1106.30 0.04851
1106.40 0.04851
1106.50 0.0485
1106.60 0.04849
1106.70 0.04849
1106.80 0.04848
1106.90 0.04847
1107.00 0.04847
1107.10 0.04846
1107.20 0.04845
1107.30 0.04844
1107.40 0.04843
1107.50 0.04843
1107.60 0.04841
1107.70 0.0484
1107.80 0.04839
1107.90 0.04838
1108.00 0.04837
1108.10 0.04836
1108.20 0.04835
1108.30 0.04834
1108.40 0.04833
1108.50 0.04832
1108.60 0.04831
1108.70 0.0483
1108.80 0.04829
1108.90 0.04828
1109.00 0.04827
1109.10 0.04826
1109.20 0.04825
1109.30 0.04824
1109.40 0.04823
1109.50 0.04822
1109.60 0.04821
1109.70 0.0482
1109.80 0.04819
1109.90 0.04817
1110.00 0.04816
1110.10 0.04815
1110.20 0.04814
1110.30 0.04812
1110.40 0.04811
1110.50 0.0481
1110.60 0.04809
1110.70 0.04807
1110.80 0.04806
1110.90 0.04805
1111.00 0.04804
1111.10 0.04803
1111.20 0.04801
1111.30 0.048
1111.40 0.04799
1111.50 0.04798
1111.60 0.04796
1111.70 0.04795
1111.80 0.04794
1111.90 0.04793
1112.00 0.04792
1112.10 0.0479
1112.20 0.04789
1112.30 0.04788
1112.40 0.04786
1112.50 0.04785
1112.60 0.04783
1112.70 0.04782
1112.80 0.04781
1112.90 0.04779
1113.00 0.04778
1113.10 0.04777
1113.20 0.04775
1113.30 0.04774
1113.40 0.04773
1113.50 0.04771
1113.60 0.0477
1113.70 0.04768
1113.80 0.04767
1113.90 0.04766
1114.00 0.04764
1114.10 0.04763
1114.20 0.04761
1114.30 0.0476
1114.40 0.04758
1114.50 0.04757
1114.60 0.04756
1114.70 0.04754
1114.80 0.04753
1114.90 0.04751
1115.00 0.0475
1115.10 0.04748
1115.20 0.04747
1115.30 0.04745
1115.40 0.04744
1115.50 0.04743
1115.60 0.04741
1115.70 0.0474
1115.80 0.04738
1115.90 0.04737
1116.00 0.04735
1116.10 0.04734
1116.20 0.04733
1116.30 0.04731
1116.40 0.0473
1116.50 0.04728
1116.60 0.04727
1116.70 0.04725
1116.80 0.04724
1116.90 0.04723
1117.00 0.04721
1117.10 0.0472
1117.20 0.04718
1117.30 0.04717
1117.40 0.04715
1117.50 0.04714
1117.60 0.04712
1117.70 0.04711
1117.80 0.04709
1117.90 0.04708
1118.00 0.04706
1118.10 0.04704
1118.20 0.04703
1118.30 0.04701
1118.40 0.047
1118.50 0.04698
1118.60 0.04697
1118.70 0.04695
1118.80 0.04694
1118.90 0.04692
1119.00 0.04691
1119.10 0.04689
1119.20 0.04688
1119.30 0.04686
1119.40 0.04685
1119.50 0.04683
1119.60 0.04682
1119.70 0.0468
1119.80 0.04679
1119.90 0.04677
1120.00 0.04676
1120.10 0.04674
1120.20 0.04673
1120.30 0.04671
1120.40 0.0467
1120.50 0.04668
1120.60 0.04667
1120.70 0.04665
1120.80 0.04664
1120.90 0.04662
1121.00 0.04661
1121.10 0.04659
1121.20 0.04658
1121.30 0.04656
1121.40 0.04655
1121.50 0.04653
1121.60 0.04652
1121.70 0.0465
1121.80 0.04649
1121.90 0.04647
1122.00 0.04646
1122.10 0.04644
1122.20 0.04643
1122.30 0.04641
1122.40 0.0464
1122.50 0.04638
1122.60 0.04637
1122.70 0.04635
1122.80 0.04633
1122.90 0.04632
1123.00 0.0463
1123.10 0.04629
1123.20 0.04627
1123.30 0.04626
1123.40 0.04624
1123.50 0.04623
1123.60 0.04621
1123.70 0.0462
1123.80 0.04618
1123.90 0.04617
1124.00 0.04615
1124.10 0.04613
1124.20 0.04612
1124.30 0.0461
1124.40 0.04609
1124.50 0.04607
1124.60 0.04606
1124.70 0.04604
1124.80 0.04603
1124.90 0.04601
1125.00 0.046
1125.10 0.04598
1125.20 0.04597
1125.30 0.04595
1125.40 0.04594
1125.50 0.04592
1125.60 0.04591
1125.70 0.04589
1125.80 0.04587
1125.90 0.04586
1126.00 0.04584
1126.10 0.04583
1126.20 0.04581
1126.30 0.0458
1126.40 0.04578
1126.50 0.04577
1126.60 0.04575
1126.70 0.04574
1126.80 0.04572
1126.90 0.04571
1127.00 0.04569
1127.10 0.04568
1127.20 0.04566
1127.30 0.04565
1127.40 0.04563
1127.50 0.04561
1127.60 0.0456
1127.70 0.04558
1127.80 0.04557
1127.90 0.04555
1128.00 0.04554
1128.10 0.04552
1128.20 0.04551
1128.30 0.04549
1128.40 0.04548
1128.50 0.04546
1128.60 0.04545
1128.70 0.04543
1128.80 0.04542
1128.90 0.0454
1129.00 0.04539
1129.10 0.04537
1129.20 0.04535
1129.30 0.04534
1129.40 0.04532
1129.50 0.04531
1129.60 0.04529
1129.70 0.04528
1129.80 0.04526
1129.90 0.04525
1130.00 0.04523
1130.10 0.04522
1130.20 0.0452
1130.30 0.04519
1130.40 0.04517
1130.50 0.04516
1130.60 0.04514
1130.70 0.04513
1130.80 0.04511
1130.90 0.0451
1131.00 0.04508
1131.10 0.04507
1131.20 0.04505
1131.30 0.04504
1131.40 0.04502
1131.50 0.045
1131.60 0.04499
1131.70 0.04497
1131.80 0.04496
1131.90 0.04494
1132.00 0.04493
1132.10 0.04491
1132.20 0.0449
1132.30 0.04488
1132.40 0.04487
1132.50 0.04485
1132.60 0.04484
1132.70 0.04482
1132.80 0.04481
1132.90 0.04479
1133.00 0.04478
1133.10 0.04476
1133.20 0.04475
1133.30 0.04473
1133.40 0.04472
1133.50 0.0447
1133.60 0.04469
1133.70 0.04467
1133.80 0.04466
1133.90 0.04464
1134.00 0.04463
1134.10 0.04461
1134.20 0.0446
1134.30 0.04458
1134.40 0.04457
1134.50 0.04455
1134.60 0.04454
1134.70 0.04452
1134.80 0.04451
1134.90 0.04449
1135.00 0.04448
1135.10 0.04446
1135.20 0.04445
1135.30 0.04443
1135.40 0.04441
1135.50 0.0444
1135.60 0.04438
1135.70 0.04437
1135.80 0.04435
1135.90 0.04434
1136.00 0.04432
1136.10 0.04431
1136.20 0.04429
1136.30 0.04428
1136.40 0.04426
1136.50 0.04425
1136.60 0.04423
1136.70 0.04422
1136.80 0.0442
1136.90 0.04419
1137.00 0.04417
1137.10 0.04416
1137.20 0.04414
1137.30 0.04413
1137.40 0.04412
1137.50 0.0441
1137.60 0.04409
1137.70 0.04407
1137.80 0.04406
1137.90 0.04404
1138.00 0.04403
1138.10 0.04401
1138.20 0.044
1138.30 0.04398
1138.40 0.04397
1138.50 0.04395
1138.60 0.04394
1138.70 0.04392
1138.80 0.04391
1138.90 0.04389
1139.00 0.04388
1139.10 0.04386
1139.20 0.04385
1139.30 0.04383
1139.40 0.04382
1139.50 0.0438
1139.60 0.04379
1139.70 0.04377
1139.80 0.04376
1139.90 0.04374
1140.00 0.04373
1140.10 0.04371
1140.20 0.0437
1140.30 0.04368
1140.40 0.04367
1140.50 0.04365
1140.60 0.04364
1140.70 0.04362
1140.80 0.04361
1140.90 0.0436
1141.00 0.04358
1141.10 0.04357
1141.20 0.04355
1141.30 0.04354
1141.40 0.04352
1141.50 0.04351
1141.60 0.04349
1141.70 0.04348
1141.80 0.04346
1141.90 0.04345
1142.00 0.04343
1142.10 0.04342
1142.20 0.0434
1142.30 0.04339
1142.40 0.04337
1142.50 0.04336
1142.60 0.04334
1142.70 0.04333
1142.80 0.04332
1142.90 0.0433
1143.00 0.04329
1143.10 0.04327
1143.20 0.04326
1143.30 0.04324
1143.40 0.04323
1143.50 0.04321
1143.60 0.0432
1143.70 0.04318
1143.80 0.04317
1143.90 0.04315
1144.00 0.04314
1144.10 0.04313
1144.20 0.04311
1144.30 0.0431
1144.40 0.04308
1144.50 0.04307
1144.60 0.04305
1144.70 0.04304
1144.80 0.04302
1144.90 0.04301
1145.00 0.04299
1145.10 0.04298
1145.20 0.04296
1145.30 0.04295
1145.40 0.04294
1145.50 0.04292
1145.60 0.04291
1145.70 0.04289
1145.80 0.04288
1145.90 0.04286
1146.00 0.04285
1146.10 0.04283
1146.20 0.04282
1146.30 0.04281
1146.40 0.04279
1146.50 0.04278
1146.60 0.04276
1146.70 0.04275
1146.80 0.04273
1146.90 0.04272
1147.00 0.0427
1147.10 0.04269
1147.20 0.04267
1147.30 0.04266
1147.40 0.04265
1147.50 0.04263
1147.60 0.04262
1147.70 0.0426
1147.80 0.04259
1147.90 0.04257
1148.00 0.04256
1148.10 0.04255
1148.20 0.04253
1148.30 0.04252
1148.40 0.0425
1148.50 0.04249
1148.60 0.04247
1148.70 0.04246
1148.80 0.04245
1148.90 0.04243
1149.00 0.04242
1149.10 0.0424
1149.20 0.04239
1149.30 0.04237
1149.40 0.04236
1149.50 0.04234
1149.60 0.04233
1149.70 0.04232
1149.80 0.0423
1149.90 0.04229
1150.00 0.04227
1150.10 0.04226
1150.20 0.04224
1150.30 0.04223
1150.40 0.04222
1150.50 0.0422
1150.60 0.04219
1150.70 0.04217
1150.80 0.04216
1150.90 0.04215
1151.00 0.04213
1151.10 0.04212
1151.20 0.0421
1151.30 0.04209
1151.40 0.04207
1151.50 0.04206
1151.60 0.04205
1151.70 0.04203
1151.80 0.04202
1151.90 0.042
1152.00 0.04199
1152.10 0.04197
1152.20 0.04196
1152.30 0.04195
1152.40 0.04193
1152.50 0.04192
1152.60 0.0419
1152.70 0.04189
1152.80 0.04188
1152.90 0.04186
1153.00 0.04185
1153.10 0.04183
1153.20 0.04182
1153.30 0.04181
1153.40 0.04179
1153.50 0.04178
1153.60 0.04176
1153.70 0.04175
1153.80 0.04174
1153.90 0.04172
1154.00 0.04171
1154.10 0.04169
1154.20 0.04168
1154.30 0.04166
1154.40 0.04165
1154.50 0.04164
1154.60 0.04162
1154.70 0.04161
1154.80 0.04159
1154.90 0.04158
1155.00 0.04157
1155.10 0.04155
1155.20 0.04154
1155.30 0.04152
1155.40 0.04151
1155.50 0.0415
1155.60 0.04148
1155.70 0.04147
1155.80 0.04146
1155.90 0.04144
1156.00 0.04143
1156.10 0.04141
1156.20 0.0414
1156.30 0.04139
1156.40 0.04137
1156.50 0.04136
1156.60 0.04134
1156.70 0.04133
1156.80 0.04132
1156.90 0.0413
1157.00 0.04129
1157.10 0.04127
1157.20 0.04126
1157.30 0.04125
1157.40 0.04123
1157.50 0.04122
1157.60 0.0412
1157.70 0.04119
1157.80 0.04118
1157.90 0.04116
1158.00 0.04115
1158.10 0.04114
1158.20 0.04112
1158.30 0.04111
1158.40 0.04109
1158.50 0.04108
1158.60 0.04107
1158.70 0.04105
1158.80 0.04104
1158.90 0.04103
1159.00 0.04101
1159.10 0.041
1159.20 0.04098
1159.30 0.04097
1159.40 0.04096
1159.50 0.04094
1159.60 0.04093
1159.70 0.04092
1159.80 0.0409
1159.90 0.04089
1160.00 0.04087
1160.10 0.04086
1160.20 0.04085
1160.30 0.04083
1160.40 0.04082
1160.50 0.04081
1160.60 0.04079
1160.70 0.04078
1160.80 0.04076
1160.90 0.04075
1161.00 0.04074
1161.10 0.04072
1161.20 0.04071
1161.30 0.0407
1161.40 0.04068
1161.50 0.04067
1161.60 0.04065
1161.70 0.04064
1161.80 0.04063
1161.90 0.04061
1162.00 0.0406
1162.10 0.04059
1162.20 0.04057
1162.30 0.04056
1162.40 0.04055
1162.50 0.04053
1162.60 0.04052
1162.70 0.04051
1162.80 0.04049
1162.90 0.04048
1163.00 0.04046
1163.10 0.04045
1163.20 0.04044
1163.30 0.04042
1163.40 0.04041
1163.50 0.0404
1163.60 0.04038
1163.70 0.04037
1163.80 0.04036
1163.90 0.04034
1164.00 0.04033
1164.10 0.04032
1164.20 0.0403
1164.30 0.04029
1164.40 0.04028
1164.50 0.04026
1164.60 0.04025
1164.70 0.04024
1164.80 0.04022
1164.90 0.04021
1165.00 0.0402
1165.10 0.04018
1165.20 0.04017
1165.30 0.04015
1165.40 0.04014
1165.50 0.04013
1165.60 0.04011
1165.70 0.0401
1165.80 0.04009
1165.90 0.04007
1166.00 0.04006
1166.10 0.04005
1166.20 0.04003
1166.30 0.04002
1166.40 0.04001
1166.50 0.03999
1166.60 0.03998
1166.70 0.03997
1166.80 0.03995
1166.90 0.03994
1167.00 0.03993
1167.10 0.03991
1167.20 0.0399
1167.30 0.03989
1167.40 0.03987
1167.50 0.03986
1167.60 0.03985
1167.70 0.03983
1167.80 0.03982
1167.90 0.03981
1168.00 0.03979
1168.10 0.03978
1168.20 0.03977
1168.30 0.03975
1168.40 0.03974
1168.50 0.03973
1168.60 0.03971
1168.70 0.0397
1168.80 0.03969
1168.90 0.03967
1169.00 0.03966
1169.10 0.03965
1169.20 0.03964
1169.30 0.03962
1169.40 0.03961
1169.50 0.0396
1169.60 0.03958
1169.70 0.03957
1169.80 0.03956
1169.90 0.03954
1170.00 0.03953
1170.10 0.03952
1170.20 0.0395
1170.30 0.03949
1170.40 0.03948
1170.50 0.03946
1170.60 0.03945
1170.70 0.03944
1170.80 0.03942
1170.90 0.03941
1171.00 0.0394
1171.10 0.03938
1171.20 0.03937
1171.30 0.03936
1171.40 0.03935
1171.50 0.03933
1171.60 0.03932
1171.70 0.03931
1171.80 0.03929
1171.90 0.03928
1172.00 0.03927
1172.10 0.03925
1172.20 0.03924
1172.30 0.03923
1172.40 0.03921
1172.50 0.0392
1172.60 0.03919
1172.70 0.03918
1172.80 0.03916
1172.90 0.03915
1173.00 0.03914
1173.10 0.03912
1173.20 0.03911
1173.30 0.0391
1173.40 0.03908
1173.50 0.03907
1173.60 0.03906
1173.70 0.03905
1173.80 0.03903
1173.90 0.03902
1174.00 0.03901
1174.10 0.03899
1174.20 0.03898
1174.30 0.03897
1174.40 0.03896
1174.50 0.03894
1174.60 0.03893
1174.70 0.03892
1174.80 0.0389
1174.90 0.03889
1175.00 0.03888
1175.10 0.03886
1175.20 0.03885
1175.30 0.03884
1175.40 0.03883
1175.50 0.03881
1175.60 0.0388
1175.70 0.03879
1175.80 0.03877
1175.90 0.03876
1176.00 0.03875
1176.10 0.03874
1176.20 0.03872
1176.30 0.03871
1176.40 0.0387
1176.50 0.03868
1176.60 0.03867
1176.70 0.03866
1176.80 0.03865
1176.90 0.03863
1177.00 0.03862
1177.10 0.03861
1177.20 0.03859
1177.30 0.03858
1177.40 0.03857
1177.50 0.03856
1177.60 0.03854
1177.70 0.03853
1177.80 0.03852
1177.90 0.03851
1178.00 0.03849
1178.10 0.03848
1178.20 0.03847
1178.30 0.03845
1178.40 0.03844
1178.50 0.03843
1178.60 0.03842
1178.70 0.0384
1178.80 0.03839
1178.90 0.03838
1179.00 0.03837
1179.10 0.03835
1179.20 0.03834
1179.30 0.03833
1179.40 0.03831
1179.50 0.0383
1179.60 0.03829
1179.70 0.03828
1179.80 0.03826
1179.90 0.03825
1180.00 0.03824
1180.10 0.03823
1180.20 0.03821
1180.30 0.0382
1180.40 0.03819
1180.50 0.03818
1180.60 0.03816
1180.70 0.03815
1180.80 0.03814
1180.90 0.03813
1181.00 0.03811
1181.10 0.0381
1181.20 0.03809
1181.30 0.03807
1181.40 0.03806
1181.50 0.03805
1181.60 0.03804
1181.70 0.03802
1181.80 0.03801
1181.90 0.038
1182.00 0.03799
1182.10 0.03797
1182.20 0.03796
1182.30 0.03795
1182.40 0.03794
1182.50 0.03792
1182.60 0.03791
1182.70 0.0379
1182.80 0.03789
1182.90 0.03787
1183.00 0.03786
1183.10 0.03785
1183.20 0.03784
1183.30 0.03782
1183.40 0.03781
1183.50 0.0378
1183.60 0.03779
1183.70 0.03777
1183.80 0.03776
1183.90 0.03775
1184.00 0.03774
1184.10 0.03772
1184.20 0.03771
1184.30 0.0377
1184.40 0.03769
1184.50 0.03767
1184.60 0.03766
1184.70 0.03765
1184.80 0.03764
1184.90 0.03763
1185.00 0.03761
1185.10 0.0376
1185.20 0.03759
1185.30 0.03758
1185.40 0.03756
1185.50 0.03755
1185.60 0.03754
1185.70 0.03753
1185.80 0.03751
1185.90 0.0375
1186.00 0.03749
1186.10 0.03748
1186.20 0.03746
1186.30 0.03745
1186.40 0.03744
1186.50 0.03743
1186.60 0.03741
1186.70 0.0374
1186.80 0.03739
1186.90 0.03738
1187.00 0.03737
1187.10 0.03735
1187.20 0.03734
1187.30 0.03733
1187.40 0.03732
1187.50 0.0373
1187.60 0.03729
1187.70 0.03728
1187.80 0.03727
1187.90 0.03726
1188.00 0.03724
1188.10 0.03723
1188.20 0.03722
1188.30 0.03721
1188.40 0.03719
1188.50 0.03718
1188.60 0.03717
1188.70 0.03716
1188.80 0.03715
1188.90 0.03713
1189.00 0.03712
1189.10 0.03711
1189.20 0.0371
1189.30 0.03708
1189.40 0.03707
1189.50 0.03706
1189.60 0.03705
1189.70 0.03704
1189.80 0.03702
1189.90 0.03701
1190.00 0.037
1190.10 0.03699
1190.20 0.03698
1190.30 0.03696
1190.40 0.03695
1190.50 0.03694
1190.60 0.03693
1190.70 0.03691
1190.80 0.0369
1190.90 0.03689
1191.00 0.03688
1191.10 0.03687
1191.20 0.03685
1191.30 0.03684
1191.40 0.03683
1191.50 0.03682
1191.60 0.03681
1191.70 0.03679
1191.80 0.03678
1191.90 0.03677
1192.00 0.03676
1192.10 0.03675
1192.20 0.03673
1192.30 0.03672
1192.40 0.03671
1192.50 0.0367
1192.60 0.03669
1192.70 0.03667
1192.80 0.03666
1192.90 0.03665
1193.00 0.03664
1193.10 0.03663
1193.20 0.03661
1193.30 0.0366
1193.40 0.03659
1193.50 0.03658
1193.60 0.03657
1193.70 0.03655
1193.80 0.03654
1193.90 0.03653
1194.00 0.03652
1194.10 0.03651
1194.20 0.03649
1194.30 0.03648
1194.40 0.03647
1194.50 0.03646
1194.60 0.03645
1194.70 0.03643
1194.80 0.03642
1194.90 0.03641
1195.00 0.0364
1195.10 0.03639
1195.20 0.03637
1195.30 0.03636
1195.40 0.03635
1195.50 0.03634
1195.60 0.03633
1195.70 0.03631
1195.80 0.0363
1195.90 0.03629
1196.00 0.03628
1196.10 0.03627
1196.20 0.03626
1196.30 0.03624
1196.40 0.03623
1196.50 0.03622
1196.60 0.03621
1196.70 0.0362
1196.80 0.03618
1196.90 0.03617
1197.00 0.03616
1197.10 0.03615
1197.20 0.03614
1197.30 0.03613
1197.40 0.03611
1197.50 0.0361
1197.60 0.03609
1197.70 0.03608
1197.80 0.03607
1197.90 0.03605
1198.00 0.03604
1198.10 0.03603
1198.20 0.03602
1198.30 0.03601
1198.40 0.036
1198.50 0.03598
1198.60 0.03597
1198.70 0.03596
1198.80 0.03595
1198.90 0.03594
1199.00 0.03593
1199.10 0.03591
1199.20 0.0359
1199.30 0.03589
1199.40 0.03588
1199.50 0.03587
1199.60 0.03586
1199.70 0.03584
1199.80 0.03583
1199.90 0.03582
1200.00 0
