# Version 2.1 - nm, norm@500 to 1, cut digits, bergeron_75000_95.dat_75000
# Wavelength(nm)  Flambda(ergs/cm^s/s/nm)
300.00 6.673
300.10 6.664
300.20 6.656
300.30 6.648
300.40 6.64
300.50 6.631
300.60 6.623
300.70 6.615
300.80 6.607
300.90 6.599
301.00 6.59
301.10 6.582
301.20 6.574
301.30 6.566
301.40 6.558
301.50 6.55
301.60 6.542
301.70 6.534
301.80 6.526
301.90 6.518
302.00 6.509
302.10 6.501
302.20 6.493
302.30 6.485
302.40 6.477
302.50 6.469
302.60 6.462
302.70 6.454
302.80 6.446
302.90 6.438
303.00 6.43
303.10 6.422
303.20 6.414
303.30 6.406
303.40 6.398
303.50 6.39
303.60 6.383
303.70 6.375
303.80 6.367
303.90 6.359
304.00 6.351
304.10 6.344
304.20 6.336
304.30 6.328
304.40 6.32
304.50 6.313
304.60 6.305
304.70 6.297
304.80 6.289
304.90 6.282
305.00 6.274
305.10 6.266
305.20 6.259
305.30 6.251
305.40 6.243
305.50 6.236
305.60 6.228
305.70 6.221
305.80 6.213
305.90 6.206
306.00 6.198
306.10 6.19
306.20 6.183
306.30 6.175
306.40 6.168
306.50 6.16
306.60 6.153
306.70 6.145
306.80 6.138
306.90 6.13
307.00 6.123
307.10 6.116
307.20 6.108
307.30 6.101
307.40 6.093
307.50 6.086
307.60 6.079
307.70 6.071
307.80 6.064
307.90 6.057
308.00 6.049
308.10 6.042
308.20 6.035
308.30 6.027
308.40 6.02
308.50 6.013
308.60 6.005
308.70 5.998
308.80 5.991
308.90 5.984
309.00 5.977
309.10 5.969
309.20 5.962
309.30 5.955
309.40 5.948
309.50 5.941
309.60 5.933
309.70 5.926
309.80 5.919
309.90 5.912
310.00 5.905
310.10 5.898
310.20 5.891
310.30 5.884
310.40 5.877
310.50 5.87
310.60 5.862
310.70 5.855
310.80 5.848
310.90 5.841
311.00 5.834
311.10 5.827
311.20 5.82
311.30 5.813
311.40 5.806
311.50 5.8
311.60 5.793
311.70 5.786
311.80 5.779
311.90 5.772
312.00 5.765
312.10 5.758
312.20 5.751
312.30 5.744
312.40 5.737
312.50 5.731
312.60 5.724
312.70 5.717
312.80 5.71
312.90 5.703
313.00 5.696
313.10 5.69
313.20 5.683
313.30 5.676
313.40 5.669
313.50 5.663
313.60 5.656
313.70 5.649
313.80 5.642
313.90 5.636
314.00 5.629
314.10 5.622
314.20 5.616
314.30 5.609
314.40 5.602
314.50 5.596
314.60 5.589
314.70 5.582
314.80 5.576
314.90 5.569
315.00 5.563
315.10 5.556
315.20 5.549
315.30 5.543
315.40 5.536
315.50 5.53
315.60 5.523
315.70 5.517
315.80 5.51
315.90 5.504
316.00 5.497
316.10 5.491
316.20 5.484
316.30 5.478
316.40 5.471
316.50 5.465
316.60 5.458
316.70 5.452
316.80 5.445
316.90 5.439
317.00 5.433
317.10 5.426
317.20 5.42
317.30 5.414
317.40 5.407
317.50 5.401
317.60 5.394
317.70 5.388
317.80 5.382
317.90 5.375
318.00 5.369
318.10 5.363
318.20 5.357
318.30 5.35
318.40 5.344
318.50 5.338
318.60 5.331
318.70 5.325
318.80 5.319
318.90 5.313
319.00 5.306
319.10 5.3
319.20 5.294
319.30 5.288
319.40 5.282
319.50 5.276
319.60 5.269
319.70 5.263
319.80 5.257
319.90 5.251
320.00 5.245
320.10 5.239
320.20 5.233
320.30 5.226
320.40 5.22
320.50 5.214
320.60 5.208
320.70 5.202
320.80 5.196
320.90 5.19
321.00 5.184
321.10 5.178
321.20 5.172
321.30 5.166
321.40 5.16
321.50 5.154
321.60 5.148
321.70 5.142
321.80 5.136
321.90 5.13
322.00 5.124
322.10 5.118
322.20 5.112
322.30 5.106
322.40 5.1
322.50 5.094
322.60 5.089
322.70 5.083
322.80 5.077
322.90 5.071
323.00 5.065
323.10 5.059
323.20 5.053
323.30 5.047
323.40 5.042
323.50 5.036
323.60 5.03
323.70 5.024
323.80 5.018
323.90 5.013
324.00 5.007
324.10 5.001
324.20 4.995
324.30 4.99
324.40 4.984
324.50 4.978
324.60 4.972
324.70 4.967
324.80 4.961
324.90 4.955
325.00 4.949
325.10 4.944
325.20 4.938
325.30 4.932
325.40 4.927
325.50 4.921
325.60 4.915
325.70 4.91
325.80 4.904
325.90 4.899
326.00 4.893
326.10 4.887
326.20 4.882
326.30 4.876
326.40 4.871
326.50 4.865
326.60 4.859
326.70 4.854
326.80 4.848
326.90 4.843
327.00 4.837
327.10 4.832
327.20 4.826
327.30 4.821
327.40 4.815
327.50 4.81
327.60 4.804
327.70 4.799
327.80 4.793
327.90 4.788
328.00 4.782
328.10 4.777
328.20 4.771
328.30 4.766
328.40 4.76
328.50 4.755
328.60 4.75
328.70 4.744
328.80 4.739
328.90 4.733
329.00 4.728
329.10 4.723
329.20 4.717
329.30 4.712
329.40 4.707
329.50 4.701
329.60 4.696
329.70 4.691
329.80 4.685
329.90 4.68
330.00 4.675
330.10 4.669
330.20 4.664
330.30 4.659
330.40 4.654
330.50 4.648
330.60 4.643
330.70 4.638
330.80 4.633
330.90 4.627
331.00 4.622
331.10 4.617
331.20 4.612
331.30 4.606
331.40 4.601
331.50 4.596
331.60 4.591
331.70 4.586
331.80 4.58
331.90 4.575
332.00 4.57
332.10 4.565
332.20 4.56
332.30 4.555
332.40 4.55
332.50 4.545
332.60 4.539
332.70 4.534
332.80 4.529
332.90 4.524
333.00 4.519
333.10 4.514
333.20 4.509
333.30 4.504
333.40 4.499
333.50 4.494
333.60 4.489
333.70 4.484
333.80 4.479
333.90 4.474
334.00 4.468
334.10 4.464
334.20 4.459
334.30 4.454
334.40 4.449
334.50 4.444
334.60 4.439
334.70 4.434
334.80 4.429
334.90 4.424
335.00 4.419
335.10 4.414
335.20 4.409
335.30 4.404
335.40 4.399
335.50 4.394
335.60 4.389
335.70 4.384
335.80 4.379
335.90 4.375
336.00 4.37
336.10 4.365
336.20 4.36
336.30 4.355
336.40 4.35
336.50 4.345
336.60 4.341
336.70 4.336
336.80 4.331
336.90 4.326
337.00 4.321
337.10 4.317
337.20 4.312
337.30 4.307
337.40 4.302
337.50 4.297
337.60 4.293
337.70 4.288
337.80 4.283
337.90 4.278
338.00 4.274
338.10 4.269
338.20 4.264
338.30 4.259
338.40 4.255
338.50 4.25
338.60 4.245
338.70 4.241
338.80 4.236
338.90 4.231
339.00 4.227
339.10 4.222
339.20 4.217
339.30 4.213
339.40 4.208
339.50 4.203
339.60 4.199
339.70 4.194
339.80 4.189
339.90 4.185
340.00 4.18
340.10 4.176
340.20 4.171
340.30 4.166
340.40 4.162
340.50 4.157
340.60 4.153
340.70 4.148
340.80 4.144
340.90 4.139
341.00 4.134
341.10 4.13
341.20 4.125
341.30 4.121
341.40 4.116
341.50 4.112
341.60 4.107
341.70 4.103
341.80 4.098
341.90 4.094
342.00 4.089
342.10 4.085
342.20 4.08
342.30 4.076
342.40 4.071
342.50 4.067
342.60 4.063
342.70 4.058
342.80 4.054
342.90 4.049
343.00 4.045
343.10 4.04
343.20 4.036
343.30 4.032
343.40 4.027
343.50 4.023
343.60 4.018
343.70 4.014
343.80 4.01
343.90 4.005
344.00 4.001
344.10 3.996
344.20 3.992
344.30 3.988
344.40 3.983
344.50 3.979
344.60 3.975
344.70 3.97
344.80 3.966
344.90 3.962
345.00 3.958
345.10 3.953
345.20 3.949
345.30 3.945
345.40 3.94
345.50 3.936
345.60 3.932
345.70 3.928
345.80 3.923
345.90 3.919
346.00 3.915
346.10 3.911
346.20 3.906
346.30 3.902
346.40 3.898
346.50 3.894
346.60 3.889
346.70 3.885
346.80 3.881
346.90 3.877
347.00 3.873
347.10 3.868
347.20 3.864
347.30 3.86
347.40 3.856
347.50 3.852
347.60 3.848
347.70 3.843
347.80 3.839
347.90 3.835
348.00 3.831
348.10 3.827
348.20 3.823
348.30 3.819
348.40 3.815
348.50 3.81
348.60 3.806
348.70 3.802
348.80 3.798
348.90 3.794
349.00 3.79
349.10 3.786
349.20 3.782
349.30 3.778
349.40 3.774
349.50 3.77
349.60 3.766
349.70 3.762
349.80 3.758
349.90 3.754
350.00 3.75
350.10 3.745
350.20 3.741
350.30 3.737
350.40 3.734
350.50 3.73
350.60 3.726
350.70 3.722
350.80 3.718
350.90 3.714
351.00 3.71
351.10 3.706
351.20 3.702
351.30 3.698
351.40 3.694
351.50 3.69
351.60 3.686
351.70 3.682
351.80 3.678
351.90 3.674
352.00 3.67
352.10 3.666
352.20 3.662
352.30 3.658
352.40 3.655
352.50 3.651
352.60 3.647
352.70 3.643
352.80 3.639
352.90 3.635
353.00 3.631
353.10 3.627
353.20 3.624
353.30 3.62
353.40 3.616
353.50 3.612
353.60 3.608
353.70 3.604
353.80 3.601
353.90 3.597
354.00 3.593
354.10 3.589
354.20 3.585
354.30 3.582
354.40 3.578
354.50 3.574
354.60 3.57
354.70 3.566
354.80 3.563
354.90 3.559
355.00 3.555
355.10 3.551
355.20 3.548
355.30 3.544
355.40 3.54
355.50 3.536
355.60 3.533
355.70 3.529
355.80 3.525
355.90 3.521
356.00 3.518
356.10 3.514
356.20 3.51
356.30 3.507
356.40 3.503
356.50 3.499
356.60 3.496
356.70 3.492
356.80 3.488
356.90 3.485
357.00 3.481
357.10 3.477
357.20 3.474
357.30 3.47
357.40 3.466
357.50 3.463
357.60 3.459
357.70 3.455
357.80 3.452
357.90 3.448
358.00 3.444
358.10 3.441
358.20 3.437
358.30 3.434
358.40 3.43
358.50 3.426
358.60 3.423
358.70 3.419
358.80 3.416
358.90 3.412
359.00 3.409
359.10 3.405
359.20 3.401
359.30 3.398
359.40 3.394
359.50 3.391
359.60 3.387
359.70 3.384
359.80 3.38
359.90 3.377
360.00 3.373
360.10 3.37
360.20 3.366
360.30 3.363
360.40 3.359
360.50 3.356
360.60 3.352
360.70 3.349
360.80 3.345
360.90 3.342
361.00 3.338
361.10 3.335
361.20 3.331
361.30 3.328
361.40 3.324
361.50 3.321
361.60 3.317
361.70 3.314
361.80 3.31
361.90 3.307
362.00 3.304
362.10 3.3
362.20 3.297
362.30 3.293
362.40 3.29
362.50 3.286
362.60 3.283
362.70 3.28
362.80 3.276
362.90 3.273
363.00 3.269
363.10 3.266
363.20 3.263
363.30 3.259
363.40 3.256
363.50 3.253
363.60 3.249
363.70 3.246
363.80 3.243
363.90 3.239
364.00 3.236
364.10 3.232
364.20 3.229
364.30 3.226
364.40 3.222
364.50 3.219
364.60 3.216
364.70 3.213
364.80 3.209
364.90 3.206
365.00 3.203
365.10 3.199
365.20 3.196
365.30 3.193
365.40 3.189
365.50 3.186
365.60 3.183
365.70 3.18
365.80 3.176
365.90 3.173
366.00 3.17
366.10 3.167
366.20 3.163
366.30 3.16
366.40 3.157
366.50 3.154
366.60 3.15
366.70 3.147
366.80 3.144
366.90 3.141
367.00 3.137
367.10 3.134
367.20 3.131
367.30 3.128
367.40 3.124
367.50 3.121
367.60 3.118
367.70 3.115
367.80 3.112
367.90 3.108
368.00 3.105
368.10 3.102
368.20 3.099
368.30 3.095
368.40 3.092
368.50 3.089
368.60 3.086
368.70 3.083
368.80 3.079
368.90 3.076
369.00 3.073
369.10 3.07
369.20 3.066
369.30 3.063
369.40 3.06
369.50 3.057
369.60 3.054
369.70 3.05
369.80 3.047
369.90 3.044
370.00 3.041
370.10 3.038
370.20 3.034
370.30 3.031
370.40 3.028
370.50 3.025
370.60 3.022
370.70 3.018
370.80 3.015
370.90 3.012
371.00 3.009
371.10 3.006
371.20 3.003
371.30 2.999
371.40 2.996
371.50 2.993
371.60 2.99
371.70 2.987
371.80 2.984
371.90 2.981
372.00 2.977
372.10 2.975
372.20 2.972
372.30 2.969
372.40 2.966
372.50 2.963
372.60 2.96
372.70 2.957
372.80 2.954
372.90 2.951
373.00 2.948
373.10 2.945
373.20 2.942
373.30 2.939
373.40 2.937
373.50 2.934
373.60 2.931
373.70 2.928
373.80 2.925
373.90 2.922
374.00 2.919
374.10 2.916
374.20 2.913
374.30 2.91
374.40 2.907
374.50 2.904
374.60 2.901
374.70 2.898
374.80 2.895
374.90 2.892
375.00 2.889
375.10 2.886
375.20 2.883
375.30 2.88
375.40 2.877
375.50 2.874
375.60 2.871
375.70 2.868
375.80 2.865
375.90 2.862
376.00 2.859
376.10 2.856
376.20 2.853
376.30 2.85
376.40 2.847
376.50 2.844
376.60 2.841
376.70 2.839
376.80 2.836
376.90 2.833
377.00 2.83
377.10 2.827
377.20 2.824
377.30 2.821
377.40 2.818
377.50 2.815
377.60 2.813
377.70 2.81
377.80 2.807
377.90 2.804
378.00 2.801
378.10 2.798
378.20 2.796
378.30 2.793
378.40 2.79
378.50 2.787
378.60 2.784
378.70 2.782
378.80 2.779
378.90 2.776
379.00 2.773
379.10 2.77
379.20 2.768
379.30 2.765
379.40 2.762
379.50 2.759
379.60 2.756
379.70 2.754
379.80 2.751
379.90 2.748
380.00 2.745
380.10 2.742
380.20 2.74
380.30 2.737
380.40 2.734
380.50 2.732
380.60 2.729
380.70 2.726
380.80 2.723
380.90 2.721
381.00 2.718
381.10 2.715
381.20 2.713
381.30 2.71
381.40 2.707
381.50 2.704
381.60 2.702
381.70 2.699
381.80 2.696
381.90 2.694
382.00 2.691
382.10 2.688
382.20 2.686
382.30 2.683
382.40 2.68
382.50 2.678
382.60 2.675
382.70 2.672
382.80 2.67
382.90 2.667
383.00 2.665
383.10 2.662
383.20 2.659
383.30 2.657
383.40 2.654
383.50 2.651
383.60 2.649
383.70 2.646
383.80 2.644
383.90 2.641
384.00 2.639
384.10 2.636
384.20 2.633
384.30 2.631
384.40 2.628
384.50 2.626
384.60 2.623
384.70 2.621
384.80 2.618
384.90 2.615
385.00 2.613
385.10 2.61
385.20 2.608
385.30 2.605
385.40 2.603
385.50 2.6
385.60 2.598
385.70 2.595
385.80 2.593
385.90 2.59
386.00 2.588
386.10 2.585
386.20 2.583
386.30 2.58
386.40 2.578
386.50 2.575
386.60 2.573
386.70 2.57
386.80 2.568
386.90 2.565
387.00 2.563
387.10 2.56
387.20 2.558
387.30 2.556
387.40 2.553
387.50 2.551
387.60 2.548
387.70 2.546
387.80 2.543
387.90 2.541
388.00 2.538
388.10 2.536
388.20 2.534
388.30 2.531
388.40 2.529
388.50 2.526
388.60 2.524
388.70 2.522
388.80 2.519
388.90 2.517
389.00 2.515
389.10 2.512
389.20 2.51
389.30 2.508
389.40 2.505
389.50 2.503
389.60 2.501
389.70 2.498
389.80 2.496
389.90 2.494
390.00 2.491
390.10 2.489
390.20 2.487
390.30 2.484
390.40 2.482
390.50 2.48
390.60 2.477
390.70 2.475
390.80 2.473
390.90 2.471
391.00 2.468
391.10 2.466
391.20 2.464
391.30 2.461
391.40 2.459
391.50 2.457
391.60 2.455
391.70 2.452
391.80 2.45
391.90 2.448
392.00 2.446
392.10 2.443
392.20 2.441
392.30 2.439
392.40 2.436
392.50 2.434
392.60 2.432
392.70 2.43
392.80 2.427
392.90 2.425
393.00 2.423
393.10 2.42
393.20 2.418
393.30 2.416
393.40 2.413
393.50 2.411
393.60 2.409
393.70 2.407
393.80 2.404
393.90 2.402
394.00 2.4
394.10 2.397
394.20 2.395
394.30 2.393
394.40 2.39
394.50 2.388
394.60 2.386
394.70 2.384
394.80 2.381
394.90 2.379
395.00 2.377
395.10 2.374
395.20 2.372
395.30 2.37
395.40 2.367
395.50 2.365
395.60 2.363
395.70 2.36
395.80 2.358
395.90 2.356
396.00 2.354
396.10 2.351
396.20 2.349
396.30 2.347
396.40 2.345
396.50 2.342
396.60 2.34
396.70 2.338
396.80 2.336
396.90 2.334
397.00 2.331
397.10 2.329
397.20 2.328
397.30 2.326
397.40 2.324
397.50 2.322
397.60 2.32
397.70 2.318
397.80 2.316
397.90 2.314
398.00 2.312
398.10 2.31
398.20 2.309
398.30 2.307
398.40 2.305
398.50 2.303
398.60 2.301
398.70 2.299
398.80 2.298
398.90 2.296
399.00 2.294
399.10 2.292
399.20 2.29
399.30 2.288
399.40 2.286
399.50 2.284
399.60 2.283
399.70 2.281
399.80 2.279
399.90 2.277
400.00 2.275
400.10 2.273
400.20 2.271
400.30 2.269
400.40 2.267
400.50 2.265
400.60 2.264
400.70 2.262
400.80 2.26
400.90 2.258
401.00 2.256
401.10 2.254
401.20 2.252
401.30 2.25
401.40 2.248
401.50 2.246
401.60 2.244
401.70 2.242
401.80 2.24
401.90 2.238
402.00 2.236
402.10 2.234
402.20 2.231
402.30 2.229
402.40 2.227
402.50 2.225
402.60 2.223
402.70 2.221
402.80 2.219
402.90 2.217
403.00 2.215
403.10 2.212
403.20 2.21
403.30 2.208
403.40 2.206
403.50 2.204
403.60 2.202
403.70 2.199
403.80 2.197
403.90 2.195
404.00 2.193
404.10 2.19
404.20 2.188
404.30 2.186
404.40 2.184
404.50 2.181
404.60 2.179
404.70 2.177
404.80 2.174
404.90 2.172
405.00 2.17
405.10 2.167
405.20 2.165
405.30 2.163
405.40 2.16
405.50 2.158
405.60 2.155
405.70 2.153
405.80 2.151
405.90 2.148
406.00 2.146
406.10 2.143
406.20 2.141
406.30 2.138
406.40 2.136
406.50 2.133
406.60 2.131
406.70 2.128
406.80 2.126
406.90 2.123
407.00 2.121
407.10 2.118
407.20 2.115
407.30 2.113
407.40 2.11
407.50 2.108
407.60 2.105
407.70 2.103
407.80 2.1
407.90 2.098
408.00 2.095
408.10 2.092
408.20 2.09
408.30 2.087
408.40 2.085
408.50 2.082
408.60 2.08
408.70 2.077
408.80 2.075
408.90 2.072
409.00 2.07
409.10 2.068
409.20 2.065
409.30 2.063
409.40 2.061
409.50 2.059
409.60 2.057
409.70 2.055
409.80 2.053
409.90 2.052
410.00 2.05
410.10 2.049
410.20 2.047
410.30 2.045
410.40 2.043
410.50 2.041
410.60 2.039
410.70 2.038
410.80 2.036
410.90 2.035
411.00 2.033
411.10 2.032
411.20 2.031
411.30 2.03
411.40 2.029
411.50 2.028
411.60 2.027
411.70 2.026
411.80 2.025
411.90 2.024
412.00 2.023
412.10 2.022
412.20 2.021
412.30 2.02
412.40 2.019
412.50 2.018
412.60 2.017
412.70 2.016
412.80 2.015
412.90 2.014
413.00 2.013
413.10 2.012
413.20 2.011
413.30 2.01
413.40 2.009
413.50 2.008
413.60 2.007
413.70 2.006
413.80 2.005
413.90 2.004
414.00 2.003
414.10 2.002
414.20 2.001
414.30 2
414.40 1.999
414.50 1.998
414.60 1.997
414.70 1.996
414.80 1.995
414.90 1.993
415.00 1.992
415.10 1.991
415.20 1.99
415.30 1.989
415.40 1.988
415.50 1.986
415.60 1.985
415.70 1.984
415.80 1.983
415.90 1.981
416.00 1.98
416.10 1.979
416.20 1.978
416.30 1.976
416.40 1.975
416.50 1.974
416.60 1.972
416.70 1.971
416.80 1.97
416.90 1.968
417.00 1.967
417.10 1.966
417.20 1.964
417.30 1.963
417.40 1.962
417.50 1.96
417.60 1.959
417.70 1.957
417.80 1.956
417.90 1.954
418.00 1.953
418.10 1.952
418.20 1.95
418.30 1.949
418.40 1.947
418.50 1.946
418.60 1.944
418.70 1.943
418.80 1.941
418.90 1.94
419.00 1.938
419.10 1.936
419.20 1.935
419.30 1.933
419.40 1.932
419.50 1.93
419.60 1.929
419.70 1.927
419.80 1.925
419.90 1.924
420.00 1.922
420.10 1.92
420.20 1.919
420.30 1.917
420.40 1.916
420.50 1.914
420.60 1.912
420.70 1.91
420.80 1.909
420.90 1.907
421.00 1.905
421.10 1.904
421.20 1.902
421.30 1.9
421.40 1.898
421.50 1.897
421.60 1.895
421.70 1.893
421.80 1.891
421.90 1.89
422.00 1.888
422.10 1.886
422.20 1.884
422.30 1.882
422.40 1.881
422.50 1.879
422.60 1.877
422.70 1.875
422.80 1.873
422.90 1.871
423.00 1.869
423.10 1.868
423.20 1.866
423.30 1.864
423.40 1.862
423.50 1.86
423.60 1.858
423.70 1.856
423.80 1.854
423.90 1.852
424.00 1.85
424.10 1.848
424.20 1.846
424.30 1.844
424.40 1.842
424.50 1.84
424.60 1.838
424.70 1.836
424.80 1.834
424.90 1.832
425.00 1.83
425.10 1.828
425.20 1.825
425.30 1.823
425.40 1.821
425.50 1.819
425.60 1.817
425.70 1.815
425.80 1.812
425.90 1.81
426.00 1.808
426.10 1.806
426.20 1.803
426.30 1.801
426.40 1.799
426.50 1.797
426.60 1.794
426.70 1.792
426.80 1.79
426.90 1.787
427.00 1.785
427.10 1.783
427.20 1.78
427.30 1.778
427.40 1.775
427.50 1.773
427.60 1.77
427.70 1.768
427.80 1.765
427.90 1.763
428.00 1.76
428.10 1.758
428.20 1.755
428.30 1.752
428.40 1.75
428.50 1.747
428.60 1.744
428.70 1.742
428.80 1.739
428.90 1.736
429.00 1.734
429.10 1.731
429.20 1.728
429.30 1.725
429.40 1.722
429.50 1.72
429.60 1.717
429.70 1.714
429.80 1.711
429.90 1.708
430.00 1.705
430.10 1.702
430.20 1.699
430.30 1.696
430.40 1.693
430.50 1.69
430.60 1.687
430.70 1.684
430.80 1.681
430.90 1.678
431.00 1.674
431.10 1.671
431.20 1.668
431.30 1.665
431.40 1.662
431.50 1.658
431.60 1.655
431.70 1.652
431.80 1.649
431.90 1.645
432.00 1.642
432.10 1.639
432.20 1.635
432.30 1.632
432.40 1.629
432.50 1.625
432.60 1.622
432.70 1.618
432.80 1.615
432.90 1.611
433.00 1.608
433.10 1.604
433.20 1.6
433.30 1.597
433.40 1.593
433.50 1.589
433.60 1.584
433.70 1.58
433.80 1.575
433.90 1.57
434.00 1.567
434.10 1.566
434.20 1.568
434.30 1.57
434.40 1.572
434.50 1.574
434.60 1.575
434.70 1.577
434.80 1.578
434.90 1.579
435.00 1.58
435.10 1.581
435.20 1.582
435.30 1.583
435.40 1.584
435.50 1.585
435.60 1.585
435.70 1.586
435.80 1.587
435.90 1.587
436.00 1.588
436.10 1.589
436.20 1.589
436.30 1.59
436.40 1.59
436.50 1.591
436.60 1.591
436.70 1.592
436.80 1.592
436.90 1.593
437.00 1.593
437.10 1.593
437.20 1.594
437.30 1.594
437.40 1.594
437.50 1.595
437.60 1.595
437.70 1.595
437.80 1.595
437.90 1.595
438.00 1.596
438.10 1.596
438.20 1.596
438.30 1.596
438.40 1.596
438.50 1.596
438.60 1.596
438.70 1.596
438.80 1.596
438.90 1.596
439.00 1.596
439.10 1.595
439.20 1.595
439.30 1.595
439.40 1.595
439.50 1.595
439.60 1.595
439.70 1.594
439.80 1.594
439.90 1.594
440.00 1.593
440.10 1.593
440.20 1.593
440.30 1.592
440.40 1.592
440.50 1.592
440.60 1.591
440.70 1.591
440.80 1.59
440.90 1.59
441.00 1.589
441.10 1.589
441.20 1.588
441.30 1.588
441.40 1.587
441.50 1.586
441.60 1.586
441.70 1.585
441.80 1.585
441.90 1.584
442.00 1.583
442.10 1.583
442.20 1.582
442.30 1.581
442.40 1.58
442.50 1.58
442.60 1.579
442.70 1.578
442.80 1.577
442.90 1.577
443.00 1.576
443.10 1.575
443.20 1.574
443.30 1.573
443.40 1.573
443.50 1.572
443.60 1.571
443.70 1.57
443.80 1.569
443.90 1.568
444.00 1.567
444.10 1.566
444.20 1.566
444.30 1.565
444.40 1.564
444.50 1.563
444.60 1.562
444.70 1.561
444.80 1.56
444.90 1.559
445.00 1.558
445.10 1.557
445.20 1.556
445.30 1.555
445.40 1.554
445.50 1.553
445.60 1.552
445.70 1.551
445.80 1.55
445.90 1.549
446.00 1.548
446.10 1.547
446.20 1.546
446.30 1.545
446.40 1.544
446.50 1.543
446.60 1.542
446.70 1.541
446.80 1.539
446.90 1.538
447.00 1.537
447.10 1.536
447.20 1.535
447.30 1.534
447.40 1.533
447.50 1.532
447.60 1.531
447.70 1.53
447.80 1.529
447.90 1.527
448.00 1.526
448.10 1.525
448.20 1.524
448.30 1.523
448.40 1.522
448.50 1.521
448.60 1.52
448.70 1.518
448.80 1.517
448.90 1.516
449.00 1.515
449.10 1.514
449.20 1.513
449.30 1.512
449.40 1.51
449.50 1.509
449.60 1.508
449.70 1.507
449.80 1.506
449.90 1.505
450.00 1.504
450.10 1.502
450.20 1.501
450.30 1.5
450.40 1.499
450.50 1.498
450.60 1.497
450.70 1.495
450.80 1.494
450.90 1.493
451.00 1.492
451.10 1.491
451.20 1.49
451.30 1.488
451.40 1.487
451.50 1.486
451.60 1.485
451.70 1.484
451.80 1.483
451.90 1.481
452.00 1.48
452.10 1.479
452.20 1.478
452.30 1.477
452.40 1.475
452.50 1.474
452.60 1.473
452.70 1.472
452.80 1.471
452.90 1.469
453.00 1.468
453.10 1.467
453.20 1.466
453.30 1.465
453.40 1.464
453.50 1.462
453.60 1.461
453.70 1.46
453.80 1.459
453.90 1.458
454.00 1.456
454.10 1.455
454.20 1.454
454.30 1.453
454.40 1.452
454.50 1.451
454.60 1.449
454.70 1.448
454.80 1.447
454.90 1.446
455.00 1.445
455.10 1.443
455.20 1.442
455.30 1.441
455.40 1.44
455.50 1.439
455.60 1.437
455.70 1.436
455.80 1.435
455.90 1.434
456.00 1.433
456.10 1.432
456.20 1.43
456.30 1.429
456.40 1.428
456.50 1.427
456.60 1.426
456.70 1.424
456.80 1.423
456.90 1.422
457.00 1.421
457.10 1.42
457.20 1.419
457.30 1.417
457.40 1.416
457.50 1.415
457.60 1.414
457.70 1.413
457.80 1.411
457.90 1.41
458.00 1.409
458.10 1.408
458.20 1.407
458.30 1.406
458.40 1.404
458.50 1.403
458.60 1.402
458.70 1.401
458.80 1.4
458.90 1.399
459.00 1.397
459.10 1.396
459.20 1.395
459.30 1.394
459.40 1.393
459.50 1.391
459.60 1.39
459.70 1.389
459.80 1.388
459.90 1.387
460.00 1.386
460.10 1.384
460.20 1.383
460.30 1.382
460.40 1.381
460.50 1.38
460.60 1.379
460.70 1.377
460.80 1.376
460.90 1.375
461.00 1.374
461.10 1.373
461.20 1.372
461.30 1.37
461.40 1.369
461.50 1.368
461.60 1.367
461.70 1.366
461.80 1.365
461.90 1.363
462.00 1.362
462.10 1.361
462.20 1.36
462.30 1.359
462.40 1.358
462.50 1.356
462.60 1.355
462.70 1.354
462.80 1.353
462.90 1.352
463.00 1.351
463.10 1.349
463.20 1.348
463.30 1.347
463.40 1.346
463.50 1.345
463.60 1.344
463.70 1.343
463.80 1.341
463.90 1.34
464.00 1.339
464.10 1.338
464.20 1.337
464.30 1.336
464.40 1.334
464.50 1.333
464.60 1.332
464.70 1.331
464.80 1.33
464.90 1.329
465.00 1.327
465.10 1.326
465.20 1.325
465.30 1.324
465.40 1.323
465.50 1.322
465.60 1.321
465.70 1.319
465.80 1.318
465.90 1.317
466.00 1.316
466.10 1.315
466.20 1.314
466.30 1.312
466.40 1.311
466.50 1.31
466.60 1.309
466.70 1.308
466.80 1.307
466.90 1.305
467.00 1.304
467.10 1.303
467.20 1.302
467.30 1.301
467.40 1.3
467.50 1.298
467.60 1.297
467.70 1.296
467.80 1.295
467.90 1.294
468.00 1.293
468.10 1.292
468.20 1.29
468.30 1.289
468.40 1.288
468.50 1.287
468.60 1.286
468.70 1.284
468.80 1.283
468.90 1.282
469.00 1.281
469.10 1.28
469.20 1.279
469.30 1.277
469.40 1.276
469.50 1.275
469.60 1.274
469.70 1.273
469.80 1.272
469.90 1.27
470.00 1.269
470.10 1.268
470.20 1.267
470.30 1.266
470.40 1.264
470.50 1.263
470.60 1.262
470.70 1.261
470.80 1.26
470.90 1.258
471.00 1.257
471.10 1.256
471.20 1.255
471.30 1.254
471.40 1.252
471.50 1.251
471.60 1.25
471.70 1.249
471.80 1.248
471.90 1.246
472.00 1.245
472.10 1.244
472.20 1.243
472.30 1.241
472.40 1.24
472.50 1.239
472.60 1.238
472.70 1.237
472.80 1.235
472.90 1.234
473.00 1.233
473.10 1.232
473.20 1.23
473.30 1.229
473.40 1.228
473.50 1.226
473.60 1.225
473.70 1.224
473.80 1.223
473.90 1.221
474.00 1.22
474.10 1.219
474.20 1.218
474.30 1.216
474.40 1.215
474.50 1.214
474.60 1.212
474.70 1.211
474.80 1.21
474.90 1.208
475.00 1.207
475.10 1.206
475.20 1.204
475.30 1.203
475.40 1.202
475.50 1.2
475.60 1.199
475.70 1.197
475.80 1.196
475.90 1.195
476.00 1.193
476.10 1.192
476.20 1.19
476.30 1.189
476.40 1.188
476.50 1.186
476.60 1.185
476.70 1.183
476.80 1.182
476.90 1.18
477.00 1.179
477.10 1.177
477.20 1.176
477.30 1.174
477.40 1.173
477.50 1.171
477.60 1.17
477.70 1.168
477.80 1.167
477.90 1.165
478.00 1.163
478.10 1.162
478.20 1.16
478.30 1.159
478.40 1.157
478.50 1.155
478.60 1.154
478.70 1.152
478.80 1.15
478.90 1.149
479.00 1.147
479.10 1.145
479.20 1.143
479.30 1.142
479.40 1.14
479.50 1.138
479.60 1.136
479.70 1.134
479.80 1.132
479.90 1.131
480.00 1.129
480.10 1.127
480.20 1.125
480.30 1.123
480.40 1.121
480.50 1.119
480.60 1.117
480.70 1.115
480.80 1.113
480.90 1.111
481.00 1.109
481.10 1.107
481.20 1.105
481.30 1.103
481.40 1.1
481.50 1.098
481.60 1.096
481.70 1.094
481.80 1.091
481.90 1.089
482.00 1.087
482.10 1.085
482.20 1.082
482.30 1.08
482.40 1.077
482.50 1.075
482.60 1.072
482.70 1.07
482.80 1.067
482.90 1.065
483.00 1.062
483.10 1.06
483.20 1.057
483.30 1.055
483.40 1.052
483.50 1.049
483.60 1.046
483.70 1.044
483.80 1.041
483.90 1.038
484.00 1.035
484.10 1.033
484.20 1.03
484.30 1.027
484.40 1.024
484.50 1.021
484.60 1.018
484.70 1.015
484.80 1.013
484.90 1.01
485.00 1.007
485.10 1.004
485.20 1.002
485.30 0.999
485.40 0.9968
485.50 0.9947
485.60 0.9934
485.70 0.9925
485.80 0.9938
485.90 0.9961
486.00 1.001
486.10 1.008
486.20 1.005
486.30 0.9965
486.40 0.9915
486.50 0.9876
486.60 0.9859
486.70 0.9853
486.80 0.9855
486.90 0.9861
487.00 0.987
487.10 0.988
487.20 0.9892
487.30 0.9905
487.40 0.9918
487.50 0.9931
487.60 0.9944
487.70 0.9957
487.80 0.997
487.90 0.9983
488.00 0.9996
488.10 1.001
488.20 1.002
488.30 1.003
488.40 1.004
488.50 1.005
488.60 1.006
488.70 1.008
488.80 1.009
488.90 1.01
489.00 1.011
489.10 1.012
489.20 1.013
489.30 1.014
489.40 1.014
489.50 1.015
489.60 1.016
489.70 1.017
489.80 1.018
489.90 1.018
490.00 1.019
490.10 1.02
490.20 1.021
490.30 1.021
490.40 1.022
490.50 1.022
490.60 1.023
490.70 1.023
490.80 1.024
490.90 1.024
491.00 1.025
491.10 1.025
491.20 1.026
491.30 1.026
491.40 1.026
491.50 1.026
491.60 1.027
491.70 1.027
491.80 1.027
491.90 1.027
492.00 1.028
492.10 1.028
492.20 1.028
492.30 1.028
492.40 1.028
492.50 1.028
492.60 1.028
492.70 1.028
492.80 1.028
492.90 1.028
493.00 1.028
493.10 1.028
493.20 1.028
493.30 1.028
493.40 1.028
493.50 1.028
493.60 1.028
493.70 1.027
493.80 1.027
493.90 1.027
494.00 1.027
494.10 1.027
494.20 1.027
494.30 1.026
494.40 1.026
494.50 1.026
494.60 1.026
494.70 1.025
494.80 1.025
494.90 1.025
495.00 1.025
495.10 1.024
495.20 1.024
495.30 1.024
495.40 1.023
495.50 1.023
495.60 1.022
495.70 1.022
495.80 1.022
495.90 1.021
496.00 1.021
496.10 1.021
496.20 1.02
496.30 1.02
496.40 1.019
496.50 1.019
496.60 1.018
496.70 1.018
496.80 1.017
496.90 1.017
497.00 1.017
497.10 1.016
497.20 1.016
497.30 1.015
497.40 1.015
497.50 1.014
497.60 1.014
497.70 1.013
497.80 1.013
497.90 1.012
498.00 1.011
498.10 1.011
498.20 1.01
498.30 1.01
498.40 1.009
498.50 1.009
498.60 1.008
498.70 1.008
498.80 1.007
498.90 1.006
499.00 1.006
499.10 1.005
499.20 1.005
499.30 1.004
499.40 1.004
499.50 1.003
499.60 1.002
499.70 1.002
499.80 1.001
499.90 1.001
500.00 1
500.10 0.9994
500.20 0.9988
500.30 0.9982
500.40 0.9975
500.50 0.9969
500.60 0.9963
500.70 0.9957
500.80 0.995
500.90 0.9944
501.00 0.9938
501.10 0.9932
501.20 0.9925
501.30 0.9919
501.40 0.9913
501.50 0.9906
501.60 0.99
501.70 0.9893
501.80 0.9887
501.90 0.988
502.00 0.9874
502.10 0.9868
502.20 0.9861
502.30 0.9854
502.40 0.9848
502.50 0.9841
502.60 0.9835
502.70 0.9828
502.80 0.9822
502.90 0.9815
503.00 0.9808
503.10 0.9802
503.20 0.9795
503.30 0.9789
503.40 0.9782
503.50 0.9775
503.60 0.9769
503.70 0.9762
503.80 0.9755
503.90 0.9748
504.00 0.9742
504.10 0.9735
504.20 0.9728
504.30 0.9722
504.40 0.9715
504.50 0.9708
504.60 0.9701
504.70 0.9695
504.80 0.9688
504.90 0.9681
505.00 0.9675
505.10 0.9668
505.20 0.9661
505.30 0.9654
505.40 0.9647
505.50 0.9641
505.60 0.9634
505.70 0.9627
505.80 0.962
505.90 0.9614
506.00 0.9607
506.10 0.96
506.20 0.9593
506.30 0.9586
506.40 0.958
506.50 0.9573
506.60 0.9566
506.70 0.9559
506.80 0.9552
506.90 0.9546
507.00 0.9539
507.10 0.9532
507.20 0.9525
507.30 0.9518
507.40 0.9512
507.50 0.9505
507.60 0.9498
507.70 0.9491
507.80 0.9484
507.90 0.9478
508.00 0.9471
508.10 0.9464
508.20 0.9457
508.30 0.945
508.40 0.9444
508.50 0.9437
508.60 0.943
508.70 0.9423
508.80 0.9416
508.90 0.9409
509.00 0.9403
509.10 0.9396
509.20 0.9389
509.30 0.9382
509.40 0.9376
509.50 0.9369
509.60 0.9362
509.70 0.9355
509.80 0.9348
509.90 0.9342
510.00 0.9335
510.10 0.9328
510.20 0.9321
510.30 0.9314
510.40 0.9308
510.50 0.9301
510.60 0.9294
510.70 0.9287
510.80 0.9281
510.90 0.9274
511.00 0.9267
511.10 0.926
511.20 0.9254
511.30 0.9247
511.40 0.924
511.50 0.9233
511.60 0.9227
511.70 0.922
511.80 0.9213
511.90 0.9206
512.00 0.92
512.10 0.9193
512.20 0.9186
512.30 0.918
512.40 0.9173
512.50 0.9166
512.60 0.9159
512.70 0.9153
512.80 0.9146
512.90 0.9139
513.00 0.9133
513.10 0.9126
513.20 0.9119
513.30 0.9113
513.40 0.9106
513.50 0.9099
513.60 0.9093
513.70 0.9086
513.80 0.9079
513.90 0.9073
514.00 0.9066
514.10 0.9059
514.20 0.9053
514.30 0.9046
514.40 0.9039
514.50 0.9033
514.60 0.9026
514.70 0.902
514.80 0.9013
514.90 0.9006
515.00 0.9
515.10 0.8993
515.20 0.8987
515.30 0.898
515.40 0.8973
515.50 0.8967
515.60 0.896
515.70 0.8954
515.80 0.8947
515.90 0.8941
516.00 0.8934
516.10 0.8927
516.20 0.8921
516.30 0.8914
516.40 0.8908
516.50 0.8901
516.60 0.8895
516.70 0.8888
516.80 0.8882
516.90 0.8875
517.00 0.8869
517.10 0.8862
517.20 0.8856
517.30 0.8849
517.40 0.8843
517.50 0.8836
517.60 0.883
517.70 0.8823
517.80 0.8817
517.90 0.881
518.00 0.8804
518.10 0.8797
518.20 0.8791
518.30 0.8784
518.40 0.8778
518.50 0.8771
518.60 0.8765
518.70 0.8759
518.80 0.8752
518.90 0.8746
519.00 0.8739
519.10 0.8733
519.20 0.8727
519.30 0.872
519.40 0.8714
519.50 0.8707
519.60 0.8701
519.70 0.8695
519.80 0.8688
519.90 0.8682
520.00 0.8675
520.10 0.8669
520.20 0.8663
520.30 0.8656
520.40 0.865
520.50 0.8644
520.60 0.8637
520.70 0.8631
520.80 0.8625
520.90 0.8618
521.00 0.8612
521.10 0.8606
521.20 0.8599
521.30 0.8593
521.40 0.8587
521.50 0.8581
521.60 0.8574
521.70 0.8568
521.80 0.8562
521.90 0.8555
522.00 0.8549
522.10 0.8543
522.20 0.8537
522.30 0.853
522.40 0.8524
522.50 0.8518
522.60 0.8512
522.70 0.8505
522.80 0.8499
522.90 0.8493
523.00 0.8487
523.10 0.8481
523.20 0.8474
523.30 0.8468
523.40 0.8462
523.50 0.8456
523.60 0.845
523.70 0.8443
523.80 0.8437
523.90 0.8431
524.00 0.8425
524.10 0.8419
524.20 0.8413
524.30 0.8407
524.40 0.84
524.50 0.8394
524.60 0.8388
524.70 0.8382
524.80 0.8376
524.90 0.837
525.00 0.8364
525.10 0.8358
525.20 0.8351
525.30 0.8345
525.40 0.8339
525.50 0.8333
525.60 0.8327
525.70 0.8321
525.80 0.8315
525.90 0.8309
526.00 0.8303
526.10 0.8297
526.20 0.8291
526.30 0.8285
526.40 0.8279
526.50 0.8273
526.60 0.8267
526.70 0.8261
526.80 0.8255
526.90 0.8249
527.00 0.8242
527.10 0.8236
527.20 0.823
527.30 0.8225
527.40 0.8219
527.50 0.8213
527.60 0.8207
527.70 0.8201
527.80 0.8195
527.90 0.8189
528.00 0.8183
528.10 0.8177
528.20 0.8171
528.30 0.8165
528.40 0.8159
528.50 0.8153
528.60 0.8147
528.70 0.8141
528.80 0.8135
528.90 0.8129
529.00 0.8123
529.10 0.8118
529.20 0.8112
529.30 0.8106
529.40 0.81
529.50 0.8094
529.60 0.8088
529.70 0.8082
529.80 0.8076
529.90 0.8071
530.00 0.8065
530.10 0.8059
530.20 0.8053
530.30 0.8047
530.40 0.8041
530.50 0.8036
530.60 0.803
530.70 0.8024
530.80 0.8018
530.90 0.8012
531.00 0.8006
531.10 0.8001
531.20 0.7995
531.30 0.7989
531.40 0.7983
531.50 0.7978
531.60 0.7972
531.70 0.7966
531.80 0.796
531.90 0.7954
532.00 0.7949
532.10 0.7943
532.20 0.7937
532.30 0.7931
532.40 0.7926
532.50 0.792
532.60 0.7914
532.70 0.7909
532.80 0.7903
532.90 0.7897
533.00 0.7891
533.10 0.7886
533.20 0.788
533.30 0.7874
533.40 0.7869
533.50 0.7863
533.60 0.7857
533.70 0.7852
533.80 0.7846
533.90 0.784
534.00 0.7835
534.10 0.7829
534.20 0.7823
534.30 0.7818
534.40 0.7812
534.50 0.7807
534.60 0.7801
534.70 0.7795
534.80 0.779
534.90 0.7784
535.00 0.7778
535.10 0.7773
535.20 0.7767
535.30 0.7762
535.40 0.7756
535.50 0.7751
535.60 0.7745
535.70 0.7739
535.80 0.7734
535.90 0.7728
536.00 0.7723
536.10 0.7717
536.20 0.7712
536.30 0.7706
536.40 0.7701
536.50 0.7695
536.60 0.769
536.70 0.7684
536.80 0.7678
536.90 0.7673
537.00 0.7667
537.10 0.7662
537.20 0.7656
537.30 0.7651
537.40 0.7645
537.50 0.764
537.60 0.7635
537.70 0.7629
537.80 0.7624
537.90 0.7618
538.00 0.7613
538.10 0.7607
538.20 0.7602
538.30 0.7596
538.40 0.7591
538.50 0.7585
538.60 0.758
538.70 0.7575
538.80 0.7569
538.90 0.7564
539.00 0.7558
539.10 0.7553
539.20 0.7548
539.30 0.7542
539.40 0.7537
539.50 0.7531
539.60 0.7526
539.70 0.7521
539.80 0.7515
539.90 0.751
540.00 0.7505
540.10 0.7499
540.20 0.7494
540.30 0.7488
540.40 0.7483
540.50 0.7478
540.60 0.7472
540.70 0.7467
540.80 0.7462
540.90 0.7457
541.00 0.7451
541.10 0.7446
541.20 0.7441
541.30 0.7435
541.40 0.743
541.50 0.7425
541.60 0.7419
541.70 0.7414
541.80 0.7409
541.90 0.7404
542.00 0.7398
542.10 0.7393
542.20 0.7388
542.30 0.7382
542.40 0.7377
542.50 0.7372
542.60 0.7367
542.70 0.7362
542.80 0.7356
542.90 0.7351
543.00 0.7346
543.10 0.7341
543.20 0.7335
543.30 0.733
543.40 0.7325
543.50 0.732
543.60 0.7315
543.70 0.7309
543.80 0.7304
543.90 0.7299
544.00 0.7294
544.10 0.7289
544.20 0.7284
544.30 0.7278
544.40 0.7273
544.50 0.7268
544.60 0.7263
544.70 0.7258
544.80 0.7253
544.90 0.7247
545.00 0.7242
545.10 0.7237
545.20 0.7232
545.30 0.7227
545.40 0.7222
545.50 0.7217
545.60 0.7212
545.70 0.7207
545.80 0.7201
545.90 0.7196
546.00 0.7191
546.10 0.7186
546.20 0.7181
546.30 0.7176
546.40 0.7171
546.50 0.7166
546.60 0.7161
546.70 0.7156
546.80 0.7151
546.90 0.7146
547.00 0.7141
547.10 0.7136
547.20 0.7131
547.30 0.7126
547.40 0.7121
547.50 0.7116
547.60 0.711
547.70 0.7105
547.80 0.71
547.90 0.7095
548.00 0.709
548.10 0.7085
548.20 0.708
548.30 0.7076
548.40 0.7071
548.50 0.7066
548.60 0.7061
548.70 0.7056
548.80 0.7051
548.90 0.7046
549.00 0.7041
549.10 0.7036
549.20 0.7031
549.30 0.7026
549.40 0.7021
549.50 0.7016
549.60 0.7011
549.70 0.7006
549.80 0.7001
549.90 0.6996
550.00 0.6991
550.10 0.6986
550.20 0.6982
550.30 0.6977
550.40 0.6972
550.50 0.6967
550.60 0.6962
550.70 0.6957
550.80 0.6952
550.90 0.6947
551.00 0.6943
551.10 0.6938
551.20 0.6933
551.30 0.6928
551.40 0.6923
551.50 0.6918
551.60 0.6913
551.70 0.6909
551.80 0.6904
551.90 0.6899
552.00 0.6894
552.10 0.6889
552.20 0.6884
552.30 0.688
552.40 0.6875
552.50 0.687
552.60 0.6865
552.70 0.686
552.80 0.6856
552.90 0.6851
553.00 0.6846
553.10 0.6841
553.20 0.6836
553.30 0.6832
553.40 0.6827
553.50 0.6822
553.60 0.6817
553.70 0.6813
553.80 0.6808
553.90 0.6803
554.00 0.6798
554.10 0.6794
554.20 0.6789
554.30 0.6784
554.40 0.6779
554.50 0.6775
554.60 0.677
554.70 0.6765
554.80 0.6761
554.90 0.6756
555.00 0.6751
555.10 0.6746
555.20 0.6742
555.30 0.6737
555.40 0.6732
555.50 0.6728
555.60 0.6723
555.70 0.6718
555.80 0.6714
555.90 0.6709
556.00 0.6704
556.10 0.67
556.20 0.6695
556.30 0.669
556.40 0.6686
556.50 0.6681
556.60 0.6676
556.70 0.6672
556.80 0.6667
556.90 0.6663
557.00 0.6658
557.10 0.6653
557.20 0.6649
557.30 0.6644
557.40 0.6639
557.50 0.6635
557.60 0.663
557.70 0.6626
557.80 0.6621
557.90 0.6617
558.00 0.6612
558.10 0.6607
558.20 0.6603
558.30 0.6598
558.40 0.6594
558.50 0.6589
558.60 0.6585
558.70 0.658
558.80 0.6575
558.90 0.6571
559.00 0.6566
559.10 0.6562
559.20 0.6557
559.30 0.6553
559.40 0.6548
559.50 0.6544
559.60 0.6539
559.70 0.6535
559.80 0.653
559.90 0.6526
560.00 0.6521
560.10 0.6517
560.20 0.6512
560.30 0.6508
560.40 0.6503
560.50 0.6499
560.60 0.6494
560.70 0.649
560.80 0.6485
560.90 0.6481
561.00 0.6476
561.10 0.6472
561.20 0.6467
561.30 0.6463
561.40 0.6458
561.50 0.6454
561.60 0.645
561.70 0.6445
561.80 0.6441
561.90 0.6436
562.00 0.6432
562.10 0.6427
562.20 0.6423
562.30 0.6419
562.40 0.6414
562.50 0.641
562.60 0.6405
562.70 0.6401
562.80 0.6397
562.90 0.6392
563.00 0.6388
563.10 0.6383
563.20 0.6379
563.30 0.6375
563.40 0.637
563.50 0.6366
563.60 0.6361
563.70 0.6357
563.80 0.6353
563.90 0.6348
564.00 0.6344
564.10 0.634
564.20 0.6335
564.30 0.6331
564.40 0.6327
564.50 0.6322
564.60 0.6318
564.70 0.6314
564.80 0.6309
564.90 0.6305
565.00 0.6301
565.10 0.6296
565.20 0.6292
565.30 0.6288
565.40 0.6283
565.50 0.6279
565.60 0.6275
565.70 0.6271
565.80 0.6266
565.90 0.6262
566.00 0.6258
566.10 0.6253
566.20 0.6249
566.30 0.6245
566.40 0.6241
566.50 0.6236
566.60 0.6232
566.70 0.6228
566.80 0.6224
566.90 0.6219
567.00 0.6215
567.10 0.6211
567.20 0.6207
567.30 0.6202
567.40 0.6198
567.50 0.6194
567.60 0.619
567.70 0.6186
567.80 0.6181
567.90 0.6177
568.00 0.6173
568.10 0.6169
568.20 0.6164
568.30 0.616
568.40 0.6156
568.50 0.6152
568.60 0.6148
568.70 0.6144
568.80 0.6139
568.90 0.6135
569.00 0.6131
569.10 0.6127
569.20 0.6123
569.30 0.6119
569.40 0.6114
569.50 0.611
569.60 0.6106
569.70 0.6102
569.80 0.6098
569.90 0.6094
570.00 0.6089
570.10 0.6085
570.20 0.6081
570.30 0.6077
570.40 0.6073
570.50 0.6069
570.60 0.6065
570.70 0.6061
570.80 0.6057
570.90 0.6052
571.00 0.6048
571.10 0.6044
571.20 0.604
571.30 0.6036
571.40 0.6032
571.50 0.6028
571.60 0.6024
571.70 0.602
571.80 0.6016
571.90 0.6012
572.00 0.6007
572.10 0.6003
572.20 0.5999
572.30 0.5995
572.40 0.5991
572.50 0.5987
572.60 0.5983
572.70 0.5979
572.80 0.5975
572.90 0.5971
573.00 0.5967
573.10 0.5963
573.20 0.5959
573.30 0.5955
573.40 0.5951
573.50 0.5947
573.60 0.5943
573.70 0.5939
573.80 0.5935
573.90 0.5931
574.00 0.5927
574.10 0.5923
574.20 0.5919
574.30 0.5915
574.40 0.5911
574.50 0.5907
574.60 0.5903
574.70 0.5899
574.80 0.5895
574.90 0.5891
575.00 0.5887
575.10 0.5883
575.20 0.5879
575.30 0.5875
575.40 0.5871
575.50 0.5867
575.60 0.5863
575.70 0.5859
575.80 0.5855
575.90 0.5851
576.00 0.5848
576.10 0.5844
576.20 0.584
576.30 0.5836
576.40 0.5832
576.50 0.5828
576.60 0.5824
576.70 0.582
576.80 0.5816
576.90 0.5812
577.00 0.5808
577.10 0.5805
577.20 0.5801
577.30 0.5797
577.40 0.5793
577.50 0.5789
577.60 0.5785
577.70 0.5781
577.80 0.5777
577.90 0.5773
578.00 0.577
578.10 0.5766
578.20 0.5762
578.30 0.5758
578.40 0.5754
578.50 0.575
578.60 0.5746
578.70 0.5743
578.80 0.5739
578.90 0.5735
579.00 0.5731
579.10 0.5727
579.20 0.5723
579.30 0.572
579.40 0.5716
579.50 0.5712
579.60 0.5708
579.70 0.5704
579.80 0.57
579.90 0.5697
580.00 0.5693
580.10 0.5689
580.20 0.5685
580.30 0.5681
580.40 0.5678
580.50 0.5674
580.60 0.567
580.70 0.5666
580.80 0.5663
580.90 0.5659
581.00 0.5655
581.10 0.5651
581.20 0.5647
581.30 0.5644
581.40 0.564
581.50 0.5636
581.60 0.5632
581.70 0.5629
581.80 0.5625
581.90 0.5621
582.00 0.5617
582.10 0.5614
582.20 0.561
582.30 0.5606
582.40 0.5603
582.50 0.5599
582.60 0.5595
582.70 0.5591
582.80 0.5588
582.90 0.5584
583.00 0.558
583.10 0.5577
583.20 0.5573
583.30 0.5569
583.40 0.5565
583.50 0.5562
583.60 0.5558
583.70 0.5554
583.80 0.5551
583.90 0.5547
584.00 0.5543
584.10 0.554
584.20 0.5536
584.30 0.5532
584.40 0.5529
584.50 0.5525
584.60 0.5521
584.70 0.5518
584.80 0.5514
584.90 0.551
585.00 0.5507
585.10 0.5503
585.20 0.5499
585.30 0.5496
585.40 0.5492
585.50 0.5488
585.60 0.5485
585.70 0.5481
585.80 0.5478
585.90 0.5474
586.00 0.547
586.10 0.5467
586.20 0.5463
586.30 0.5459
586.40 0.5456
586.50 0.5452
586.60 0.5449
586.70 0.5445
586.80 0.5441
586.90 0.5438
587.00 0.5434
587.10 0.5431
587.20 0.5427
587.30 0.5424
587.40 0.542
587.50 0.5416
587.60 0.5413
587.70 0.5409
587.80 0.5406
587.90 0.5402
588.00 0.5399
588.10 0.5395
588.20 0.5391
588.30 0.5388
588.40 0.5384
588.50 0.5381
588.60 0.5377
588.70 0.5374
588.80 0.537
588.90 0.5367
589.00 0.5363
589.10 0.536
589.20 0.5356
589.30 0.5352
589.40 0.5349
589.50 0.5345
589.60 0.5342
589.70 0.5338
589.80 0.5335
589.90 0.5331
590.00 0.5328
590.10 0.5324
590.20 0.5321
590.30 0.5317
590.40 0.5314
590.50 0.531
590.60 0.5307
590.70 0.5303
590.80 0.53
590.90 0.5297
591.00 0.5293
591.10 0.529
591.20 0.5286
591.30 0.5283
591.40 0.5279
591.50 0.5276
591.60 0.5272
591.70 0.5269
591.80 0.5265
591.90 0.5262
592.00 0.5258
592.10 0.5255
592.20 0.5252
592.30 0.5248
592.40 0.5245
592.50 0.5241
592.60 0.5238
592.70 0.5234
592.80 0.5231
592.90 0.5228
593.00 0.5224
593.10 0.5221
593.20 0.5217
593.30 0.5214
593.40 0.521
593.50 0.5207
593.60 0.5204
593.70 0.52
593.80 0.5197
593.90 0.5193
594.00 0.519
594.10 0.5187
594.20 0.5183
594.30 0.518
594.40 0.5177
594.50 0.5173
594.60 0.517
594.70 0.5166
594.80 0.5163
594.90 0.516
595.00 0.5156
595.10 0.5153
595.20 0.515
595.30 0.5146
595.40 0.5143
595.50 0.514
595.60 0.5136
595.70 0.5133
595.80 0.5129
595.90 0.5126
596.00 0.5123
596.10 0.5119
596.20 0.5116
596.30 0.5113
596.40 0.5109
596.50 0.5106
596.60 0.5103
596.70 0.51
596.80 0.5096
596.90 0.5093
597.00 0.509
597.10 0.5086
597.20 0.5083
597.30 0.508
597.40 0.5076
597.50 0.5073
597.60 0.507
597.70 0.5066
597.80 0.5063
597.90 0.506
598.00 0.5057
598.10 0.5053
598.20 0.505
598.30 0.5047
598.40 0.5043
598.50 0.504
598.60 0.5037
598.70 0.5034
598.80 0.503
598.90 0.5027
599.00 0.5024
599.10 0.5021
599.20 0.5017
599.30 0.5014
599.40 0.5011
599.50 0.5008
599.60 0.5004
599.70 0.5001
599.80 0.4998
599.90 0.4995
600.00 0.4991
600.10 0.4988
600.20 0.4985
600.30 0.4982
600.40 0.4979
600.50 0.4975
600.60 0.4972
600.70 0.4969
600.80 0.4966
600.90 0.4962
601.00 0.4959
601.10 0.4956
601.20 0.4953
601.30 0.495
601.40 0.4946
601.50 0.4943
601.60 0.494
601.70 0.4937
601.80 0.4934
601.90 0.4931
602.00 0.4927
602.10 0.4924
602.20 0.4921
602.30 0.4918
602.40 0.4915
602.50 0.4911
602.60 0.4908
602.70 0.4905
602.80 0.4902
602.90 0.4899
603.00 0.4896
603.10 0.4893
603.20 0.4889
603.30 0.4886
603.40 0.4883
603.50 0.488
603.60 0.4877
603.70 0.4874
603.80 0.4871
603.90 0.4867
604.00 0.4864
604.10 0.4861
604.20 0.4858
604.30 0.4855
604.40 0.4852
604.50 0.4849
604.60 0.4845
604.70 0.4842
604.80 0.4839
604.90 0.4836
605.00 0.4833
605.10 0.483
605.20 0.4827
605.30 0.4824
605.40 0.4821
605.50 0.4818
605.60 0.4814
605.70 0.4811
605.80 0.4808
605.90 0.4805
606.00 0.4802
606.10 0.4799
606.20 0.4796
606.30 0.4793
606.40 0.479
606.50 0.4787
606.60 0.4784
606.70 0.4781
606.80 0.4778
606.90 0.4774
607.00 0.4771
607.10 0.4768
607.20 0.4765
607.30 0.4762
607.40 0.4759
607.50 0.4756
607.60 0.4753
607.70 0.475
607.80 0.4747
607.90 0.4744
608.00 0.4741
608.10 0.4738
608.20 0.4735
608.30 0.4732
608.40 0.4729
608.50 0.4726
608.60 0.4723
608.70 0.472
608.80 0.4717
608.90 0.4714
609.00 0.4711
609.10 0.4708
609.20 0.4705
609.30 0.4702
609.40 0.4699
609.50 0.4696
609.60 0.4693
609.70 0.469
609.80 0.4687
609.90 0.4684
610.00 0.4681
610.10 0.4678
610.20 0.4675
610.30 0.4672
610.40 0.4669
610.50 0.4666
610.60 0.4663
610.70 0.466
610.80 0.4657
610.90 0.4654
611.00 0.4651
611.10 0.4648
611.20 0.4645
611.30 0.4642
611.40 0.4639
611.50 0.4636
611.60 0.4633
611.70 0.463
611.80 0.4627
611.90 0.4624
612.00 0.4621
612.10 0.4618
612.20 0.4615
612.30 0.4613
612.40 0.461
612.50 0.4607
612.60 0.4604
612.70 0.4601
612.80 0.4598
612.90 0.4595
613.00 0.4592
613.10 0.4589
613.20 0.4586
613.30 0.4583
613.40 0.458
613.50 0.4577
613.60 0.4575
613.70 0.4572
613.80 0.4569
613.90 0.4566
614.00 0.4563
614.10 0.456
614.20 0.4557
614.30 0.4554
614.40 0.4551
614.50 0.4548
614.60 0.4546
614.70 0.4543
614.80 0.454
614.90 0.4537
615.00 0.4534
615.10 0.4531
615.20 0.4528
615.30 0.4525
615.40 0.4523
615.50 0.452
615.60 0.4517
615.70 0.4514
615.80 0.4511
615.90 0.4508
616.00 0.4505
616.10 0.4502
616.20 0.45
616.30 0.4497
616.40 0.4494
616.50 0.4491
616.60 0.4488
616.70 0.4485
616.80 0.4483
616.90 0.448
617.00 0.4477
617.10 0.4474
617.20 0.4471
617.30 0.4468
617.40 0.4466
617.50 0.4463
617.60 0.446
617.70 0.4457
617.80 0.4454
617.90 0.4451
618.00 0.4449
618.10 0.4446
618.20 0.4443
618.30 0.444
618.40 0.4437
618.50 0.4435
618.60 0.4432
618.70 0.4429
618.80 0.4426
618.90 0.4423
619.00 0.4421
619.10 0.4418
619.20 0.4415
619.30 0.4412
619.40 0.4409
619.50 0.4407
619.60 0.4404
619.70 0.4401
619.80 0.4398
619.90 0.4395
620.00 0.4393
620.10 0.439
620.20 0.4387
620.30 0.4384
620.40 0.4382
620.50 0.4379
620.60 0.4376
620.70 0.4373
620.80 0.437
620.90 0.4368
621.00 0.4365
621.10 0.4362
621.20 0.4359
621.30 0.4357
621.40 0.4354
621.50 0.4351
621.60 0.4348
621.70 0.4346
621.80 0.4343
621.90 0.434
622.00 0.4337
622.10 0.4335
622.20 0.4332
622.30 0.4329
622.40 0.4327
622.50 0.4324
622.60 0.4321
622.70 0.4318
622.80 0.4316
622.90 0.4313
623.00 0.431
623.10 0.4307
623.20 0.4305
623.30 0.4302
623.40 0.4299
623.50 0.4297
623.60 0.4294
623.70 0.4291
623.80 0.4288
623.90 0.4286
624.00 0.4283
624.10 0.428
624.20 0.4278
624.30 0.4275
624.40 0.4272
624.50 0.4269
624.60 0.4267
624.70 0.4264
624.80 0.4261
624.90 0.4259
625.00 0.4256
625.10 0.4253
625.20 0.4251
625.30 0.4248
625.40 0.4245
625.50 0.4243
625.60 0.424
625.70 0.4237
625.80 0.4235
625.90 0.4232
626.00 0.4229
626.10 0.4227
626.20 0.4224
626.30 0.4221
626.40 0.4219
626.50 0.4216
626.60 0.4213
626.70 0.4211
626.80 0.4208
626.90 0.4205
627.00 0.4203
627.10 0.42
627.20 0.4197
627.30 0.4195
627.40 0.4192
627.50 0.4189
627.60 0.4187
627.70 0.4184
627.80 0.4181
627.90 0.4179
628.00 0.4176
628.10 0.4173
628.20 0.4171
628.30 0.4168
628.40 0.4166
628.50 0.4163
628.60 0.416
628.70 0.4158
628.80 0.4155
628.90 0.4152
629.00 0.415
629.10 0.4147
629.20 0.4144
629.30 0.4142
629.40 0.4139
629.50 0.4137
629.60 0.4134
629.70 0.4131
629.80 0.4129
629.90 0.4126
630.00 0.4123
630.10 0.4121
630.20 0.4118
630.30 0.4116
630.40 0.4113
630.50 0.411
630.60 0.4108
630.70 0.4105
630.80 0.4103
630.90 0.41
631.00 0.4097
631.10 0.4095
631.20 0.4092
631.30 0.409
631.40 0.4087
631.50 0.4084
631.60 0.4082
631.70 0.4079
631.80 0.4077
631.90 0.4074
632.00 0.4071
632.10 0.4069
632.20 0.4066
632.30 0.4064
632.40 0.4061
632.50 0.4058
632.60 0.4056
632.70 0.4053
632.80 0.4051
632.90 0.4048
633.00 0.4045
633.10 0.4043
633.20 0.404
633.30 0.4038
633.40 0.4035
633.50 0.4032
633.60 0.403
633.70 0.4027
633.80 0.4025
633.90 0.4022
634.00 0.4019
634.10 0.4017
634.20 0.4014
634.30 0.4012
634.40 0.4009
634.50 0.4007
634.60 0.4004
634.70 0.4001
634.80 0.3999
634.90 0.3996
635.00 0.3994
635.10 0.3991
635.20 0.3988
635.30 0.3986
635.40 0.3983
635.50 0.3981
635.60 0.3978
635.70 0.3975
635.80 0.3973
635.90 0.397
636.00 0.3968
636.10 0.3965
636.20 0.3963
636.30 0.396
636.40 0.3957
636.50 0.3955
636.60 0.3952
636.70 0.395
636.80 0.3947
636.90 0.3944
637.00 0.3942
637.10 0.3939
637.20 0.3937
637.30 0.3934
637.40 0.3931
637.50 0.3929
637.60 0.3926
637.70 0.3924
637.80 0.3921
637.90 0.3918
638.00 0.3916
638.10 0.3913
638.20 0.3911
638.30 0.3908
638.40 0.3905
638.50 0.3903
638.60 0.39
638.70 0.3898
638.80 0.3895
638.90 0.3892
639.00 0.389
639.10 0.3887
639.20 0.3884
639.30 0.3882
639.40 0.3879
639.50 0.3877
639.60 0.3874
639.70 0.3871
639.80 0.3869
639.90 0.3866
640.00 0.3863
640.10 0.3861
640.20 0.3858
640.30 0.3855
640.40 0.3853
640.50 0.385
640.60 0.3847
640.70 0.3845
640.80 0.3842
640.90 0.3839
641.00 0.3837
641.10 0.3834
641.20 0.3831
641.30 0.3829
641.40 0.3826
641.50 0.3823
641.60 0.382
641.70 0.3818
641.80 0.3815
641.90 0.3812
642.00 0.381
642.10 0.3807
642.20 0.3804
642.30 0.3801
642.40 0.3799
642.50 0.3796
642.60 0.3793
642.70 0.379
642.80 0.3787
642.90 0.3785
643.00 0.3782
643.10 0.3779
643.20 0.3776
643.30 0.3773
643.40 0.3771
643.50 0.3768
643.60 0.3765
643.70 0.3762
643.80 0.3759
643.90 0.3756
644.00 0.3753
644.10 0.3751
644.20 0.3748
644.30 0.3745
644.40 0.3742
644.50 0.3739
644.60 0.3736
644.70 0.3733
644.80 0.373
644.90 0.3727
645.00 0.3724
645.10 0.3721
645.20 0.3718
645.30 0.3715
645.40 0.3712
645.50 0.3709
645.60 0.3706
645.70 0.3702
645.80 0.3699
645.90 0.3696
646.00 0.3693
646.10 0.369
646.20 0.3687
646.30 0.3684
646.40 0.368
646.50 0.3677
646.60 0.3674
646.70 0.367
646.80 0.3667
646.90 0.3664
647.00 0.3661
647.10 0.3657
647.20 0.3654
647.30 0.3651
647.40 0.3647
647.50 0.3644
647.60 0.364
647.70 0.3636
647.80 0.3633
647.90 0.3629
648.00 0.3626
648.10 0.3622
648.20 0.3619
648.30 0.3615
648.40 0.3611
648.50 0.3607
648.60 0.3603
648.70 0.36
648.80 0.3596
648.90 0.3592
649.00 0.3588
649.10 0.3584
649.20 0.358
649.30 0.3576
649.40 0.3572
649.50 0.3568
649.60 0.3564
649.70 0.3559
649.80 0.3555
649.90 0.3551
650.00 0.3547
650.10 0.3542
650.20 0.3538
650.30 0.3534
650.40 0.3529
650.50 0.3524
650.60 0.352
650.70 0.3515
650.80 0.351
650.90 0.3505
651.00 0.3501
651.10 0.3496
651.20 0.3491
651.30 0.3486
651.40 0.3481
651.50 0.3476
651.60 0.347
651.70 0.3465
651.80 0.346
651.90 0.3454
652.00 0.3449
652.10 0.3444
652.20 0.3438
652.30 0.3433
652.40 0.3427
652.50 0.3421
652.60 0.3415
652.70 0.3409
652.80 0.3403
652.90 0.3397
653.00 0.3391
653.10 0.3385
653.20 0.3379
653.30 0.3373
653.40 0.3366
653.50 0.3359
653.60 0.3353
653.70 0.3346
653.80 0.3339
653.90 0.3332
654.00 0.3326
654.10 0.3319
654.20 0.3312
654.30 0.3306
654.40 0.3299
654.50 0.3292
654.60 0.3285
654.70 0.3277
654.80 0.327
654.90 0.3263
655.00 0.3256
655.10 0.3249
655.20 0.3243
655.30 0.3236
655.40 0.3229
655.50 0.3223
655.60 0.3218
655.70 0.3213
655.80 0.3211
655.90 0.3211
656.00 0.3221
656.10 0.3235
656.20 0.3313
656.30 0.3411
656.40 0.3266
656.50 0.322
656.60 0.3205
656.70 0.3194
656.80 0.3193
656.90 0.3192
657.00 0.3193
657.10 0.3195
657.20 0.3198
657.30 0.3201
657.40 0.3204
657.50 0.3207
657.60 0.321
657.70 0.3214
657.80 0.3217
657.90 0.322
658.00 0.3223
658.10 0.3227
658.20 0.323
658.30 0.3233
658.40 0.3236
658.50 0.3239
658.60 0.3241
658.70 0.3244
658.80 0.3247
658.90 0.325
659.00 0.3252
659.10 0.3255
659.20 0.3258
659.30 0.3261
659.40 0.3263
659.50 0.3265
659.60 0.3267
659.70 0.3269
659.80 0.3271
659.90 0.3273
660.00 0.3275
660.10 0.3277
660.20 0.3279
660.30 0.328
660.40 0.3282
660.50 0.3283
660.60 0.3284
660.70 0.3285
660.80 0.3287
660.90 0.3288
661.00 0.3289
661.10 0.329
661.20 0.3292
661.30 0.3293
661.40 0.3293
661.50 0.3294
661.60 0.3295
661.70 0.3295
661.80 0.3296
661.90 0.3296
662.00 0.3297
662.10 0.3298
662.20 0.3298
662.30 0.3299
662.40 0.3299
662.50 0.3299
662.60 0.3299
662.70 0.3299
662.80 0.3299
662.90 0.3299
663.00 0.3299
663.10 0.3299
663.20 0.3299
663.30 0.3299
663.40 0.3299
663.50 0.3298
663.60 0.3298
663.70 0.3298
663.80 0.3297
663.90 0.3297
664.00 0.3297
664.10 0.3296
664.20 0.3296
664.30 0.3295
664.40 0.3295
664.50 0.3294
664.60 0.3293
664.70 0.3293
664.80 0.3292
664.90 0.3291
665.00 0.3291
665.10 0.329
665.20 0.3289
665.30 0.3288
665.40 0.3287
665.50 0.3287
665.60 0.3286
665.70 0.3285
665.80 0.3284
665.90 0.3283
666.00 0.3282
666.10 0.3281
666.20 0.328
666.30 0.3279
666.40 0.3278
666.50 0.3277
666.60 0.3275
666.70 0.3274
666.80 0.3273
666.90 0.3272
667.00 0.3271
667.10 0.327
667.20 0.3269
667.30 0.3268
667.40 0.3266
667.50 0.3265
667.60 0.3264
667.70 0.3262
667.80 0.3261
667.90 0.326
668.00 0.3259
668.10 0.3257
668.20 0.3256
668.30 0.3255
668.40 0.3253
668.50 0.3252
668.60 0.325
668.70 0.3249
668.80 0.3248
668.90 0.3246
669.00 0.3245
669.10 0.3243
669.20 0.3242
669.30 0.3241
669.40 0.3239
669.50 0.3238
669.60 0.3236
669.70 0.3235
669.80 0.3233
669.90 0.3232
670.00 0.323
670.10 0.3229
670.20 0.3227
670.30 0.3226
670.40 0.3224
670.50 0.3223
670.60 0.3221
670.70 0.322
670.80 0.3218
670.90 0.3217
671.00 0.3215
671.10 0.3214
671.20 0.3212
671.30 0.3211
671.40 0.3209
671.50 0.3207
671.60 0.3206
671.70 0.3204
671.80 0.3203
671.90 0.3201
672.00 0.3199
672.10 0.3198
672.20 0.3196
672.30 0.3195
672.40 0.3193
672.50 0.3191
672.60 0.319
672.70 0.3188
672.80 0.3187
672.90 0.3185
673.00 0.3183
673.10 0.3182
673.20 0.318
673.30 0.3178
673.40 0.3177
673.50 0.3175
673.60 0.3174
673.70 0.3172
673.80 0.317
673.90 0.3169
674.00 0.3167
674.10 0.3165
674.20 0.3164
674.30 0.3162
674.40 0.316
674.50 0.3159
674.60 0.3157
674.70 0.3155
674.80 0.3154
674.90 0.3152
675.00 0.315
675.10 0.3149
675.20 0.3147
675.30 0.3145
675.40 0.3144
675.50 0.3142
675.60 0.314
675.70 0.3139
675.80 0.3137
675.90 0.3135
676.00 0.3134
676.10 0.3132
676.20 0.313
676.30 0.3129
676.40 0.3127
676.50 0.3125
676.60 0.3124
676.70 0.3122
676.80 0.312
676.90 0.3119
677.00 0.3117
677.10 0.3115
677.20 0.3114
677.30 0.3112
677.40 0.311
677.50 0.3108
677.60 0.3107
677.70 0.3105
677.80 0.3103
677.90 0.3102
678.00 0.31
678.10 0.3098
678.20 0.3097
678.30 0.3095
678.40 0.3093
678.50 0.3092
678.60 0.309
678.70 0.3088
678.80 0.3087
678.90 0.3085
679.00 0.3083
679.10 0.3081
679.20 0.308
679.30 0.3078
679.40 0.3076
679.50 0.3075
679.60 0.3073
679.70 0.3071
679.80 0.307
679.90 0.3068
680.00 0.3066
680.10 0.3065
680.20 0.3063
680.30 0.3061
680.40 0.306
680.50 0.3058
680.60 0.3056
680.70 0.3055
680.80 0.3053
680.90 0.3051
681.00 0.305
681.10 0.3048
681.20 0.3046
681.30 0.3044
681.40 0.3043
681.50 0.3041
681.60 0.3039
681.70 0.3038
681.80 0.3036
681.90 0.3034
682.00 0.3033
682.10 0.3031
682.20 0.3029
682.30 0.3028
682.40 0.3026
682.50 0.3024
682.60 0.3023
682.70 0.3021
682.80 0.3019
682.90 0.3018
683.00 0.3016
683.10 0.3014
683.20 0.3013
683.30 0.3011
683.40 0.3009
683.50 0.3008
683.60 0.3006
683.70 0.3004
683.80 0.3003
683.90 0.3001
684.00 0.2999
684.10 0.2998
684.20 0.2996
684.30 0.2994
684.40 0.2993
684.50 0.2991
684.60 0.2989
684.70 0.2988
684.80 0.2986
684.90 0.2984
685.00 0.2983
685.10 0.2981
685.20 0.2979
685.30 0.2978
685.40 0.2976
685.50 0.2974
685.60 0.2973
685.70 0.2971
685.80 0.2969
685.90 0.2968
686.00 0.2966
686.10 0.2964
686.20 0.2963
686.30 0.2961
686.40 0.296
686.50 0.2958
686.60 0.2956
686.70 0.2955
686.80 0.2953
686.90 0.2951
687.00 0.295
687.10 0.2948
687.20 0.2946
687.30 0.2945
687.40 0.2943
687.50 0.2941
687.60 0.294
687.70 0.2938
687.80 0.2937
687.90 0.2935
688.00 0.2933
688.10 0.2932
688.20 0.293
688.30 0.2928
688.40 0.2927
688.50 0.2925
688.60 0.2924
688.70 0.2922
688.80 0.292
688.90 0.2919
689.00 0.2917
689.10 0.2915
689.20 0.2914
689.30 0.2912
689.40 0.2911
689.50 0.2909
689.60 0.2907
689.70 0.2906
689.80 0.2904
689.90 0.2902
690.00 0.2901
690.10 0.2899
690.20 0.2898
690.30 0.2896
690.40 0.2894
690.50 0.2893
690.60 0.2891
690.70 0.289
690.80 0.2888
690.90 0.2886
691.00 0.2885
691.10 0.2883
691.20 0.2882
691.30 0.288
691.40 0.2878
691.50 0.2877
691.60 0.2875
691.70 0.2874
691.80 0.2872
691.90 0.287
692.00 0.2869
692.10 0.2867
692.20 0.2866
692.30 0.2864
692.40 0.2862
692.50 0.2861
692.60 0.2859
692.70 0.2858
692.80 0.2856
692.90 0.2854
693.00 0.2853
693.10 0.2851
693.20 0.285
693.30 0.2848
693.40 0.2847
693.50 0.2845
693.60 0.2843
693.70 0.2842
693.80 0.284
693.90 0.2839
694.00 0.2837
694.10 0.2835
694.20 0.2834
694.30 0.2832
694.40 0.2831
694.50 0.2829
694.60 0.2828
694.70 0.2826
694.80 0.2824
694.90 0.2823
695.00 0.2821
695.10 0.282
695.20 0.2818
695.30 0.2817
695.40 0.2815
695.50 0.2813
695.60 0.2812
695.70 0.281
695.80 0.2809
695.90 0.2807
696.00 0.2806
696.10 0.2804
696.20 0.2803
696.30 0.2801
696.40 0.28
696.50 0.2798
696.60 0.2796
696.70 0.2795
696.80 0.2793
696.90 0.2792
697.00 0.279
697.10 0.2789
697.20 0.2787
697.30 0.2786
697.40 0.2784
697.50 0.2783
697.60 0.2781
697.70 0.2779
697.80 0.2778
697.90 0.2776
698.00 0.2775
698.10 0.2773
698.20 0.2772
698.30 0.277
698.40 0.2769
698.50 0.2767
698.60 0.2766
698.70 0.2764
698.80 0.2763
698.90 0.2761
699.00 0.2759
699.10 0.2758
699.20 0.2756
699.30 0.2755
699.40 0.2753
699.50 0.2752
699.60 0.275
699.70 0.2749
699.80 0.2747
699.90 0.2746
700.00 0.2744
700.10 0.2743
700.20 0.2741
700.30 0.274
700.40 0.2738
700.50 0.2737
700.60 0.2735
700.70 0.2734
700.80 0.2732
700.90 0.2731
701.00 0.2729
701.10 0.2728
701.20 0.2726
701.30 0.2725
701.40 0.2723
701.50 0.2722
701.60 0.272
701.70 0.2719
701.80 0.2717
701.90 0.2716
702.00 0.2714
702.10 0.2713
702.20 0.2711
702.30 0.271
702.40 0.2708
702.50 0.2707
702.60 0.2705
702.70 0.2704
702.80 0.2702
702.90 0.2701
703.00 0.2699
703.10 0.2698
703.20 0.2696
703.30 0.2695
703.40 0.2693
703.50 0.2692
703.60 0.269
703.70 0.2689
703.80 0.2687
703.90 0.2686
704.00 0.2684
704.10 0.2683
704.20 0.2681
704.30 0.268
704.40 0.2678
704.50 0.2677
704.60 0.2675
704.70 0.2674
704.80 0.2673
704.90 0.2671
705.00 0.267
705.10 0.2668
705.20 0.2667
705.30 0.2665
705.40 0.2664
705.50 0.2662
705.60 0.2661
705.70 0.2659
705.80 0.2658
705.90 0.2656
706.00 0.2655
706.10 0.2654
706.20 0.2652
706.30 0.2651
706.40 0.2649
706.50 0.2648
706.60 0.2646
706.70 0.2645
706.80 0.2643
706.90 0.2642
707.00 0.2641
707.10 0.2639
707.20 0.2638
707.30 0.2636
707.40 0.2635
707.50 0.2633
707.60 0.2632
707.70 0.263
707.80 0.2629
707.90 0.2628
708.00 0.2626
708.10 0.2625
708.20 0.2623
708.30 0.2622
708.40 0.262
708.50 0.2619
708.60 0.2617
708.70 0.2616
708.80 0.2615
708.90 0.2613
709.00 0.2612
709.10 0.261
709.20 0.2609
709.30 0.2607
709.40 0.2606
709.50 0.2605
709.60 0.2603
709.70 0.2602
709.80 0.26
709.90 0.2599
710.00 0.2597
710.10 0.2596
710.20 0.2595
710.30 0.2593
710.40 0.2592
710.50 0.259
710.60 0.2589
710.70 0.2588
710.80 0.2586
710.90 0.2585
711.00 0.2583
711.10 0.2582
711.20 0.2581
711.30 0.2579
711.40 0.2578
711.50 0.2576
711.60 0.2575
711.70 0.2573
711.80 0.2572
711.90 0.2571
712.00 0.2569
712.10 0.2568
712.20 0.2566
712.30 0.2565
712.40 0.2564
712.50 0.2562
712.60 0.2561
712.70 0.256
712.80 0.2558
712.90 0.2557
713.00 0.2555
713.10 0.2554
713.20 0.2553
713.30 0.2551
713.40 0.255
713.50 0.2548
713.60 0.2547
713.70 0.2546
713.80 0.2544
713.90 0.2543
714.00 0.2541
714.10 0.254
714.20 0.2539
714.30 0.2537
714.40 0.2536
714.50 0.2535
714.60 0.2533
714.70 0.2532
714.80 0.253
714.90 0.2529
715.00 0.2528
715.10 0.2526
715.20 0.2525
715.30 0.2524
715.40 0.2522
715.50 0.2521
715.60 0.2519
715.70 0.2518
715.80 0.2517
715.90 0.2515
716.00 0.2514
716.10 0.2513
716.20 0.2511
716.30 0.251
716.40 0.2509
716.50 0.2507
716.60 0.2506
716.70 0.2504
716.80 0.2503
716.90 0.2502
717.00 0.25
717.10 0.2499
717.20 0.2498
717.30 0.2496
717.40 0.2495
717.50 0.2494
717.60 0.2492
717.70 0.2491
717.80 0.249
717.90 0.2488
718.00 0.2487
718.10 0.2486
718.20 0.2484
718.30 0.2483
718.40 0.2482
718.50 0.248
718.60 0.2479
718.70 0.2478
718.80 0.2476
718.90 0.2475
719.00 0.2473
719.10 0.2472
719.20 0.2471
719.30 0.2469
719.40 0.2468
719.50 0.2467
719.60 0.2465
719.70 0.2464
719.80 0.2463
719.90 0.2461
720.00 0.246
720.10 0.2459
720.20 0.2457
720.30 0.2456
720.40 0.2455
720.50 0.2454
720.60 0.2452
720.70 0.2451
720.80 0.245
720.90 0.2448
721.00 0.2447
721.10 0.2446
721.20 0.2444
721.30 0.2443
721.40 0.2442
721.50 0.244
721.60 0.2439
721.70 0.2438
721.80 0.2436
721.90 0.2435
722.00 0.2434
722.10 0.2432
722.20 0.2431
722.30 0.243
722.40 0.2429
722.50 0.2427
722.60 0.2426
722.70 0.2425
722.80 0.2423
722.90 0.2422
723.00 0.2421
723.10 0.2419
723.20 0.2418
723.30 0.2417
723.40 0.2416
723.50 0.2414
723.60 0.2413
723.70 0.2412
723.80 0.241
723.90 0.2409
724.00 0.2408
724.10 0.2406
724.20 0.2405
724.30 0.2404
724.40 0.2403
724.50 0.2401
724.60 0.24
724.70 0.2399
724.80 0.2397
724.90 0.2396
725.00 0.2395
725.10 0.2394
725.20 0.2392
725.30 0.2391
725.40 0.239
725.50 0.2388
725.60 0.2387
725.70 0.2386
725.80 0.2385
725.90 0.2383
726.00 0.2382
726.10 0.2381
726.20 0.238
726.30 0.2378
726.40 0.2377
726.50 0.2376
726.60 0.2374
726.70 0.2373
726.80 0.2372
726.90 0.2371
727.00 0.2369
727.10 0.2368
727.20 0.2367
727.30 0.2366
727.40 0.2364
727.50 0.2363
727.60 0.2362
727.70 0.2361
727.80 0.2359
727.90 0.2358
728.00 0.2357
728.10 0.2355
728.20 0.2354
728.30 0.2353
728.40 0.2352
728.50 0.235
728.60 0.2349
728.70 0.2348
728.80 0.2347
728.90 0.2345
729.00 0.2344
729.10 0.2343
729.20 0.2342
729.30 0.234
729.40 0.2339
729.50 0.2338
729.60 0.2337
729.70 0.2335
729.80 0.2334
729.90 0.2333
730.00 0.2332
730.10 0.233
730.20 0.2329
730.30 0.2328
730.40 0.2327
730.50 0.2326
730.60 0.2324
730.70 0.2323
730.80 0.2322
730.90 0.2321
731.00 0.2319
731.10 0.2318
731.20 0.2317
731.30 0.2316
731.40 0.2315
731.50 0.2313
731.60 0.2312
731.70 0.2311
731.80 0.231
731.90 0.2308
732.00 0.2307
732.10 0.2306
732.20 0.2305
732.30 0.2304
732.40 0.2302
732.50 0.2301
732.60 0.23
732.70 0.2299
732.80 0.2297
732.90 0.2296
733.00 0.2295
733.10 0.2294
733.20 0.2293
733.30 0.2291
733.40 0.229
733.50 0.2289
733.60 0.2288
733.70 0.2287
733.80 0.2285
733.90 0.2284
734.00 0.2283
734.10 0.2282
734.20 0.228
734.30 0.2279
734.40 0.2278
734.50 0.2277
734.60 0.2276
734.70 0.2274
734.80 0.2273
734.90 0.2272
735.00 0.2271
735.10 0.227
735.20 0.2268
735.30 0.2267
735.40 0.2266
735.50 0.2265
735.60 0.2264
735.70 0.2262
735.80 0.2261
735.90 0.226
736.00 0.2259
736.10 0.2258
736.20 0.2256
736.30 0.2255
736.40 0.2254
736.50 0.2253
736.60 0.2252
736.70 0.2251
736.80 0.2249
736.90 0.2248
737.00 0.2247
737.10 0.2246
737.20 0.2245
737.30 0.2243
737.40 0.2242
737.50 0.2241
737.60 0.224
737.70 0.2239
737.80 0.2237
737.90 0.2236
738.00 0.2235
738.10 0.2234
738.20 0.2233
738.30 0.2232
738.40 0.223
738.50 0.2229
738.60 0.2228
738.70 0.2227
738.80 0.2226
738.90 0.2224
739.00 0.2223
739.10 0.2222
739.20 0.2221
739.30 0.222
739.40 0.2219
739.50 0.2217
739.60 0.2216
739.70 0.2215
739.80 0.2214
739.90 0.2213
740.00 0.2211
740.10 0.221
740.20 0.2209
740.30 0.2208
740.40 0.2207
740.50 0.2206
740.60 0.2205
740.70 0.2203
740.80 0.2202
740.90 0.2201
741.00 0.22
741.10 0.2199
741.20 0.2198
741.30 0.2197
741.40 0.2195
741.50 0.2194
741.60 0.2193
741.70 0.2192
741.80 0.2191
741.90 0.219
742.00 0.2189
742.10 0.2187
742.20 0.2186
742.30 0.2185
742.40 0.2184
742.50 0.2183
742.60 0.2182
742.70 0.2181
742.80 0.2179
742.90 0.2178
743.00 0.2177
743.10 0.2176
743.20 0.2175
743.30 0.2174
743.40 0.2173
743.50 0.2171
743.60 0.217
743.70 0.2169
743.80 0.2168
743.90 0.2167
744.00 0.2166
744.10 0.2165
744.20 0.2164
744.30 0.2162
744.40 0.2161
744.50 0.216
744.60 0.2159
744.70 0.2158
744.80 0.2157
744.90 0.2156
745.00 0.2155
745.10 0.2153
745.20 0.2152
745.30 0.2151
745.40 0.215
745.50 0.2149
745.60 0.2148
745.70 0.2147
745.80 0.2146
745.90 0.2144
746.00 0.2143
746.10 0.2142
746.20 0.2141
746.30 0.214
746.40 0.2139
746.50 0.2138
746.60 0.2137
746.70 0.2135
746.80 0.2134
746.90 0.2133
747.00 0.2132
747.10 0.2131
747.20 0.213
747.30 0.2129
747.40 0.2128
747.50 0.2127
747.60 0.2125
747.70 0.2124
747.80 0.2123
747.90 0.2122
748.00 0.2121
748.10 0.212
748.20 0.2119
748.30 0.2118
748.40 0.2117
748.50 0.2115
748.60 0.2114
748.70 0.2113
748.80 0.2112
748.90 0.2111
749.00 0.211
749.10 0.2109
749.20 0.2108
749.30 0.2107
749.40 0.2106
749.50 0.2104
749.60 0.2103
749.70 0.2102
749.80 0.2101
749.90 0.21
750.00 0.2099
750.10 0.2098
750.20 0.2097
750.30 0.2096
750.40 0.2095
750.50 0.2094
750.60 0.2092
750.70 0.2091
750.80 0.209
750.90 0.2089
751.00 0.2088
751.10 0.2087
751.20 0.2086
751.30 0.2085
751.40 0.2084
751.50 0.2083
751.60 0.2082
751.70 0.2081
751.80 0.208
751.90 0.2078
752.00 0.2077
752.10 0.2076
752.20 0.2075
752.30 0.2074
752.40 0.2073
752.50 0.2072
752.60 0.2071
752.70 0.207
752.80 0.2069
752.90 0.2068
753.00 0.2067
753.10 0.2066
753.20 0.2065
753.30 0.2064
753.40 0.2063
753.50 0.2061
753.60 0.206
753.70 0.2059
753.80 0.2058
753.90 0.2057
754.00 0.2056
754.10 0.2055
754.20 0.2054
754.30 0.2053
754.40 0.2052
754.50 0.2051
754.60 0.205
754.70 0.2049
754.80 0.2048
754.90 0.2047
755.00 0.2046
755.10 0.2045
755.20 0.2043
755.30 0.2042
755.40 0.2041
755.50 0.204
755.60 0.2039
755.70 0.2038
755.80 0.2037
755.90 0.2036
756.00 0.2035
756.10 0.2034
756.20 0.2033
756.30 0.2032
756.40 0.2031
756.50 0.203
756.60 0.2029
756.70 0.2028
756.80 0.2027
756.90 0.2026
757.00 0.2025
757.10 0.2024
757.20 0.2022
757.30 0.2021
757.40 0.202
757.50 0.2019
757.60 0.2018
757.70 0.2017
757.80 0.2016
757.90 0.2015
758.00 0.2014
758.10 0.2013
758.20 0.2012
758.30 0.2011
758.40 0.201
758.50 0.2009
758.60 0.2008
758.70 0.2007
758.80 0.2006
758.90 0.2005
759.00 0.2004
759.10 0.2003
759.20 0.2002
759.30 0.2001
759.40 0.2
759.50 0.1999
759.60 0.1998
759.70 0.1997
759.80 0.1995
759.90 0.1994
760.00 0.1993
760.10 0.1992
760.20 0.1991
760.30 0.199
760.40 0.1989
760.50 0.1988
760.60 0.1987
760.70 0.1986
760.80 0.1985
760.90 0.1984
761.00 0.1983
761.10 0.1982
761.20 0.1981
761.30 0.198
761.40 0.1979
761.50 0.1978
761.60 0.1977
761.70 0.1976
761.80 0.1975
761.90 0.1974
762.00 0.1973
762.10 0.1972
762.20 0.1971
762.30 0.197
762.40 0.1969
762.50 0.1968
762.60 0.1967
762.70 0.1966
762.80 0.1965
762.90 0.1964
763.00 0.1963
763.10 0.1962
763.20 0.1961
763.30 0.196
763.40 0.1959
763.50 0.1958
763.60 0.1957
763.70 0.1956
763.80 0.1955
763.90 0.1954
764.00 0.1953
764.10 0.1952
764.20 0.1951
764.30 0.195
764.40 0.1949
764.50 0.1948
764.60 0.1947
764.70 0.1946
764.80 0.1945
764.90 0.1944
765.00 0.1943
765.10 0.1942
765.20 0.1941
765.30 0.194
765.40 0.1939
765.50 0.1938
765.60 0.1937
765.70 0.1936
765.80 0.1935
765.90 0.1935
766.00 0.1934
766.10 0.1933
766.20 0.1932
766.30 0.1931
766.40 0.193
766.50 0.1929
766.60 0.1928
766.70 0.1927
766.80 0.1926
766.90 0.1925
767.00 0.1924
767.10 0.1923
767.20 0.1922
767.30 0.1921
767.40 0.192
767.50 0.1919
767.60 0.1918
767.70 0.1917
767.80 0.1916
767.90 0.1915
768.00 0.1914
768.10 0.1913
768.20 0.1912
768.30 0.1911
768.40 0.191
768.50 0.1909
768.60 0.1908
768.70 0.1907
768.80 0.1906
768.90 0.1905
769.00 0.1904
769.10 0.1903
769.20 0.1902
769.30 0.1901
769.40 0.19
769.50 0.1899
769.60 0.1898
769.70 0.1897
769.80 0.1896
769.90 0.1895
770.00 0.1894
770.10 0.1894
770.20 0.1893
770.30 0.1892
770.40 0.1891
770.50 0.189
770.60 0.1889
770.70 0.1888
770.80 0.1887
770.90 0.1886
771.00 0.1885
771.10 0.1884
771.20 0.1883
771.30 0.1882
771.40 0.1881
771.50 0.188
771.60 0.1879
771.70 0.1878
771.80 0.1877
771.90 0.1877
772.00 0.1876
772.10 0.1875
772.20 0.1874
772.30 0.1873
772.40 0.1872
772.50 0.1871
772.60 0.187
772.70 0.1869
772.80 0.1868
772.90 0.1867
773.00 0.1866
773.10 0.1865
773.20 0.1864
773.30 0.1863
773.40 0.1862
773.50 0.1861
773.60 0.1861
773.70 0.186
773.80 0.1859
773.90 0.1858
774.00 0.1857
774.10 0.1856
774.20 0.1855
774.30 0.1854
774.40 0.1853
774.50 0.1852
774.60 0.1851
774.70 0.185
774.80 0.1849
774.90 0.1848
775.00 0.1848
775.10 0.1847
775.20 0.1846
775.30 0.1845
775.40 0.1844
775.50 0.1843
775.60 0.1842
775.70 0.1841
775.80 0.184
775.90 0.1839
776.00 0.1838
776.10 0.1837
776.20 0.1836
776.30 0.1835
776.40 0.1835
776.50 0.1834
776.60 0.1833
776.70 0.1832
776.80 0.1831
776.90 0.183
777.00 0.1829
777.10 0.1828
777.20 0.1827
777.30 0.1826
777.40 0.1825
777.50 0.1824
777.60 0.1824
777.70 0.1823
777.80 0.1822
777.90 0.1821
778.00 0.182
778.10 0.1819
778.20 0.1818
778.30 0.1817
778.40 0.1816
778.50 0.1815
778.60 0.1814
778.70 0.1813
778.80 0.1813
778.90 0.1812
779.00 0.1811
779.10 0.181
779.20 0.1809
779.30 0.1808
779.40 0.1807
779.50 0.1806
779.60 0.1805
779.70 0.1804
779.80 0.1803
779.90 0.1803
780.00 0.1802
780.10 0.1801
780.20 0.18
780.30 0.1799
780.40 0.1798
780.50 0.1797
780.60 0.1796
780.70 0.1795
780.80 0.1794
780.90 0.1794
781.00 0.1793
781.10 0.1792
781.20 0.1791
781.30 0.179
781.40 0.1789
781.50 0.1788
781.60 0.1787
781.70 0.1786
781.80 0.1786
781.90 0.1785
782.00 0.1784
782.10 0.1783
782.20 0.1782
782.30 0.1781
782.40 0.178
782.50 0.1779
782.60 0.1779
782.70 0.1778
782.80 0.1777
782.90 0.1776
783.00 0.1775
783.10 0.1774
783.20 0.1773
783.30 0.1772
783.40 0.1771
783.50 0.1771
783.60 0.177
783.70 0.1769
783.80 0.1768
783.90 0.1767
784.00 0.1766
784.10 0.1765
784.20 0.1764
784.30 0.1764
784.40 0.1763
784.50 0.1762
784.60 0.1761
784.70 0.176
784.80 0.1759
784.90 0.1758
785.00 0.1757
785.10 0.1757
785.20 0.1756
785.30 0.1755
785.40 0.1754
785.50 0.1753
785.60 0.1752
785.70 0.1751
785.80 0.1751
785.90 0.175
786.00 0.1749
786.10 0.1748
786.20 0.1747
786.30 0.1746
786.40 0.1745
786.50 0.1744
786.60 0.1744
786.70 0.1743
786.80 0.1742
786.90 0.1741
787.00 0.174
787.10 0.1739
787.20 0.1738
787.30 0.1738
787.40 0.1737
787.50 0.1736
787.60 0.1735
787.70 0.1734
787.80 0.1733
787.90 0.1732
788.00 0.1731
788.10 0.1731
788.20 0.173
788.30 0.1729
788.40 0.1728
788.50 0.1727
788.60 0.1726
788.70 0.1725
788.80 0.1725
788.90 0.1724
789.00 0.1723
789.10 0.1722
789.20 0.1721
789.30 0.172
789.40 0.1719
789.50 0.1719
789.60 0.1718
789.70 0.1717
789.80 0.1716
789.90 0.1715
790.00 0.1714
790.10 0.1713
790.20 0.1713
790.30 0.1712
790.40 0.1711
790.50 0.171
790.60 0.1709
790.70 0.1708
790.80 0.1708
790.90 0.1707
791.00 0.1706
791.10 0.1705
791.20 0.1704
791.30 0.1703
791.40 0.1703
791.50 0.1702
791.60 0.1701
791.70 0.17
791.80 0.1699
791.90 0.1698
792.00 0.1698
792.10 0.1697
792.20 0.1696
792.30 0.1695
792.40 0.1694
792.50 0.1693
792.60 0.1693
792.70 0.1692
792.80 0.1691
792.90 0.169
793.00 0.1689
793.10 0.1689
793.20 0.1688
793.30 0.1687
793.40 0.1686
793.50 0.1685
793.60 0.1684
793.70 0.1684
793.80 0.1683
793.90 0.1682
794.00 0.1681
794.10 0.168
794.20 0.1679
794.30 0.1679
794.40 0.1678
794.50 0.1677
794.60 0.1676
794.70 0.1675
794.80 0.1675
794.90 0.1674
795.00 0.1673
795.10 0.1672
795.20 0.1671
795.30 0.167
795.40 0.167
795.50 0.1669
795.60 0.1668
795.70 0.1667
795.80 0.1666
795.90 0.1666
796.00 0.1665
796.10 0.1664
796.20 0.1663
796.30 0.1662
796.40 0.1661
796.50 0.1661
796.60 0.166
796.70 0.1659
796.80 0.1658
796.90 0.1657
797.00 0.1657
797.10 0.1656
797.20 0.1655
797.30 0.1654
797.40 0.1653
797.50 0.1652
797.60 0.1652
797.70 0.1651
797.80 0.165
797.90 0.1649
798.00 0.1648
798.10 0.1648
798.20 0.1647
798.30 0.1646
798.40 0.1645
798.50 0.1644
798.60 0.1644
798.70 0.1643
798.80 0.1642
798.90 0.1641
799.00 0.164
799.10 0.164
799.20 0.1639
799.30 0.1638
799.40 0.1637
799.50 0.1636
799.60 0.1636
799.70 0.1635
799.80 0.1634
799.90 0.1633
800.00 0.1632
800.10 0.1632
800.20 0.1631
800.30 0.163
800.40 0.1629
800.50 0.1628
800.60 0.1628
800.70 0.1627
800.80 0.1626
800.90 0.1625
801.00 0.1624
801.10 0.1624
801.20 0.1623
801.30 0.1622
801.40 0.1621
801.50 0.1621
801.60 0.162
801.70 0.1619
801.80 0.1618
801.90 0.1617
802.00 0.1617
802.10 0.1616
802.20 0.1615
802.30 0.1614
802.40 0.1613
802.50 0.1613
802.60 0.1612
802.70 0.1611
802.80 0.161
802.90 0.161
803.00 0.1609
803.10 0.1608
803.20 0.1607
803.30 0.1606
803.40 0.1606
803.50 0.1605
803.60 0.1604
803.70 0.1603
803.80 0.1603
803.90 0.1602
804.00 0.1601
804.10 0.16
804.20 0.1599
804.30 0.1599
804.40 0.1598
804.50 0.1597
804.60 0.1596
804.70 0.1596
804.80 0.1595
804.90 0.1594
805.00 0.1593
805.10 0.1593
805.20 0.1592
805.30 0.1591
805.40 0.159
805.50 0.1589
805.60 0.1589
805.70 0.1588
805.80 0.1587
805.90 0.1586
806.00 0.1586
806.10 0.1585
806.20 0.1584
806.30 0.1583
806.40 0.1583
806.50 0.1582
806.60 0.1581
806.70 0.158
806.80 0.1579
806.90 0.1579
807.00 0.1578
807.10 0.1577
807.20 0.1576
807.30 0.1576
807.40 0.1575
807.50 0.1574
807.60 0.1573
807.70 0.1573
807.80 0.1572
807.90 0.1571
808.00 0.157
808.10 0.157
808.20 0.1569
808.30 0.1568
808.40 0.1567
808.50 0.1566
808.60 0.1566
808.70 0.1565
808.80 0.1564
808.90 0.1563
809.00 0.1563
809.10 0.1562
809.20 0.1561
809.30 0.156
809.40 0.156
809.50 0.1559
809.60 0.1558
809.70 0.1557
809.80 0.1557
809.90 0.1556
810.00 0.1555
810.10 0.1554
810.20 0.1554
810.30 0.1553
810.40 0.1552
810.50 0.1551
810.60 0.1551
810.70 0.155
810.80 0.1549
810.90 0.1548
811.00 0.1548
811.10 0.1547
811.20 0.1546
811.30 0.1545
811.40 0.1545
811.50 0.1544
811.60 0.1543
811.70 0.1543
811.80 0.1542
811.90 0.1541
812.00 0.154
812.10 0.154
812.20 0.1539
812.30 0.1538
812.40 0.1537
812.50 0.1537
812.60 0.1536
812.70 0.1535
812.80 0.1534
812.90 0.1534
813.00 0.1533
813.10 0.1532
813.20 0.1532
813.30 0.1531
813.40 0.153
813.50 0.1529
813.60 0.1529
813.70 0.1528
813.80 0.1527
813.90 0.1526
814.00 0.1526
814.10 0.1525
814.20 0.1524
814.30 0.1523
814.40 0.1523
814.50 0.1522
814.60 0.1521
814.70 0.1521
814.80 0.152
814.90 0.1519
815.00 0.1518
815.10 0.1518
815.20 0.1517
815.30 0.1516
815.40 0.1516
815.50 0.1515
815.60 0.1514
815.70 0.1513
815.80 0.1513
815.90 0.1512
816.00 0.1511
816.10 0.151
816.20 0.151
816.30 0.1509
816.40 0.1508
816.50 0.1508
816.60 0.1507
816.70 0.1506
816.80 0.1505
816.90 0.1505
817.00 0.1504
817.10 0.1503
817.20 0.1502
817.30 0.1502
817.40 0.1501
817.50 0.15
817.60 0.15
817.70 0.1499
817.80 0.1498
817.90 0.1497
818.00 0.1497
818.10 0.1496
818.20 0.1495
818.30 0.1495
818.40 0.1494
818.50 0.1493
818.60 0.1492
818.70 0.1492
818.80 0.1491
818.90 0.149
819.00 0.149
819.10 0.1489
819.20 0.1488
819.30 0.1487
819.40 0.1487
819.50 0.1486
819.60 0.1485
819.70 0.1485
819.80 0.1484
819.90 0.1483
820.00 0.1482
820.10 0.1482
820.20 0.1481
820.30 0.148
820.40 0.148
820.50 0.1479
820.60 0.1478
820.70 0.1478
820.80 0.1477
820.90 0.1476
821.00 0.1475
821.10 0.1475
821.20 0.1474
821.30 0.1473
821.40 0.1473
821.50 0.1472
821.60 0.1471
821.70 0.1471
821.80 0.147
821.90 0.1469
822.00 0.1468
822.10 0.1468
822.20 0.1467
822.30 0.1466
822.40 0.1466
822.50 0.1465
822.60 0.1464
822.70 0.1464
822.80 0.1463
822.90 0.1462
823.00 0.1462
823.10 0.1461
823.20 0.146
823.30 0.1459
823.40 0.1459
823.50 0.1458
823.60 0.1457
823.70 0.1457
823.80 0.1456
823.90 0.1455
824.00 0.1455
824.10 0.1454
824.20 0.1453
824.30 0.1453
824.40 0.1452
824.50 0.1451
824.60 0.145
824.70 0.145
824.80 0.1449
824.90 0.1448
825.00 0.1448
825.10 0.1447
825.20 0.1446
825.30 0.1446
825.40 0.1445
825.50 0.1444
825.60 0.1444
825.70 0.1443
825.80 0.1442
825.90 0.1442
826.00 0.1441
826.10 0.144
826.20 0.144
826.30 0.1439
826.40 0.1438
826.50 0.1438
826.60 0.1437
826.70 0.1436
826.80 0.1435
826.90 0.1435
827.00 0.1434
827.10 0.1433
827.20 0.1433
827.30 0.1432
827.40 0.1431
827.50 0.1431
827.60 0.143
827.70 0.1429
827.80 0.1429
827.90 0.1428
828.00 0.1427
828.10 0.1427
828.20 0.1426
828.30 0.1425
828.40 0.1425
828.50 0.1424
828.60 0.1423
828.70 0.1423
828.80 0.1422
828.90 0.1421
829.00 0.1421
829.10 0.142
829.20 0.1419
829.30 0.1419
829.40 0.1418
829.50 0.1417
829.60 0.1417
829.70 0.1416
829.80 0.1415
829.90 0.1415
830.00 0.1414
830.10 0.1413
830.20 0.1413
830.30 0.1412
830.40 0.1411
830.50 0.1411
830.60 0.141
830.70 0.1409
830.80 0.1409
830.90 0.1408
831.00 0.1407
831.10 0.1407
831.20 0.1406
831.30 0.1405
831.40 0.1405
831.50 0.1404
831.60 0.1403
831.70 0.1403
831.80 0.1402
831.90 0.1401
832.00 0.1401
832.10 0.14
832.20 0.1399
832.30 0.1399
832.40 0.1398
832.50 0.1398
832.60 0.1397
832.70 0.1396
832.80 0.1396
832.90 0.1395
833.00 0.1394
833.10 0.1394
833.20 0.1393
833.30 0.1392
833.40 0.1392
833.50 0.1391
833.60 0.139
833.70 0.139
833.80 0.1389
833.90 0.1388
834.00 0.1388
834.10 0.1387
834.20 0.1386
834.30 0.1386
834.40 0.1385
834.50 0.1384
834.60 0.1384
834.70 0.1383
834.80 0.1383
834.90 0.1382
835.00 0.1381
835.10 0.1381
835.20 0.138
835.30 0.1379
835.40 0.1379
835.50 0.1378
835.60 0.1377
835.70 0.1377
835.80 0.1376
835.90 0.1375
836.00 0.1375
836.10 0.1374
836.20 0.1374
836.30 0.1373
836.40 0.1372
836.50 0.1372
836.60 0.1371
836.70 0.137
836.80 0.137
836.90 0.1369
837.00 0.1368
837.10 0.1368
837.20 0.1367
837.30 0.1366
837.40 0.1366
837.50 0.1365
837.60 0.1365
837.70 0.1364
837.80 0.1363
837.90 0.1363
838.00 0.1362
838.10 0.1361
838.20 0.1361
838.30 0.136
838.40 0.136
838.50 0.1359
838.60 0.1358
838.70 0.1358
838.80 0.1357
838.90 0.1356
839.00 0.1356
839.10 0.1355
839.20 0.1354
839.30 0.1354
839.40 0.1353
839.50 0.1353
839.60 0.1352
839.70 0.1351
839.80 0.1351
839.90 0.135
840.00 0.1349
840.10 0.1349
840.20 0.1348
840.30 0.1348
840.40 0.1347
840.50 0.1346
840.60 0.1346
840.70 0.1345
840.80 0.1344
840.90 0.1344
841.00 0.1343
841.10 0.1343
841.20 0.1342
841.30 0.1341
841.40 0.1341
841.50 0.134
841.60 0.1339
841.70 0.1339
841.80 0.1338
841.90 0.1338
842.00 0.1337
842.10 0.1336
842.20 0.1336
842.30 0.1335
842.40 0.1334
842.50 0.1334
842.60 0.1333
842.70 0.1333
842.80 0.1332
842.90 0.1331
843.00 0.1331
843.10 0.133
843.20 0.133
843.30 0.1329
843.40 0.1328
843.50 0.1328
843.60 0.1327
843.70 0.1326
843.80 0.1326
843.90 0.1325
844.00 0.1325
844.10 0.1324
844.20 0.1323
844.30 0.1323
844.40 0.1322
844.50 0.1322
844.60 0.1321
844.70 0.132
844.80 0.132
844.90 0.1319
845.00 0.1318
845.10 0.1318
845.20 0.1317
845.30 0.1317
845.40 0.1316
845.50 0.1315
845.60 0.1315
845.70 0.1314
845.80 0.1314
845.90 0.1313
846.00 0.1312
846.10 0.1312
846.20 0.1311
846.30 0.1311
846.40 0.131
846.50 0.1309
846.60 0.1309
846.70 0.1308
846.80 0.1307
846.90 0.1307
847.00 0.1306
847.10 0.1306
847.20 0.1305
847.30 0.1304
847.40 0.1304
847.50 0.1303
847.60 0.1303
847.70 0.1302
847.80 0.1301
847.90 0.1301
848.00 0.13
848.10 0.13
848.20 0.1299
848.30 0.1298
848.40 0.1298
848.50 0.1297
848.60 0.1297
848.70 0.1296
848.80 0.1295
848.90 0.1295
849.00 0.1294
849.10 0.1294
849.20 0.1293
849.30 0.1293
849.40 0.1292
849.50 0.1291
849.60 0.1291
849.70 0.129
849.80 0.129
849.90 0.1289
850.00 0.1288
850.10 0.1288
850.20 0.1287
850.30 0.1287
850.40 0.1286
850.50 0.1285
850.60 0.1285
850.70 0.1284
850.80 0.1284
850.90 0.1283
851.00 0.1282
851.10 0.1282
851.20 0.1281
851.30 0.1281
851.40 0.128
851.50 0.1279
851.60 0.1279
851.70 0.1278
851.80 0.1278
851.90 0.1277
852.00 0.1276
852.10 0.1276
852.20 0.1275
852.30 0.1275
852.40 0.1274
852.50 0.1274
852.60 0.1273
852.70 0.1272
852.80 0.1272
852.90 0.1271
853.00 0.1271
853.10 0.127
853.20 0.1269
853.30 0.1269
853.40 0.1268
853.50 0.1268
853.60 0.1267
853.70 0.1267
853.80 0.1266
853.90 0.1265
854.00 0.1265
854.10 0.1264
854.20 0.1264
854.30 0.1263
854.40 0.1263
854.50 0.1262
854.60 0.1261
854.70 0.1261
854.80 0.126
854.90 0.126
855.00 0.1259
855.10 0.1258
855.20 0.1258
855.30 0.1257
855.40 0.1257
855.50 0.1256
855.60 0.1256
855.70 0.1255
855.80 0.1254
855.90 0.1254
856.00 0.1253
856.10 0.1253
856.20 0.1252
856.30 0.1252
856.40 0.1251
856.50 0.125
856.60 0.125
856.70 0.1249
856.80 0.1249
856.90 0.1248
857.00 0.1248
857.10 0.1247
857.20 0.1246
857.30 0.1246
857.40 0.1245
857.50 0.1245
857.60 0.1244
857.70 0.1244
857.80 0.1243
857.90 0.1242
858.00 0.1242
858.10 0.1241
858.20 0.1241
858.30 0.124
858.40 0.124
858.50 0.1239
858.60 0.1239
858.70 0.1238
858.80 0.1237
858.90 0.1237
859.00 0.1236
859.10 0.1236
859.20 0.1235
859.30 0.1235
859.40 0.1234
859.50 0.1234
859.60 0.1233
859.70 0.1232
859.80 0.1232
859.90 0.1231
860.00 0.1231
860.10 0.123
860.20 0.123
860.30 0.1229
860.40 0.1229
860.50 0.1228
860.60 0.1227
860.70 0.1227
860.80 0.1226
860.90 0.1226
861.00 0.1225
861.10 0.1225
861.20 0.1224
861.30 0.1224
861.40 0.1223
861.50 0.1222
861.60 0.1222
861.70 0.1221
861.80 0.1221
861.90 0.122
862.00 0.122
862.10 0.1219
862.20 0.1219
862.30 0.1218
862.40 0.1218
862.50 0.1217
862.60 0.1216
862.70 0.1216
862.80 0.1215
862.90 0.1215
863.00 0.1214
863.10 0.1214
863.20 0.1213
863.30 0.1213
863.40 0.1212
863.50 0.1211
863.60 0.1211
863.70 0.121
863.80 0.121
863.90 0.1209
864.00 0.1209
864.10 0.1208
864.20 0.1208
864.30 0.1207
864.40 0.1207
864.50 0.1206
864.60 0.1205
864.70 0.1205
864.80 0.1204
864.90 0.1204
865.00 0.1203
865.10 0.1203
865.20 0.1202
865.30 0.1202
865.40 0.1201
865.50 0.12
865.60 0.12
865.70 0.1199
865.80 0.1199
865.90 0.1198
866.00 0.1198
866.10 0.1197
866.20 0.1197
866.30 0.1196
866.40 0.1196
866.50 0.1195
866.60 0.1195
866.70 0.1194
866.80 0.1193
866.90 0.1193
867.00 0.1192
867.10 0.1192
867.20 0.1191
867.30 0.1191
867.40 0.119
867.50 0.119
867.60 0.1189
867.70 0.1189
867.80 0.1188
867.90 0.1188
868.00 0.1187
868.10 0.1186
868.20 0.1186
868.30 0.1185
868.40 0.1185
868.50 0.1184
868.60 0.1184
868.70 0.1183
868.80 0.1183
868.90 0.1182
869.00 0.1182
869.10 0.1181
869.20 0.1181
869.30 0.118
869.40 0.118
869.50 0.1179
869.60 0.1178
869.70 0.1178
869.80 0.1177
869.90 0.1177
870.00 0.1176
870.10 0.1176
870.20 0.1175
870.30 0.1175
870.40 0.1174
870.50 0.1174
870.60 0.1173
870.70 0.1173
870.80 0.1172
870.90 0.1172
871.00 0.1171
871.10 0.1171
871.20 0.117
871.30 0.117
871.40 0.1169
871.50 0.1168
871.60 0.1168
871.70 0.1167
871.80 0.1167
871.90 0.1166
872.00 0.1166
872.10 0.1165
872.20 0.1165
872.30 0.1164
872.40 0.1164
872.50 0.1163
872.60 0.1163
872.70 0.1162
872.80 0.1162
872.90 0.1161
873.00 0.1161
873.10 0.116
873.20 0.116
873.30 0.1159
873.40 0.1159
873.50 0.1158
873.60 0.1158
873.70 0.1157
873.80 0.1156
873.90 0.1156
874.00 0.1155
874.10 0.1155
874.20 0.1154
874.30 0.1154
874.40 0.1153
874.50 0.1153
874.60 0.1152
874.70 0.1152
874.80 0.1151
874.90 0.1151
875.00 0.115
875.10 0.115
875.20 0.1149
875.30 0.1149
875.40 0.1148
875.50 0.1148
875.60 0.1147
875.70 0.1147
875.80 0.1146
875.90 0.1146
876.00 0.1145
876.10 0.1145
876.20 0.1144
876.30 0.1144
876.40 0.1143
876.50 0.1143
876.60 0.1142
876.70 0.1142
876.80 0.1141
876.90 0.114
877.00 0.114
877.10 0.1139
877.20 0.1139
877.30 0.1138
877.40 0.1138
877.50 0.1137
877.60 0.1137
877.70 0.1136
877.80 0.1136
877.90 0.1135
878.00 0.1135
878.10 0.1134
878.20 0.1134
878.30 0.1133
878.40 0.1133
878.50 0.1132
878.60 0.1132
878.70 0.1131
878.80 0.1131
878.90 0.113
879.00 0.113
879.10 0.1129
879.20 0.1129
879.30 0.1128
879.40 0.1128
879.50 0.1127
879.60 0.1127
879.70 0.1126
879.80 0.1126
879.90 0.1125
880.00 0.1125
880.10 0.1124
880.20 0.1124
880.30 0.1123
880.40 0.1123
880.50 0.1122
880.60 0.1122
880.70 0.1121
880.80 0.1121
880.90 0.112
881.00 0.112
881.10 0.1119
881.20 0.1119
881.30 0.1118
881.40 0.1118
881.50 0.1117
881.60 0.1117
881.70 0.1116
881.80 0.1116
881.90 0.1115
882.00 0.1115
882.10 0.1114
882.20 0.1114
882.30 0.1113
882.40 0.1113
882.50 0.1112
882.60 0.1112
882.70 0.1111
882.80 0.1111
882.90 0.111
883.00 0.111
883.10 0.111
883.20 0.1109
883.30 0.1109
883.40 0.1108
883.50 0.1108
883.60 0.1107
883.70 0.1107
883.80 0.1106
883.90 0.1106
884.00 0.1105
884.10 0.1105
884.20 0.1104
884.30 0.1104
884.40 0.1103
884.50 0.1103
884.60 0.1102
884.70 0.1102
884.80 0.1101
884.90 0.1101
885.00 0.11
885.10 0.11
885.20 0.1099
885.30 0.1099
885.40 0.1098
885.50 0.1098
885.60 0.1097
885.70 0.1097
885.80 0.1096
885.90 0.1096
886.00 0.1095
886.10 0.1095
886.20 0.1094
886.30 0.1094
886.40 0.1093
886.50 0.1093
886.60 0.1092
886.70 0.1092
886.80 0.1091
886.90 0.1091
887.00 0.109
887.10 0.109
887.20 0.109
887.30 0.1089
887.40 0.1089
887.50 0.1088
887.60 0.1088
887.70 0.1087
887.80 0.1087
887.90 0.1086
888.00 0.1086
888.10 0.1085
888.20 0.1085
888.30 0.1084
888.40 0.1084
888.50 0.1083
888.60 0.1083
888.70 0.1082
888.80 0.1082
888.90 0.1081
889.00 0.1081
889.10 0.108
889.20 0.108
889.30 0.108
889.40 0.1079
889.50 0.1079
889.60 0.1078
889.70 0.1078
889.80 0.1077
889.90 0.1077
890.00 0.1076
890.10 0.1076
890.20 0.1075
890.30 0.1075
890.40 0.1074
890.50 0.1074
890.60 0.1073
890.70 0.1073
890.80 0.1072
890.90 0.1072
891.00 0.1071
891.10 0.1071
891.20 0.1071
891.30 0.107
891.40 0.107
891.50 0.1069
891.60 0.1069
891.70 0.1068
891.80 0.1068
891.90 0.1067
892.00 0.1067
892.10 0.1066
892.20 0.1066
892.30 0.1065
892.40 0.1065
892.50 0.1064
892.60 0.1064
892.70 0.1064
892.80 0.1063
892.90 0.1063
893.00 0.1062
893.10 0.1062
893.20 0.1061
893.30 0.1061
893.40 0.106
893.50 0.106
893.60 0.1059
893.70 0.1059
893.80 0.1058
893.90 0.1058
894.00 0.1058
894.10 0.1057
894.20 0.1057
894.30 0.1056
894.40 0.1056
894.50 0.1055
894.60 0.1055
894.70 0.1054
894.80 0.1054
894.90 0.1053
895.00 0.1053
895.10 0.1052
895.20 0.1052
895.30 0.1052
895.40 0.1051
895.50 0.1051
895.60 0.105
895.70 0.105
895.80 0.1049
895.90 0.1049
896.00 0.1048
896.10 0.1048
896.20 0.1047
896.30 0.1047
896.40 0.1046
896.50 0.1046
896.60 0.1046
896.70 0.1045
896.80 0.1045
896.90 0.1044
897.00 0.1044
897.10 0.1043
897.20 0.1043
897.30 0.1042
897.40 0.1042
897.50 0.1041
897.60 0.1041
897.70 0.1041
897.80 0.104
897.90 0.104
898.00 0.1039
898.10 0.1039
898.20 0.1038
898.30 0.1038
898.40 0.1037
898.50 0.1037
898.60 0.1036
898.70 0.1036
898.80 0.1036
898.90 0.1035
899.00 0.1035
899.10 0.1034
899.20 0.1034
899.30 0.1033
899.40 0.1033
899.50 0.1032
899.60 0.1032
899.70 0.1032
899.80 0.1031
899.90 0.1031
900.00 0.103
900.10 0.103
900.20 0.1029
900.30 0.1029
900.40 0.1028
900.50 0.1028
900.60 0.1028
900.70 0.1027
900.80 0.1027
900.90 0.1026
901.00 0.1026
901.10 0.1025
901.20 0.1025
901.30 0.1024
901.40 0.1024
901.50 0.1023
901.60 0.1023
901.70 0.1023
901.80 0.1022
901.90 0.1022
902.00 0.1021
902.10 0.1021
902.20 0.102
902.30 0.102
902.40 0.102
902.50 0.1019
902.60 0.1019
902.70 0.1018
902.80 0.1018
902.90 0.1017
903.00 0.1017
903.10 0.1016
903.20 0.1016
903.30 0.1016
903.40 0.1015
903.50 0.1015
903.60 0.1014
903.70 0.1014
903.80 0.1013
903.90 0.1013
904.00 0.1012
904.10 0.1012
904.20 0.1012
904.30 0.1011
904.40 0.1011
904.50 0.101
904.60 0.101
904.70 0.1009
904.80 0.1009
904.90 0.1009
905.00 0.1008
905.10 0.1008
905.20 0.1007
905.30 0.1007
905.40 0.1006
905.50 0.1006
905.60 0.1006
905.70 0.1005
905.80 0.1005
905.90 0.1004
906.00 0.1004
906.10 0.1003
906.20 0.1003
906.30 0.1002
906.40 0.1002
906.50 0.1002
906.60 0.1001
906.70 0.1001
906.80 0.1
906.90 0.09999
907.00 0.09994
907.10 0.0999
907.20 0.09986
907.30 0.09981
907.40 0.09977
907.50 0.09973
907.60 0.09969
907.70 0.09964
907.80 0.0996
907.90 0.09956
908.00 0.09951
908.10 0.09947
908.20 0.09943
908.30 0.09939
908.40 0.09934
908.50 0.0993
908.60 0.09926
908.70 0.09922
908.80 0.09917
908.90 0.09913
909.00 0.09909
909.10 0.09905
909.20 0.099
909.30 0.09896
909.40 0.09892
909.50 0.09888
909.60 0.09883
909.70 0.09879
909.80 0.09875
909.90 0.09871
910.00 0.09866
910.10 0.09862
910.20 0.09858
910.30 0.09854
910.40 0.09849
910.50 0.09845
910.60 0.09841
910.70 0.09837
910.80 0.09833
910.90 0.09828
911.00 0.09824
911.10 0.0982
911.20 0.09816
911.30 0.09811
911.40 0.09807
911.50 0.09803
911.60 0.09799
911.70 0.09795
911.80 0.0979
911.90 0.09786
912.00 0.09782
912.10 0.09778
912.20 0.09774
912.30 0.09769
912.40 0.09765
912.50 0.09761
912.60 0.09757
912.70 0.09753
912.80 0.09749
912.90 0.09744
913.00 0.0974
913.10 0.09736
913.20 0.09732
913.30 0.09728
913.40 0.09724
913.50 0.09719
913.60 0.09715
913.70 0.09711
913.80 0.09707
913.90 0.09703
914.00 0.09699
914.10 0.09695
914.20 0.0969
914.30 0.09686
914.40 0.09682
914.50 0.09678
914.60 0.09674
914.70 0.0967
914.80 0.09666
914.90 0.09662
915.00 0.09657
915.10 0.09653
915.20 0.09649
915.30 0.09645
915.40 0.09641
915.50 0.09637
915.60 0.09633
915.70 0.09629
915.80 0.09625
915.90 0.0962
916.00 0.09616
916.10 0.09612
916.20 0.09608
916.30 0.09604
916.40 0.096
916.50 0.09596
916.60 0.09592
916.70 0.09588
916.80 0.09583
916.90 0.09579
917.00 0.09575
917.10 0.09571
917.20 0.09567
917.30 0.09563
917.40 0.09559
917.50 0.09555
917.60 0.09551
917.70 0.09547
917.80 0.09543
917.90 0.09539
918.00 0.09535
918.10 0.09531
918.20 0.09527
918.30 0.09523
918.40 0.09519
918.50 0.09515
918.60 0.09511
918.70 0.09507
918.80 0.09503
918.90 0.09498
919.00 0.09494
919.10 0.0949
919.20 0.09486
919.30 0.09482
919.40 0.09478
919.50 0.09474
919.60 0.0947
919.70 0.09466
919.80 0.09462
919.90 0.09458
920.00 0.09454
920.10 0.0945
920.20 0.09446
920.30 0.09442
920.40 0.09438
920.50 0.09434
920.60 0.0943
920.70 0.09426
920.80 0.09422
920.90 0.09418
921.00 0.09414
921.10 0.0941
921.20 0.09406
921.30 0.09402
921.40 0.09398
921.50 0.09394
921.60 0.0939
921.70 0.09386
921.80 0.09382
921.90 0.09378
922.00 0.09374
922.10 0.0937
922.20 0.09366
922.30 0.09363
922.40 0.09359
922.50 0.09355
922.60 0.09351
922.70 0.09347
922.80 0.09343
922.90 0.09339
923.00 0.09335
923.10 0.09331
923.20 0.09327
923.30 0.09323
923.40 0.09319
923.50 0.09315
923.60 0.09311
923.70 0.09307
923.80 0.09303
923.90 0.09299
924.00 0.09296
924.10 0.09292
924.20 0.09288
924.30 0.09284
924.40 0.0928
924.50 0.09276
924.60 0.09272
924.70 0.09268
924.80 0.09264
924.90 0.0926
925.00 0.09256
925.10 0.09252
925.20 0.09249
925.30 0.09245
925.40 0.09241
925.50 0.09237
925.60 0.09233
925.70 0.09229
925.80 0.09225
925.90 0.09221
926.00 0.09217
926.10 0.09213
926.20 0.09209
926.30 0.09206
926.40 0.09202
926.50 0.09198
926.60 0.09194
926.70 0.0919
926.80 0.09186
926.90 0.09182
927.00 0.09178
927.10 0.09175
927.20 0.09171
927.30 0.09167
927.40 0.09163
927.50 0.09159
927.60 0.09155
927.70 0.09151
927.80 0.09148
927.90 0.09144
928.00 0.0914
928.10 0.09136
928.20 0.09132
928.30 0.09128
928.40 0.09125
928.50 0.09121
928.60 0.09117
928.70 0.09113
928.80 0.09109
928.90 0.09105
929.00 0.09102
929.10 0.09098
929.20 0.09094
929.30 0.0909
929.40 0.09086
929.50 0.09083
929.60 0.09079
929.70 0.09075
929.80 0.09071
929.90 0.09067
930.00 0.09064
930.10 0.0906
930.20 0.09056
930.30 0.09052
930.40 0.09048
930.50 0.09044
930.60 0.09041
930.70 0.09037
930.80 0.09033
930.90 0.09029
931.00 0.09025
931.10 0.09022
931.20 0.09018
931.30 0.09014
931.40 0.0901
931.50 0.09007
931.60 0.09003
931.70 0.08999
931.80 0.08995
931.90 0.08991
932.00 0.08988
932.10 0.08984
932.20 0.0898
932.30 0.08976
932.40 0.08973
932.50 0.08969
932.60 0.08965
932.70 0.08961
932.80 0.08958
932.90 0.08954
933.00 0.0895
933.10 0.08946
933.20 0.08943
933.30 0.08939
933.40 0.08935
933.50 0.08931
933.60 0.08928
933.70 0.08924
933.80 0.0892
933.90 0.08916
934.00 0.08913
934.10 0.08909
934.20 0.08905
934.30 0.08902
934.40 0.08898
934.50 0.08894
934.60 0.0889
934.70 0.08887
934.80 0.08883
934.90 0.08879
935.00 0.08876
935.10 0.08872
935.20 0.08868
935.30 0.08865
935.40 0.08861
935.50 0.08857
935.60 0.08853
935.70 0.0885
935.80 0.08846
935.90 0.08842
936.00 0.08839
936.10 0.08835
936.20 0.08831
936.30 0.08828
936.40 0.08824
936.50 0.0882
936.60 0.08817
936.70 0.08813
936.80 0.08809
936.90 0.08806
937.00 0.08802
937.10 0.08798
937.20 0.08795
937.30 0.08791
937.40 0.08787
937.50 0.08784
937.60 0.0878
937.70 0.08776
937.80 0.08773
937.90 0.08769
938.00 0.08765
938.10 0.08762
938.20 0.08758
938.30 0.08754
938.40 0.08751
938.50 0.08747
938.60 0.08743
938.70 0.0874
938.80 0.08736
938.90 0.08733
939.00 0.08729
939.10 0.08725
939.20 0.08722
939.30 0.08718
939.40 0.08714
939.50 0.08711
939.60 0.08707
939.70 0.08704
939.80 0.087
939.90 0.08696
940.00 0.08693
940.10 0.08689
940.20 0.08685
940.30 0.08682
940.40 0.08678
940.50 0.08675
940.60 0.08671
940.70 0.08667
940.80 0.08664
940.90 0.0866
941.00 0.08657
941.10 0.08653
941.20 0.0865
941.30 0.08646
941.40 0.08642
941.50 0.08639
941.60 0.08635
941.70 0.08632
941.80 0.08628
941.90 0.08624
942.00 0.08621
942.10 0.08617
942.20 0.08614
942.30 0.0861
942.40 0.08607
942.50 0.08603
942.60 0.08599
942.70 0.08596
942.80 0.08592
942.90 0.08589
943.00 0.08585
943.10 0.08582
943.20 0.08578
943.30 0.08575
943.40 0.08571
943.50 0.08567
943.60 0.08564
943.70 0.0856
943.80 0.08557
943.90 0.08553
944.00 0.0855
944.10 0.08546
944.20 0.08543
944.30 0.08539
944.40 0.08536
944.50 0.08532
944.60 0.08529
944.70 0.08525
944.80 0.08522
944.90 0.08518
945.00 0.08515
945.10 0.08511
945.20 0.08507
945.30 0.08504
945.40 0.085
945.50 0.08497
945.60 0.08493
945.70 0.0849
945.80 0.08486
945.90 0.08483
946.00 0.08479
946.10 0.08476
946.20 0.08472
946.30 0.08469
946.40 0.08465
946.50 0.08462
946.60 0.08458
946.70 0.08455
946.80 0.08452
946.90 0.08448
947.00 0.08445
947.10 0.08441
947.20 0.08438
947.30 0.08434
947.40 0.08431
947.50 0.08427
947.60 0.08424
947.70 0.0842
947.80 0.08417
947.90 0.08413
948.00 0.0841
948.10 0.08406
948.20 0.08403
948.30 0.084
948.40 0.08396
948.50 0.08393
948.60 0.08389
948.70 0.08386
948.80 0.08382
948.90 0.08379
949.00 0.08375
949.10 0.08372
949.20 0.08368
949.30 0.08365
949.40 0.08362
949.50 0.08358
949.60 0.08355
949.70 0.08351
949.80 0.08348
949.90 0.08344
950.00 0.08341
950.10 0.08338
950.20 0.08334
950.30 0.08331
950.40 0.08327
950.50 0.08324
950.60 0.08321
950.70 0.08317
950.80 0.08314
950.90 0.0831
951.00 0.08307
951.10 0.08304
951.20 0.083
951.30 0.08297
951.40 0.08293
951.50 0.0829
951.60 0.08287
951.70 0.08283
951.80 0.0828
951.90 0.08276
952.00 0.08273
952.10 0.0827
952.20 0.08266
952.30 0.08263
952.40 0.0826
952.50 0.08256
952.60 0.08253
952.70 0.08249
952.80 0.08246
952.90 0.08243
953.00 0.08239
953.10 0.08236
953.20 0.08233
953.30 0.08229
953.40 0.08226
953.50 0.08223
953.60 0.08219
953.70 0.08216
953.80 0.08213
953.90 0.08209
954.00 0.08206
954.10 0.08203
954.20 0.08199
954.30 0.08196
954.40 0.08193
954.50 0.08189
954.60 0.08186
954.70 0.08183
954.80 0.08179
954.90 0.08176
955.00 0.08173
955.10 0.08169
955.20 0.08166
955.30 0.08162
955.40 0.08159
955.50 0.08156
955.60 0.08152
955.70 0.08149
955.80 0.08146
955.90 0.08142
956.00 0.08139
956.10 0.08136
956.20 0.08132
956.30 0.08129
956.40 0.08126
956.50 0.08123
956.60 0.08119
956.70 0.08116
956.80 0.08113
956.90 0.08109
957.00 0.08106
957.10 0.08103
957.20 0.08099
957.30 0.08096
957.40 0.08093
957.50 0.08089
957.60 0.08086
957.70 0.08083
957.80 0.0808
957.90 0.08076
958.00 0.08073
958.10 0.0807
958.20 0.08066
958.30 0.08063
958.40 0.0806
958.50 0.08057
958.60 0.08053
958.70 0.0805
958.80 0.08047
958.90 0.08044
959.00 0.0804
959.10 0.08037
959.20 0.08034
959.30 0.0803
959.40 0.08027
959.50 0.08024
959.60 0.08021
959.70 0.08017
959.80 0.08014
959.90 0.08011
960.00 0.08008
960.10 0.08004
960.20 0.08001
960.30 0.07998
960.40 0.07995
960.50 0.07991
960.60 0.07988
960.70 0.07985
960.80 0.07982
960.90 0.07979
961.00 0.07975
961.10 0.07972
961.20 0.07969
961.30 0.07966
961.40 0.07962
961.50 0.07959
961.60 0.07956
961.70 0.07953
961.80 0.07949
961.90 0.07946
962.00 0.07943
962.10 0.0794
962.20 0.07937
962.30 0.07933
962.40 0.0793
962.50 0.07927
962.60 0.07924
962.70 0.07921
962.80 0.07917
962.90 0.07914
963.00 0.07911
963.10 0.07908
963.20 0.07905
963.30 0.07901
963.40 0.07898
963.50 0.07895
963.60 0.07892
963.70 0.07889
963.80 0.07885
963.90 0.07882
964.00 0.07879
964.10 0.07876
964.20 0.07873
964.30 0.0787
964.40 0.07866
964.50 0.07863
964.60 0.0786
964.70 0.07857
964.80 0.07854
964.90 0.07851
965.00 0.07847
965.10 0.07844
965.20 0.07841
965.30 0.07838
965.40 0.07835
965.50 0.07832
965.60 0.07828
965.70 0.07825
965.80 0.07822
965.90 0.07819
966.00 0.07816
966.10 0.07813
966.20 0.07809
966.30 0.07806
966.40 0.07803
966.50 0.078
966.60 0.07797
966.70 0.07794
966.80 0.07791
966.90 0.07787
967.00 0.07784
967.10 0.07781
967.20 0.07778
967.30 0.07775
967.40 0.07772
967.50 0.07769
967.60 0.07766
967.70 0.07762
967.80 0.07759
967.90 0.07756
968.00 0.07753
968.10 0.0775
968.20 0.07747
968.30 0.07744
968.40 0.07741
968.50 0.07737
968.60 0.07734
968.70 0.07731
968.80 0.07728
968.90 0.07725
969.00 0.07722
969.10 0.07719
969.20 0.07716
969.30 0.07713
969.40 0.07709
969.50 0.07706
969.60 0.07703
969.70 0.077
969.80 0.07697
969.90 0.07694
970.00 0.07691
970.10 0.07688
970.20 0.07685
970.30 0.07682
970.40 0.07679
970.50 0.07675
970.60 0.07672
970.70 0.07669
970.80 0.07666
970.90 0.07663
971.00 0.0766
971.10 0.07657
971.20 0.07654
971.30 0.07651
971.40 0.07648
971.50 0.07645
971.60 0.07642
971.70 0.07639
971.80 0.07635
971.90 0.07632
972.00 0.07629
972.10 0.07626
972.20 0.07623
972.30 0.0762
972.40 0.07617
972.50 0.07614
972.60 0.07611
972.70 0.07608
972.80 0.07605
972.90 0.07602
973.00 0.07599
973.10 0.07596
973.20 0.07593
973.30 0.0759
973.40 0.07587
973.50 0.07583
973.60 0.0758
973.70 0.07577
973.80 0.07574
973.90 0.07571
974.00 0.07568
974.10 0.07565
974.20 0.07562
974.30 0.07559
974.40 0.07556
974.50 0.07553
974.60 0.0755
974.70 0.07547
974.80 0.07544
974.90 0.07541
975.00 0.07538
975.10 0.07535
975.20 0.07532
975.30 0.07529
975.40 0.07526
975.50 0.07523
975.60 0.0752
975.70 0.07517
975.80 0.07514
975.90 0.07511
976.00 0.07508
976.10 0.07505
976.20 0.07502
976.30 0.07499
976.40 0.07496
976.50 0.07493
976.60 0.0749
976.70 0.07487
976.80 0.07484
976.90 0.07481
977.00 0.07478
977.10 0.07475
977.20 0.07472
977.30 0.07469
977.40 0.07466
977.50 0.07463
977.60 0.0746
977.70 0.07457
977.80 0.07454
977.90 0.07451
978.00 0.07448
978.10 0.07445
978.20 0.07442
978.30 0.07439
978.40 0.07436
978.50 0.07433
978.60 0.0743
978.70 0.07427
978.80 0.07424
978.90 0.07421
979.00 0.07418
979.10 0.07415
979.20 0.07412
979.30 0.07409
979.40 0.07406
979.50 0.07403
979.60 0.074
979.70 0.07397
979.80 0.07394
979.90 0.07391
980.00 0.07388
980.10 0.07385
980.20 0.07382
980.30 0.0738
980.40 0.07377
980.50 0.07374
980.60 0.07371
980.70 0.07368
980.80 0.07365
980.90 0.07362
981.00 0.07359
981.10 0.07356
981.20 0.07353
981.30 0.0735
981.40 0.07347
981.50 0.07344
981.60 0.07341
981.70 0.07338
981.80 0.07335
981.90 0.07332
982.00 0.07329
982.10 0.07326
982.20 0.07323
982.30 0.07321
982.40 0.07318
982.50 0.07315
982.60 0.07312
982.70 0.07309
982.80 0.07306
982.90 0.07303
983.00 0.073
983.10 0.07297
983.20 0.07294
983.30 0.07291
983.40 0.07288
983.50 0.07285
983.60 0.07283
983.70 0.0728
983.80 0.07277
983.90 0.07274
984.00 0.07271
984.10 0.07268
984.20 0.07265
984.30 0.07262
984.40 0.07259
984.50 0.07256
984.60 0.07253
984.70 0.07251
984.80 0.07248
984.90 0.07245
985.00 0.07242
985.10 0.07239
985.20 0.07236
985.30 0.07233
985.40 0.0723
985.50 0.07227
985.60 0.07224
985.70 0.07222
985.80 0.07219
985.90 0.07216
986.00 0.07213
986.10 0.0721
986.20 0.07207
986.30 0.07204
986.40 0.07201
986.50 0.07198
986.60 0.07196
986.70 0.07193
986.80 0.0719
986.90 0.07187
987.00 0.07184
987.10 0.07181
987.20 0.07178
987.30 0.07175
987.40 0.07173
987.50 0.0717
987.60 0.07167
987.70 0.07164
987.80 0.07161
987.90 0.07158
988.00 0.07155
988.10 0.07153
988.20 0.0715
988.30 0.07147
988.40 0.07144
988.50 0.07141
988.60 0.07138
988.70 0.07135
988.80 0.07133
988.90 0.0713
989.00 0.07127
989.10 0.07124
989.20 0.07121
989.30 0.07118
989.40 0.07116
989.50 0.07113
989.60 0.0711
989.70 0.07107
989.80 0.07104
989.90 0.07101
990.00 0.07098
990.10 0.07096
990.20 0.07093
990.30 0.0709
990.40 0.07087
990.50 0.07084
990.60 0.07081
990.70 0.07079
990.80 0.07076
990.90 0.07073
991.00 0.0707
991.10 0.07067
991.20 0.07065
991.30 0.07062
991.40 0.07059
991.50 0.07056
991.60 0.07053
991.70 0.0705
991.80 0.07048
991.90 0.07045
992.00 0.07042
992.10 0.07039
992.20 0.07036
992.30 0.07034
992.40 0.07031
992.50 0.07028
992.60 0.07025
992.70 0.07022
992.80 0.0702
992.90 0.07017
993.00 0.07014
993.10 0.07011
993.20 0.07008
993.30 0.07006
993.40 0.07003
993.50 0.07
993.60 0.06997
993.70 0.06994
993.80 0.06992
993.90 0.06989
994.00 0.06986
994.10 0.06983
994.20 0.06981
994.30 0.06978
994.40 0.06975
994.50 0.06972
994.60 0.06969
994.70 0.06967
994.80 0.06964
994.90 0.06961
995.00 0.06958
995.10 0.06956
995.20 0.06953
995.30 0.0695
995.40 0.06947
995.50 0.06945
995.60 0.06942
995.70 0.06939
995.80 0.06936
995.90 0.06934
996.00 0.06931
996.10 0.06928
996.20 0.06925
996.30 0.06923
996.40 0.0692
996.50 0.06917
996.60 0.06914
996.70 0.06912
996.80 0.06909
996.90 0.06906
997.00 0.06903
997.10 0.06901
997.20 0.06898
997.30 0.06895
997.40 0.06892
997.50 0.0689
997.60 0.06887
997.70 0.06884
997.80 0.06882
997.90 0.06879
998.00 0.06876
998.10 0.06873
998.20 0.06871
998.30 0.06868
998.40 0.06865
998.50 0.06863
998.60 0.0686
998.70 0.06857
998.80 0.06854
998.90 0.06852
999.00 0.06849
999.10 0.06846
999.20 0.06844
999.30 0.06841
999.40 0.06838
999.50 0.06836
999.60 0.06833
999.70 0.0683
999.80 0.06827
999.90 0.06824
1000.00 0.06821
1000.10 0.06819
1000.20 0.06816
1000.30 0.06813
1000.40 0.0681
1000.50 0.06807
1000.60 0.06804
1000.70 0.06801
1000.80 0.06799
1000.90 0.06796
1001.00 0.06793
1001.10 0.0679
1001.20 0.06787
1001.30 0.06784
1001.40 0.06781
1001.50 0.06779
1001.60 0.06776
1001.70 0.06773
1001.80 0.0677
1001.90 0.06768
1002.00 0.06765
1002.10 0.06763
1002.20 0.0676
1002.30 0.06757
1002.40 0.06755
1002.50 0.06752
1002.60 0.0675
1002.70 0.06747
1002.80 0.06744
1002.90 0.06742
1003.00 0.06739
1003.10 0.06737
1003.20 0.06734
1003.30 0.06732
1003.40 0.06729
1003.50 0.06727
1003.60 0.06724
1003.70 0.06721
1003.80 0.06719
1003.90 0.06716
1004.00 0.06714
1004.10 0.06711
1004.20 0.06709
1004.30 0.06706
1004.40 0.06704
1004.50 0.06701
1004.60 0.06698
1004.70 0.06696
1004.80 0.06693
1004.90 0.06691
1005.00 0.06688
1005.10 0.06686
1005.20 0.06683
1005.30 0.0668
1005.40 0.06678
1005.50 0.06675
1005.60 0.06673
1005.70 0.0667
1005.80 0.06667
1005.90 0.06665
1006.00 0.06662
1006.10 0.06659
1006.20 0.06657
1006.30 0.06654
1006.40 0.06652
1006.50 0.06649
1006.60 0.06646
1006.70 0.06644
1006.80 0.06641
1006.90 0.06639
1007.00 0.06636
1007.10 0.06633
1007.20 0.06631
1007.30 0.06628
1007.40 0.06626
1007.50 0.06623
1007.60 0.0662
1007.70 0.06618
1007.80 0.06615
1007.90 0.06613
1008.00 0.0661
1008.10 0.06608
1008.20 0.06605
1008.30 0.06603
1008.40 0.066
1008.50 0.06597
1008.60 0.06595
1008.70 0.06592
1008.80 0.0659
1008.90 0.06587
1009.00 0.06585
1009.10 0.06582
1009.20 0.0658
1009.30 0.06577
1009.40 0.06575
1009.50 0.06572
1009.60 0.0657
1009.70 0.06567
1009.80 0.06565
1009.90 0.06562
1010.00 0.0656
1010.10 0.06557
1010.20 0.06555
1010.30 0.06552
1010.40 0.0655
1010.50 0.06547
1010.60 0.06545
1010.70 0.06542
1010.80 0.0654
1010.90 0.06537
1011.00 0.06535
1011.10 0.06532
1011.20 0.0653
1011.30 0.06527
1011.40 0.06525
1011.50 0.06522
1011.60 0.0652
1011.70 0.06517
1011.80 0.06515
1011.90 0.06512
1012.00 0.0651
1012.10 0.06507
1012.20 0.06505
1012.30 0.06502
1012.40 0.065
1012.50 0.06498
1012.60 0.06495
1012.70 0.06493
1012.80 0.0649
1012.90 0.06488
1013.00 0.06485
1013.10 0.06483
1013.20 0.0648
1013.30 0.06478
1013.40 0.06475
1013.50 0.06473
1013.60 0.06471
1013.70 0.06468
1013.80 0.06466
1013.90 0.06463
1014.00 0.06461
1014.10 0.06458
1014.20 0.06456
1014.30 0.06454
1014.40 0.06451
1014.50 0.06449
1014.60 0.06446
1014.70 0.06444
1014.80 0.06441
1014.90 0.06439
1015.00 0.06437
1015.10 0.06434
1015.20 0.06432
1015.30 0.06429
1015.40 0.06427
1015.50 0.06424
1015.60 0.06422
1015.70 0.0642
1015.80 0.06417
1015.90 0.06415
1016.00 0.06412
1016.10 0.0641
1016.20 0.06408
1016.30 0.06405
1016.40 0.06403
1016.50 0.064
1016.60 0.06398
1016.70 0.06396
1016.80 0.06393
1016.90 0.06391
1017.00 0.06388
1017.10 0.06386
1017.20 0.06384
1017.30 0.06381
1017.40 0.06379
1017.50 0.06376
1017.60 0.06374
1017.70 0.06372
1017.80 0.06369
1017.90 0.06367
1018.00 0.06364
1018.10 0.06362
1018.20 0.0636
1018.30 0.06357
1018.40 0.06355
1018.50 0.06352
1018.60 0.0635
1018.70 0.06348
1018.80 0.06345
1018.90 0.06343
1019.00 0.06341
1019.10 0.06338
1019.20 0.06336
1019.30 0.06333
1019.40 0.06331
1019.50 0.06329
1019.60 0.06326
1019.70 0.06324
1019.80 0.06322
1019.90 0.06319
1020.00 0.06317
1020.10 0.06314
1020.20 0.06312
1020.30 0.0631
1020.40 0.06307
1020.50 0.06305
1020.60 0.06303
1020.70 0.063
1020.80 0.06298
1020.90 0.06296
1021.00 0.06293
1021.10 0.06291
1021.20 0.06288
1021.30 0.06286
1021.40 0.06284
1021.50 0.06281
1021.60 0.06279
1021.70 0.06277
1021.80 0.06274
1021.90 0.06272
1022.00 0.0627
1022.10 0.06267
1022.20 0.06265
1022.30 0.06263
1022.40 0.0626
1022.50 0.06258
1022.60 0.06256
1022.70 0.06253
1022.80 0.06251
1022.90 0.06249
1023.00 0.06246
1023.10 0.06244
1023.20 0.06241
1023.30 0.06239
1023.40 0.06237
1023.50 0.06234
1023.60 0.06232
1023.70 0.0623
1023.80 0.06227
1023.90 0.06225
1024.00 0.06223
1024.10 0.0622
1024.20 0.06218
1024.30 0.06216
1024.40 0.06213
1024.50 0.06211
1024.60 0.06209
1024.70 0.06206
1024.80 0.06204
1024.90 0.06202
1025.00 0.062
1025.10 0.06197
1025.20 0.06195
1025.30 0.06193
1025.40 0.0619
1025.50 0.06188
1025.60 0.06186
1025.70 0.06183
1025.80 0.06181
1025.90 0.06179
1026.00 0.06176
1026.10 0.06174
1026.20 0.06172
1026.30 0.06169
1026.40 0.06167
1026.50 0.06165
1026.60 0.06162
1026.70 0.0616
1026.80 0.06158
1026.90 0.06156
1027.00 0.06153
1027.10 0.06151
1027.20 0.06149
1027.30 0.06146
1027.40 0.06144
1027.50 0.06142
1027.60 0.06139
1027.70 0.06137
1027.80 0.06135
1027.90 0.06133
1028.00 0.0613
1028.10 0.06128
1028.20 0.06126
1028.30 0.06123
1028.40 0.06121
1028.50 0.06119
1028.60 0.06116
1028.70 0.06114
1028.80 0.06112
1028.90 0.0611
1029.00 0.06107
1029.10 0.06105
1029.20 0.06103
1029.30 0.061
1029.40 0.06098
1029.50 0.06096
1029.60 0.06094
1029.70 0.06091
1029.80 0.06089
1029.90 0.06087
1030.00 0.06084
1030.10 0.06082
1030.20 0.0608
1030.30 0.06078
1030.40 0.06075
1030.50 0.06073
1030.60 0.06071
1030.70 0.06068
1030.80 0.06066
1030.90 0.06064
1031.00 0.06062
1031.10 0.06059
1031.20 0.06057
1031.30 0.06055
1031.40 0.06053
1031.50 0.0605
1031.60 0.06048
1031.70 0.06046
1031.80 0.06043
1031.90 0.06041
1032.00 0.06039
1032.10 0.06037
1032.20 0.06034
1032.30 0.06032
1032.40 0.0603
1032.50 0.06028
1032.60 0.06025
1032.70 0.06023
1032.80 0.06021
1032.90 0.06019
1033.00 0.06016
1033.10 0.06014
1033.20 0.06012
1033.30 0.0601
1033.40 0.06007
1033.50 0.06005
1033.60 0.06003
1033.70 0.06001
1033.80 0.05998
1033.90 0.05996
1034.00 0.05994
1034.10 0.05992
1034.20 0.05989
1034.30 0.05987
1034.40 0.05985
1034.50 0.05983
1034.60 0.0598
1034.70 0.05978
1034.80 0.05976
1034.90 0.05974
1035.00 0.05971
1035.10 0.05969
1035.20 0.05967
1035.30 0.05965
1035.40 0.05962
1035.50 0.0596
1035.60 0.05958
1035.70 0.05956
1035.80 0.05954
1035.90 0.05951
1036.00 0.05949
1036.10 0.05947
1036.20 0.05945
1036.30 0.05942
1036.40 0.0594
1036.50 0.05938
1036.60 0.05936
1036.70 0.05933
1036.80 0.05931
1036.90 0.05929
1037.00 0.05927
1037.10 0.05925
1037.20 0.05922
1037.30 0.0592
1037.40 0.05918
1037.50 0.05916
1037.60 0.05913
1037.70 0.05911
1037.80 0.05909
1037.90 0.05907
1038.00 0.05905
1038.10 0.05902
1038.20 0.059
1038.30 0.05898
1038.40 0.05896
1038.50 0.05894
1038.60 0.05891
1038.70 0.05889
1038.80 0.05887
1038.90 0.05885
1039.00 0.05882
1039.10 0.0588
1039.20 0.05878
1039.30 0.05876
1039.40 0.05874
1039.50 0.05871
1039.60 0.05869
1039.70 0.05867
1039.80 0.05865
1039.90 0.05863
1040.00 0.0586
1040.10 0.05858
1040.20 0.05856
1040.30 0.05854
1040.40 0.05852
1040.50 0.05849
1040.60 0.05847
1040.70 0.05845
1040.80 0.05843
1040.90 0.05841
1041.00 0.05838
1041.10 0.05836
1041.20 0.05834
1041.30 0.05832
1041.40 0.0583
1041.50 0.05828
1041.60 0.05825
1041.70 0.05823
1041.80 0.05821
1041.90 0.05819
1042.00 0.05817
1042.10 0.05814
1042.20 0.05812
1042.30 0.0581
1042.40 0.05808
1042.50 0.05806
1042.60 0.05804
1042.70 0.05801
1042.80 0.05799
1042.90 0.05797
1043.00 0.05795
1043.10 0.05793
1043.20 0.0579
1043.30 0.05788
1043.40 0.05786
1043.50 0.05784
1043.60 0.05782
1043.70 0.0578
1043.80 0.05777
1043.90 0.05775
1044.00 0.05773
1044.10 0.05771
1044.20 0.05769
1044.30 0.05767
1044.40 0.05764
1044.50 0.05762
1044.60 0.0576
1044.70 0.05758
1044.80 0.05756
1044.90 0.05754
1045.00 0.05751
1045.10 0.05749
1045.20 0.05747
1045.30 0.05745
1045.40 0.05743
1045.50 0.05741
1045.60 0.05739
1045.70 0.05736
1045.80 0.05734
1045.90 0.05732
1046.00 0.0573
1046.10 0.05728
1046.20 0.05726
1046.30 0.05723
1046.40 0.05721
1046.50 0.05719
1046.60 0.05717
1046.70 0.05715
1046.80 0.05713
1046.90 0.05711
1047.00 0.05708
1047.10 0.05706
1047.20 0.05704
1047.30 0.05702
1047.40 0.057
1047.50 0.05698
1047.60 0.05696
1047.70 0.05693
1047.80 0.05691
1047.90 0.05689
1048.00 0.05687
1048.10 0.05685
1048.20 0.05683
1048.30 0.05681
1048.40 0.05678
1048.50 0.05676
1048.60 0.05674
1048.70 0.05672
1048.80 0.0567
1048.90 0.05668
1049.00 0.05666
1049.10 0.05664
1049.20 0.05661
1049.30 0.05659
1049.40 0.05657
1049.50 0.05655
1049.60 0.05653
1049.70 0.05651
1049.80 0.05649
1049.90 0.05647
1050.00 0.05644
1050.10 0.05642
1050.20 0.0564
1050.30 0.05638
1050.40 0.05636
1050.50 0.05634
1050.60 0.05632
1050.70 0.0563
1050.80 0.05627
1050.90 0.05625
1051.00 0.05623
1051.10 0.05621
1051.20 0.05619
1051.30 0.05617
1051.40 0.05615
1051.50 0.05613
1051.60 0.05611
1051.70 0.05608
1051.80 0.05606
1051.90 0.05604
1052.00 0.05602
1052.10 0.056
1052.20 0.05598
1052.30 0.05596
1052.40 0.05594
1052.50 0.05592
1052.60 0.05589
1052.70 0.05587
1052.80 0.05585
1052.90 0.05583
1053.00 0.05581
1053.10 0.05579
1053.20 0.05577
1053.30 0.05575
1053.40 0.05573
1053.50 0.05571
1053.60 0.05568
1053.70 0.05566
1053.80 0.05564
1053.90 0.05562
1054.00 0.0556
1054.10 0.05558
1054.20 0.05556
1054.30 0.05554
1054.40 0.05552
1054.50 0.0555
1054.60 0.05548
1054.70 0.05545
1054.80 0.05543
1054.90 0.05541
1055.00 0.05539
1055.10 0.05537
1055.20 0.05535
1055.30 0.05533
1055.40 0.05531
1055.50 0.05529
1055.60 0.05527
1055.70 0.05525
1055.80 0.05523
1055.90 0.0552
1056.00 0.05518
1056.10 0.05516
1056.20 0.05514
1056.30 0.05512
1056.40 0.0551
1056.50 0.05508
1056.60 0.05506
1056.70 0.05504
1056.80 0.05502
1056.90 0.055
1057.00 0.05498
1057.10 0.05496
1057.20 0.05493
1057.30 0.05491
1057.40 0.05489
1057.50 0.05487
1057.60 0.05485
1057.70 0.05483
1057.80 0.05481
1057.90 0.05479
1058.00 0.05477
1058.10 0.05475
1058.20 0.05473
1058.30 0.05471
1058.40 0.05469
1058.50 0.05467
1058.60 0.05465
1058.70 0.05462
1058.80 0.0546
1058.90 0.05458
1059.00 0.05456
1059.10 0.05454
1059.20 0.05452
1059.30 0.0545
1059.40 0.05448
1059.50 0.05446
1059.60 0.05444
1059.70 0.05442
1059.80 0.0544
1059.90 0.05438
1060.00 0.05436
1060.10 0.05434
1060.20 0.05432
1060.30 0.0543
1060.40 0.05428
1060.50 0.05425
1060.60 0.05423
1060.70 0.05421
1060.80 0.05419
1060.90 0.05417
1061.00 0.05415
1061.10 0.05413
1061.20 0.05411
1061.30 0.05409
1061.40 0.05407
1061.50 0.05405
1061.60 0.05403
1061.70 0.05401
1061.80 0.05399
1061.90 0.05397
1062.00 0.05395
1062.10 0.05393
1062.20 0.05391
1062.30 0.05389
1062.40 0.05387
1062.50 0.05385
1062.60 0.05383
1062.70 0.05381
1062.80 0.05379
1062.90 0.05376
1063.00 0.05374
1063.10 0.05372
1063.20 0.0537
1063.30 0.05368
1063.40 0.05366
1063.50 0.05364
1063.60 0.05362
1063.70 0.0536
1063.80 0.05358
1063.90 0.05356
1064.00 0.05354
1064.10 0.05352
1064.20 0.0535
1064.30 0.05348
1064.40 0.05346
1064.50 0.05344
1064.60 0.05342
1064.70 0.0534
1064.80 0.05338
1064.90 0.05336
1065.00 0.05334
1065.10 0.05332
1065.20 0.0533
1065.30 0.05328
1065.40 0.05326
1065.50 0.05324
1065.60 0.05322
1065.70 0.0532
1065.80 0.05318
1065.90 0.05316
1066.00 0.05314
1066.10 0.05312
1066.20 0.0531
1066.30 0.05308
1066.40 0.05306
1066.50 0.05304
1066.60 0.05302
1066.70 0.053
1066.80 0.05298
1066.90 0.05296
1067.00 0.05294
1067.10 0.05292
1067.20 0.0529
1067.30 0.05288
1067.40 0.05285
1067.50 0.05283
1067.60 0.05281
1067.70 0.05279
1067.80 0.05277
1067.90 0.05275
1068.00 0.05273
1068.10 0.05271
1068.20 0.05269
1068.30 0.05267
1068.40 0.05265
1068.50 0.05263
1068.60 0.05261
1068.70 0.05259
1068.80 0.05257
1068.90 0.05255
1069.00 0.05253
1069.10 0.05251
1069.20 0.05249
1069.30 0.05247
1069.40 0.05245
1069.50 0.05243
1069.60 0.05241
1069.70 0.05239
1069.80 0.05237
1069.90 0.05235
1070.00 0.05233
1070.10 0.05231
1070.20 0.05229
1070.30 0.05227
1070.40 0.05225
1070.50 0.05223
1070.60 0.05221
1070.70 0.05219
1070.80 0.05217
1070.90 0.05215
1071.00 0.05213
1071.10 0.05212
1071.20 0.0521
1071.30 0.05208
1071.40 0.05206
1071.50 0.05204
1071.60 0.05202
1071.70 0.052
1071.80 0.05198
1071.90 0.05196
1072.00 0.05194
1072.10 0.05192
1072.20 0.0519
1072.30 0.05188
1072.40 0.05186
1072.50 0.05184
1072.60 0.05182
1072.70 0.0518
1072.80 0.05178
1072.90 0.05176
1073.00 0.05174
1073.10 0.05172
1073.20 0.0517
1073.30 0.05168
1073.40 0.05166
1073.50 0.05164
1073.60 0.05162
1073.70 0.0516
1073.80 0.05158
1073.90 0.05156
1074.00 0.05154
1074.10 0.05152
1074.20 0.0515
1074.30 0.05148
1074.40 0.05146
1074.50 0.05144
1074.60 0.05142
1074.70 0.0514
1074.80 0.05138
1074.90 0.05136
1075.00 0.05134
1075.10 0.05132
1075.20 0.0513
1075.30 0.05128
1075.40 0.05126
1075.50 0.05124
1075.60 0.05122
1075.70 0.05121
1075.80 0.05119
1075.90 0.05117
1076.00 0.05115
1076.10 0.05113
1076.20 0.05111
1076.30 0.05109
1076.40 0.05107
1076.50 0.05105
1076.60 0.05103
1076.70 0.05101
1076.80 0.05099
1076.90 0.05097
1077.00 0.05095
1077.10 0.05093
1077.20 0.05091
1077.30 0.05089
1077.40 0.05087
1077.50 0.05085
1077.60 0.05083
1077.70 0.05081
1077.80 0.05079
1077.90 0.05077
1078.00 0.05075
1078.10 0.05073
1078.20 0.05072
1078.30 0.0507
1078.40 0.05068
1078.50 0.05066
1078.60 0.05064
1078.70 0.05062
1078.80 0.0506
1078.90 0.05058
1079.00 0.05056
1079.10 0.05054
1079.20 0.05052
1079.30 0.0505
1079.40 0.05048
1079.50 0.05046
1079.60 0.05044
1079.70 0.05042
1079.80 0.0504
1079.90 0.05038
1080.00 0.05036
1080.10 0.05035
1080.20 0.05033
1080.30 0.05031
1080.40 0.05029
1080.50 0.05027
1080.60 0.05025
1080.70 0.05023
1080.80 0.05021
1080.90 0.05019
1081.00 0.05017
1081.10 0.05015
1081.20 0.05013
1081.30 0.05011
1081.40 0.05009
1081.50 0.05007
1081.60 0.05005
1081.70 0.05004
1081.80 0.05002
1081.90 0.05
1082.00 0.04998
1082.10 0.04996
1082.20 0.04994
1082.30 0.04992
1082.40 0.0499
1082.50 0.04988
1082.60 0.04986
1082.70 0.04984
1082.80 0.04982
1082.90 0.0498
1083.00 0.04978
1083.10 0.04977
1083.20 0.04975
1083.30 0.04973
1083.40 0.04971
1083.50 0.04969
1083.60 0.04967
1083.70 0.04965
1083.80 0.04963
1083.90 0.04961
1084.00 0.04959
1084.10 0.04957
1084.20 0.04955
1084.30 0.04953
1084.40 0.04952
1084.50 0.0495
1084.60 0.04948
1084.70 0.04946
1084.80 0.04944
1084.90 0.04942
1085.00 0.0494
1085.10 0.04938
1085.20 0.04936
1085.30 0.04934
1085.40 0.04932
1085.50 0.04931
1085.60 0.04929
1085.70 0.04927
1085.80 0.04925
1085.90 0.04923
1086.00 0.04921
1086.10 0.04919
1086.20 0.04917
1086.30 0.04915
1086.40 0.04913
1086.50 0.04911
1086.60 0.0491
1086.70 0.04908
1086.80 0.04906
1086.90 0.04904
1087.00 0.04902
1087.10 0.049
1087.20 0.04898
1087.30 0.04896
1087.40 0.04894
1087.50 0.04893
1087.60 0.04891
1087.70 0.04889
1087.80 0.04887
1087.90 0.04885
1088.00 0.04883
1088.10 0.04881
1088.20 0.04879
1088.30 0.04877
1088.40 0.04875
1088.50 0.04874
1088.60 0.04872
1088.70 0.0487
1088.80 0.04868
1088.90 0.04866
1089.00 0.04864
1089.10 0.04862
1089.20 0.0486
1089.30 0.04859
1089.40 0.04857
1089.50 0.04855
1089.60 0.04853
1089.70 0.04851
1089.80 0.04849
1089.90 0.04847
1090.00 0.04845
1090.10 0.04843
1090.20 0.04842
1090.30 0.0484
1090.40 0.04838
1090.50 0.04836
1090.60 0.04834
1090.70 0.04832
1090.80 0.0483
1090.90 0.04829
1091.00 0.04827
1091.10 0.04825
1091.20 0.04823
1091.30 0.04821
1091.40 0.04819
1091.50 0.04817
1091.60 0.04815
1091.70 0.04814
1091.80 0.04812
1091.90 0.0481
1092.00 0.04808
1092.10 0.04806
1092.20 0.04804
1092.30 0.04802
1092.40 0.04801
1092.50 0.04799
1092.60 0.04797
1092.70 0.04795
1092.80 0.04793
1092.90 0.04792
1093.00 0.0479
1093.10 0.04788
1093.20 0.04786
1093.30 0.04785
1093.40 0.04783
1093.50 0.04781
1093.60 0.0478
1093.70 0.04779
1093.80 0.04777
1093.90 0.04776
1094.00 0.04774
1094.10 0.04773
1094.20 0.04771
1094.30 0.0477
1094.40 0.04768
1094.50 0.04766
1094.60 0.04765
1094.70 0.04763
1094.80 0.04762
1094.90 0.0476
1095.00 0.04758
1095.10 0.04757
1095.20 0.04755
1095.30 0.04754
1095.40 0.04752
1095.50 0.04751
1095.60 0.04749
1095.70 0.04747
1095.80 0.04746
1095.90 0.04744
1096.00 0.04743
1096.10 0.04741
1096.20 0.0474
1096.30 0.04738
1096.40 0.04737
1096.50 0.04735
1096.60 0.04734
1096.70 0.04732
1096.80 0.04731
1096.90 0.04729
1097.00 0.04728
1097.10 0.04726
1097.20 0.04724
1097.30 0.04723
1097.40 0.04721
1097.50 0.0472
1097.60 0.04718
1097.70 0.04717
1097.80 0.04715
1097.90 0.04714
1098.00 0.04712
1098.10 0.04711
1098.20 0.04709
1098.30 0.04708
1098.40 0.04706
1098.50 0.04705
1098.60 0.04703
1098.70 0.04702
1098.80 0.047
1098.90 0.04699
1099.00 0.04697
1099.10 0.04695
1099.20 0.04694
1099.30 0.04692
1099.40 0.04691
1099.50 0.04689
1099.60 0.04688
1099.70 0.04686
1099.80 0.04685
1099.90 0.04683
1100.00 0.04682
1100.10 0.0468
1100.20 0.04679
1100.30 0.04677
1100.40 0.04676
1100.50 0.04674
1100.60 0.04673
1100.70 0.04671
1100.80 0.0467
1100.90 0.04668
1101.00 0.04667
1101.10 0.04665
1101.20 0.04664
1101.30 0.04662
1101.40 0.04661
1101.50 0.04659
1101.60 0.04658
1101.70 0.04656
1101.80 0.04655
1101.90 0.04653
1102.00 0.04651
1102.10 0.0465
1102.20 0.04648
1102.30 0.04647
1102.40 0.04645
1102.50 0.04644
1102.60 0.04642
1102.70 0.04641
1102.80 0.04639
1102.90 0.04638
1103.00 0.04636
1103.10 0.04635
1103.20 0.04633
1103.30 0.04632
1103.40 0.0463
1103.50 0.04629
1103.60 0.04627
1103.70 0.04626
1103.80 0.04624
1103.90 0.04623
1104.00 0.04621
1104.10 0.0462
1104.20 0.04618
1104.30 0.04617
1104.40 0.04615
1104.50 0.04614
1104.60 0.04612
1104.70 0.04611
1104.80 0.04609
1104.90 0.04608
1105.00 0.04606
1105.10 0.04605
1105.20 0.04603
1105.30 0.04602
1105.40 0.046
1105.50 0.04599
1105.60 0.04597
1105.70 0.04596
1105.80 0.04594
1105.90 0.04593
1106.00 0.04591
1106.10 0.0459
1106.20 0.04588
1106.30 0.04587
1106.40 0.04585
1106.50 0.04584
1106.60 0.04582
1106.70 0.04581
1106.80 0.04579
1106.90 0.04578
1107.00 0.04576
1107.10 0.04575
1107.20 0.04573
1107.30 0.04572
1107.40 0.0457
1107.50 0.04569
1107.60 0.04567
1107.70 0.04566
1107.80 0.04564
1107.90 0.04563
1108.00 0.04561
1108.10 0.0456
1108.20 0.04558
1108.30 0.04557
1108.40 0.04555
1108.50 0.04554
1108.60 0.04552
1108.70 0.04551
1108.80 0.04549
1108.90 0.04548
1109.00 0.04546
1109.10 0.04545
1109.20 0.04543
1109.30 0.04542
1109.40 0.0454
1109.50 0.04539
1109.60 0.04537
1109.70 0.04536
1109.80 0.04534
1109.90 0.04533
1110.00 0.04531
1110.10 0.0453
1110.20 0.04528
1110.30 0.04527
1110.40 0.04525
1110.50 0.04524
1110.60 0.04522
1110.70 0.04521
1110.80 0.04519
1110.90 0.04518
1111.00 0.04517
1111.10 0.04515
1111.20 0.04514
1111.30 0.04512
1111.40 0.04511
1111.50 0.04509
1111.60 0.04508
1111.70 0.04506
1111.80 0.04505
1111.90 0.04503
1112.00 0.04502
1112.10 0.045
1112.20 0.04499
1112.30 0.04497
1112.40 0.04496
1112.50 0.04494
1112.60 0.04493
1112.70 0.04491
1112.80 0.0449
1112.90 0.04488
1113.00 0.04487
1113.10 0.04485
1113.20 0.04484
1113.30 0.04482
1113.40 0.04481
1113.50 0.04479
1113.60 0.04478
1113.70 0.04476
1113.80 0.04475
1113.90 0.04473
1114.00 0.04472
1114.10 0.0447
1114.20 0.04469
1114.30 0.04467
1114.40 0.04466
1114.50 0.04465
1114.60 0.04463
1114.70 0.04462
1114.80 0.0446
1114.90 0.04459
1115.00 0.04457
1115.10 0.04456
1115.20 0.04454
1115.30 0.04453
1115.40 0.04451
1115.50 0.0445
1115.60 0.04448
1115.70 0.04447
1115.80 0.04445
1115.90 0.04444
1116.00 0.04442
1116.10 0.04441
1116.20 0.04439
1116.30 0.04438
1116.40 0.04436
1116.50 0.04435
1116.60 0.04433
1116.70 0.04432
1116.80 0.04431
1116.90 0.04429
1117.00 0.04428
1117.10 0.04426
1117.20 0.04425
1117.30 0.04423
1117.40 0.04422
1117.50 0.0442
1117.60 0.04419
1117.70 0.04417
1117.80 0.04416
1117.90 0.04414
1118.00 0.04413
1118.10 0.04411
1118.20 0.0441
1118.30 0.04408
1118.40 0.04407
1118.50 0.04405
1118.60 0.04404
1118.70 0.04402
1118.80 0.04401
1118.90 0.044
1119.00 0.04398
1119.10 0.04397
1119.20 0.04395
1119.30 0.04394
1119.40 0.04392
1119.50 0.04391
1119.60 0.04389
1119.70 0.04388
1119.80 0.04386
1119.90 0.04385
1120.00 0.04383
1120.10 0.04382
1120.20 0.0438
1120.30 0.04379
1120.40 0.04378
1120.50 0.04376
1120.60 0.04375
1120.70 0.04373
1120.80 0.04372
1120.90 0.0437
1121.00 0.04369
1121.10 0.04367
1121.20 0.04366
1121.30 0.04364
1121.40 0.04363
1121.50 0.04361
1121.60 0.0436
1121.70 0.04358
1121.80 0.04357
1121.90 0.04356
1122.00 0.04354
1122.10 0.04353
1122.20 0.04351
1122.30 0.0435
1122.40 0.04348
1122.50 0.04347
1122.60 0.04345
1122.70 0.04344
1122.80 0.04342
1122.90 0.04341
1123.00 0.04339
1123.10 0.04338
1123.20 0.04337
1123.30 0.04335
1123.40 0.04334
1123.50 0.04332
1123.60 0.04331
1123.70 0.04329
1123.80 0.04328
1123.90 0.04326
1124.00 0.04325
1124.10 0.04323
1124.20 0.04322
1124.30 0.04321
1124.40 0.04319
1124.50 0.04318
1124.60 0.04316
1124.70 0.04315
1124.80 0.04313
1124.90 0.04312
1125.00 0.0431
1125.10 0.04309
1125.20 0.04307
1125.30 0.04306
1125.40 0.04305
1125.50 0.04303
1125.60 0.04302
1125.70 0.043
1125.80 0.04299
1125.90 0.04297
1126.00 0.04296
1126.10 0.04294
1126.20 0.04293
1126.30 0.04292
1126.40 0.0429
1126.50 0.04289
1126.60 0.04287
1126.70 0.04286
1126.80 0.04284
1126.90 0.04283
1127.00 0.04281
1127.10 0.0428
1127.20 0.04279
1127.30 0.04277
1127.40 0.04276
1127.50 0.04274
1127.60 0.04273
1127.70 0.04271
1127.80 0.0427
1127.90 0.04268
1128.00 0.04267
1128.10 0.04266
1128.20 0.04264
1128.30 0.04263
1128.40 0.04261
1128.50 0.0426
1128.60 0.04258
1128.70 0.04257
1128.80 0.04255
1128.90 0.04254
1129.00 0.04253
1129.10 0.04251
1129.20 0.0425
1129.30 0.04248
1129.40 0.04247
1129.50 0.04245
1129.60 0.04244
1129.70 0.04243
1129.80 0.04241
1129.90 0.0424
1130.00 0.04238
1130.10 0.04237
1130.20 0.04235
1130.30 0.04234
1130.40 0.04232
1130.50 0.04231
1130.60 0.0423
1130.70 0.04228
1130.80 0.04227
1130.90 0.04225
1131.00 0.04224
1131.10 0.04222
1131.20 0.04221
1131.30 0.0422
1131.40 0.04218
1131.50 0.04217
1131.60 0.04215
1131.70 0.04214
1131.80 0.04212
1131.90 0.04211
1132.00 0.0421
1132.10 0.04208
1132.20 0.04207
1132.30 0.04205
1132.40 0.04204
1132.50 0.04203
1132.60 0.04201
1132.70 0.042
1132.80 0.04198
1132.90 0.04197
1133.00 0.04195
1133.10 0.04194
1133.20 0.04193
1133.30 0.04191
1133.40 0.0419
1133.50 0.04188
1133.60 0.04187
1133.70 0.04185
1133.80 0.04184
1133.90 0.04183
1134.00 0.04181
1134.10 0.0418
1134.20 0.04178
1134.30 0.04177
1134.40 0.04176
1134.50 0.04174
1134.60 0.04173
1134.70 0.04171
1134.80 0.0417
1134.90 0.04168
1135.00 0.04167
1135.10 0.04166
1135.20 0.04164
1135.30 0.04163
1135.40 0.04161
1135.50 0.0416
1135.60 0.04159
1135.70 0.04157
1135.80 0.04156
1135.90 0.04154
1136.00 0.04153
1136.10 0.04152
1136.20 0.0415
1136.30 0.04149
1136.40 0.04147
1136.50 0.04146
1136.60 0.04145
1136.70 0.04143
1136.80 0.04142
1136.90 0.0414
1137.00 0.04139
1137.10 0.04137
1137.20 0.04136
1137.30 0.04135
1137.40 0.04133
1137.50 0.04132
1137.60 0.0413
1137.70 0.04129
1137.80 0.04128
1137.90 0.04126
1138.00 0.04125
1138.10 0.04123
1138.20 0.04122
1138.30 0.04121
1138.40 0.04119
1138.50 0.04118
1138.60 0.04116
1138.70 0.04115
1138.80 0.04114
1138.90 0.04112
1139.00 0.04111
1139.10 0.0411
1139.20 0.04108
1139.30 0.04107
1139.40 0.04105
1139.50 0.04104
1139.60 0.04103
1139.70 0.04101
1139.80 0.041
1139.90 0.04098
1140.00 0.04097
1140.10 0.04096
1140.20 0.04094
1140.30 0.04093
1140.40 0.04091
1140.50 0.0409
1140.60 0.04089
1140.70 0.04087
1140.80 0.04086
1140.90 0.04085
1141.00 0.04083
1141.10 0.04082
1141.20 0.0408
1141.30 0.04079
1141.40 0.04078
1141.50 0.04076
1141.60 0.04075
1141.70 0.04073
1141.80 0.04072
1141.90 0.04071
1142.00 0.04069
1142.10 0.04068
1142.20 0.04067
1142.30 0.04065
1142.40 0.04064
1142.50 0.04062
1142.60 0.04061
1142.70 0.0406
1142.80 0.04058
1142.90 0.04057
1143.00 0.04056
1143.10 0.04054
1143.20 0.04053
1143.30 0.04051
1143.40 0.0405
1143.50 0.04049
1143.60 0.04047
1143.70 0.04046
1143.80 0.04045
1143.90 0.04043
1144.00 0.04042
1144.10 0.0404
1144.20 0.04039
1144.30 0.04038
1144.40 0.04036
1144.50 0.04035
1144.60 0.04034
1144.70 0.04032
1144.80 0.04031
1144.90 0.04029
1145.00 0.04028
1145.10 0.04027
1145.20 0.04025
1145.30 0.04024
1145.40 0.04023
1145.50 0.04021
1145.60 0.0402
1145.70 0.04019
1145.80 0.04017
1145.90 0.04016
1146.00 0.04014
1146.10 0.04013
1146.20 0.04012
1146.30 0.0401
1146.40 0.04009
1146.50 0.04008
1146.60 0.04006
1146.70 0.04005
1146.80 0.04004
1146.90 0.04002
1147.00 0.04001
1147.10 0.04
1147.20 0.03998
1147.30 0.03997
1147.40 0.03995
1147.50 0.03994
1147.60 0.03993
1147.70 0.03991
1147.80 0.0399
1147.90 0.03989
1148.00 0.03987
1148.10 0.03986
1148.20 0.03985
1148.30 0.03983
1148.40 0.03982
1148.50 0.03981
1148.60 0.03979
1148.70 0.03978
1148.80 0.03977
1148.90 0.03975
1149.00 0.03974
1149.10 0.03973
1149.20 0.03971
1149.30 0.0397
1149.40 0.03969
1149.50 0.03967
1149.60 0.03966
1149.70 0.03965
1149.80 0.03963
1149.90 0.03962
1150.00 0.0396
1150.10 0.03959
1150.20 0.03958
1150.30 0.03956
1150.40 0.03955
1150.50 0.03954
1150.60 0.03952
1150.70 0.03951
1150.80 0.0395
1150.90 0.03948
1151.00 0.03947
1151.10 0.03946
1151.20 0.03944
1151.30 0.03943
1151.40 0.03942
1151.50 0.0394
1151.60 0.03939
1151.70 0.03938
1151.80 0.03936
1151.90 0.03935
1152.00 0.03934
1152.10 0.03932
1152.20 0.03931
1152.30 0.0393
1152.40 0.03928
1152.50 0.03927
1152.60 0.03926
1152.70 0.03924
1152.80 0.03923
1152.90 0.03922
1153.00 0.0392
1153.10 0.03919
1153.20 0.03918
1153.30 0.03916
1153.40 0.03915
1153.50 0.03914
1153.60 0.03913
1153.70 0.03911
1153.80 0.0391
1153.90 0.03909
1154.00 0.03907
1154.10 0.03906
1154.20 0.03905
1154.30 0.03903
1154.40 0.03902
1154.50 0.03901
1154.60 0.03899
1154.70 0.03898
1154.80 0.03897
1154.90 0.03895
1155.00 0.03894
1155.10 0.03893
1155.20 0.03891
1155.30 0.0389
1155.40 0.03889
1155.50 0.03887
1155.60 0.03886
1155.70 0.03885
1155.80 0.03884
1155.90 0.03882
1156.00 0.03881
1156.10 0.0388
1156.20 0.03878
1156.30 0.03877
1156.40 0.03876
1156.50 0.03874
1156.60 0.03873
1156.70 0.03872
1156.80 0.0387
1156.90 0.03869
1157.00 0.03868
1157.10 0.03867
1157.20 0.03865
1157.30 0.03864
1157.40 0.03863
1157.50 0.03861
1157.60 0.0386
1157.70 0.03859
1157.80 0.03857
1157.90 0.03856
1158.00 0.03855
1158.10 0.03854
1158.20 0.03852
1158.30 0.03851
1158.40 0.0385
1158.50 0.03848
1158.60 0.03847
1158.70 0.03846
1158.80 0.03844
1158.90 0.03843
1159.00 0.03842
1159.10 0.03841
1159.20 0.03839
1159.30 0.03838
1159.40 0.03837
1159.50 0.03835
1159.60 0.03834
1159.70 0.03833
1159.80 0.03831
1159.90 0.0383
1160.00 0.03829
1160.10 0.03828
1160.20 0.03826
1160.30 0.03825
1160.40 0.03824
1160.50 0.03822
1160.60 0.03821
1160.70 0.0382
1160.80 0.03819
1160.90 0.03817
1161.00 0.03816
1161.10 0.03815
1161.20 0.03813
1161.30 0.03812
1161.40 0.03811
1161.50 0.0381
1161.60 0.03808
1161.70 0.03807
1161.80 0.03806
1161.90 0.03804
1162.00 0.03803
1162.10 0.03802
1162.20 0.03801
1162.30 0.03799
1162.40 0.03798
1162.50 0.03797
1162.60 0.03796
1162.70 0.03794
1162.80 0.03793
1162.90 0.03792
1163.00 0.0379
1163.10 0.03789
1163.20 0.03788
1163.30 0.03787
1163.40 0.03785
1163.50 0.03784
1163.60 0.03783
1163.70 0.03782
1163.80 0.0378
1163.90 0.03779
1164.00 0.03778
1164.10 0.03776
1164.20 0.03775
1164.30 0.03774
1164.40 0.03773
1164.50 0.03771
1164.60 0.0377
1164.70 0.03769
1164.80 0.03768
1164.90 0.03766
1165.00 0.03765
1165.10 0.03764
1165.20 0.03762
1165.30 0.03761
1165.40 0.0376
1165.50 0.03759
1165.60 0.03757
1165.70 0.03756
1165.80 0.03755
1165.90 0.03754
1166.00 0.03752
1166.10 0.03751
1166.20 0.0375
1166.30 0.03749
1166.40 0.03747
1166.50 0.03746
1166.60 0.03745
1166.70 0.03744
1166.80 0.03742
1166.90 0.03741
1167.00 0.0374
1167.10 0.03739
1167.20 0.03737
1167.30 0.03736
1167.40 0.03735
1167.50 0.03734
1167.60 0.03732
1167.70 0.03731
1167.80 0.0373
1167.90 0.03729
1168.00 0.03727
1168.10 0.03726
1168.20 0.03725
1168.30 0.03724
1168.40 0.03722
1168.50 0.03721
1168.60 0.0372
1168.70 0.03719
1168.80 0.03717
1168.90 0.03716
1169.00 0.03715
1169.10 0.03714
1169.20 0.03712
1169.30 0.03711
1169.40 0.0371
1169.50 0.03709
1169.60 0.03707
1169.70 0.03706
1169.80 0.03705
1169.90 0.03704
1170.00 0.03702
1170.10 0.03701
1170.20 0.037
1170.30 0.03699
1170.40 0.03697
1170.50 0.03696
1170.60 0.03695
1170.70 0.03694
1170.80 0.03692
1170.90 0.03691
1171.00 0.0369
1171.10 0.03689
1171.20 0.03688
1171.30 0.03686
1171.40 0.03685
1171.50 0.03684
1171.60 0.03683
1171.70 0.03681
1171.80 0.0368
1171.90 0.03679
1172.00 0.03678
1172.10 0.03676
1172.20 0.03675
1172.30 0.03674
1172.40 0.03673
1172.50 0.03671
1172.60 0.0367
1172.70 0.03669
1172.80 0.03668
1172.90 0.03667
1173.00 0.03665
1173.10 0.03664
1173.20 0.03663
1173.30 0.03662
1173.40 0.0366
1173.50 0.03659
1173.60 0.03658
1173.70 0.03657
1173.80 0.03656
1173.90 0.03654
1174.00 0.03653
1174.10 0.03652
1174.20 0.03651
1174.30 0.03649
1174.40 0.03648
1174.50 0.03647
1174.60 0.03646
1174.70 0.03645
1174.80 0.03643
1174.90 0.03642
1175.00 0.03641
1175.10 0.0364
1175.20 0.03639
1175.30 0.03637
1175.40 0.03636
1175.50 0.03635
1175.60 0.03634
1175.70 0.03632
1175.80 0.03631
1175.90 0.0363
1176.00 0.03629
1176.10 0.03628
1176.20 0.03626
1176.30 0.03625
1176.40 0.03624
1176.50 0.03623
1176.60 0.03622
1176.70 0.0362
1176.80 0.03619
1176.90 0.03618
1177.00 0.03617
1177.10 0.03615
1177.20 0.03614
1177.30 0.03613
1177.40 0.03612
1177.50 0.03611
1177.60 0.03609
1177.70 0.03608
1177.80 0.03607
1177.90 0.03606
1178.00 0.03605
1178.10 0.03603
1178.20 0.03602
1178.30 0.03601
1178.40 0.036
1178.50 0.03599
1178.60 0.03597
1178.70 0.03596
1178.80 0.03595
1178.90 0.03594
1179.00 0.03593
1179.10 0.03592
1179.20 0.0359
1179.30 0.03589
1179.40 0.03588
1179.50 0.03587
1179.60 0.03586
1179.70 0.03584
1179.80 0.03583
1179.90 0.03582
1180.00 0.03581
1180.10 0.0358
1180.20 0.03578
1180.30 0.03577
1180.40 0.03576
1180.50 0.03575
1180.60 0.03574
1180.70 0.03572
1180.80 0.03571
1180.90 0.0357
1181.00 0.03569
1181.10 0.03568
1181.20 0.03566
1181.30 0.03565
1181.40 0.03564
1181.50 0.03563
1181.60 0.03562
1181.70 0.03561
1181.80 0.03559
1181.90 0.03558
1182.00 0.03557
1182.10 0.03556
1182.20 0.03555
1182.30 0.03553
1182.40 0.03552
1182.50 0.03551
1182.60 0.0355
1182.70 0.03549
1182.80 0.03548
1182.90 0.03546
1183.00 0.03545
1183.10 0.03544
1183.20 0.03543
1183.30 0.03542
1183.40 0.0354
1183.50 0.03539
1183.60 0.03538
1183.70 0.03537
1183.80 0.03536
1183.90 0.03535
1184.00 0.03533
1184.10 0.03532
1184.20 0.03531
1184.30 0.0353
1184.40 0.03529
1184.50 0.03528
1184.60 0.03526
1184.70 0.03525
1184.80 0.03524
1184.90 0.03523
1185.00 0.03522
1185.10 0.03521
1185.20 0.03519
1185.30 0.03518
1185.40 0.03517
1185.50 0.03516
1185.60 0.03515
1185.70 0.03514
1185.80 0.03512
1185.90 0.03511
1186.00 0.0351
1186.10 0.03509
1186.20 0.03508
1186.30 0.03507
1186.40 0.03505
1186.50 0.03504
1186.60 0.03503
1186.70 0.03502
1186.80 0.03501
1186.90 0.035
1187.00 0.03498
1187.10 0.03497
1187.20 0.03496
1187.30 0.03495
1187.40 0.03494
1187.50 0.03493
1187.60 0.03491
1187.70 0.0349
1187.80 0.03489
1187.90 0.03488
1188.00 0.03487
1188.10 0.03486
1188.20 0.03485
1188.30 0.03483
1188.40 0.03482
1188.50 0.03481
1188.60 0.0348
1188.70 0.03479
1188.80 0.03478
1188.90 0.03476
1189.00 0.03475
1189.10 0.03474
1189.20 0.03473
1189.30 0.03472
1189.40 0.03471
1189.50 0.0347
1189.60 0.03468
1189.70 0.03467
1189.80 0.03466
1189.90 0.03465
1190.00 0.03464
1190.10 0.03463
1190.20 0.03462
1190.30 0.0346
1190.40 0.03459
1190.50 0.03458
1190.60 0.03457
1190.70 0.03456
1190.80 0.03455
1190.90 0.03454
1191.00 0.03452
1191.10 0.03451
1191.20 0.0345
1191.30 0.03449
1191.40 0.03448
1191.50 0.03447
1191.60 0.03446
1191.70 0.03444
1191.80 0.03443
1191.90 0.03442
1192.00 0.03441
1192.10 0.0344
1192.20 0.03439
1192.30 0.03438
1192.40 0.03436
1192.50 0.03435
1192.60 0.03434
1192.70 0.03433
1192.80 0.03432
1192.90 0.03431
1193.00 0.0343
1193.10 0.03429
1193.20 0.03427
1193.30 0.03426
1193.40 0.03425
1193.50 0.03424
1193.60 0.03423
1193.70 0.03422
1193.80 0.03421
1193.90 0.0342
1194.00 0.03418
1194.10 0.03417
1194.20 0.03416
1194.30 0.03415
1194.40 0.03414
1194.50 0.03413
1194.60 0.03412
1194.70 0.0341
1194.80 0.03409
1194.90 0.03408
1195.00 0.03407
1195.10 0.03406
1195.20 0.03405
1195.30 0.03404
1195.40 0.03403
1195.50 0.03402
1195.60 0.034
1195.70 0.03399
1195.80 0.03398
1195.90 0.03397
1196.00 0.03396
1196.10 0.03395
1196.20 0.03394
1196.30 0.03393
1196.40 0.03391
1196.50 0.0339
1196.60 0.03389
1196.70 0.03388
1196.80 0.03387
1196.90 0.03386
1197.00 0.03385
1197.10 0.03384
1197.20 0.03382
1197.30 0.03381
1197.40 0.0338
1197.50 0.03379
1197.60 0.03378
1197.70 0.03377
1197.80 0.03376
1197.90 0.03375
1198.00 0.03374
1198.10 0.03372
1198.20 0.03371
1198.30 0.0337
1198.40 0.03369
1198.50 0.03368
1198.60 0.03367
1198.70 0.03366
1198.80 0.03365
1198.90 0.03364
1199.00 0.03363
1199.10 0.03361
1199.20 0.0336
1199.30 0.03359
1199.40 0.03358
1199.50 0.03357
1199.60 0.03356
1199.70 0.03355
1199.80 0.03354
1199.90 0.03353
1200.00 0
