# Version 2.1 - nm, norm@500 to 1, cut digits, bergeron_85000_70.dat_85000
# Wavelength(nm)  Flambda(ergs/cm^s/s/nm)
300.00 6.707
300.10 6.698
300.20 6.69
300.30 6.682
300.40 6.673
300.50 6.665
300.60 6.657
300.70 6.649
300.80 6.64
300.90 6.632
301.00 6.624
301.10 6.616
301.20 6.607
301.30 6.599
301.40 6.591
301.50 6.583
301.60 6.575
301.70 6.567
301.80 6.559
301.90 6.55
302.00 6.542
302.10 6.534
302.20 6.526
302.30 6.518
302.40 6.51
302.50 6.502
302.60 6.494
302.70 6.486
302.80 6.478
302.90 6.47
303.00 6.462
303.10 6.454
303.20 6.446
303.30 6.438
303.40 6.43
303.50 6.422
303.60 6.414
303.70 6.407
303.80 6.399
303.90 6.391
304.00 6.383
304.10 6.375
304.20 6.367
304.30 6.359
304.40 6.352
304.50 6.344
304.60 6.336
304.70 6.328
304.80 6.321
304.90 6.313
305.00 6.305
305.10 6.297
305.20 6.29
305.30 6.282
305.40 6.274
305.50 6.267
305.60 6.259
305.70 6.251
305.80 6.244
305.90 6.236
306.00 6.228
306.10 6.221
306.20 6.213
306.30 6.206
306.40 6.198
306.50 6.19
306.60 6.183
306.70 6.175
306.80 6.168
306.90 6.16
307.00 6.153
307.10 6.145
307.20 6.138
307.30 6.13
307.40 6.123
307.50 6.116
307.60 6.108
307.70 6.101
307.80 6.093
307.90 6.086
308.00 6.078
308.10 6.071
308.20 6.064
308.30 6.056
308.40 6.049
308.50 6.042
308.60 6.034
308.70 6.027
308.80 6.02
308.90 6.012
309.00 6.005
309.10 5.998
309.20 5.991
309.30 5.983
309.40 5.976
309.50 5.969
309.60 5.962
309.70 5.955
309.80 5.947
309.90 5.94
310.00 5.933
310.10 5.926
310.20 5.919
310.30 5.912
310.40 5.904
310.50 5.897
310.60 5.89
310.70 5.883
310.80 5.876
310.90 5.869
311.00 5.862
311.10 5.855
311.20 5.848
311.30 5.841
311.40 5.834
311.50 5.827
311.60 5.82
311.70 5.813
311.80 5.806
311.90 5.799
312.00 5.792
312.10 5.785
312.20 5.778
312.30 5.771
312.40 5.764
312.50 5.757
312.60 5.75
312.70 5.744
312.80 5.737
312.90 5.73
313.00 5.723
313.10 5.716
313.20 5.709
313.30 5.702
313.40 5.696
313.50 5.689
313.60 5.682
313.70 5.675
313.80 5.669
313.90 5.662
314.00 5.655
314.10 5.648
314.20 5.642
314.30 5.635
314.40 5.628
314.50 5.621
314.60 5.615
314.70 5.608
314.80 5.601
314.90 5.595
315.00 5.588
315.10 5.581
315.20 5.575
315.30 5.568
315.40 5.562
315.50 5.555
315.60 5.548
315.70 5.542
315.80 5.535
315.90 5.529
316.00 5.522
316.10 5.516
316.20 5.509
316.30 5.503
316.40 5.496
316.50 5.49
316.60 5.483
316.70 5.477
316.80 5.47
316.90 5.464
317.00 5.457
317.10 5.451
317.20 5.444
317.30 5.438
317.40 5.432
317.50 5.425
317.60 5.419
317.70 5.412
317.80 5.406
317.90 5.4
318.00 5.393
318.10 5.387
318.20 5.381
318.30 5.374
318.40 5.368
318.50 5.362
318.60 5.355
318.70 5.349
318.80 5.343
318.90 5.336
319.00 5.33
319.10 5.324
319.20 5.318
319.30 5.311
319.40 5.305
319.50 5.299
319.60 5.293
319.70 5.287
319.80 5.28
319.90 5.274
320.00 5.268
320.10 5.262
320.20 5.256
320.30 5.25
320.40 5.243
320.50 5.237
320.60 5.231
320.70 5.225
320.80 5.219
320.90 5.213
321.00 5.207
321.10 5.201
321.20 5.195
321.30 5.189
321.40 5.182
321.50 5.176
321.60 5.17
321.70 5.164
321.80 5.158
321.90 5.152
322.00 5.146
322.10 5.14
322.20 5.134
322.30 5.128
322.40 5.123
322.50 5.117
322.60 5.111
322.70 5.105
322.80 5.099
322.90 5.093
323.00 5.087
323.10 5.081
323.20 5.075
323.30 5.069
323.40 5.063
323.50 5.058
323.60 5.052
323.70 5.046
323.80 5.04
323.90 5.034
324.00 5.028
324.10 5.022
324.20 5.017
324.30 5.011
324.40 5.005
324.50 4.999
324.60 4.994
324.70 4.988
324.80 4.982
324.90 4.976
325.00 4.971
325.10 4.965
325.20 4.959
325.30 4.953
325.40 4.948
325.50 4.942
325.60 4.936
325.70 4.931
325.80 4.925
325.90 4.919
326.00 4.914
326.10 4.908
326.20 4.902
326.30 4.897
326.40 4.891
326.50 4.885
326.60 4.88
326.70 4.874
326.80 4.869
326.90 4.863
327.00 4.857
327.10 4.852
327.20 4.846
327.30 4.841
327.40 4.835
327.50 4.83
327.60 4.824
327.70 4.819
327.80 4.813
327.90 4.808
328.00 4.802
328.10 4.797
328.20 4.791
328.30 4.786
328.40 4.78
328.50 4.775
328.60 4.769
328.70 4.764
328.80 4.758
328.90 4.753
329.00 4.748
329.10 4.742
329.20 4.737
329.30 4.731
329.40 4.726
329.50 4.721
329.60 4.715
329.70 4.71
329.80 4.705
329.90 4.699
330.00 4.694
330.10 4.688
330.20 4.683
330.30 4.678
330.40 4.673
330.50 4.667
330.60 4.662
330.70 4.657
330.80 4.651
330.90 4.646
331.00 4.641
331.10 4.636
331.20 4.63
331.30 4.625
331.40 4.62
331.50 4.615
331.60 4.609
331.70 4.604
331.80 4.599
331.90 4.594
332.00 4.589
332.10 4.583
332.20 4.578
332.30 4.573
332.40 4.568
332.50 4.563
332.60 4.558
332.70 4.552
332.80 4.547
332.90 4.542
333.00 4.537
333.10 4.532
333.20 4.527
333.30 4.522
333.40 4.517
333.50 4.512
333.60 4.507
333.70 4.501
333.80 4.496
333.90 4.491
334.00 4.486
334.10 4.481
334.20 4.476
334.30 4.471
334.40 4.466
334.50 4.461
334.60 4.456
334.70 4.451
334.80 4.446
334.90 4.441
335.00 4.436
335.10 4.431
335.20 4.426
335.30 4.421
335.40 4.416
335.50 4.411
335.60 4.406
335.70 4.402
335.80 4.397
335.90 4.392
336.00 4.387
336.10 4.382
336.20 4.377
336.30 4.372
336.40 4.367
336.50 4.362
336.60 4.358
336.70 4.353
336.80 4.348
336.90 4.343
337.00 4.338
337.10 4.333
337.20 4.328
337.30 4.324
337.40 4.319
337.50 4.314
337.60 4.309
337.70 4.304
337.80 4.3
337.90 4.295
338.00 4.29
338.10 4.285
338.20 4.281
338.30 4.276
338.40 4.271
338.50 4.266
338.60 4.262
338.70 4.257
338.80 4.252
338.90 4.247
339.00 4.243
339.10 4.238
339.20 4.233
339.30 4.229
339.40 4.224
339.50 4.219
339.60 4.215
339.70 4.21
339.80 4.205
339.90 4.201
340.00 4.196
340.10 4.191
340.20 4.187
340.30 4.182
340.40 4.177
340.50 4.173
340.60 4.168
340.70 4.164
340.80 4.159
340.90 4.155
341.00 4.15
341.10 4.145
341.20 4.141
341.30 4.136
341.40 4.132
341.50 4.127
341.60 4.123
341.70 4.118
341.80 4.114
341.90 4.109
342.00 4.104
342.10 4.1
342.20 4.095
342.30 4.091
342.40 4.086
342.50 4.082
342.60 4.078
342.70 4.073
342.80 4.069
342.90 4.064
343.00 4.06
343.10 4.055
343.20 4.051
343.30 4.046
343.40 4.042
343.50 4.038
343.60 4.033
343.70 4.029
343.80 4.024
343.90 4.02
344.00 4.015
344.10 4.011
344.20 4.007
344.30 4.002
344.40 3.998
344.50 3.994
344.60 3.989
344.70 3.985
344.80 3.981
344.90 3.976
345.00 3.972
345.10 3.968
345.20 3.963
345.30 3.959
345.40 3.955
345.50 3.95
345.60 3.946
345.70 3.942
345.80 3.937
345.90 3.933
346.00 3.929
346.10 3.925
346.20 3.92
346.30 3.916
346.40 3.912
346.50 3.908
346.60 3.903
346.70 3.899
346.80 3.895
346.90 3.891
347.00 3.886
347.10 3.882
347.20 3.878
347.30 3.874
347.40 3.87
347.50 3.865
347.60 3.861
347.70 3.857
347.80 3.853
347.90 3.849
348.00 3.845
348.10 3.84
348.20 3.836
348.30 3.832
348.40 3.828
348.50 3.824
348.60 3.82
348.70 3.816
348.80 3.812
348.90 3.807
349.00 3.803
349.10 3.799
349.20 3.795
349.30 3.791
349.40 3.787
349.50 3.783
349.60 3.779
349.70 3.775
349.80 3.771
349.90 3.767
350.00 3.763
350.10 3.758
350.20 3.754
350.30 3.75
350.40 3.746
350.50 3.742
350.60 3.738
350.70 3.734
350.80 3.73
350.90 3.726
351.00 3.722
351.10 3.718
351.20 3.714
351.30 3.71
351.40 3.706
351.50 3.702
351.60 3.699
351.70 3.695
351.80 3.691
351.90 3.687
352.00 3.683
352.10 3.679
352.20 3.675
352.30 3.671
352.40 3.667
352.50 3.663
352.60 3.659
352.70 3.655
352.80 3.651
352.90 3.648
353.00 3.644
353.10 3.64
353.20 3.636
353.30 3.632
353.40 3.628
353.50 3.624
353.60 3.62
353.70 3.617
353.80 3.613
353.90 3.609
354.00 3.605
354.10 3.601
354.20 3.597
354.30 3.594
354.40 3.59
354.50 3.586
354.60 3.582
354.70 3.578
354.80 3.575
354.90 3.571
355.00 3.567
355.10 3.563
355.20 3.559
355.30 3.556
355.40 3.552
355.50 3.548
355.60 3.544
355.70 3.541
355.80 3.537
355.90 3.533
356.00 3.529
356.10 3.526
356.20 3.522
356.30 3.518
356.40 3.514
356.50 3.511
356.60 3.507
356.70 3.503
356.80 3.5
356.90 3.496
357.00 3.492
357.10 3.489
357.20 3.485
357.30 3.481
357.40 3.478
357.50 3.474
357.60 3.47
357.70 3.467
357.80 3.463
357.90 3.459
358.00 3.456
358.10 3.452
358.20 3.448
358.30 3.445
358.40 3.441
358.50 3.437
358.60 3.434
358.70 3.43
358.80 3.427
358.90 3.423
359.00 3.419
359.10 3.416
359.20 3.412
359.30 3.409
359.40 3.405
359.50 3.402
359.60 3.398
359.70 3.394
359.80 3.391
359.90 3.387
360.00 3.384
360.10 3.38
360.20 3.377
360.30 3.373
360.40 3.37
360.50 3.366
360.60 3.363
360.70 3.359
360.80 3.356
360.90 3.352
361.00 3.349
361.10 3.345
361.20 3.342
361.30 3.338
361.40 3.335
361.50 3.331
361.60 3.328
361.70 3.324
361.80 3.321
361.90 3.317
362.00 3.314
362.10 3.31
362.20 3.307
362.30 3.304
362.40 3.3
362.50 3.297
362.60 3.293
362.70 3.29
362.80 3.286
362.90 3.283
363.00 3.28
363.10 3.276
363.20 3.273
363.30 3.269
363.40 3.266
363.50 3.263
363.60 3.259
363.70 3.256
363.80 3.252
363.90 3.249
364.00 3.246
364.10 3.242
364.20 3.239
364.30 3.236
364.40 3.232
364.50 3.229
364.60 3.226
364.70 3.222
364.80 3.219
364.90 3.216
365.00 3.212
365.10 3.209
365.20 3.206
365.30 3.202
365.40 3.199
365.50 3.196
365.60 3.193
365.70 3.189
365.80 3.186
365.90 3.183
366.00 3.179
366.10 3.176
366.20 3.173
366.30 3.169
366.40 3.166
366.50 3.163
366.60 3.159
366.70 3.156
366.80 3.153
366.90 3.149
367.00 3.146
367.10 3.143
367.20 3.14
367.30 3.136
367.40 3.133
367.50 3.13
367.60 3.126
367.70 3.123
367.80 3.12
367.90 3.117
368.00 3.113
368.10 3.11
368.20 3.107
368.30 3.104
368.40 3.1
368.50 3.097
368.60 3.094
368.70 3.091
368.80 3.087
368.90 3.084
369.00 3.081
369.10 3.078
369.20 3.075
369.30 3.071
369.40 3.068
369.50 3.065
369.60 3.062
369.70 3.059
369.80 3.055
369.90 3.052
370.00 3.049
370.10 3.046
370.20 3.043
370.30 3.04
370.40 3.036
370.50 3.033
370.60 3.03
370.70 3.027
370.80 3.024
370.90 3.021
371.00 3.018
371.10 3.014
371.20 3.011
371.30 3.008
371.40 3.005
371.50 3.002
371.60 2.999
371.70 2.996
371.80 2.993
371.90 2.99
372.00 2.986
372.10 2.983
372.20 2.98
372.30 2.977
372.40 2.974
372.50 2.971
372.60 2.968
372.70 2.965
372.80 2.962
372.90 2.959
373.00 2.956
373.10 2.953
373.20 2.95
373.30 2.947
373.40 2.944
373.50 2.941
373.60 2.938
373.70 2.935
373.80 2.932
373.90 2.929
374.00 2.926
374.10 2.923
374.20 2.92
374.30 2.918
374.40 2.915
374.50 2.912
374.60 2.909
374.70 2.906
374.80 2.903
374.90 2.9
375.00 2.897
375.10 2.895
375.20 2.892
375.30 2.889
375.40 2.886
375.50 2.883
375.60 2.88
375.70 2.877
375.80 2.874
375.90 2.872
376.00 2.869
376.10 2.866
376.20 2.863
376.30 2.86
376.40 2.857
376.50 2.854
376.60 2.852
376.70 2.849
376.80 2.846
376.90 2.843
377.00 2.84
377.10 2.838
377.20 2.835
377.30 2.832
377.40 2.83
377.50 2.827
377.60 2.825
377.70 2.822
377.80 2.82
377.90 2.817
378.00 2.814
378.10 2.812
378.20 2.809
378.30 2.806
378.40 2.803
378.50 2.8
378.60 2.798
378.70 2.795
378.80 2.792
378.90 2.789
379.00 2.786
379.10 2.784
379.20 2.781
379.30 2.778
379.40 2.775
379.50 2.772
379.60 2.77
379.70 2.767
379.80 2.764
379.90 2.761
380.00 2.759
380.10 2.756
380.20 2.754
380.30 2.752
380.40 2.75
380.50 2.748
380.60 2.746
380.70 2.744
380.80 2.742
380.90 2.74
381.00 2.737
381.10 2.735
381.20 2.732
381.30 2.73
381.40 2.727
381.50 2.725
381.60 2.722
381.70 2.719
381.80 2.716
381.90 2.713
382.00 2.71
382.10 2.707
382.20 2.703
382.30 2.7
382.40 2.696
382.50 2.692
382.60 2.689
382.70 2.685
382.80 2.681
382.90 2.677
383.00 2.674
383.10 2.67
383.20 2.666
383.30 2.663
383.40 2.659
383.50 2.656
383.60 2.654
383.70 2.652
383.80 2.651
383.90 2.651
384.00 2.65
384.10 2.649
384.20 2.649
384.30 2.648
384.40 2.647
384.50 2.646
384.60 2.645
384.70 2.644
384.80 2.643
384.90 2.641
385.00 2.64
385.10 2.638
385.20 2.636
385.30 2.635
385.40 2.633
385.50 2.631
385.60 2.629
385.70 2.626
385.80 2.624
385.90 2.622
386.00 2.619
386.10 2.616
386.20 2.613
386.30 2.61
386.40 2.607
386.50 2.604
386.60 2.601
386.70 2.597
386.80 2.593
386.90 2.589
387.00 2.585
387.10 2.581
387.20 2.577
387.30 2.572
387.40 2.568
387.50 2.563
387.60 2.558
387.70 2.553
387.80 2.548
387.90 2.542
388.00 2.536
388.10 2.531
388.20 2.525
388.30 2.519
388.40 2.513
388.50 2.507
388.60 2.501
388.70 2.496
388.80 2.492
388.90 2.489
389.00 2.488
389.10 2.487
389.20 2.488
389.30 2.489
389.40 2.491
389.50 2.492
389.60 2.494
389.70 2.495
389.80 2.497
389.90 2.498
390.00 2.499
390.10 2.5
390.20 2.501
390.30 2.501
390.40 2.502
390.50 2.502
390.60 2.503
390.70 2.503
390.80 2.502
390.90 2.502
391.00 2.502
391.10 2.501
391.20 2.501
391.30 2.5
391.40 2.499
391.50 2.498
391.60 2.497
391.70 2.496
391.80 2.494
391.90 2.493
392.00 2.491
392.10 2.49
392.20 2.488
392.30 2.486
392.40 2.484
392.50 2.482
392.60 2.48
392.70 2.478
392.80 2.475
392.90 2.473
393.00 2.47
393.10 2.468
393.20 2.465
393.30 2.462
393.40 2.459
393.50 2.456
393.60 2.453
393.70 2.45
393.80 2.446
393.90 2.443
394.00 2.439
394.10 2.435
394.20 2.431
394.30 2.427
394.40 2.423
394.50 2.418
394.60 2.414
394.70 2.409
394.80 2.404
394.90 2.398
395.00 2.393
395.10 2.387
395.20 2.381
395.30 2.375
395.40 2.369
395.50 2.362
395.60 2.355
395.70 2.348
395.80 2.34
395.90 2.332
396.00 2.324
396.10 2.316
396.20 2.307
396.30 2.298
396.40 2.289
396.50 2.279
396.60 2.27
396.70 2.26
396.80 2.25
396.90 2.24
397.00 2.231
397.10 2.235
397.20 2.24
397.30 2.246
397.40 2.252
397.50 2.258
397.60 2.263
397.70 2.268
397.80 2.273
397.90 2.277
398.00 2.282
398.10 2.285
398.20 2.289
398.30 2.292
398.40 2.295
398.50 2.298
398.60 2.301
398.70 2.303
398.80 2.305
398.90 2.306
399.00 2.308
399.10 2.309
399.20 2.31
399.30 2.311
399.40 2.311
399.50 2.312
399.60 2.312
399.70 2.312
399.80 2.312
399.90 2.312
400.00 2.312
400.10 2.311
400.20 2.311
400.30 2.31
400.40 2.309
400.50 2.309
400.60 2.308
400.70 2.307
400.80 2.306
400.90 2.304
401.00 2.303
401.10 2.302
401.20 2.301
401.30 2.299
401.40 2.298
401.50 2.296
401.60 2.295
401.70 2.293
401.80 2.291
401.90 2.29
402.00 2.288
402.10 2.286
402.20 2.284
402.30 2.283
402.40 2.281
402.50 2.279
402.60 2.277
402.70 2.275
402.80 2.273
402.90 2.271
403.00 2.269
403.10 2.267
403.20 2.265
403.30 2.263
403.40 2.261
403.50 2.259
403.60 2.257
403.70 2.255
403.80 2.253
403.90 2.25
404.00 2.248
404.10 2.246
404.20 2.244
404.30 2.241
404.40 2.239
404.50 2.237
404.60 2.234
404.70 2.232
404.80 2.23
404.90 2.227
405.00 2.225
405.10 2.222
405.20 2.219
405.30 2.217
405.40 2.214
405.50 2.212
405.60 2.209
405.70 2.206
405.80 2.203
405.90 2.2
406.00 2.197
406.10 2.194
406.20 2.191
406.30 2.188
406.40 2.185
406.50 2.182
406.60 2.178
406.70 2.175
406.80 2.171
406.90 2.168
407.00 2.164
407.10 2.16
407.20 2.156
407.30 2.151
407.40 2.147
407.50 2.142
407.60 2.137
407.70 2.132
407.80 2.127
407.90 2.122
408.00 2.116
408.10 2.11
408.20 2.104
408.30 2.097
408.40 2.09
408.50 2.083
408.60 2.075
408.70 2.067
408.80 2.059
408.90 2.05
409.00 2.041
409.10 2.031
409.20 2.021
409.30 2.01
409.40 1.999
409.50 1.987
409.60 1.975
409.70 1.962
409.80 1.948
409.90 1.934
410.00 1.921
410.10 1.915
410.20 1.915
410.30 1.915
410.40 1.92
410.50 1.931
410.60 1.941
410.70 1.95
410.80 1.96
410.90 1.968
411.00 1.976
411.10 1.983
411.20 1.99
411.30 1.996
411.40 2.002
411.50 2.007
411.60 2.011
411.70 2.016
411.80 2.02
411.90 2.023
412.00 2.026
412.10 2.029
412.20 2.032
412.30 2.034
412.40 2.036
412.50 2.037
412.60 2.039
412.70 2.04
412.80 2.041
412.90 2.042
413.00 2.042
413.10 2.042
413.20 2.043
413.30 2.043
413.40 2.043
413.50 2.042
413.60 2.042
413.70 2.042
413.80 2.041
413.90 2.041
414.00 2.04
414.10 2.039
414.20 2.038
414.30 2.037
414.40 2.036
414.50 2.035
414.60 2.034
414.70 2.033
414.80 2.032
414.90 2.031
415.00 2.03
415.10 2.028
415.20 2.027
415.30 2.026
415.40 2.024
415.50 2.023
415.60 2.021
415.70 2.02
415.80 2.018
415.90 2.017
416.00 2.015
416.10 2.014
416.20 2.012
416.30 2.011
416.40 2.009
416.50 2.008
416.60 2.006
416.70 2.004
416.80 2.003
416.90 2.001
417.00 2
417.10 1.998
417.20 1.996
417.30 1.995
417.40 1.993
417.50 1.991
417.60 1.99
417.70 1.988
417.80 1.986
417.90 1.985
418.00 1.983
418.10 1.981
418.20 1.979
418.30 1.978
418.40 1.976
418.50 1.974
418.60 1.973
418.70 1.971
418.80 1.969
418.90 1.967
419.00 1.966
419.10 1.964
419.20 1.962
419.30 1.961
419.40 1.959
419.50 1.957
419.60 1.955
419.70 1.954
419.80 1.952
419.90 1.95
420.00 1.948
420.10 1.947
420.20 1.945
420.30 1.943
420.40 1.942
420.50 1.94
420.60 1.938
420.70 1.936
420.80 1.935
420.90 1.933
421.00 1.931
421.10 1.929
421.20 1.928
421.30 1.926
421.40 1.924
421.50 1.922
421.60 1.921
421.70 1.919
421.80 1.917
421.90 1.916
422.00 1.914
422.10 1.912
422.20 1.91
422.30 1.909
422.40 1.907
422.50 1.905
422.60 1.903
422.70 1.902
422.80 1.9
422.90 1.898
423.00 1.897
423.10 1.895
423.20 1.893
423.30 1.891
423.40 1.89
423.50 1.888
423.60 1.886
423.70 1.884
423.80 1.883
423.90 1.881
424.00 1.879
424.10 1.877
424.20 1.876
424.30 1.874
424.40 1.872
424.50 1.871
424.60 1.869
424.70 1.867
424.80 1.865
424.90 1.864
425.00 1.862
425.10 1.86
425.20 1.858
425.30 1.857
425.40 1.855
425.50 1.853
425.60 1.851
425.70 1.85
425.80 1.848
425.90 1.846
426.00 1.844
426.10 1.843
426.20 1.841
426.30 1.839
426.40 1.837
426.50 1.836
426.60 1.834
426.70 1.832
426.80 1.83
426.90 1.829
427.00 1.827
427.10 1.825
427.20 1.823
427.30 1.821
427.40 1.82
427.50 1.818
427.60 1.816
427.70 1.814
427.80 1.812
427.90 1.81
428.00 1.808
428.10 1.807
428.20 1.805
428.30 1.803
428.40 1.801
428.50 1.799
428.60 1.797
428.70 1.795
428.80 1.793
428.90 1.791
429.00 1.789
429.10 1.787
429.20 1.785
429.30 1.783
429.40 1.781
429.50 1.778
429.60 1.776
429.70 1.774
429.80 1.772
429.90 1.769
430.00 1.767
430.10 1.764
430.20 1.762
430.30 1.759
430.40 1.757
430.50 1.754
430.60 1.751
430.70 1.748
430.80 1.745
430.90 1.742
431.00 1.739
431.10 1.735
431.20 1.732
431.30 1.728
431.40 1.724
431.50 1.72
431.60 1.716
431.70 1.712
431.80 1.707
431.90 1.702
432.00 1.697
432.10 1.691
432.20 1.685
432.30 1.679
432.40 1.673
432.50 1.666
432.60 1.658
432.70 1.651
432.80 1.642
432.90 1.634
433.00 1.625
433.10 1.615
433.20 1.604
433.30 1.593
433.40 1.582
433.50 1.57
433.60 1.557
433.70 1.542
433.80 1.527
433.90 1.51
434.00 1.496
434.10 1.495
434.20 1.508
434.30 1.521
434.40 1.534
434.50 1.546
434.60 1.556
434.70 1.565
434.80 1.574
434.90 1.582
435.00 1.59
435.10 1.597
435.20 1.603
435.30 1.609
435.40 1.614
435.50 1.619
435.60 1.623
435.70 1.627
435.80 1.63
435.90 1.633
436.00 1.636
436.10 1.639
436.20 1.641
436.30 1.643
436.40 1.644
436.50 1.645
436.60 1.647
436.70 1.647
436.80 1.648
436.90 1.649
437.00 1.649
437.10 1.649
437.20 1.65
437.30 1.65
437.40 1.65
437.50 1.649
437.60 1.649
437.70 1.649
437.80 1.648
437.90 1.648
438.00 1.647
438.10 1.647
438.20 1.646
438.30 1.645
438.40 1.644
438.50 1.644
438.60 1.643
438.70 1.642
438.80 1.641
438.90 1.64
439.00 1.639
439.10 1.638
439.20 1.637
439.30 1.636
439.40 1.635
439.50 1.634
439.60 1.633
439.70 1.631
439.80 1.63
439.90 1.629
440.00 1.628
440.10 1.627
440.20 1.626
440.30 1.624
440.40 1.623
440.50 1.622
440.60 1.621
440.70 1.619
440.80 1.618
440.90 1.617
441.00 1.616
441.10 1.614
441.20 1.613
441.30 1.612
441.40 1.611
441.50 1.609
441.60 1.608
441.70 1.607
441.80 1.605
441.90 1.604
442.00 1.603
442.10 1.602
442.20 1.6
442.30 1.599
442.40 1.598
442.50 1.596
442.60 1.595
442.70 1.594
442.80 1.592
442.90 1.591
443.00 1.59
443.10 1.588
443.20 1.587
443.30 1.586
443.40 1.585
443.50 1.583
443.60 1.582
443.70 1.581
443.80 1.579
443.90 1.578
444.00 1.577
444.10 1.575
444.20 1.574
444.30 1.573
444.40 1.571
444.50 1.57
444.60 1.569
444.70 1.567
444.80 1.566
444.90 1.565
445.00 1.563
445.10 1.562
445.20 1.561
445.30 1.559
445.40 1.558
445.50 1.557
445.60 1.556
445.70 1.554
445.80 1.553
445.90 1.552
446.00 1.55
446.10 1.549
446.20 1.548
446.30 1.546
446.40 1.545
446.50 1.544
446.60 1.542
446.70 1.541
446.80 1.54
446.90 1.538
447.00 1.537
447.10 1.536
447.20 1.535
447.30 1.533
447.40 1.532
447.50 1.531
447.60 1.529
447.70 1.528
447.80 1.527
447.90 1.526
448.00 1.524
448.10 1.523
448.20 1.522
448.30 1.52
448.40 1.519
448.50 1.518
448.60 1.516
448.70 1.515
448.80 1.514
448.90 1.513
449.00 1.511
449.10 1.51
449.20 1.509
449.30 1.508
449.40 1.506
449.50 1.505
449.60 1.504
449.70 1.502
449.80 1.501
449.90 1.5
450.00 1.499
450.10 1.497
450.20 1.496
450.30 1.495
450.40 1.494
450.50 1.492
450.60 1.491
450.70 1.49
450.80 1.488
450.90 1.487
451.00 1.486
451.10 1.485
451.20 1.483
451.30 1.482
451.40 1.481
451.50 1.48
451.60 1.478
451.70 1.477
451.80 1.476
451.90 1.475
452.00 1.473
452.10 1.472
452.20 1.471
452.30 1.47
452.40 1.468
452.50 1.467
452.60 1.466
452.70 1.465
452.80 1.464
452.90 1.462
453.00 1.461
453.10 1.46
453.20 1.459
453.30 1.457
453.40 1.456
453.50 1.455
453.60 1.454
453.70 1.452
453.80 1.451
453.90 1.45
454.00 1.449
454.10 1.448
454.20 1.446
454.30 1.445
454.40 1.444
454.50 1.443
454.60 1.441
454.70 1.44
454.80 1.439
454.90 1.438
455.00 1.437
455.10 1.435
455.20 1.434
455.30 1.433
455.40 1.432
455.50 1.431
455.60 1.429
455.70 1.428
455.80 1.427
455.90 1.426
456.00 1.425
456.10 1.423
456.20 1.422
456.30 1.421
456.40 1.42
456.50 1.419
456.60 1.417
456.70 1.416
456.80 1.415
456.90 1.414
457.00 1.413
457.10 1.412
457.20 1.41
457.30 1.409
457.40 1.408
457.50 1.407
457.60 1.406
457.70 1.404
457.80 1.403
457.90 1.402
458.00 1.401
458.10 1.4
458.20 1.399
458.30 1.397
458.40 1.396
458.50 1.395
458.60 1.394
458.70 1.393
458.80 1.392
458.90 1.39
459.00 1.389
459.10 1.388
459.20 1.387
459.30 1.386
459.40 1.385
459.50 1.383
459.60 1.382
459.70 1.381
459.80 1.38
459.90 1.379
460.00 1.378
460.10 1.377
460.20 1.375
460.30 1.374
460.40 1.373
460.50 1.372
460.60 1.371
460.70 1.37
460.80 1.369
460.90 1.367
461.00 1.366
461.10 1.365
461.20 1.364
461.30 1.363
461.40 1.362
461.50 1.361
461.60 1.359
461.70 1.358
461.80 1.357
461.90 1.356
462.00 1.355
462.10 1.354
462.20 1.353
462.30 1.352
462.40 1.35
462.50 1.349
462.60 1.348
462.70 1.347
462.80 1.346
462.90 1.345
463.00 1.344
463.10 1.343
463.20 1.341
463.30 1.34
463.40 1.339
463.50 1.338
463.60 1.337
463.70 1.336
463.80 1.335
463.90 1.334
464.00 1.333
464.10 1.332
464.20 1.33
464.30 1.329
464.40 1.328
464.50 1.327
464.60 1.326
464.70 1.325
464.80 1.324
464.90 1.323
465.00 1.322
465.10 1.321
465.20 1.319
465.30 1.318
465.40 1.317
465.50 1.316
465.60 1.315
465.70 1.314
465.80 1.313
465.90 1.312
466.00 1.311
466.10 1.31
466.20 1.309
466.30 1.308
466.40 1.306
466.50 1.305
466.60 1.304
466.70 1.303
466.80 1.302
466.90 1.301
467.00 1.3
467.10 1.299
467.20 1.298
467.30 1.297
467.40 1.296
467.50 1.295
467.60 1.294
467.70 1.293
467.80 1.291
467.90 1.29
468.00 1.289
468.10 1.288
468.20 1.287
468.30 1.286
468.40 1.285
468.50 1.284
468.60 1.283
468.70 1.282
468.80 1.281
468.90 1.28
469.00 1.279
469.10 1.278
469.20 1.277
469.30 1.276
469.40 1.275
469.50 1.274
469.60 1.272
469.70 1.271
469.80 1.27
469.90 1.269
470.00 1.268
470.10 1.267
470.20 1.266
470.30 1.265
470.40 1.264
470.50 1.263
470.60 1.262
470.70 1.261
470.80 1.26
470.90 1.259
471.00 1.258
471.10 1.257
471.20 1.256
471.30 1.255
471.40 1.254
471.50 1.253
471.60 1.252
471.70 1.251
471.80 1.25
471.90 1.249
472.00 1.248
472.10 1.247
472.20 1.246
472.30 1.245
472.40 1.243
472.50 1.242
472.60 1.241
472.70 1.24
472.80 1.239
472.90 1.238
473.00 1.237
473.10 1.236
473.20 1.235
473.30 1.234
473.40 1.233
473.50 1.232
473.60 1.231
473.70 1.23
473.80 1.229
473.90 1.228
474.00 1.227
474.10 1.226
474.20 1.225
474.30 1.224
474.40 1.223
474.50 1.222
474.60 1.221
474.70 1.22
474.80 1.219
474.90 1.218
475.00 1.217
475.10 1.216
475.20 1.215
475.30 1.214
475.40 1.213
475.50 1.212
475.60 1.211
475.70 1.21
475.80 1.209
475.90 1.208
476.00 1.207
476.10 1.206
476.20 1.205
476.30 1.204
476.40 1.203
476.50 1.202
476.60 1.201
476.70 1.2
476.80 1.199
476.90 1.198
477.00 1.197
477.10 1.196
477.20 1.195
477.30 1.194
477.40 1.193
477.50 1.192
477.60 1.191
477.70 1.19
477.80 1.189
477.90 1.188
478.00 1.187
478.10 1.186
478.20 1.185
478.30 1.184
478.40 1.183
478.50 1.182
478.60 1.181
478.70 1.18
478.80 1.179
478.90 1.177
479.00 1.176
479.10 1.175
479.20 1.174
479.30 1.173
479.40 1.172
479.50 1.171
479.60 1.17
479.70 1.169
479.80 1.168
479.90 1.167
480.00 1.166
480.10 1.165
480.20 1.164
480.30 1.162
480.40 1.161
480.50 1.16
480.60 1.159
480.70 1.158
480.80 1.157
480.90 1.155
481.00 1.154
481.10 1.153
481.20 1.152
481.30 1.151
481.40 1.149
481.50 1.148
481.60 1.147
481.70 1.145
481.80 1.144
481.90 1.143
482.00 1.141
482.10 1.14
482.20 1.138
482.30 1.137
482.40 1.135
482.50 1.133
482.60 1.132
482.70 1.13
482.80 1.128
482.90 1.127
483.00 1.125
483.10 1.123
483.20 1.121
483.30 1.118
483.40 1.116
483.50 1.113
483.60 1.111
483.70 1.108
483.80 1.105
483.90 1.103
484.00 1.1
484.10 1.098
484.20 1.094
484.30 1.09
484.40 1.087
484.50 1.083
484.60 1.079
484.70 1.074
484.80 1.069
484.90 1.064
485.00 1.058
485.10 1.053
485.20 1.047
485.30 1.041
485.40 1.033
485.50 1.026
485.60 1.017
485.70 1.008
485.80 0.9964
485.90 0.983
486.00 0.9653
486.10 0.961
486.20 0.9563
486.30 0.9697
486.40 0.9834
486.50 0.9954
486.60 1.004
486.70 1.012
486.80 1.018
486.90 1.024
487.00 1.029
487.10 1.034
487.20 1.038
487.30 1.042
487.40 1.045
487.50 1.049
487.60 1.052
487.70 1.055
487.80 1.057
487.90 1.059
488.00 1.061
488.10 1.063
488.20 1.064
488.30 1.065
488.40 1.066
488.50 1.067
488.60 1.067
488.70 1.068
488.80 1.069
488.90 1.07
489.00 1.07
489.10 1.071
489.20 1.071
489.30 1.071
489.40 1.071
489.50 1.071
489.60 1.071
489.70 1.071
489.80 1.071
489.90 1.071
490.00 1.071
490.10 1.07
490.20 1.07
490.30 1.07
490.40 1.069
490.50 1.069
490.60 1.068
490.70 1.068
490.80 1.067
490.90 1.067
491.00 1.066
491.10 1.066
491.20 1.065
491.30 1.065
491.40 1.064
491.50 1.063
491.60 1.063
491.70 1.062
491.80 1.062
491.90 1.061
492.00 1.06
492.10 1.06
492.20 1.059
492.30 1.058
492.40 1.058
492.50 1.057
492.60 1.056
492.70 1.055
492.80 1.055
492.90 1.054
493.00 1.053
493.10 1.053
493.20 1.052
493.30 1.051
493.40 1.05
493.50 1.05
493.60 1.049
493.70 1.048
493.80 1.047
493.90 1.047
494.00 1.046
494.10 1.045
494.20 1.044
494.30 1.044
494.40 1.043
494.50 1.042
494.60 1.041
494.70 1.041
494.80 1.04
494.90 1.039
495.00 1.038
495.10 1.038
495.20 1.037
495.30 1.036
495.40 1.035
495.50 1.035
495.60 1.034
495.70 1.033
495.80 1.032
495.90 1.031
496.00 1.031
496.10 1.03
496.20 1.029
496.30 1.028
496.40 1.028
496.50 1.027
496.60 1.026
496.70 1.025
496.80 1.025
496.90 1.024
497.00 1.023
497.10 1.022
497.20 1.021
497.30 1.021
497.40 1.02
497.50 1.019
497.60 1.018
497.70 1.018
497.80 1.017
497.90 1.016
498.00 1.015
498.10 1.015
498.20 1.014
498.30 1.013
498.40 1.012
498.50 1.011
498.60 1.011
498.70 1.01
498.80 1.009
498.90 1.008
499.00 1.008
499.10 1.007
499.20 1.006
499.30 1.005
499.40 1.005
499.50 1.004
499.60 1.003
499.70 1.002
499.80 1.002
499.90 1.001
500.00 1
500.10 0.9992
500.20 0.9985
500.30 0.9977
500.40 0.997
500.50 0.9962
500.60 0.9954
500.70 0.9947
500.80 0.9939
500.90 0.9932
501.00 0.9924
501.10 0.9917
501.20 0.9909
501.30 0.9902
501.40 0.9894
501.50 0.9887
501.60 0.9879
501.70 0.9872
501.80 0.9864
501.90 0.9857
502.00 0.9849
502.10 0.9842
502.20 0.9834
502.30 0.9827
502.40 0.9819
502.50 0.9812
502.60 0.9804
502.70 0.9797
502.80 0.9789
502.90 0.9782
503.00 0.9774
503.10 0.9767
503.20 0.976
503.30 0.9752
503.40 0.9745
503.50 0.9737
503.60 0.973
503.70 0.9723
503.80 0.9715
503.90 0.9708
504.00 0.9701
504.10 0.9693
504.20 0.9686
504.30 0.9679
504.40 0.9671
504.50 0.9664
504.60 0.9657
504.70 0.9649
504.80 0.9642
504.90 0.9635
505.00 0.9627
505.10 0.962
505.20 0.9613
505.30 0.9605
505.40 0.9598
505.50 0.9591
505.60 0.9584
505.70 0.9576
505.80 0.9569
505.90 0.9562
506.00 0.9555
506.10 0.9547
506.20 0.954
506.30 0.9533
506.40 0.9526
506.50 0.9518
506.60 0.9511
506.70 0.9504
506.80 0.9497
506.90 0.949
507.00 0.9482
507.10 0.9475
507.20 0.9468
507.30 0.9461
507.40 0.9454
507.50 0.9447
507.60 0.944
507.70 0.9432
507.80 0.9425
507.90 0.9418
508.00 0.9411
508.10 0.9404
508.20 0.9397
508.30 0.939
508.40 0.9383
508.50 0.9376
508.60 0.9369
508.70 0.9362
508.80 0.9354
508.90 0.9347
509.00 0.934
509.10 0.9333
509.20 0.9326
509.30 0.9319
509.40 0.9312
509.50 0.9305
509.60 0.9298
509.70 0.9291
509.80 0.9284
509.90 0.9277
510.00 0.927
510.10 0.9263
510.20 0.9256
510.30 0.9249
510.40 0.9242
510.50 0.9235
510.60 0.9228
510.70 0.9222
510.80 0.9215
510.90 0.9208
511.00 0.9201
511.10 0.9194
511.20 0.9187
511.30 0.918
511.40 0.9173
511.50 0.9166
511.60 0.9159
511.70 0.9152
511.80 0.9146
511.90 0.9139
512.00 0.9132
512.10 0.9125
512.20 0.9118
512.30 0.9111
512.40 0.9105
512.50 0.9098
512.60 0.9091
512.70 0.9084
512.80 0.9077
512.90 0.9071
513.00 0.9064
513.10 0.9057
513.20 0.905
513.30 0.9043
513.40 0.9037
513.50 0.903
513.60 0.9023
513.70 0.9016
513.80 0.901
513.90 0.9003
514.00 0.8996
514.10 0.8989
514.20 0.8983
514.30 0.8976
514.40 0.8969
514.50 0.8963
514.60 0.8956
514.70 0.8949
514.80 0.8943
514.90 0.8936
515.00 0.8929
515.10 0.8923
515.20 0.8916
515.30 0.8909
515.40 0.8903
515.50 0.8896
515.60 0.8889
515.70 0.8883
515.80 0.8876
515.90 0.887
516.00 0.8863
516.10 0.8856
516.20 0.885
516.30 0.8843
516.40 0.8837
516.50 0.883
516.60 0.8823
516.70 0.8817
516.80 0.881
516.90 0.8804
517.00 0.8797
517.10 0.8791
517.20 0.8784
517.30 0.8778
517.40 0.8771
517.50 0.8765
517.60 0.8758
517.70 0.8752
517.80 0.8745
517.90 0.8739
518.00 0.8732
518.10 0.8726
518.20 0.8719
518.30 0.8713
518.40 0.8706
518.50 0.87
518.60 0.8693
518.70 0.8687
518.80 0.868
518.90 0.8674
519.00 0.8668
519.10 0.8661
519.20 0.8655
519.30 0.8648
519.40 0.8642
519.50 0.8636
519.60 0.8629
519.70 0.8623
519.80 0.8616
519.90 0.861
520.00 0.8604
520.10 0.8597
520.20 0.8591
520.30 0.8585
520.40 0.8578
520.50 0.8572
520.60 0.8566
520.70 0.8559
520.80 0.8553
520.90 0.8547
521.00 0.854
521.10 0.8534
521.20 0.8528
521.30 0.8521
521.40 0.8515
521.50 0.8509
521.60 0.8503
521.70 0.8496
521.80 0.849
521.90 0.8484
522.00 0.8477
522.10 0.8471
522.20 0.8465
522.30 0.8459
522.40 0.8453
522.50 0.8446
522.60 0.844
522.70 0.8434
522.80 0.8428
522.90 0.8422
523.00 0.8415
523.10 0.8409
523.20 0.8403
523.30 0.8397
523.40 0.8391
523.50 0.8384
523.60 0.8378
523.70 0.8372
523.80 0.8366
523.90 0.836
524.00 0.8354
524.10 0.8348
524.20 0.8341
524.30 0.8335
524.40 0.8329
524.50 0.8323
524.60 0.8317
524.70 0.8311
524.80 0.8305
524.90 0.8299
525.00 0.8293
525.10 0.8287
525.20 0.8281
525.30 0.8274
525.40 0.8268
525.50 0.8262
525.60 0.8256
525.70 0.825
525.80 0.8244
525.90 0.8238
526.00 0.8232
526.10 0.8226
526.20 0.822
526.30 0.8214
526.40 0.8208
526.50 0.8202
526.60 0.8196
526.70 0.819
526.80 0.8184
526.90 0.8178
527.00 0.8172
527.10 0.8166
527.20 0.816
527.30 0.8154
527.40 0.8148
527.50 0.8142
527.60 0.8136
527.70 0.8131
527.80 0.8125
527.90 0.8119
528.00 0.8113
528.10 0.8107
528.20 0.8101
528.30 0.8095
528.40 0.8089
528.50 0.8083
528.60 0.8077
528.70 0.8072
528.80 0.8066
528.90 0.806
529.00 0.8054
529.10 0.8048
529.20 0.8042
529.30 0.8036
529.40 0.8031
529.50 0.8025
529.60 0.8019
529.70 0.8013
529.80 0.8007
529.90 0.8001
530.00 0.7996
530.10 0.799
530.20 0.7984
530.30 0.7978
530.40 0.7972
530.50 0.7967
530.60 0.7961
530.70 0.7955
530.80 0.7949
530.90 0.7944
531.00 0.7938
531.10 0.7932
531.20 0.7926
531.30 0.7921
531.40 0.7915
531.50 0.7909
531.60 0.7903
531.70 0.7898
531.80 0.7892
531.90 0.7886
532.00 0.7881
532.10 0.7875
532.20 0.7869
532.30 0.7863
532.40 0.7858
532.50 0.7852
532.60 0.7846
532.70 0.7841
532.80 0.7835
532.90 0.7829
533.00 0.7824
533.10 0.7818
533.20 0.7813
533.30 0.7807
533.40 0.7801
533.50 0.7796
533.60 0.779
533.70 0.7784
533.80 0.7779
533.90 0.7773
534.00 0.7768
534.10 0.7762
534.20 0.7756
534.30 0.7751
534.40 0.7745
534.50 0.774
534.60 0.7734
534.70 0.7729
534.80 0.7723
534.90 0.7717
535.00 0.7712
535.10 0.7706
535.20 0.7701
535.30 0.7695
535.40 0.769
535.50 0.7684
535.60 0.7679
535.70 0.7673
535.80 0.7668
535.90 0.7662
536.00 0.7657
536.10 0.7651
536.20 0.7646
536.30 0.764
536.40 0.7635
536.50 0.7629
536.60 0.7624
536.70 0.7618
536.80 0.7613
536.90 0.7607
537.00 0.7602
537.10 0.7596
537.20 0.7591
537.30 0.7585
537.40 0.758
537.50 0.7575
537.60 0.7569
537.70 0.7564
537.80 0.7558
537.90 0.7553
538.00 0.7548
538.10 0.7542
538.20 0.7537
538.30 0.7531
538.40 0.7526
538.50 0.7521
538.60 0.7515
538.70 0.751
538.80 0.7504
538.90 0.7499
539.00 0.7494
539.10 0.7488
539.20 0.7483
539.30 0.7478
539.40 0.7472
539.50 0.7467
539.60 0.7462
539.70 0.7456
539.80 0.7451
539.90 0.7446
540.00 0.744
540.10 0.7435
540.20 0.743
540.30 0.7425
540.40 0.7419
540.50 0.7414
540.60 0.7409
540.70 0.7403
540.80 0.7398
540.90 0.7393
541.00 0.7388
541.10 0.7382
541.20 0.7377
541.30 0.7372
541.40 0.7367
541.50 0.7361
541.60 0.7356
541.70 0.7351
541.80 0.7346
541.90 0.7341
542.00 0.7335
542.10 0.733
542.20 0.7325
542.30 0.732
542.40 0.7315
542.50 0.7309
542.60 0.7304
542.70 0.7299
542.80 0.7294
542.90 0.7289
543.00 0.7283
543.10 0.7278
543.20 0.7273
543.30 0.7268
543.40 0.7263
543.50 0.7258
543.60 0.7252
543.70 0.7247
543.80 0.7242
543.90 0.7237
544.00 0.7232
544.10 0.7227
544.20 0.7222
544.30 0.7217
544.40 0.7212
544.50 0.7206
544.60 0.7201
544.70 0.7196
544.80 0.7191
544.90 0.7186
545.00 0.7181
545.10 0.7176
545.20 0.7171
545.30 0.7166
545.40 0.7161
545.50 0.7156
545.60 0.7151
545.70 0.7146
545.80 0.7141
545.90 0.7136
546.00 0.713
546.10 0.7125
546.20 0.712
546.30 0.7115
546.40 0.711
546.50 0.7105
546.60 0.71
546.70 0.7095
546.80 0.709
546.90 0.7085
547.00 0.708
547.10 0.7075
547.20 0.707
547.30 0.7065
547.40 0.706
547.50 0.7056
547.60 0.7051
547.70 0.7046
547.80 0.7041
547.90 0.7036
548.00 0.7031
548.10 0.7026
548.20 0.7021
548.30 0.7016
548.40 0.7011
548.50 0.7006
548.60 0.7001
548.70 0.6996
548.80 0.6991
548.90 0.6986
549.00 0.6982
549.10 0.6977
549.20 0.6972
549.30 0.6967
549.40 0.6962
549.50 0.6957
549.60 0.6952
549.70 0.6947
549.80 0.6942
549.90 0.6938
550.00 0.6933
550.10 0.6928
550.20 0.6923
550.30 0.6918
550.40 0.6913
550.50 0.6909
550.60 0.6904
550.70 0.6899
550.80 0.6894
550.90 0.6889
551.00 0.6884
551.10 0.688
551.20 0.6875
551.30 0.687
551.40 0.6865
551.50 0.686
551.60 0.6856
551.70 0.6851
551.80 0.6846
551.90 0.6841
552.00 0.6837
552.10 0.6832
552.20 0.6827
552.30 0.6822
552.40 0.6817
552.50 0.6813
552.60 0.6808
552.70 0.6803
552.80 0.6798
552.90 0.6794
553.00 0.6789
553.10 0.6784
553.20 0.678
553.30 0.6775
553.40 0.677
553.50 0.6765
553.60 0.6761
553.70 0.6756
553.80 0.6751
553.90 0.6747
554.00 0.6742
554.10 0.6737
554.20 0.6733
554.30 0.6728
554.40 0.6723
554.50 0.6718
554.60 0.6714
554.70 0.6709
554.80 0.6705
554.90 0.67
555.00 0.6695
555.10 0.6691
555.20 0.6686
555.30 0.6681
555.40 0.6677
555.50 0.6672
555.60 0.6667
555.70 0.6663
555.80 0.6658
555.90 0.6654
556.00 0.6649
556.10 0.6644
556.20 0.664
556.30 0.6635
556.40 0.6631
556.50 0.6626
556.60 0.6621
556.70 0.6617
556.80 0.6612
556.90 0.6608
557.00 0.6603
557.10 0.6598
557.20 0.6594
557.30 0.6589
557.40 0.6585
557.50 0.658
557.60 0.6576
557.70 0.6571
557.80 0.6567
557.90 0.6562
558.00 0.6558
558.10 0.6553
558.20 0.6548
558.30 0.6544
558.40 0.6539
558.50 0.6535
558.60 0.653
558.70 0.6526
558.80 0.6521
558.90 0.6517
559.00 0.6512
559.10 0.6508
559.20 0.6503
559.30 0.6499
559.40 0.6495
559.50 0.649
559.60 0.6486
559.70 0.6481
559.80 0.6477
559.90 0.6472
560.00 0.6468
560.10 0.6463
560.20 0.6459
560.30 0.6454
560.40 0.645
560.50 0.6446
560.60 0.6441
560.70 0.6437
560.80 0.6432
560.90 0.6428
561.00 0.6423
561.10 0.6419
561.20 0.6415
561.30 0.641
561.40 0.6406
561.50 0.6401
561.60 0.6397
561.70 0.6393
561.80 0.6388
561.90 0.6384
562.00 0.6379
562.10 0.6375
562.20 0.6371
562.30 0.6366
562.40 0.6362
562.50 0.6358
562.60 0.6353
562.70 0.6349
562.80 0.6345
562.90 0.634
563.00 0.6336
563.10 0.6332
563.20 0.6327
563.30 0.6323
563.40 0.6319
563.50 0.6314
563.60 0.631
563.70 0.6306
563.80 0.6301
563.90 0.6297
564.00 0.6293
564.10 0.6288
564.20 0.6284
564.30 0.628
564.40 0.6276
564.50 0.6271
564.60 0.6267
564.70 0.6263
564.80 0.6258
564.90 0.6254
565.00 0.625
565.10 0.6246
565.20 0.6241
565.30 0.6237
565.40 0.6233
565.50 0.6229
565.60 0.6224
565.70 0.622
565.80 0.6216
565.90 0.6212
566.00 0.6207
566.10 0.6203
566.20 0.6199
566.30 0.6195
566.40 0.6191
566.50 0.6186
566.60 0.6182
566.70 0.6178
566.80 0.6174
566.90 0.6169
567.00 0.6165
567.10 0.6161
567.20 0.6157
567.30 0.6153
567.40 0.6149
567.50 0.6144
567.60 0.614
567.70 0.6136
567.80 0.6132
567.90 0.6128
568.00 0.6124
568.10 0.6119
568.20 0.6115
568.30 0.6111
568.40 0.6107
568.50 0.6103
568.60 0.6099
568.70 0.6095
568.80 0.609
568.90 0.6086
569.00 0.6082
569.10 0.6078
569.20 0.6074
569.30 0.607
569.40 0.6066
569.50 0.6062
569.60 0.6057
569.70 0.6053
569.80 0.6049
569.90 0.6045
570.00 0.6041
570.10 0.6037
570.20 0.6033
570.30 0.6029
570.40 0.6025
570.50 0.6021
570.60 0.6017
570.70 0.6013
570.80 0.6009
570.90 0.6004
571.00 0.6
571.10 0.5996
571.20 0.5992
571.30 0.5988
571.40 0.5984
571.50 0.598
571.60 0.5976
571.70 0.5972
571.80 0.5968
571.90 0.5964
572.00 0.596
572.10 0.5956
572.20 0.5952
572.30 0.5948
572.40 0.5944
572.50 0.594
572.60 0.5936
572.70 0.5932
572.80 0.5928
572.90 0.5924
573.00 0.592
573.10 0.5916
573.20 0.5912
573.30 0.5908
573.40 0.5904
573.50 0.59
573.60 0.5896
573.70 0.5892
573.80 0.5888
573.90 0.5884
574.00 0.588
574.10 0.5876
574.20 0.5872
574.30 0.5869
574.40 0.5865
574.50 0.5861
574.60 0.5857
574.70 0.5853
574.80 0.5849
574.90 0.5845
575.00 0.5841
575.10 0.5837
575.20 0.5833
575.30 0.5829
575.40 0.5825
575.50 0.5821
575.60 0.5818
575.70 0.5814
575.80 0.581
575.90 0.5806
576.00 0.5802
576.10 0.5798
576.20 0.5794
576.30 0.579
576.40 0.5787
576.50 0.5783
576.60 0.5779
576.70 0.5775
576.80 0.5771
576.90 0.5767
577.00 0.5763
577.10 0.5759
577.20 0.5756
577.30 0.5752
577.40 0.5748
577.50 0.5744
577.60 0.574
577.70 0.5736
577.80 0.5733
577.90 0.5729
578.00 0.5725
578.10 0.5721
578.20 0.5717
578.30 0.5714
578.40 0.571
578.50 0.5706
578.60 0.5702
578.70 0.5698
578.80 0.5695
578.90 0.5691
579.00 0.5687
579.10 0.5683
579.20 0.5679
579.30 0.5676
579.40 0.5672
579.50 0.5668
579.60 0.5664
579.70 0.566
579.80 0.5657
579.90 0.5653
580.00 0.5649
580.10 0.5645
580.20 0.5642
580.30 0.5638
580.40 0.5634
580.50 0.563
580.60 0.5627
580.70 0.5623
580.80 0.5619
580.90 0.5616
581.00 0.5612
581.10 0.5608
581.20 0.5604
581.30 0.5601
581.40 0.5597
581.50 0.5593
581.60 0.5589
581.70 0.5586
581.80 0.5582
581.90 0.5578
582.00 0.5575
582.10 0.5571
582.20 0.5567
582.30 0.5564
582.40 0.556
582.50 0.5556
582.60 0.5553
582.70 0.5549
582.80 0.5545
582.90 0.5542
583.00 0.5538
583.10 0.5534
583.20 0.5531
583.30 0.5527
583.40 0.5523
583.50 0.552
583.60 0.5516
583.70 0.5512
583.80 0.5509
583.90 0.5505
584.00 0.5501
584.10 0.5498
584.20 0.5494
584.30 0.549
584.40 0.5487
584.50 0.5483
584.60 0.548
584.70 0.5476
584.80 0.5472
584.90 0.5469
585.00 0.5465
585.10 0.5462
585.20 0.5458
585.30 0.5454
585.40 0.5451
585.50 0.5447
585.60 0.5444
585.70 0.544
585.80 0.5436
585.90 0.5433
586.00 0.5429
586.10 0.5426
586.20 0.5422
586.30 0.5419
586.40 0.5415
586.50 0.5411
586.60 0.5408
586.70 0.5404
586.80 0.5401
586.90 0.5397
587.00 0.5394
587.10 0.539
587.20 0.5387
587.30 0.5383
587.40 0.538
587.50 0.5376
587.60 0.5372
587.70 0.5369
587.80 0.5365
587.90 0.5362
588.00 0.5358
588.10 0.5355
588.20 0.5351
588.30 0.5348
588.40 0.5344
588.50 0.5341
588.60 0.5337
588.70 0.5334
588.80 0.533
588.90 0.5327
589.00 0.5323
589.10 0.532
589.20 0.5316
589.30 0.5313
589.40 0.5309
589.50 0.5306
589.60 0.5302
589.70 0.5299
589.80 0.5296
589.90 0.5292
590.00 0.5289
590.10 0.5285
590.20 0.5282
590.30 0.5278
590.40 0.5275
590.50 0.5271
590.60 0.5268
590.70 0.5264
590.80 0.5261
590.90 0.5258
591.00 0.5254
591.10 0.5251
591.20 0.5247
591.30 0.5244
591.40 0.524
591.50 0.5237
591.60 0.5234
591.70 0.523
591.80 0.5227
591.90 0.5223
592.00 0.522
592.10 0.5217
592.20 0.5213
592.30 0.521
592.40 0.5206
592.50 0.5203
592.60 0.52
592.70 0.5196
592.80 0.5193
592.90 0.5189
593.00 0.5186
593.10 0.5183
593.20 0.5179
593.30 0.5176
593.40 0.5173
593.50 0.5169
593.60 0.5166
593.70 0.5163
593.80 0.5159
593.90 0.5156
594.00 0.5152
594.10 0.5149
594.20 0.5146
594.30 0.5142
594.40 0.5139
594.50 0.5136
594.60 0.5132
594.70 0.5129
594.80 0.5126
594.90 0.5122
595.00 0.5119
595.10 0.5116
595.20 0.5112
595.30 0.5109
595.40 0.5106
595.50 0.5103
595.60 0.5099
595.70 0.5096
595.80 0.5093
595.90 0.5089
596.00 0.5086
596.10 0.5083
596.20 0.5079
596.30 0.5076
596.40 0.5073
596.50 0.507
596.60 0.5066
596.70 0.5063
596.80 0.506
596.90 0.5057
597.00 0.5053
597.10 0.505
597.20 0.5047
597.30 0.5043
597.40 0.504
597.50 0.5037
597.60 0.5034
597.70 0.503
597.80 0.5027
597.90 0.5024
598.00 0.5021
598.10 0.5017
598.20 0.5014
598.30 0.5011
598.40 0.5008
598.50 0.5005
598.60 0.5001
598.70 0.4998
598.80 0.4995
598.90 0.4992
599.00 0.4988
599.10 0.4985
599.20 0.4982
599.30 0.4979
599.40 0.4976
599.50 0.4972
599.60 0.4969
599.70 0.4966
599.80 0.4963
599.90 0.496
600.00 0.4956
600.10 0.4953
600.20 0.495
600.30 0.4947
600.40 0.4944
600.50 0.494
600.60 0.4937
600.70 0.4934
600.80 0.4931
600.90 0.4928
601.00 0.4925
601.10 0.4921
601.20 0.4918
601.30 0.4915
601.40 0.4912
601.50 0.4909
601.60 0.4906
601.70 0.4903
601.80 0.4899
601.90 0.4896
602.00 0.4893
602.10 0.489
602.20 0.4887
602.30 0.4884
602.40 0.4881
602.50 0.4877
602.60 0.4874
602.70 0.4871
602.80 0.4868
602.90 0.4865
603.00 0.4862
603.10 0.4859
603.20 0.4856
603.30 0.4853
603.40 0.4849
603.50 0.4846
603.60 0.4843
603.70 0.484
603.80 0.4837
603.90 0.4834
604.00 0.4831
604.10 0.4828
604.20 0.4825
604.30 0.4822
604.40 0.4819
604.50 0.4815
604.60 0.4812
604.70 0.4809
604.80 0.4806
604.90 0.4803
605.00 0.48
605.10 0.4797
605.20 0.4794
605.30 0.4791
605.40 0.4788
605.50 0.4785
605.60 0.4782
605.70 0.4779
605.80 0.4776
605.90 0.4773
606.00 0.477
606.10 0.4767
606.20 0.4764
606.30 0.476
606.40 0.4757
606.50 0.4754
606.60 0.4751
606.70 0.4748
606.80 0.4745
606.90 0.4742
607.00 0.4739
607.10 0.4736
607.20 0.4733
607.30 0.473
607.40 0.4727
607.50 0.4724
607.60 0.4721
607.70 0.4718
607.80 0.4715
607.90 0.4712
608.00 0.4709
608.10 0.4706
608.20 0.4703
608.30 0.47
608.40 0.4697
608.50 0.4694
608.60 0.4691
608.70 0.4688
608.80 0.4685
608.90 0.4682
609.00 0.4679
609.10 0.4677
609.20 0.4674
609.30 0.4671
609.40 0.4668
609.50 0.4665
609.60 0.4662
609.70 0.4659
609.80 0.4656
609.90 0.4653
610.00 0.465
610.10 0.4647
610.20 0.4644
610.30 0.4641
610.40 0.4638
610.50 0.4635
610.60 0.4632
610.70 0.4629
610.80 0.4626
610.90 0.4624
611.00 0.4621
611.10 0.4618
611.20 0.4615
611.30 0.4612
611.40 0.4609
611.50 0.4606
611.60 0.4603
611.70 0.46
611.80 0.4597
611.90 0.4594
612.00 0.4591
612.10 0.4589
612.20 0.4586
612.30 0.4583
612.40 0.458
612.50 0.4577
612.60 0.4574
612.70 0.4571
612.80 0.4568
612.90 0.4566
613.00 0.4563
613.10 0.456
613.20 0.4557
613.30 0.4554
613.40 0.4551
613.50 0.4548
613.60 0.4545
613.70 0.4543
613.80 0.454
613.90 0.4537
614.00 0.4534
614.10 0.4531
614.20 0.4528
614.30 0.4525
614.40 0.4523
614.50 0.452
614.60 0.4517
614.70 0.4514
614.80 0.4511
614.90 0.4508
615.00 0.4506
615.10 0.4503
615.20 0.45
615.30 0.4497
615.40 0.4494
615.50 0.4491
615.60 0.4489
615.70 0.4486
615.80 0.4483
615.90 0.448
616.00 0.4477
616.10 0.4475
616.20 0.4472
616.30 0.4469
616.40 0.4466
616.50 0.4463
616.60 0.4461
616.70 0.4458
616.80 0.4455
616.90 0.4452
617.00 0.4449
617.10 0.4447
617.20 0.4444
617.30 0.4441
617.40 0.4438
617.50 0.4435
617.60 0.4433
617.70 0.443
617.80 0.4427
617.90 0.4424
618.00 0.4422
618.10 0.4419
618.20 0.4416
618.30 0.4413
618.40 0.4411
618.50 0.4408
618.60 0.4405
618.70 0.4402
618.80 0.44
618.90 0.4397
619.00 0.4394
619.10 0.4391
619.20 0.4389
619.30 0.4386
619.40 0.4383
619.50 0.438
619.60 0.4378
619.70 0.4375
619.80 0.4372
619.90 0.4369
620.00 0.4367
620.10 0.4364
620.20 0.4361
620.30 0.4359
620.40 0.4356
620.50 0.4353
620.60 0.435
620.70 0.4348
620.80 0.4345
620.90 0.4342
621.00 0.434
621.10 0.4337
621.20 0.4334
621.30 0.4332
621.40 0.4329
621.50 0.4326
621.60 0.4323
621.70 0.4321
621.80 0.4318
621.90 0.4315
622.00 0.4313
622.10 0.431
622.20 0.4307
622.30 0.4305
622.40 0.4302
622.50 0.4299
622.60 0.4297
622.70 0.4294
622.80 0.4291
622.90 0.4289
623.00 0.4286
623.10 0.4283
623.20 0.4281
623.30 0.4278
623.40 0.4275
623.50 0.4273
623.60 0.427
623.70 0.4267
623.80 0.4265
623.90 0.4262
624.00 0.426
624.10 0.4257
624.20 0.4254
624.30 0.4252
624.40 0.4249
624.50 0.4246
624.60 0.4244
624.70 0.4241
624.80 0.4238
624.90 0.4236
625.00 0.4233
625.10 0.4231
625.20 0.4228
625.30 0.4225
625.40 0.4223
625.50 0.422
625.60 0.4218
625.70 0.4215
625.80 0.4212
625.90 0.421
626.00 0.4207
626.10 0.4205
626.20 0.4202
626.30 0.4199
626.40 0.4197
626.50 0.4194
626.60 0.4192
626.70 0.4189
626.80 0.4186
626.90 0.4184
627.00 0.4181
627.10 0.4179
627.20 0.4176
627.30 0.4174
627.40 0.4171
627.50 0.4168
627.60 0.4166
627.70 0.4163
627.80 0.4161
627.90 0.4158
628.00 0.4156
628.10 0.4153
628.20 0.415
628.30 0.4148
628.40 0.4145
628.50 0.4143
628.60 0.414
628.70 0.4138
628.80 0.4135
628.90 0.4133
629.00 0.413
629.10 0.4128
629.20 0.4125
629.30 0.4122
629.40 0.412
629.50 0.4117
629.60 0.4115
629.70 0.4112
629.80 0.411
629.90 0.4107
630.00 0.4105
630.10 0.4102
630.20 0.41
630.30 0.4097
630.40 0.4095
630.50 0.4092
630.60 0.409
630.70 0.4087
630.80 0.4085
630.90 0.4082
631.00 0.408
631.10 0.4077
631.20 0.4075
631.30 0.4072
631.40 0.407
631.50 0.4067
631.60 0.4065
631.70 0.4062
631.80 0.406
631.90 0.4057
632.00 0.4055
632.10 0.4052
632.20 0.405
632.30 0.4047
632.40 0.4045
632.50 0.4042
632.60 0.404
632.70 0.4037
632.80 0.4035
632.90 0.4032
633.00 0.403
633.10 0.4027
633.20 0.4025
633.30 0.4023
633.40 0.402
633.50 0.4018
633.60 0.4015
633.70 0.4013
633.80 0.401
633.90 0.4008
634.00 0.4005
634.10 0.4003
634.20 0.4
634.30 0.3998
634.40 0.3996
634.50 0.3993
634.60 0.3991
634.70 0.3988
634.80 0.3986
634.90 0.3983
635.00 0.3981
635.10 0.3979
635.20 0.3976
635.30 0.3974
635.40 0.3971
635.50 0.3969
635.60 0.3966
635.70 0.3964
635.80 0.3962
635.90 0.3959
636.00 0.3957
636.10 0.3954
636.20 0.3952
636.30 0.395
636.40 0.3947
636.50 0.3945
636.60 0.3942
636.70 0.394
636.80 0.3937
636.90 0.3935
637.00 0.3933
637.10 0.393
637.20 0.3928
637.30 0.3926
637.40 0.3923
637.50 0.3921
637.60 0.3918
637.70 0.3916
637.80 0.3914
637.90 0.3911
638.00 0.3909
638.10 0.3906
638.20 0.3904
638.30 0.3902
638.40 0.3899
638.50 0.3897
638.60 0.3895
638.70 0.3892
638.80 0.389
638.90 0.3887
639.00 0.3885
639.10 0.3883
639.20 0.388
639.30 0.3878
639.40 0.3876
639.50 0.3873
639.60 0.3871
639.70 0.3869
639.80 0.3866
639.90 0.3864
640.00 0.3862
640.10 0.3859
640.20 0.3857
640.30 0.3854
640.40 0.3852
640.50 0.385
640.60 0.3847
640.70 0.3845
640.80 0.3843
640.90 0.384
641.00 0.3838
641.10 0.3836
641.20 0.3833
641.30 0.3831
641.40 0.3829
641.50 0.3826
641.60 0.3824
641.70 0.3822
641.80 0.3819
641.90 0.3817
642.00 0.3815
642.10 0.3812
642.20 0.381
642.30 0.3808
642.40 0.3805
642.50 0.3803
642.60 0.3801
642.70 0.3799
642.80 0.3796
642.90 0.3794
643.00 0.3792
643.10 0.3789
643.20 0.3787
643.30 0.3785
643.40 0.3782
643.50 0.378
643.60 0.3778
643.70 0.3775
643.80 0.3773
643.90 0.3771
644.00 0.3768
644.10 0.3766
644.20 0.3764
644.30 0.3762
644.40 0.3759
644.50 0.3757
644.60 0.3755
644.70 0.3752
644.80 0.375
644.90 0.3748
645.00 0.3745
645.10 0.3743
645.20 0.3741
645.30 0.3739
645.40 0.3736
645.50 0.3734
645.60 0.3732
645.70 0.3729
645.80 0.3727
645.90 0.3725
646.00 0.3722
646.10 0.372
646.20 0.3718
646.30 0.3716
646.40 0.3713
646.50 0.3711
646.60 0.3709
646.70 0.3706
646.80 0.3704
646.90 0.3702
647.00 0.3699
647.10 0.3697
647.20 0.3695
647.30 0.3692
647.40 0.369
647.50 0.3688
647.60 0.3685
647.70 0.3683
647.80 0.3681
647.90 0.3678
648.00 0.3676
648.10 0.3674
648.20 0.3671
648.30 0.3669
648.40 0.3667
648.50 0.3664
648.60 0.3662
648.70 0.3659
648.80 0.3657
648.90 0.3655
649.00 0.3652
649.10 0.365
649.20 0.3648
649.30 0.3645
649.40 0.3643
649.50 0.364
649.60 0.3638
649.70 0.3635
649.80 0.3633
649.90 0.363
650.00 0.3628
650.10 0.3625
650.20 0.3623
650.30 0.362
650.40 0.3618
650.50 0.3615
650.60 0.3612
650.70 0.361
650.80 0.3607
650.90 0.3604
651.00 0.3602
651.10 0.3599
651.20 0.3596
651.30 0.3593
651.40 0.359
651.50 0.3587
651.60 0.3584
651.70 0.3581
651.80 0.3578
651.90 0.3575
652.00 0.3572
652.10 0.3569
652.20 0.3566
652.30 0.3563
652.40 0.3559
652.50 0.3555
652.60 0.3551
652.70 0.3547
652.80 0.3543
652.90 0.3539
653.00 0.3535
653.10 0.3531
653.20 0.3527
653.30 0.3522
653.40 0.3516
653.50 0.351
653.60 0.3504
653.70 0.3498
653.80 0.3491
653.90 0.3485
654.00 0.3479
654.10 0.3473
654.20 0.3467
654.30 0.346
654.40 0.345
654.50 0.3441
654.60 0.3431
654.70 0.3421
654.80 0.3411
654.90 0.3397
655.00 0.3383
655.10 0.3369
655.20 0.3355
655.30 0.334
655.40 0.3321
655.50 0.3301
655.60 0.3277
655.70 0.3251
655.80 0.3217
655.90 0.3176
656.00 0.3109
656.10 0.3035
656.20 0.3001
656.30 0.3137
656.40 0.2977
656.50 0.3058
656.60 0.3122
656.70 0.318
656.80 0.321
656.90 0.3238
657.00 0.3259
657.10 0.3278
657.20 0.3293
657.30 0.3307
657.40 0.3317
657.50 0.3327
657.60 0.3337
657.70 0.3347
657.80 0.3356
657.90 0.3361
658.00 0.3367
658.10 0.3372
658.20 0.3378
658.30 0.3383
658.40 0.3385
658.50 0.3387
658.60 0.3389
658.70 0.3391
658.80 0.3393
658.90 0.3395
659.00 0.3397
659.10 0.3399
659.20 0.3401
659.30 0.3402
659.40 0.3402
659.50 0.3402
659.60 0.3402
659.70 0.3402
659.80 0.3401
659.90 0.3401
660.00 0.3401
660.10 0.3401
660.20 0.34
660.30 0.34
660.40 0.3399
660.50 0.3398
660.60 0.3397
660.70 0.3396
660.80 0.3395
660.90 0.3393
661.00 0.3392
661.10 0.3391
661.20 0.339
661.30 0.3389
661.40 0.3387
661.50 0.3386
661.60 0.3384
661.70 0.3383
661.80 0.3382
661.90 0.338
662.00 0.3379
662.10 0.3377
662.20 0.3376
662.30 0.3374
662.40 0.3372
662.50 0.3371
662.60 0.3369
662.70 0.3367
662.80 0.3366
662.90 0.3364
663.00 0.3362
663.10 0.3361
663.20 0.3359
663.30 0.3357
663.40 0.3355
663.50 0.3354
663.60 0.3352
663.70 0.335
663.80 0.3348
663.90 0.3347
664.00 0.3345
664.10 0.3343
664.20 0.3341
664.30 0.3339
664.40 0.3338
664.50 0.3336
664.60 0.3334
664.70 0.3332
664.80 0.333
664.90 0.3329
665.00 0.3327
665.10 0.3325
665.20 0.3323
665.30 0.3321
665.40 0.3319
665.50 0.3318
665.60 0.3316
665.70 0.3314
665.80 0.3312
665.90 0.331
666.00 0.3308
666.10 0.3307
666.20 0.3305
666.30 0.3303
666.40 0.3301
666.50 0.3299
666.60 0.3297
666.70 0.3295
666.80 0.3294
666.90 0.3292
667.00 0.329
667.10 0.3288
667.20 0.3286
667.30 0.3284
667.40 0.3282
667.50 0.3281
667.60 0.3279
667.70 0.3277
667.80 0.3275
667.90 0.3273
668.00 0.3271
668.10 0.3269
668.20 0.3268
668.30 0.3266
668.40 0.3264
668.50 0.3262
668.60 0.326
668.70 0.3258
668.80 0.3256
668.90 0.3255
669.00 0.3253
669.10 0.3251
669.20 0.3249
669.30 0.3247
669.40 0.3245
669.50 0.3244
669.60 0.3242
669.70 0.324
669.80 0.3238
669.90 0.3236
670.00 0.3234
670.10 0.3232
670.20 0.3231
670.30 0.3229
670.40 0.3227
670.50 0.3225
670.60 0.3223
670.70 0.3221
670.80 0.322
670.90 0.3218
671.00 0.3216
671.10 0.3214
671.20 0.3212
671.30 0.321
671.40 0.3209
671.50 0.3207
671.60 0.3205
671.70 0.3203
671.80 0.3201
671.90 0.3199
672.00 0.3198
672.10 0.3196
672.20 0.3194
672.30 0.3192
672.40 0.319
672.50 0.3188
672.60 0.3187
672.70 0.3185
672.80 0.3183
672.90 0.3181
673.00 0.3179
673.10 0.3178
673.20 0.3176
673.30 0.3174
673.40 0.3172
673.50 0.317
673.60 0.3168
673.70 0.3167
673.80 0.3165
673.90 0.3163
674.00 0.3161
674.10 0.3159
674.20 0.3158
674.30 0.3156
674.40 0.3154
674.50 0.3152
674.60 0.315
674.70 0.3149
674.80 0.3147
674.90 0.3145
675.00 0.3143
675.10 0.3141
675.20 0.314
675.30 0.3138
675.40 0.3136
675.50 0.3134
675.60 0.3133
675.70 0.3131
675.80 0.3129
675.90 0.3127
676.00 0.3125
676.10 0.3124
676.20 0.3122
676.30 0.312
676.40 0.3118
676.50 0.3116
676.60 0.3115
676.70 0.3113
676.80 0.3111
676.90 0.3109
677.00 0.3108
677.10 0.3106
677.20 0.3104
677.30 0.3102
677.40 0.3101
677.50 0.3099
677.60 0.3097
677.70 0.3095
677.80 0.3093
677.90 0.3092
678.00 0.309
678.10 0.3088
678.20 0.3086
678.30 0.3085
678.40 0.3083
678.50 0.3081
678.60 0.3079
678.70 0.3078
678.80 0.3076
678.90 0.3074
679.00 0.3072
679.10 0.3071
679.20 0.3069
679.30 0.3067
679.40 0.3065
679.50 0.3064
679.60 0.3062
679.70 0.306
679.80 0.3058
679.90 0.3057
680.00 0.3055
680.10 0.3053
680.20 0.3052
680.30 0.305
680.40 0.3048
680.50 0.3046
680.60 0.3045
680.70 0.3043
680.80 0.3041
680.90 0.3039
681.00 0.3038
681.10 0.3036
681.20 0.3034
681.30 0.3033
681.40 0.3031
681.50 0.3029
681.60 0.3027
681.70 0.3026
681.80 0.3024
681.90 0.3022
682.00 0.3021
682.10 0.3019
682.20 0.3017
682.30 0.3015
682.40 0.3014
682.50 0.3012
682.60 0.301
682.70 0.3009
682.80 0.3007
682.90 0.3005
683.00 0.3003
683.10 0.3002
683.20 0.3
683.30 0.2998
683.40 0.2997
683.50 0.2995
683.60 0.2993
683.70 0.2992
683.80 0.299
683.90 0.2988
684.00 0.2987
684.10 0.2985
684.20 0.2983
684.30 0.2981
684.40 0.298
684.50 0.2978
684.60 0.2976
684.70 0.2975
684.80 0.2973
684.90 0.2971
685.00 0.297
685.10 0.2968
685.20 0.2966
685.30 0.2965
685.40 0.2963
685.50 0.2961
685.60 0.296
685.70 0.2958
685.80 0.2956
685.90 0.2955
686.00 0.2953
686.10 0.2951
686.20 0.295
686.30 0.2948
686.40 0.2946
686.50 0.2945
686.60 0.2943
686.70 0.2941
686.80 0.294
686.90 0.2938
687.00 0.2936
687.10 0.2935
687.20 0.2933
687.30 0.2931
687.40 0.293
687.50 0.2928
687.60 0.2927
687.70 0.2925
687.80 0.2923
687.90 0.2922
688.00 0.292
688.10 0.2918
688.20 0.2917
688.30 0.2915
688.40 0.2913
688.50 0.2912
688.60 0.291
688.70 0.2908
688.80 0.2907
688.90 0.2905
689.00 0.2904
689.10 0.2902
689.20 0.29
689.30 0.2899
689.40 0.2897
689.50 0.2895
689.60 0.2894
689.70 0.2892
689.80 0.2891
689.90 0.2889
690.00 0.2887
690.10 0.2886
690.20 0.2884
690.30 0.2883
690.40 0.2881
690.50 0.2879
690.60 0.2878
690.70 0.2876
690.80 0.2874
690.90 0.2873
691.00 0.2871
691.10 0.287
691.20 0.2868
691.30 0.2866
691.40 0.2865
691.50 0.2863
691.60 0.2862
691.70 0.286
691.80 0.2858
691.90 0.2857
692.00 0.2855
692.10 0.2854
692.20 0.2852
692.30 0.285
692.40 0.2849
692.50 0.2847
692.60 0.2846
692.70 0.2844
692.80 0.2843
692.90 0.2841
693.00 0.2839
693.10 0.2838
693.20 0.2836
693.30 0.2835
693.40 0.2833
693.50 0.2831
693.60 0.283
693.70 0.2828
693.80 0.2827
693.90 0.2825
694.00 0.2824
694.10 0.2822
694.20 0.282
694.30 0.2819
694.40 0.2817
694.50 0.2816
694.60 0.2814
694.70 0.2812
694.80 0.2811
694.90 0.2809
695.00 0.2808
695.10 0.2806
695.20 0.2805
695.30 0.2803
695.40 0.2802
695.50 0.28
695.60 0.2798
695.70 0.2797
695.80 0.2795
695.90 0.2794
696.00 0.2792
696.10 0.2791
696.20 0.2789
696.30 0.2788
696.40 0.2786
696.50 0.2784
696.60 0.2783
696.70 0.2781
696.80 0.278
696.90 0.2778
697.00 0.2777
697.10 0.2775
697.20 0.2774
697.30 0.2772
697.40 0.2771
697.50 0.2769
697.60 0.2768
697.70 0.2766
697.80 0.2764
697.90 0.2763
698.00 0.2761
698.10 0.276
698.20 0.2758
698.30 0.2757
698.40 0.2755
698.50 0.2754
698.60 0.2752
698.70 0.2751
698.80 0.2749
698.90 0.2748
699.00 0.2746
699.10 0.2745
699.20 0.2743
699.30 0.2742
699.40 0.274
699.50 0.2738
699.60 0.2737
699.70 0.2735
699.80 0.2734
699.90 0.2732
700.00 0.2731
700.10 0.2729
700.20 0.2728
700.30 0.2726
700.40 0.2725
700.50 0.2723
700.60 0.2722
700.70 0.272
700.80 0.2719
700.90 0.2717
701.00 0.2716
701.10 0.2714
701.20 0.2713
701.30 0.2711
701.40 0.271
701.50 0.2708
701.60 0.2707
701.70 0.2705
701.80 0.2704
701.90 0.2702
702.00 0.2701
702.10 0.2699
702.20 0.2698
702.30 0.2697
702.40 0.2695
702.50 0.2694
702.60 0.2692
702.70 0.2691
702.80 0.2689
702.90 0.2688
703.00 0.2686
703.10 0.2685
703.20 0.2683
703.30 0.2682
703.40 0.268
703.50 0.2679
703.60 0.2677
703.70 0.2676
703.80 0.2674
703.90 0.2673
704.00 0.2671
704.10 0.267
704.20 0.2668
704.30 0.2667
704.40 0.2665
704.50 0.2664
704.60 0.2663
704.70 0.2661
704.80 0.266
704.90 0.2658
705.00 0.2657
705.10 0.2655
705.20 0.2654
705.30 0.2652
705.40 0.2651
705.50 0.2649
705.60 0.2648
705.70 0.2647
705.80 0.2645
705.90 0.2644
706.00 0.2642
706.10 0.2641
706.20 0.2639
706.30 0.2638
706.40 0.2636
706.50 0.2635
706.60 0.2634
706.70 0.2632
706.80 0.2631
706.90 0.2629
707.00 0.2628
707.10 0.2626
707.20 0.2625
707.30 0.2623
707.40 0.2622
707.50 0.2621
707.60 0.2619
707.70 0.2618
707.80 0.2616
707.90 0.2615
708.00 0.2613
708.10 0.2612
708.20 0.2611
708.30 0.2609
708.40 0.2608
708.50 0.2606
708.60 0.2605
708.70 0.2603
708.80 0.2602
708.90 0.2601
709.00 0.2599
709.10 0.2598
709.20 0.2596
709.30 0.2595
709.40 0.2593
709.50 0.2592
709.60 0.2591
709.70 0.2589
709.80 0.2588
709.90 0.2586
710.00 0.2585
710.10 0.2584
710.20 0.2582
710.30 0.2581
710.40 0.2579
710.50 0.2578
710.60 0.2577
710.70 0.2575
710.80 0.2574
710.90 0.2572
711.00 0.2571
711.10 0.257
711.20 0.2568
711.30 0.2567
711.40 0.2565
711.50 0.2564
711.60 0.2563
711.70 0.2561
711.80 0.256
711.90 0.2558
712.00 0.2557
712.10 0.2556
712.20 0.2554
712.30 0.2553
712.40 0.2551
712.50 0.255
712.60 0.2549
712.70 0.2547
712.80 0.2546
712.90 0.2545
713.00 0.2543
713.10 0.2542
713.20 0.254
713.30 0.2539
713.40 0.2538
713.50 0.2536
713.60 0.2535
713.70 0.2533
713.80 0.2532
713.90 0.2531
714.00 0.2529
714.10 0.2528
714.20 0.2527
714.30 0.2525
714.40 0.2524
714.50 0.2522
714.60 0.2521
714.70 0.252
714.80 0.2518
714.90 0.2517
715.00 0.2516
715.10 0.2514
715.20 0.2513
715.30 0.2512
715.40 0.251
715.50 0.2509
715.60 0.2507
715.70 0.2506
715.80 0.2505
715.90 0.2503
716.00 0.2502
716.10 0.2501
716.20 0.2499
716.30 0.2498
716.40 0.2497
716.50 0.2495
716.60 0.2494
716.70 0.2493
716.80 0.2491
716.90 0.249
717.00 0.2489
717.10 0.2487
717.20 0.2486
717.30 0.2485
717.40 0.2483
717.50 0.2482
717.60 0.2481
717.70 0.2479
717.80 0.2478
717.90 0.2477
718.00 0.2475
718.10 0.2474
718.20 0.2473
718.30 0.2471
718.40 0.247
718.50 0.2469
718.60 0.2467
718.70 0.2466
718.80 0.2465
718.90 0.2463
719.00 0.2462
719.10 0.2461
719.20 0.2459
719.30 0.2458
719.40 0.2457
719.50 0.2455
719.60 0.2454
719.70 0.2453
719.80 0.2451
719.90 0.245
720.00 0.2449
720.10 0.2447
720.20 0.2446
720.30 0.2445
720.40 0.2443
720.50 0.2442
720.60 0.2441
720.70 0.2439
720.80 0.2438
720.90 0.2437
721.00 0.2436
721.10 0.2434
721.20 0.2433
721.30 0.2432
721.40 0.243
721.50 0.2429
721.60 0.2428
721.70 0.2426
721.80 0.2425
721.90 0.2424
722.00 0.2422
722.10 0.2421
722.20 0.242
722.30 0.2419
722.40 0.2417
722.50 0.2416
722.60 0.2415
722.70 0.2413
722.80 0.2412
722.90 0.2411
723.00 0.241
723.10 0.2408
723.20 0.2407
723.30 0.2406
723.40 0.2404
723.50 0.2403
723.60 0.2402
723.70 0.24
723.80 0.2399
723.90 0.2398
724.00 0.2397
724.10 0.2395
724.20 0.2394
724.30 0.2393
724.40 0.2391
724.50 0.239
724.60 0.2389
724.70 0.2388
724.80 0.2386
724.90 0.2385
725.00 0.2384
725.10 0.2383
725.20 0.2381
725.30 0.238
725.40 0.2379
725.50 0.2377
725.60 0.2376
725.70 0.2375
725.80 0.2374
725.90 0.2372
726.00 0.2371
726.10 0.237
726.20 0.2369
726.30 0.2367
726.40 0.2366
726.50 0.2365
726.60 0.2364
726.70 0.2362
726.80 0.2361
726.90 0.236
727.00 0.2359
727.10 0.2357
727.20 0.2356
727.30 0.2355
727.40 0.2354
727.50 0.2352
727.60 0.2351
727.70 0.235
727.80 0.2349
727.90 0.2347
728.00 0.2346
728.10 0.2345
728.20 0.2344
728.30 0.2342
728.40 0.2341
728.50 0.234
728.60 0.2339
728.70 0.2337
728.80 0.2336
728.90 0.2335
729.00 0.2334
729.10 0.2332
729.20 0.2331
729.30 0.233
729.40 0.2329
729.50 0.2327
729.60 0.2326
729.70 0.2325
729.80 0.2324
729.90 0.2322
730.00 0.2321
730.10 0.232
730.20 0.2319
730.30 0.2317
730.40 0.2316
730.50 0.2315
730.60 0.2314
730.70 0.2313
730.80 0.2311
730.90 0.231
731.00 0.2309
731.10 0.2308
731.20 0.2307
731.30 0.2305
731.40 0.2304
731.50 0.2303
731.60 0.2302
731.70 0.23
731.80 0.2299
731.90 0.2298
732.00 0.2297
732.10 0.2296
732.20 0.2294
732.30 0.2293
732.40 0.2292
732.50 0.2291
732.60 0.229
732.70 0.2288
732.80 0.2287
732.90 0.2286
733.00 0.2285
733.10 0.2284
733.20 0.2282
733.30 0.2281
733.40 0.228
733.50 0.2279
733.60 0.2278
733.70 0.2276
733.80 0.2275
733.90 0.2274
734.00 0.2273
734.10 0.2272
734.20 0.227
734.30 0.2269
734.40 0.2268
734.50 0.2267
734.60 0.2266
734.70 0.2264
734.80 0.2263
734.90 0.2262
735.00 0.2261
735.10 0.226
735.20 0.2258
735.30 0.2257
735.40 0.2256
735.50 0.2255
735.60 0.2254
735.70 0.2252
735.80 0.2251
735.90 0.225
736.00 0.2249
736.10 0.2248
736.20 0.2247
736.30 0.2245
736.40 0.2244
736.50 0.2243
736.60 0.2242
736.70 0.2241
736.80 0.2239
736.90 0.2238
737.00 0.2237
737.10 0.2236
737.20 0.2235
737.30 0.2234
737.40 0.2232
737.50 0.2231
737.60 0.223
737.70 0.2229
737.80 0.2228
737.90 0.2226
738.00 0.2225
738.10 0.2224
738.20 0.2223
738.30 0.2222
738.40 0.2221
738.50 0.2219
738.60 0.2218
738.70 0.2217
738.80 0.2216
738.90 0.2215
739.00 0.2214
739.10 0.2212
739.20 0.2211
739.30 0.221
739.40 0.2209
739.50 0.2208
739.60 0.2207
739.70 0.2205
739.80 0.2204
739.90 0.2203
740.00 0.2202
740.10 0.2201
740.20 0.22
740.30 0.2198
740.40 0.2197
740.50 0.2196
740.60 0.2195
740.70 0.2194
740.80 0.2193
740.90 0.2192
741.00 0.2191
741.10 0.2189
741.20 0.2188
741.30 0.2187
741.40 0.2186
741.50 0.2185
741.60 0.2184
741.70 0.2183
741.80 0.2181
741.90 0.218
742.00 0.2179
742.10 0.2178
742.20 0.2177
742.30 0.2176
742.40 0.2175
742.50 0.2173
742.60 0.2172
742.70 0.2171
742.80 0.217
742.90 0.2169
743.00 0.2168
743.10 0.2167
743.20 0.2166
743.30 0.2164
743.40 0.2163
743.50 0.2162
743.60 0.2161
743.70 0.216
743.80 0.2159
743.90 0.2158
744.00 0.2157
744.10 0.2155
744.20 0.2154
744.30 0.2153
744.40 0.2152
744.50 0.2151
744.60 0.215
744.70 0.2149
744.80 0.2148
744.90 0.2147
745.00 0.2145
745.10 0.2144
745.20 0.2143
745.30 0.2142
745.40 0.2141
745.50 0.214
745.60 0.2139
745.70 0.2138
745.80 0.2137
745.90 0.2135
746.00 0.2134
746.10 0.2133
746.20 0.2132
746.30 0.2131
746.40 0.213
746.50 0.2129
746.60 0.2128
746.70 0.2127
746.80 0.2125
746.90 0.2124
747.00 0.2123
747.10 0.2122
747.20 0.2121
747.30 0.212
747.40 0.2119
747.50 0.2118
747.60 0.2117
747.70 0.2115
747.80 0.2114
747.90 0.2113
748.00 0.2112
748.10 0.2111
748.20 0.211
748.30 0.2109
748.40 0.2108
748.50 0.2107
748.60 0.2106
748.70 0.2104
748.80 0.2103
748.90 0.2102
749.00 0.2101
749.10 0.21
749.20 0.2099
749.30 0.2098
749.40 0.2097
749.50 0.2096
749.60 0.2095
749.70 0.2094
749.80 0.2092
749.90 0.2091
750.00 0.209
750.10 0.2089
750.20 0.2088
750.30 0.2087
750.40 0.2086
750.50 0.2085
750.60 0.2084
750.70 0.2083
750.80 0.2082
750.90 0.2081
751.00 0.208
751.10 0.2078
751.20 0.2077
751.30 0.2076
751.40 0.2075
751.50 0.2074
751.60 0.2073
751.70 0.2072
751.80 0.2071
751.90 0.207
752.00 0.2069
752.10 0.2068
752.20 0.2067
752.30 0.2066
752.40 0.2065
752.50 0.2064
752.60 0.2063
752.70 0.2061
752.80 0.206
752.90 0.2059
753.00 0.2058
753.10 0.2057
753.20 0.2056
753.30 0.2055
753.40 0.2054
753.50 0.2053
753.60 0.2052
753.70 0.2051
753.80 0.205
753.90 0.2049
754.00 0.2048
754.10 0.2047
754.20 0.2046
754.30 0.2045
754.40 0.2044
754.50 0.2043
754.60 0.2041
754.70 0.204
754.80 0.2039
754.90 0.2038
755.00 0.2037
755.10 0.2036
755.20 0.2035
755.30 0.2034
755.40 0.2033
755.50 0.2032
755.60 0.2031
755.70 0.203
755.80 0.2029
755.90 0.2028
756.00 0.2027
756.10 0.2026
756.20 0.2025
756.30 0.2024
756.40 0.2023
756.50 0.2022
756.60 0.2021
756.70 0.202
756.80 0.2019
756.90 0.2018
757.00 0.2016
757.10 0.2015
757.20 0.2014
757.30 0.2013
757.40 0.2012
757.50 0.2011
757.60 0.201
757.70 0.2009
757.80 0.2008
757.90 0.2007
758.00 0.2006
758.10 0.2005
758.20 0.2004
758.30 0.2003
758.40 0.2002
758.50 0.2001
758.60 0.2
758.70 0.1999
758.80 0.1998
758.90 0.1997
759.00 0.1996
759.10 0.1995
759.20 0.1994
759.30 0.1993
759.40 0.1992
759.50 0.1991
759.60 0.199
759.70 0.1989
759.80 0.1988
759.90 0.1987
760.00 0.1986
760.10 0.1985
760.20 0.1984
760.30 0.1983
760.40 0.1982
760.50 0.1981
760.60 0.198
760.70 0.1979
760.80 0.1978
760.90 0.1977
761.00 0.1976
761.10 0.1975
761.20 0.1974
761.30 0.1973
761.40 0.1972
761.50 0.1971
761.60 0.197
761.70 0.1969
761.80 0.1968
761.90 0.1967
762.00 0.1966
762.10 0.1965
762.20 0.1964
762.30 0.1963
762.40 0.1962
762.50 0.1961
762.60 0.196
762.70 0.1959
762.80 0.1958
762.90 0.1957
763.00 0.1956
763.10 0.1955
763.20 0.1954
763.30 0.1953
763.40 0.1952
763.50 0.1951
763.60 0.195
763.70 0.1949
763.80 0.1948
763.90 0.1947
764.00 0.1946
764.10 0.1945
764.20 0.1944
764.30 0.1943
764.40 0.1942
764.50 0.1941
764.60 0.194
764.70 0.1939
764.80 0.1938
764.90 0.1937
765.00 0.1936
765.10 0.1935
765.20 0.1934
765.30 0.1933
765.40 0.1932
765.50 0.1931
765.60 0.193
765.70 0.1929
765.80 0.1928
765.90 0.1927
766.00 0.1926
766.10 0.1925
766.20 0.1924
766.30 0.1923
766.40 0.1922
766.50 0.1921
766.60 0.192
766.70 0.1919
766.80 0.1918
766.90 0.1917
767.00 0.1916
767.10 0.1915
767.20 0.1914
767.30 0.1913
767.40 0.1912
767.50 0.1912
767.60 0.1911
767.70 0.191
767.80 0.1909
767.90 0.1908
768.00 0.1907
768.10 0.1906
768.20 0.1905
768.30 0.1904
768.40 0.1903
768.50 0.1902
768.60 0.1901
768.70 0.19
768.80 0.1899
768.90 0.1898
769.00 0.1897
769.10 0.1896
769.20 0.1895
769.30 0.1894
769.40 0.1893
769.50 0.1892
769.60 0.1891
769.70 0.189
769.80 0.1889
769.90 0.1888
770.00 0.1887
770.10 0.1886
770.20 0.1886
770.30 0.1885
770.40 0.1884
770.50 0.1883
770.60 0.1882
770.70 0.1881
770.80 0.188
770.90 0.1879
771.00 0.1878
771.10 0.1877
771.20 0.1876
771.30 0.1875
771.40 0.1874
771.50 0.1873
771.60 0.1872
771.70 0.1871
771.80 0.187
771.90 0.187
772.00 0.1869
772.10 0.1868
772.20 0.1867
772.30 0.1866
772.40 0.1865
772.50 0.1864
772.60 0.1863
772.70 0.1862
772.80 0.1861
772.90 0.186
773.00 0.1859
773.10 0.1858
773.20 0.1857
773.30 0.1857
773.40 0.1856
773.50 0.1855
773.60 0.1854
773.70 0.1853
773.80 0.1852
773.90 0.1851
774.00 0.185
774.10 0.1849
774.20 0.1848
774.30 0.1847
774.40 0.1846
774.50 0.1845
774.60 0.1844
774.70 0.1844
774.80 0.1843
774.90 0.1842
775.00 0.1841
775.10 0.184
775.20 0.1839
775.30 0.1838
775.40 0.1837
775.50 0.1836
775.60 0.1835
775.70 0.1834
775.80 0.1833
775.90 0.1833
776.00 0.1832
776.10 0.1831
776.20 0.183
776.30 0.1829
776.40 0.1828
776.50 0.1827
776.60 0.1826
776.70 0.1825
776.80 0.1824
776.90 0.1823
777.00 0.1822
777.10 0.1822
777.20 0.1821
777.30 0.182
777.40 0.1819
777.50 0.1818
777.60 0.1817
777.70 0.1816
777.80 0.1815
777.90 0.1814
778.00 0.1813
778.10 0.1812
778.20 0.1812
778.30 0.1811
778.40 0.181
778.50 0.1809
778.60 0.1808
778.70 0.1807
778.80 0.1806
778.90 0.1805
779.00 0.1804
779.10 0.1803
779.20 0.1802
779.30 0.1802
779.40 0.1801
779.50 0.18
779.60 0.1799
779.70 0.1798
779.80 0.1797
779.90 0.1796
780.00 0.1795
780.10 0.1794
780.20 0.1793
780.30 0.1793
780.40 0.1792
780.50 0.1791
780.60 0.179
780.70 0.1789
780.80 0.1788
780.90 0.1787
781.00 0.1786
781.10 0.1786
781.20 0.1785
781.30 0.1784
781.40 0.1783
781.50 0.1782
781.60 0.1781
781.70 0.178
781.80 0.1779
781.90 0.1778
782.00 0.1778
782.10 0.1777
782.20 0.1776
782.30 0.1775
782.40 0.1774
782.50 0.1773
782.60 0.1772
782.70 0.1771
782.80 0.1771
782.90 0.177
783.00 0.1769
783.10 0.1768
783.20 0.1767
783.30 0.1766
783.40 0.1765
783.50 0.1764
783.60 0.1764
783.70 0.1763
783.80 0.1762
783.90 0.1761
784.00 0.176
784.10 0.1759
784.20 0.1758
784.30 0.1758
784.40 0.1757
784.50 0.1756
784.60 0.1755
784.70 0.1754
784.80 0.1753
784.90 0.1752
785.00 0.1751
785.10 0.1751
785.20 0.175
785.30 0.1749
785.40 0.1748
785.50 0.1747
785.60 0.1746
785.70 0.1745
785.80 0.1745
785.90 0.1744
786.00 0.1743
786.10 0.1742
786.20 0.1741
786.30 0.174
786.40 0.1739
786.50 0.1738
786.60 0.1738
786.70 0.1737
786.80 0.1736
786.90 0.1735
787.00 0.1734
787.10 0.1733
787.20 0.1732
787.30 0.1732
787.40 0.1731
787.50 0.173
787.60 0.1729
787.70 0.1728
787.80 0.1727
787.90 0.1726
788.00 0.1726
788.10 0.1725
788.20 0.1724
788.30 0.1723
788.40 0.1722
788.50 0.1721
788.60 0.1721
788.70 0.172
788.80 0.1719
788.90 0.1718
789.00 0.1717
789.10 0.1716
789.20 0.1715
789.30 0.1715
789.40 0.1714
789.50 0.1713
789.60 0.1712
789.70 0.1711
789.80 0.171
789.90 0.1709
790.00 0.1709
790.10 0.1708
790.20 0.1707
790.30 0.1706
790.40 0.1705
790.50 0.1704
790.60 0.1704
790.70 0.1703
790.80 0.1702
790.90 0.1701
791.00 0.17
791.10 0.1699
791.20 0.1699
791.30 0.1698
791.40 0.1697
791.50 0.1696
791.60 0.1695
791.70 0.1695
791.80 0.1694
791.90 0.1693
792.00 0.1692
792.10 0.1691
792.20 0.169
792.30 0.169
792.40 0.1689
792.50 0.1688
792.60 0.1687
792.70 0.1686
792.80 0.1685
792.90 0.1685
793.00 0.1684
793.10 0.1683
793.20 0.1682
793.30 0.1681
793.40 0.1681
793.50 0.168
793.60 0.1679
793.70 0.1678
793.80 0.1677
793.90 0.1676
794.00 0.1676
794.10 0.1675
794.20 0.1674
794.30 0.1673
794.40 0.1672
794.50 0.1672
794.60 0.1671
794.70 0.167
794.80 0.1669
794.90 0.1668
795.00 0.1667
795.10 0.1667
795.20 0.1666
795.30 0.1665
795.40 0.1664
795.50 0.1663
795.60 0.1663
795.70 0.1662
795.80 0.1661
795.90 0.166
796.00 0.1659
796.10 0.1659
796.20 0.1658
796.30 0.1657
796.40 0.1656
796.50 0.1655
796.60 0.1654
796.70 0.1654
796.80 0.1653
796.90 0.1652
797.00 0.1651
797.10 0.165
797.20 0.165
797.30 0.1649
797.40 0.1648
797.50 0.1647
797.60 0.1646
797.70 0.1646
797.80 0.1645
797.90 0.1644
798.00 0.1643
798.10 0.1642
798.20 0.1642
798.30 0.1641
798.40 0.164
798.50 0.1639
798.60 0.1638
798.70 0.1638
798.80 0.1637
798.90 0.1636
799.00 0.1635
799.10 0.1634
799.20 0.1634
799.30 0.1633
799.40 0.1632
799.50 0.1631
799.60 0.163
799.70 0.163
799.80 0.1629
799.90 0.1628
800.00 0.1627
800.10 0.1626
800.20 0.1626
800.30 0.1625
800.40 0.1624
800.50 0.1623
800.60 0.1622
800.70 0.1622
800.80 0.1621
800.90 0.162
801.00 0.1619
801.10 0.1619
801.20 0.1618
801.30 0.1617
801.40 0.1616
801.50 0.1615
801.60 0.1615
801.70 0.1614
801.80 0.1613
801.90 0.1612
802.00 0.1612
802.10 0.1611
802.20 0.161
802.30 0.1609
802.40 0.1608
802.50 0.1608
802.60 0.1607
802.70 0.1606
802.80 0.1605
802.90 0.1605
803.00 0.1604
803.10 0.1603
803.20 0.1602
803.30 0.1602
803.40 0.1601
803.50 0.16
803.60 0.1599
803.70 0.1598
803.80 0.1598
803.90 0.1597
804.00 0.1596
804.10 0.1595
804.20 0.1595
804.30 0.1594
804.40 0.1593
804.50 0.1592
804.60 0.1592
804.70 0.1591
804.80 0.159
804.90 0.1589
805.00 0.1588
805.10 0.1588
805.20 0.1587
805.30 0.1586
805.40 0.1585
805.50 0.1585
805.60 0.1584
805.70 0.1583
805.80 0.1582
805.90 0.1582
806.00 0.1581
806.10 0.158
806.20 0.1579
806.30 0.1579
806.40 0.1578
806.50 0.1577
806.60 0.1576
806.70 0.1575
806.80 0.1575
806.90 0.1574
807.00 0.1573
807.10 0.1572
807.20 0.1572
807.30 0.1571
807.40 0.157
807.50 0.1569
807.60 0.1569
807.70 0.1568
807.80 0.1567
807.90 0.1566
808.00 0.1566
808.10 0.1565
808.20 0.1564
808.30 0.1563
808.40 0.1563
808.50 0.1562
808.60 0.1561
808.70 0.156
808.80 0.156
808.90 0.1559
809.00 0.1558
809.10 0.1557
809.20 0.1557
809.30 0.1556
809.40 0.1555
809.50 0.1554
809.60 0.1554
809.70 0.1553
809.80 0.1552
809.90 0.1551
810.00 0.1551
810.10 0.155
810.20 0.1549
810.30 0.1548
810.40 0.1548
810.50 0.1547
810.60 0.1546
810.70 0.1545
810.80 0.1545
810.90 0.1544
811.00 0.1543
811.10 0.1542
811.20 0.1542
811.30 0.1541
811.40 0.154
811.50 0.154
811.60 0.1539
811.70 0.1538
811.80 0.1537
811.90 0.1537
812.00 0.1536
812.10 0.1535
812.20 0.1534
812.30 0.1534
812.40 0.1533
812.50 0.1532
812.60 0.1532
812.70 0.1531
812.80 0.153
812.90 0.1529
813.00 0.1529
813.10 0.1528
813.20 0.1527
813.30 0.1526
813.40 0.1526
813.50 0.1525
813.60 0.1524
813.70 0.1524
813.80 0.1523
813.90 0.1522
814.00 0.1521
814.10 0.1521
814.20 0.152
814.30 0.1519
814.40 0.1518
814.50 0.1518
814.60 0.1517
814.70 0.1516
814.80 0.1516
814.90 0.1515
815.00 0.1514
815.10 0.1513
815.20 0.1513
815.30 0.1512
815.40 0.1511
815.50 0.1511
815.60 0.151
815.70 0.1509
815.80 0.1508
815.90 0.1508
816.00 0.1507
816.10 0.1506
816.20 0.1505
816.30 0.1505
816.40 0.1504
816.50 0.1503
816.60 0.1503
816.70 0.1502
816.80 0.1501
816.90 0.15
817.00 0.15
817.10 0.1499
817.20 0.1498
817.30 0.1498
817.40 0.1497
817.50 0.1496
817.60 0.1495
817.70 0.1495
817.80 0.1494
817.90 0.1493
818.00 0.1493
818.10 0.1492
818.20 0.1491
818.30 0.149
818.40 0.149
818.50 0.1489
818.60 0.1488
818.70 0.1488
818.80 0.1487
818.90 0.1486
819.00 0.1485
819.10 0.1485
819.20 0.1484
819.30 0.1483
819.40 0.1483
819.50 0.1482
819.60 0.1481
819.70 0.1481
819.80 0.148
819.90 0.1479
820.00 0.1478
820.10 0.1478
820.20 0.1477
820.30 0.1476
820.40 0.1476
820.50 0.1475
820.60 0.1474
820.70 0.1474
820.80 0.1473
820.90 0.1472
821.00 0.1471
821.10 0.1471
821.20 0.147
821.30 0.1469
821.40 0.1469
821.50 0.1468
821.60 0.1467
821.70 0.1467
821.80 0.1466
821.90 0.1465
822.00 0.1464
822.10 0.1464
822.20 0.1463
822.30 0.1462
822.40 0.1462
822.50 0.1461
822.60 0.146
822.70 0.146
822.80 0.1459
822.90 0.1458
823.00 0.1458
823.10 0.1457
823.20 0.1456
823.30 0.1456
823.40 0.1455
823.50 0.1454
823.60 0.1453
823.70 0.1453
823.80 0.1452
823.90 0.1451
824.00 0.1451
824.10 0.145
824.20 0.1449
824.30 0.1449
824.40 0.1448
824.50 0.1447
824.60 0.1447
824.70 0.1446
824.80 0.1445
824.90 0.1445
825.00 0.1444
825.10 0.1443
825.20 0.1443
825.30 0.1442
825.40 0.1441
825.50 0.1441
825.60 0.144
825.70 0.1439
825.80 0.1439
825.90 0.1438
826.00 0.1437
826.10 0.1436
826.20 0.1436
826.30 0.1435
826.40 0.1434
826.50 0.1434
826.60 0.1433
826.70 0.1432
826.80 0.1432
826.90 0.1431
827.00 0.143
827.10 0.143
827.20 0.1429
827.30 0.1428
827.40 0.1428
827.50 0.1427
827.60 0.1426
827.70 0.1426
827.80 0.1425
827.90 0.1424
828.00 0.1424
828.10 0.1423
828.20 0.1422
828.30 0.1422
828.40 0.1421
828.50 0.142
828.60 0.142
828.70 0.1419
828.80 0.1418
828.90 0.1418
829.00 0.1417
829.10 0.1416
829.20 0.1416
829.30 0.1415
829.40 0.1414
829.50 0.1414
829.60 0.1413
829.70 0.1412
829.80 0.1412
829.90 0.1411
830.00 0.141
830.10 0.141
830.20 0.1409
830.30 0.1408
830.40 0.1408
830.50 0.1407
830.60 0.1406
830.70 0.1406
830.80 0.1405
830.90 0.1405
831.00 0.1404
831.10 0.1403
831.20 0.1403
831.30 0.1402
831.40 0.1401
831.50 0.1401
831.60 0.14
831.70 0.1399
831.80 0.1399
831.90 0.1398
832.00 0.1397
832.10 0.1397
832.20 0.1396
832.30 0.1395
832.40 0.1395
832.50 0.1394
832.60 0.1393
832.70 0.1393
832.80 0.1392
832.90 0.1391
833.00 0.1391
833.10 0.139
833.20 0.1389
833.30 0.1389
833.40 0.1388
833.50 0.1388
833.60 0.1387
833.70 0.1386
833.80 0.1386
833.90 0.1385
834.00 0.1384
834.10 0.1384
834.20 0.1383
834.30 0.1382
834.40 0.1382
834.50 0.1381
834.60 0.138
834.70 0.138
834.80 0.1379
834.90 0.1379
835.00 0.1378
835.10 0.1377
835.20 0.1377
835.30 0.1376
835.40 0.1375
835.50 0.1375
835.60 0.1374
835.70 0.1373
835.80 0.1373
835.90 0.1372
836.00 0.1371
836.10 0.1371
836.20 0.137
836.30 0.137
836.40 0.1369
836.50 0.1368
836.60 0.1368
836.70 0.1367
836.80 0.1366
836.90 0.1366
837.00 0.1365
837.10 0.1364
837.20 0.1364
837.30 0.1363
837.40 0.1363
837.50 0.1362
837.60 0.1361
837.70 0.1361
837.80 0.136
837.90 0.1359
838.00 0.1359
838.10 0.1358
838.20 0.1357
838.30 0.1357
838.40 0.1356
838.50 0.1356
838.60 0.1355
838.70 0.1354
838.80 0.1354
838.90 0.1353
839.00 0.1352
839.10 0.1352
839.20 0.1351
839.30 0.1351
839.40 0.135
839.50 0.1349
839.60 0.1349
839.70 0.1348
839.80 0.1347
839.90 0.1347
840.00 0.1346
840.10 0.1346
840.20 0.1345
840.30 0.1344
840.40 0.1344
840.50 0.1343
840.60 0.1342
840.70 0.1342
840.80 0.1341
840.90 0.1341
841.00 0.134
841.10 0.1339
841.20 0.1339
841.30 0.1338
841.40 0.1338
841.50 0.1337
841.60 0.1336
841.70 0.1336
841.80 0.1335
841.90 0.1334
842.00 0.1334
842.10 0.1333
842.20 0.1333
842.30 0.1332
842.40 0.1331
842.50 0.1331
842.60 0.133
842.70 0.1329
842.80 0.1329
842.90 0.1328
843.00 0.1328
843.10 0.1327
843.20 0.1326
843.30 0.1326
843.40 0.1325
843.50 0.1325
843.60 0.1324
843.70 0.1323
843.80 0.1323
843.90 0.1322
844.00 0.1322
844.10 0.1321
844.20 0.132
844.30 0.132
844.40 0.1319
844.50 0.1319
844.60 0.1318
844.70 0.1317
844.80 0.1317
844.90 0.1316
845.00 0.1315
845.10 0.1315
845.20 0.1314
845.30 0.1314
845.40 0.1313
845.50 0.1312
845.60 0.1312
845.70 0.1311
845.80 0.1311
845.90 0.131
846.00 0.1309
846.10 0.1309
846.20 0.1308
846.30 0.1308
846.40 0.1307
846.50 0.1306
846.60 0.1306
846.70 0.1305
846.80 0.1305
846.90 0.1304
847.00 0.1303
847.10 0.1303
847.20 0.1302
847.30 0.1302
847.40 0.1301
847.50 0.13
847.60 0.13
847.70 0.1299
847.80 0.1299
847.90 0.1298
848.00 0.1297
848.10 0.1297
848.20 0.1296
848.30 0.1296
848.40 0.1295
848.50 0.1294
848.60 0.1294
848.70 0.1293
848.80 0.1293
848.90 0.1292
849.00 0.1292
849.10 0.1291
849.20 0.129
849.30 0.129
849.40 0.1289
849.50 0.1289
849.60 0.1288
849.70 0.1287
849.80 0.1287
849.90 0.1286
850.00 0.1286
850.10 0.1285
850.20 0.1284
850.30 0.1284
850.40 0.1283
850.50 0.1283
850.60 0.1282
850.70 0.1281
850.80 0.1281
850.90 0.128
851.00 0.128
851.10 0.1279
851.20 0.1279
851.30 0.1278
851.40 0.1277
851.50 0.1277
851.60 0.1276
851.70 0.1276
851.80 0.1275
851.90 0.1274
852.00 0.1274
852.10 0.1273
852.20 0.1273
852.30 0.1272
852.40 0.1272
852.50 0.1271
852.60 0.127
852.70 0.127
852.80 0.1269
852.90 0.1269
853.00 0.1268
853.10 0.1268
853.20 0.1267
853.30 0.1266
853.40 0.1266
853.50 0.1265
853.60 0.1265
853.70 0.1264
853.80 0.1263
853.90 0.1263
854.00 0.1262
854.10 0.1262
854.20 0.1261
854.30 0.1261
854.40 0.126
854.50 0.1259
854.60 0.1259
854.70 0.1258
854.80 0.1258
854.90 0.1257
855.00 0.1257
855.10 0.1256
855.20 0.1255
855.30 0.1255
855.40 0.1254
855.50 0.1254
855.60 0.1253
855.70 0.1253
855.80 0.1252
855.90 0.1251
856.00 0.1251
856.10 0.125
856.20 0.125
856.30 0.1249
856.40 0.1249
856.50 0.1248
856.60 0.1247
856.70 0.1247
856.80 0.1246
856.90 0.1246
857.00 0.1245
857.10 0.1245
857.20 0.1244
857.30 0.1243
857.40 0.1243
857.50 0.1242
857.60 0.1242
857.70 0.1241
857.80 0.1241
857.90 0.124
858.00 0.124
858.10 0.1239
858.20 0.1238
858.30 0.1238
858.40 0.1237
858.50 0.1237
858.60 0.1236
858.70 0.1236
858.80 0.1235
858.90 0.1235
859.00 0.1234
859.10 0.1233
859.20 0.1233
859.30 0.1232
859.40 0.1232
859.50 0.1231
859.60 0.1231
859.70 0.123
859.80 0.123
859.90 0.1229
860.00 0.1228
860.10 0.1228
860.20 0.1227
860.30 0.1227
860.40 0.1226
860.50 0.1226
860.60 0.1225
860.70 0.1225
860.80 0.1224
860.90 0.1223
861.00 0.1223
861.10 0.1222
861.20 0.1222
861.30 0.1221
861.40 0.1221
861.50 0.122
861.60 0.122
861.70 0.1219
861.80 0.1218
861.90 0.1218
862.00 0.1217
862.10 0.1217
862.20 0.1216
862.30 0.1216
862.40 0.1215
862.50 0.1215
862.60 0.1214
862.70 0.1214
862.80 0.1213
862.90 0.1212
863.00 0.1212
863.10 0.1211
863.20 0.1211
863.30 0.121
863.40 0.121
863.50 0.1209
863.60 0.1209
863.70 0.1208
863.80 0.1208
863.90 0.1207
864.00 0.1206
864.10 0.1206
864.20 0.1205
864.30 0.1205
864.40 0.1204
864.50 0.1204
864.60 0.1203
864.70 0.1203
864.80 0.1202
864.90 0.1202
865.00 0.1201
865.10 0.1201
865.20 0.12
865.30 0.1199
865.40 0.1199
865.50 0.1198
865.60 0.1198
865.70 0.1197
865.80 0.1197
865.90 0.1196
866.00 0.1196
866.10 0.1195
866.20 0.1195
866.30 0.1194
866.40 0.1194
866.50 0.1193
866.60 0.1192
866.70 0.1192
866.80 0.1191
866.90 0.1191
867.00 0.119
867.10 0.119
867.20 0.1189
867.30 0.1189
867.40 0.1188
867.50 0.1188
867.60 0.1187
867.70 0.1187
867.80 0.1186
867.90 0.1186
868.00 0.1185
868.10 0.1184
868.20 0.1184
868.30 0.1183
868.40 0.1183
868.50 0.1182
868.60 0.1182
868.70 0.1181
868.80 0.1181
868.90 0.118
869.00 0.118
869.10 0.1179
869.20 0.1179
869.30 0.1178
869.40 0.1178
869.50 0.1177
869.60 0.1177
869.70 0.1176
869.80 0.1175
869.90 0.1175
870.00 0.1174
870.10 0.1174
870.20 0.1173
870.30 0.1173
870.40 0.1172
870.50 0.1172
870.60 0.1171
870.70 0.1171
870.80 0.117
870.90 0.117
871.00 0.1169
871.10 0.1169
871.20 0.1168
871.30 0.1168
871.40 0.1167
871.50 0.1167
871.60 0.1166
871.70 0.1166
871.80 0.1165
871.90 0.1164
872.00 0.1164
872.10 0.1163
872.20 0.1163
872.30 0.1162
872.40 0.1162
872.50 0.1161
872.60 0.1161
872.70 0.116
872.80 0.116
872.90 0.1159
873.00 0.1159
873.10 0.1158
873.20 0.1158
873.30 0.1157
873.40 0.1157
873.50 0.1156
873.60 0.1156
873.70 0.1155
873.80 0.1155
873.90 0.1154
874.00 0.1154
874.10 0.1153
874.20 0.1153
874.30 0.1152
874.40 0.1152
874.50 0.1151
874.60 0.1151
874.70 0.115
874.80 0.115
874.90 0.1149
875.00 0.1149
875.10 0.1148
875.20 0.1148
875.30 0.1147
875.40 0.1147
875.50 0.1146
875.60 0.1146
875.70 0.1145
875.80 0.1145
875.90 0.1144
876.00 0.1144
876.10 0.1143
876.20 0.1143
876.30 0.1142
876.40 0.1141
876.50 0.1141
876.60 0.114
876.70 0.114
876.80 0.1139
876.90 0.1139
877.00 0.1138
877.10 0.1138
877.20 0.1137
877.30 0.1137
877.40 0.1136
877.50 0.1136
877.60 0.1135
877.70 0.1135
877.80 0.1134
877.90 0.1134
878.00 0.1133
878.10 0.1133
878.20 0.1132
878.30 0.1132
878.40 0.1131
878.50 0.1131
878.60 0.113
878.70 0.113
878.80 0.1129
878.90 0.1129
879.00 0.1128
879.10 0.1128
879.20 0.1127
879.30 0.1127
879.40 0.1126
879.50 0.1126
879.60 0.1125
879.70 0.1125
879.80 0.1124
879.90 0.1124
880.00 0.1123
880.10 0.1123
880.20 0.1122
880.30 0.1122
880.40 0.1121
880.50 0.1121
880.60 0.1121
880.70 0.112
880.80 0.112
880.90 0.1119
881.00 0.1119
881.10 0.1118
881.20 0.1118
881.30 0.1117
881.40 0.1117
881.50 0.1116
881.60 0.1116
881.70 0.1115
881.80 0.1115
881.90 0.1114
882.00 0.1114
882.10 0.1113
882.20 0.1113
882.30 0.1112
882.40 0.1112
882.50 0.1111
882.60 0.1111
882.70 0.111
882.80 0.111
882.90 0.1109
883.00 0.1109
883.10 0.1108
883.20 0.1108
883.30 0.1107
883.40 0.1107
883.50 0.1106
883.60 0.1106
883.70 0.1105
883.80 0.1105
883.90 0.1104
884.00 0.1104
884.10 0.1103
884.20 0.1103
884.30 0.1102
884.40 0.1102
884.50 0.1102
884.60 0.1101
884.70 0.1101
884.80 0.11
884.90 0.11
885.00 0.1099
885.10 0.1099
885.20 0.1098
885.30 0.1098
885.40 0.1097
885.50 0.1097
885.60 0.1096
885.70 0.1096
885.80 0.1095
885.90 0.1095
886.00 0.1094
886.10 0.1094
886.20 0.1093
886.30 0.1093
886.40 0.1092
886.50 0.1092
886.60 0.1091
886.70 0.1091
886.80 0.1091
886.90 0.109
887.00 0.109
887.10 0.1089
887.20 0.1089
887.30 0.1088
887.40 0.1088
887.50 0.1087
887.60 0.1087
887.70 0.1086
887.80 0.1086
887.90 0.1085
888.00 0.1085
888.10 0.1084
888.20 0.1084
888.30 0.1083
888.40 0.1083
888.50 0.1082
888.60 0.1082
888.70 0.1082
888.80 0.1081
888.90 0.1081
889.00 0.108
889.10 0.108
889.20 0.1079
889.30 0.1079
889.40 0.1078
889.50 0.1078
889.60 0.1077
889.70 0.1077
889.80 0.1076
889.90 0.1076
890.00 0.1075
890.10 0.1075
890.20 0.1074
890.30 0.1074
890.40 0.1073
890.50 0.1073
890.60 0.1073
890.70 0.1072
890.80 0.1072
890.90 0.1071
891.00 0.1071
891.10 0.107
891.20 0.107
891.30 0.1069
891.40 0.1069
891.50 0.1068
891.60 0.1068
891.70 0.1067
891.80 0.1067
891.90 0.1066
892.00 0.1066
892.10 0.1066
892.20 0.1065
892.30 0.1065
892.40 0.1064
892.50 0.1064
892.60 0.1063
892.70 0.1063
892.80 0.1062
892.90 0.1062
893.00 0.1061
893.10 0.1061
893.20 0.106
893.30 0.106
893.40 0.1059
893.50 0.1059
893.60 0.1059
893.70 0.1058
893.80 0.1058
893.90 0.1057
894.00 0.1057
894.10 0.1056
894.20 0.1056
894.30 0.1055
894.40 0.1055
894.50 0.1054
894.60 0.1054
894.70 0.1053
894.80 0.1053
894.90 0.1053
895.00 0.1052
895.10 0.1052
895.20 0.1051
895.30 0.1051
895.40 0.105
895.50 0.105
895.60 0.1049
895.70 0.1049
895.80 0.1048
895.90 0.1048
896.00 0.1048
896.10 0.1047
896.20 0.1047
896.30 0.1046
896.40 0.1046
896.50 0.1045
896.60 0.1045
896.70 0.1044
896.80 0.1044
896.90 0.1043
897.00 0.1043
897.10 0.1042
897.20 0.1042
897.30 0.1042
897.40 0.1041
897.50 0.1041
897.60 0.104
897.70 0.104
897.80 0.1039
897.90 0.1039
898.00 0.1038
898.10 0.1038
898.20 0.1038
898.30 0.1037
898.40 0.1037
898.50 0.1036
898.60 0.1036
898.70 0.1035
898.80 0.1035
898.90 0.1034
899.00 0.1034
899.10 0.1034
899.20 0.1033
899.30 0.1033
899.40 0.1032
899.50 0.1032
899.60 0.1031
899.70 0.1031
899.80 0.1031
899.90 0.103
900.00 0.103
900.10 0.1029
900.20 0.1029
900.30 0.1028
900.40 0.1028
900.50 0.1027
900.60 0.1027
900.70 0.1027
900.80 0.1026
900.90 0.1026
901.00 0.1025
901.10 0.1025
901.20 0.1024
901.30 0.1024
901.40 0.1023
901.50 0.1023
901.60 0.1023
901.70 0.1022
901.80 0.1022
901.90 0.1021
902.00 0.1021
902.10 0.102
902.20 0.102
902.30 0.102
902.40 0.1019
902.50 0.1019
902.60 0.1018
902.70 0.1018
902.80 0.1017
902.90 0.1017
903.00 0.1017
903.10 0.1016
903.20 0.1016
903.30 0.1015
903.40 0.1015
903.50 0.1014
903.60 0.1014
903.70 0.1013
903.80 0.1013
903.90 0.1013
904.00 0.1012
904.10 0.1012
904.20 0.1011
904.30 0.1011
904.40 0.101
904.50 0.101
904.60 0.101
904.70 0.1009
904.80 0.1009
904.90 0.1008
905.00 0.1008
905.10 0.1007
905.20 0.1007
905.30 0.1007
905.40 0.1006
905.50 0.1006
905.60 0.1005
905.70 0.1005
905.80 0.1004
905.90 0.1004
906.00 0.1004
906.10 0.1003
906.20 0.1003
906.30 0.1002
906.40 0.1002
906.50 0.1001
906.60 0.1001
906.70 0.1001
906.80 0.1
906.90 0.09997
907.00 0.09993
907.10 0.09988
907.20 0.09984
907.30 0.0998
907.40 0.09976
907.50 0.09971
907.60 0.09967
907.70 0.09963
907.80 0.09959
907.90 0.09954
908.00 0.0995
908.10 0.09946
908.20 0.09942
908.30 0.09938
908.40 0.09933
908.50 0.09929
908.60 0.09925
908.70 0.09921
908.80 0.09916
908.90 0.09912
909.00 0.09908
909.10 0.09904
909.20 0.099
909.30 0.09895
909.40 0.09891
909.50 0.09887
909.60 0.09883
909.70 0.09879
909.80 0.09874
909.90 0.0987
910.00 0.09866
910.10 0.09862
910.20 0.09858
910.30 0.09853
910.40 0.09849
910.50 0.09845
910.60 0.09841
910.70 0.09837
910.80 0.09832
910.90 0.09828
911.00 0.09824
911.10 0.0982
911.20 0.09816
911.30 0.09812
911.40 0.09807
911.50 0.09803
911.60 0.09799
911.70 0.09795
911.80 0.09791
911.90 0.09787
912.00 0.09782
912.10 0.09778
912.20 0.09774
912.30 0.0977
912.40 0.09765
912.50 0.09761
912.60 0.09757
912.70 0.09753
912.80 0.09748
912.90 0.09744
913.00 0.0974
913.10 0.09736
913.20 0.09731
913.30 0.09727
913.40 0.09723
913.50 0.09719
913.60 0.09714
913.70 0.0971
913.80 0.09706
913.90 0.09702
914.00 0.09697
914.10 0.09693
914.20 0.09689
914.30 0.09685
914.40 0.0968
914.50 0.09676
914.60 0.09672
914.70 0.09668
914.80 0.09664
914.90 0.09659
915.00 0.09655
915.10 0.09651
915.20 0.09647
915.30 0.09643
915.40 0.09638
915.50 0.09634
915.60 0.0963
915.70 0.09626
915.80 0.09621
915.90 0.09617
916.00 0.09613
916.10 0.09609
916.20 0.09605
916.30 0.096
916.40 0.09596
916.50 0.09592
916.60 0.09588
916.70 0.09584
916.80 0.0958
916.90 0.09575
917.00 0.09571
917.10 0.09567
917.20 0.09563
917.30 0.09559
917.40 0.09555
917.50 0.0955
917.60 0.09546
917.70 0.09542
917.80 0.09538
917.90 0.09534
918.00 0.0953
918.10 0.09526
918.20 0.09521
918.30 0.09517
918.40 0.09513
918.50 0.09509
918.60 0.09505
918.70 0.09501
918.80 0.09497
918.90 0.09493
919.00 0.09488
919.10 0.09484
919.20 0.0948
919.30 0.09476
919.40 0.09472
919.50 0.09468
919.60 0.09464
919.70 0.0946
919.80 0.09456
919.90 0.09452
920.00 0.09447
920.10 0.09443
920.20 0.09439
920.30 0.09435
920.40 0.09431
920.50 0.09427
920.60 0.09423
920.70 0.09419
920.80 0.09415
920.90 0.09411
921.00 0.09406
921.10 0.09402
921.20 0.09398
921.30 0.09394
921.40 0.0939
921.50 0.09386
921.60 0.09382
921.70 0.09378
921.80 0.09374
921.90 0.0937
922.00 0.09366
922.10 0.09362
922.20 0.09358
922.30 0.09354
922.40 0.0935
922.50 0.09346
922.60 0.09343
922.70 0.09339
922.80 0.09335
922.90 0.09331
923.00 0.09327
923.10 0.09323
923.20 0.0932
923.30 0.09316
923.40 0.09312
923.50 0.09308
923.60 0.09304
923.70 0.093
923.80 0.09297
923.90 0.09293
924.00 0.09289
924.10 0.09285
924.20 0.09281
924.30 0.09277
924.40 0.09274
924.50 0.0927
924.60 0.09266
924.70 0.09262
924.80 0.09258
924.90 0.09255
925.00 0.09251
925.10 0.09247
925.20 0.09243
925.30 0.09239
925.40 0.09236
925.50 0.09232
925.60 0.09228
925.70 0.09224
925.80 0.0922
925.90 0.09217
926.00 0.09213
926.10 0.09209
926.20 0.09205
926.30 0.09201
926.40 0.09198
926.50 0.09194
926.60 0.0919
926.70 0.09186
926.80 0.09182
926.90 0.09179
927.00 0.09175
927.10 0.09171
927.20 0.09168
927.30 0.09164
927.40 0.0916
927.50 0.09157
927.60 0.09153
927.70 0.09149
927.80 0.09146
927.90 0.09142
928.00 0.09139
928.10 0.09135
928.20 0.09131
928.30 0.09128
928.40 0.09124
928.50 0.09121
928.60 0.09117
928.70 0.09113
928.80 0.0911
928.90 0.09106
929.00 0.09102
929.10 0.09099
929.20 0.09095
929.30 0.09092
929.40 0.09088
929.50 0.09084
929.60 0.09081
929.70 0.09077
929.80 0.09074
929.90 0.0907
930.00 0.09066
930.10 0.09063
930.20 0.09059
930.30 0.09056
930.40 0.09052
930.50 0.09048
930.60 0.09045
930.70 0.09041
930.80 0.09038
930.90 0.09034
931.00 0.09031
931.10 0.09027
931.20 0.09023
931.30 0.0902
931.40 0.09016
931.50 0.09013
931.60 0.09009
931.70 0.09006
931.80 0.09002
931.90 0.08998
932.00 0.08995
932.10 0.08991
932.20 0.08988
932.30 0.08984
932.40 0.0898
932.50 0.08977
932.60 0.08973
932.70 0.08969
932.80 0.08966
932.90 0.08962
933.00 0.08958
933.10 0.08955
933.20 0.08951
933.30 0.08948
933.40 0.08944
933.50 0.0894
933.60 0.08937
933.70 0.08933
933.80 0.08929
933.90 0.08926
934.00 0.08922
934.10 0.08919
934.20 0.08915
934.30 0.08911
934.40 0.08908
934.50 0.08904
934.60 0.089
934.70 0.08897
934.80 0.08893
934.90 0.0889
935.00 0.08886
935.10 0.08882
935.20 0.08879
935.30 0.08875
935.40 0.08871
935.50 0.08868
935.60 0.08864
935.70 0.0886
935.80 0.08857
935.90 0.08853
936.00 0.08849
936.10 0.08846
936.20 0.08842
936.30 0.08839
936.40 0.08835
936.50 0.08831
936.60 0.08828
936.70 0.08824
936.80 0.0882
936.90 0.08817
937.00 0.08813
937.10 0.0881
937.20 0.08806
937.30 0.08802
937.40 0.08799
937.50 0.08795
937.60 0.08791
937.70 0.08788
937.80 0.08784
937.90 0.0878
938.00 0.08777
938.10 0.08773
938.20 0.08769
938.30 0.08766
938.40 0.08762
938.50 0.08758
938.60 0.08755
938.70 0.08751
938.80 0.08747
938.90 0.08744
939.00 0.0874
939.10 0.08736
939.20 0.08733
939.30 0.08729
939.40 0.08725
939.50 0.08722
939.60 0.08718
939.70 0.08714
939.80 0.08711
939.90 0.08707
940.00 0.08703
940.10 0.087
940.20 0.08696
940.30 0.08693
940.40 0.08689
940.50 0.08685
940.60 0.08682
940.70 0.08678
940.80 0.08674
940.90 0.0867
941.00 0.08667
941.10 0.08663
941.20 0.08659
941.30 0.08656
941.40 0.08652
941.50 0.08648
941.60 0.08645
941.70 0.08641
941.80 0.08637
941.90 0.08634
942.00 0.0863
942.10 0.08626
942.20 0.08623
942.30 0.08619
942.40 0.08615
942.50 0.08612
942.60 0.08608
942.70 0.08604
942.80 0.086
942.90 0.08597
943.00 0.08593
943.10 0.08589
943.20 0.08586
943.30 0.08582
943.40 0.08578
943.50 0.08575
943.60 0.08571
943.70 0.08567
943.80 0.08563
943.90 0.0856
944.00 0.08556
944.10 0.08552
944.20 0.08549
944.30 0.08545
944.40 0.08541
944.50 0.08538
944.60 0.08534
944.70 0.0853
944.80 0.08526
944.90 0.08523
945.00 0.08519
945.10 0.08515
945.20 0.08511
945.30 0.08508
945.40 0.08504
945.50 0.085
945.60 0.08496
945.70 0.08493
945.80 0.08489
945.90 0.08485
946.00 0.08481
946.10 0.08478
946.20 0.08474
946.30 0.0847
946.40 0.08466
946.50 0.08462
946.60 0.08459
946.70 0.08455
946.80 0.08451
946.90 0.08447
947.00 0.08444
947.10 0.0844
947.20 0.08436
947.30 0.08432
947.40 0.08428
947.50 0.08425
947.60 0.08421
947.70 0.08417
947.80 0.08413
947.90 0.08409
948.00 0.08405
948.10 0.08402
948.20 0.08398
948.30 0.08394
948.40 0.0839
948.50 0.08386
948.60 0.08382
948.70 0.08379
948.80 0.08375
948.90 0.08371
949.00 0.08367
949.10 0.08363
949.20 0.08359
949.30 0.08356
949.40 0.08352
949.50 0.08348
949.60 0.08344
949.70 0.0834
949.80 0.08336
949.90 0.08332
950.00 0.08328
950.10 0.08325
950.20 0.08321
950.30 0.08317
950.40 0.08313
950.50 0.08309
950.60 0.08305
950.70 0.08301
950.80 0.08297
950.90 0.08294
951.00 0.0829
951.10 0.08286
951.20 0.08282
951.30 0.08278
951.40 0.08274
951.50 0.0827
951.60 0.08267
951.70 0.08263
951.80 0.08259
951.90 0.08255
952.00 0.08251
952.10 0.08248
952.20 0.08244
952.30 0.0824
952.40 0.08237
952.50 0.08233
952.60 0.08229
952.70 0.08225
952.80 0.08222
952.90 0.08218
953.00 0.08215
953.10 0.08211
953.20 0.08208
953.30 0.08205
953.40 0.08201
953.50 0.08198
953.60 0.08195
953.70 0.08192
953.80 0.08188
953.90 0.08185
954.00 0.08183
954.10 0.0818
954.20 0.08177
954.30 0.08175
954.40 0.08173
954.50 0.08171
954.60 0.08167
954.70 0.08164
954.80 0.0816
954.90 0.08155
955.00 0.08151
955.10 0.08147
955.20 0.08143
955.30 0.0814
955.40 0.08136
955.50 0.08132
955.60 0.08129
955.70 0.08125
955.80 0.08122
955.90 0.08118
956.00 0.08115
956.10 0.08112
956.20 0.08109
956.30 0.08106
956.40 0.08103
956.50 0.081
956.60 0.08097
956.70 0.08094
956.80 0.08091
956.90 0.08088
957.00 0.08085
957.10 0.08082
957.20 0.08079
957.30 0.08076
957.40 0.08074
957.50 0.08071
957.60 0.08068
957.70 0.08065
957.80 0.08062
957.90 0.0806
958.00 0.08057
958.10 0.08054
958.20 0.08051
958.30 0.08049
958.40 0.08046
958.50 0.08043
958.60 0.0804
958.70 0.08037
958.80 0.08035
958.90 0.08032
959.00 0.08029
959.10 0.08026
959.20 0.08024
959.30 0.08021
959.40 0.08018
959.50 0.08015
959.60 0.08012
959.70 0.08009
959.80 0.08007
959.90 0.08004
960.00 0.08001
960.10 0.07998
960.20 0.07995
960.30 0.07993
960.40 0.0799
960.50 0.07987
960.60 0.07984
960.70 0.07981
960.80 0.07978
960.90 0.07976
961.00 0.07973
961.10 0.0797
961.20 0.07967
961.30 0.07964
961.40 0.07962
961.50 0.07959
961.60 0.07956
961.70 0.07953
961.80 0.0795
961.90 0.07947
962.00 0.07944
962.10 0.07941
962.20 0.07939
962.30 0.07936
962.40 0.07933
962.50 0.0793
962.60 0.07927
962.70 0.07924
962.80 0.07921
962.90 0.07918
963.00 0.07915
963.10 0.07912
963.20 0.07909
963.30 0.07907
963.40 0.07904
963.50 0.07901
963.60 0.07898
963.70 0.07895
963.80 0.07892
963.90 0.07889
964.00 0.07886
964.10 0.07883
964.20 0.0788
964.30 0.07877
964.40 0.07874
964.50 0.07871
964.60 0.07868
964.70 0.07865
964.80 0.07862
964.90 0.07859
965.00 0.07856
965.10 0.07853
965.20 0.0785
965.30 0.07847
965.40 0.07845
965.50 0.07842
965.60 0.07839
965.70 0.07836
965.80 0.07833
965.90 0.0783
966.00 0.07827
966.10 0.07824
966.20 0.07821
966.30 0.07818
966.40 0.07815
966.50 0.07812
966.60 0.07809
966.70 0.07806
966.80 0.07803
966.90 0.078
967.00 0.07797
967.10 0.07794
967.20 0.07791
967.30 0.07788
967.40 0.07785
967.50 0.07782
967.60 0.07779
967.70 0.07776
967.80 0.07773
967.90 0.0777
968.00 0.07767
968.10 0.07764
968.20 0.07761
968.30 0.07758
968.40 0.07755
968.50 0.07752
968.60 0.07749
968.70 0.07746
968.80 0.07743
968.90 0.0774
969.00 0.07737
969.10 0.07734
969.20 0.07731
969.30 0.07728
969.40 0.07725
969.50 0.07722
969.60 0.07719
969.70 0.07716
969.80 0.07713
969.90 0.0771
970.00 0.07707
970.10 0.07704
970.20 0.07701
970.30 0.07698
970.40 0.07695
970.50 0.07692
970.60 0.07689
970.70 0.07686
970.80 0.07683
970.90 0.0768
971.00 0.07677
971.10 0.07674
971.20 0.07671
971.30 0.07668
971.40 0.07665
971.50 0.07662
971.60 0.07659
971.70 0.07655
971.80 0.07652
971.90 0.07649
972.00 0.07646
972.10 0.07643
972.20 0.0764
972.30 0.07637
972.40 0.07634
972.50 0.07631
972.60 0.07628
972.70 0.07625
972.80 0.07622
972.90 0.07619
973.00 0.07616
973.10 0.07613
973.20 0.0761
973.30 0.07607
973.40 0.07604
973.50 0.07601
973.60 0.07598
973.70 0.07595
973.80 0.07592
973.90 0.07589
974.00 0.07586
974.10 0.07583
974.20 0.0758
974.30 0.07577
974.40 0.07574
974.50 0.07571
974.60 0.07568
974.70 0.07565
974.80 0.07562
974.90 0.07559
975.00 0.07556
975.10 0.07553
975.20 0.0755
975.30 0.07547
975.40 0.07544
975.50 0.07541
975.60 0.07538
975.70 0.07536
975.80 0.07533
975.90 0.0753
976.00 0.07527
976.10 0.07524
976.20 0.07521
976.30 0.07518
976.40 0.07515
976.50 0.07512
976.60 0.07509
976.70 0.07506
976.80 0.07503
976.90 0.075
977.00 0.07497
977.10 0.07494
977.20 0.07491
977.30 0.07488
977.40 0.07485
977.50 0.07482
977.60 0.07479
977.70 0.07476
977.80 0.07473
977.90 0.0747
978.00 0.07467
978.10 0.07464
978.20 0.07461
978.30 0.07458
978.40 0.07455
978.50 0.07452
978.60 0.07449
978.70 0.07446
978.80 0.07443
978.90 0.0744
979.00 0.07437
979.10 0.07434
979.20 0.07431
979.30 0.07429
979.40 0.07426
979.50 0.07423
979.60 0.0742
979.70 0.07417
979.80 0.07414
979.90 0.07411
980.00 0.07408
980.10 0.07405
980.20 0.07402
980.30 0.07399
980.40 0.07396
980.50 0.07393
980.60 0.0739
980.70 0.07387
980.80 0.07384
980.90 0.07381
981.00 0.07378
981.10 0.07375
981.20 0.07373
981.30 0.0737
981.40 0.07367
981.50 0.07364
981.60 0.07361
981.70 0.07358
981.80 0.07355
981.90 0.07352
982.00 0.07349
982.10 0.07346
982.20 0.07343
982.30 0.0734
982.40 0.07337
982.50 0.07334
982.60 0.07331
982.70 0.07329
982.80 0.07326
982.90 0.07323
983.00 0.0732
983.10 0.07317
983.20 0.07314
983.30 0.07311
983.40 0.07308
983.50 0.07305
983.60 0.07302
983.70 0.07299
983.80 0.07296
983.90 0.07293
984.00 0.07291
984.10 0.07288
984.20 0.07285
984.30 0.07282
984.40 0.07279
984.50 0.07276
984.60 0.07273
984.70 0.0727
984.80 0.07267
984.90 0.07264
985.00 0.07261
985.10 0.07258
985.20 0.07256
985.30 0.07253
985.40 0.0725
985.50 0.07247
985.60 0.07244
985.70 0.07241
985.80 0.07238
985.90 0.07235
986.00 0.07232
986.10 0.07229
986.20 0.07226
986.30 0.07224
986.40 0.07221
986.50 0.07218
986.60 0.07215
986.70 0.07212
986.80 0.07209
986.90 0.07206
987.00 0.07203
987.10 0.072
987.20 0.07197
987.30 0.07195
987.40 0.07192
987.50 0.07189
987.60 0.07186
987.70 0.07183
987.80 0.0718
987.90 0.07177
988.00 0.07174
988.10 0.07171
988.20 0.07168
988.30 0.07166
988.40 0.07163
988.50 0.0716
988.60 0.07157
988.70 0.07154
988.80 0.07151
988.90 0.07148
989.00 0.07145
989.10 0.07142
989.20 0.07139
989.30 0.07136
989.40 0.07133
989.50 0.07131
989.60 0.07128
989.70 0.07125
989.80 0.07122
989.90 0.07119
990.00 0.07116
990.10 0.07113
990.20 0.0711
990.30 0.07107
990.40 0.07104
990.50 0.07101
990.60 0.07099
990.70 0.07096
990.80 0.07093
990.90 0.0709
991.00 0.07087
991.10 0.07084
991.20 0.07081
991.30 0.07078
991.40 0.07075
991.50 0.07072
991.60 0.07069
991.70 0.07066
991.80 0.07063
991.90 0.07061
992.00 0.07058
992.10 0.07055
992.20 0.07052
992.30 0.07049
992.40 0.07046
992.50 0.07043
992.60 0.0704
992.70 0.07037
992.80 0.07034
992.90 0.07031
993.00 0.07028
993.10 0.07025
993.20 0.07022
993.30 0.07019
993.40 0.07016
993.50 0.07013
993.60 0.0701
993.70 0.07007
993.80 0.07004
993.90 0.07001
994.00 0.06998
994.10 0.06995
994.20 0.06992
994.30 0.06989
994.40 0.06986
994.50 0.06983
994.60 0.0698
994.70 0.06977
994.80 0.06974
994.90 0.06971
995.00 0.06968
995.10 0.06965
995.20 0.06962
995.30 0.06959
995.40 0.06956
995.50 0.06953
995.60 0.0695
995.70 0.06947
995.80 0.06944
995.90 0.06941
996.00 0.06938
996.10 0.06935
996.20 0.06931
996.30 0.06928
996.40 0.06925
996.50 0.06922
996.60 0.06919
996.70 0.06916
996.80 0.06913
996.90 0.0691
997.00 0.06907
997.10 0.06904
997.20 0.069
997.30 0.06897
997.40 0.06894
997.50 0.06891
997.60 0.06888
997.70 0.06884
997.80 0.06881
997.90 0.06878
998.00 0.06874
998.10 0.06871
998.20 0.06868
998.30 0.06865
998.40 0.06861
998.50 0.06858
998.60 0.06855
998.70 0.06851
998.80 0.06848
998.90 0.06845
999.00 0.06841
999.10 0.06838
999.20 0.06835
999.30 0.06832
999.40 0.06828
999.50 0.06825
999.60 0.06822
999.70 0.06818
999.80 0.06815
999.90 0.06811
1000.00 0.06807
1000.10 0.06804
1000.20 0.068
1000.30 0.06797
1000.40 0.06793
1000.50 0.0679
1000.60 0.06786
1000.70 0.06782
1000.80 0.06779
1000.90 0.06775
1001.00 0.06772
1001.10 0.06768
1001.20 0.06765
1001.30 0.06761
1001.40 0.06758
1001.50 0.06754
1001.60 0.0675
1001.70 0.06747
1001.80 0.06743
1001.90 0.0674
1002.00 0.06736
1002.10 0.06733
1002.20 0.06729
1002.30 0.06726
1002.40 0.06722
1002.50 0.06719
1002.60 0.06715
1002.70 0.06712
1002.80 0.06708
1002.90 0.06705
1003.00 0.06701
1003.10 0.06698
1003.20 0.06695
1003.30 0.06692
1003.40 0.06689
1003.50 0.06686
1003.60 0.06683
1003.70 0.0668
1003.80 0.06677
1003.90 0.06675
1004.00 0.06674
1004.10 0.06672
1004.20 0.0667
1004.30 0.0667
1004.40 0.0667
1004.50 0.0667
1004.60 0.06671
1004.70 0.06673
1004.80 0.06674
1004.90 0.06671
1005.00 0.06669
1005.10 0.06664
1005.20 0.06658
1005.30 0.06652
1005.40 0.06646
1005.50 0.06641
1005.60 0.06638
1005.70 0.06634
1005.80 0.0663
1005.90 0.06626
1006.00 0.06622
1006.10 0.06619
1006.20 0.06616
1006.30 0.06614
1006.40 0.06612
1006.50 0.0661
1006.60 0.06608
1006.70 0.06606
1006.80 0.06604
1006.90 0.06602
1007.00 0.066
1007.10 0.06598
1007.20 0.06596
1007.30 0.06595
1007.40 0.06593
1007.50 0.06592
1007.60 0.0659
1007.70 0.06588
1007.80 0.06587
1007.90 0.06585
1008.00 0.06583
1008.10 0.06582
1008.20 0.0658
1008.30 0.06578
1008.40 0.06577
1008.50 0.06575
1008.60 0.06573
1008.70 0.06572
1008.80 0.0657
1008.90 0.06569
1009.00 0.06567
1009.10 0.06565
1009.20 0.06564
1009.30 0.06562
1009.40 0.0656
1009.50 0.06559
1009.60 0.06557
1009.70 0.06555
1009.80 0.06553
1009.90 0.06552
1010.00 0.0655
1010.10 0.06548
1010.20 0.06546
1010.30 0.06544
1010.40 0.06542
1010.50 0.0654
1010.60 0.06538
1010.70 0.06537
1010.80 0.06535
1010.90 0.06533
1011.00 0.06531
1011.10 0.06529
1011.20 0.06527
1011.30 0.06525
1011.40 0.06523
1011.50 0.06522
1011.60 0.0652
1011.70 0.06518
1011.80 0.06516
1011.90 0.06514
1012.00 0.06512
1012.10 0.0651
1012.20 0.06508
1012.30 0.06506
1012.40 0.06503
1012.50 0.06501
1012.60 0.06499
1012.70 0.06497
1012.80 0.06495
1012.90 0.06493
1013.00 0.06491
1013.10 0.06489
1013.20 0.06487
1013.30 0.06485
1013.40 0.06483
1013.50 0.0648
1013.60 0.06478
1013.70 0.06476
1013.80 0.06474
1013.90 0.06472
1014.00 0.0647
1014.10 0.06468
1014.20 0.06465
1014.30 0.06463
1014.40 0.06461
1014.50 0.06459
1014.60 0.06457
1014.70 0.06454
1014.80 0.06452
1014.90 0.0645
1015.00 0.06448
1015.10 0.06445
1015.20 0.06443
1015.30 0.06441
1015.40 0.06439
1015.50 0.06436
1015.60 0.06434
1015.70 0.06432
1015.80 0.0643
1015.90 0.06427
1016.00 0.06425
1016.10 0.06423
1016.20 0.06421
1016.30 0.06418
1016.40 0.06416
1016.50 0.06414
1016.60 0.06412
1016.70 0.06409
1016.80 0.06407
1016.90 0.06405
1017.00 0.06403
1017.10 0.064
1017.20 0.06398
1017.30 0.06396
1017.40 0.06393
1017.50 0.06391
1017.60 0.06389
1017.70 0.06386
1017.80 0.06384
1017.90 0.06382
1018.00 0.0638
1018.10 0.06377
1018.20 0.06375
1018.30 0.06373
1018.40 0.0637
1018.50 0.06368
1018.60 0.06366
1018.70 0.06363
1018.80 0.06361
1018.90 0.06359
1019.00 0.06356
1019.10 0.06354
1019.20 0.06352
1019.30 0.06349
1019.40 0.06347
1019.50 0.06345
1019.60 0.06342
1019.70 0.0634
1019.80 0.06338
1019.90 0.06335
1020.00 0.06333
1020.10 0.06331
1020.20 0.06329
1020.30 0.06326
1020.40 0.06324
1020.50 0.06322
1020.60 0.06319
1020.70 0.06317
1020.80 0.06315
1020.90 0.06312
1021.00 0.0631
1021.10 0.06308
1021.20 0.06305
1021.30 0.06303
1021.40 0.06301
1021.50 0.06298
1021.60 0.06296
1021.70 0.06294
1021.80 0.06291
1021.90 0.06289
1022.00 0.06287
1022.10 0.06284
1022.20 0.06282
1022.30 0.06279
1022.40 0.06277
1022.50 0.06275
1022.60 0.06272
1022.70 0.0627
1022.80 0.06268
1022.90 0.06265
1023.00 0.06263
1023.10 0.06261
1023.20 0.06258
1023.30 0.06256
1023.40 0.06254
1023.50 0.06251
1023.60 0.06249
1023.70 0.06247
1023.80 0.06244
1023.90 0.06242
1024.00 0.0624
1024.10 0.06237
1024.20 0.06235
1024.30 0.06233
1024.40 0.0623
1024.50 0.06228
1024.60 0.06226
1024.70 0.06223
1024.80 0.06221
1024.90 0.06219
1025.00 0.06216
1025.10 0.06214
1025.20 0.06212
1025.30 0.06209
1025.40 0.06207
1025.50 0.06205
1025.60 0.06203
1025.70 0.062
1025.80 0.06198
1025.90 0.06196
1026.00 0.06193
1026.10 0.06191
1026.20 0.06189
1026.30 0.06186
1026.40 0.06184
1026.50 0.06182
1026.60 0.06179
1026.70 0.06177
1026.80 0.06175
1026.90 0.06172
1027.00 0.0617
1027.10 0.06168
1027.20 0.06165
1027.30 0.06163
1027.40 0.06161
1027.50 0.06158
1027.60 0.06156
1027.70 0.06154
1027.80 0.06152
1027.90 0.06149
1028.00 0.06147
1028.10 0.06145
1028.20 0.06142
1028.30 0.0614
1028.40 0.06138
1028.50 0.06135
1028.60 0.06133
1028.70 0.06131
1028.80 0.06128
1028.90 0.06126
1029.00 0.06124
1029.10 0.06122
1029.20 0.06119
1029.30 0.06117
1029.40 0.06115
1029.50 0.06112
1029.60 0.0611
1029.70 0.06108
1029.80 0.06105
1029.90 0.06103
1030.00 0.06101
1030.10 0.06099
1030.20 0.06096
1030.30 0.06094
1030.40 0.06092
1030.50 0.06089
1030.60 0.06087
1030.70 0.06085
1030.80 0.06083
1030.90 0.0608
1031.00 0.06078
1031.10 0.06076
1031.20 0.06073
1031.30 0.06071
1031.40 0.06069
1031.50 0.06067
1031.60 0.06064
1031.70 0.06062
1031.80 0.0606
1031.90 0.06057
1032.00 0.06055
1032.10 0.06053
1032.20 0.06051
1032.30 0.06048
1032.40 0.06046
1032.50 0.06044
1032.60 0.06042
1032.70 0.06039
1032.80 0.06037
1032.90 0.06035
1033.00 0.06033
1033.10 0.0603
1033.20 0.06028
1033.30 0.06026
1033.40 0.06023
1033.50 0.06021
1033.60 0.06019
1033.70 0.06017
1033.80 0.06014
1033.90 0.06012
1034.00 0.0601
1034.10 0.06008
1034.20 0.06005
1034.30 0.06003
1034.40 0.06001
1034.50 0.05999
1034.60 0.05996
1034.70 0.05994
1034.80 0.05992
1034.90 0.0599
1035.00 0.05987
1035.10 0.05985
1035.20 0.05983
1035.30 0.05981
1035.40 0.05978
1035.50 0.05976
1035.60 0.05974
1035.70 0.05972
1035.80 0.05969
1035.90 0.05967
1036.00 0.05965
1036.10 0.05963
1036.20 0.0596
1036.30 0.05958
1036.40 0.05956
1036.50 0.05954
1036.60 0.05952
1036.70 0.05949
1036.80 0.05947
1036.90 0.05945
1037.00 0.05943
1037.10 0.0594
1037.20 0.05938
1037.30 0.05936
1037.40 0.05934
1037.50 0.05931
1037.60 0.05929
1037.70 0.05927
1037.80 0.05925
1037.90 0.05923
1038.00 0.0592
1038.10 0.05918
1038.20 0.05916
1038.30 0.05914
1038.40 0.05912
1038.50 0.05909
1038.60 0.05907
1038.70 0.05905
1038.80 0.05903
1038.90 0.059
1039.00 0.05898
1039.10 0.05896
1039.20 0.05894
1039.30 0.05892
1039.40 0.05889
1039.50 0.05887
1039.60 0.05885
1039.70 0.05883
1039.80 0.05881
1039.90 0.05878
1040.00 0.05876
1040.10 0.05874
1040.20 0.05872
1040.30 0.0587
1040.40 0.05867
1040.50 0.05865
1040.60 0.05863
1040.70 0.05861
1040.80 0.05859
1040.90 0.05856
1041.00 0.05854
1041.10 0.05852
1041.20 0.0585
1041.30 0.05848
1041.40 0.05845
1041.50 0.05843
1041.60 0.05841
1041.70 0.05839
1041.80 0.05837
1041.90 0.05835
1042.00 0.05832
1042.10 0.0583
1042.20 0.05828
1042.30 0.05826
1042.40 0.05824
1042.50 0.05822
1042.60 0.05819
1042.70 0.05817
1042.80 0.05815
1042.90 0.05813
1043.00 0.05811
1043.10 0.05809
1043.20 0.05806
1043.30 0.05804
1043.40 0.05802
1043.50 0.058
1043.60 0.05798
1043.70 0.05796
1043.80 0.05793
1043.90 0.05791
1044.00 0.05789
1044.10 0.05787
1044.20 0.05785
1044.30 0.05783
1044.40 0.0578
1044.50 0.05778
1044.60 0.05776
1044.70 0.05774
1044.80 0.05772
1044.90 0.0577
1045.00 0.05767
1045.10 0.05765
1045.20 0.05763
1045.30 0.05761
1045.40 0.05759
1045.50 0.05757
1045.60 0.05755
1045.70 0.05752
1045.80 0.0575
1045.90 0.05748
1046.00 0.05746
1046.10 0.05744
1046.20 0.05742
1046.30 0.0574
1046.40 0.05737
1046.50 0.05735
1046.60 0.05733
1046.70 0.05731
1046.80 0.05729
1046.90 0.05727
1047.00 0.05725
1047.10 0.05722
1047.20 0.0572
1047.30 0.05718
1047.40 0.05716
1047.50 0.05714
1047.60 0.05712
1047.70 0.0571
1047.80 0.05708
1047.90 0.05705
1048.00 0.05703
1048.10 0.05701
1048.20 0.05699
1048.30 0.05697
1048.40 0.05695
1048.50 0.05693
1048.60 0.05691
1048.70 0.05689
1048.80 0.05686
1048.90 0.05684
1049.00 0.05682
1049.10 0.0568
1049.20 0.05678
1049.30 0.05676
1049.40 0.05674
1049.50 0.05672
1049.60 0.0567
1049.70 0.05667
1049.80 0.05665
1049.90 0.05663
1050.00 0.05661
1050.10 0.05659
1050.20 0.05657
1050.30 0.05655
1050.40 0.05653
1050.50 0.05651
1050.60 0.05649
1050.70 0.05646
1050.80 0.05644
1050.90 0.05642
1051.00 0.0564
1051.10 0.05638
1051.20 0.05636
1051.30 0.05634
1051.40 0.05632
1051.50 0.0563
1051.60 0.05628
1051.70 0.05625
1051.80 0.05623
1051.90 0.05621
1052.00 0.05619
1052.10 0.05617
1052.20 0.05615
1052.30 0.05613
1052.40 0.05611
1052.50 0.05609
1052.60 0.05607
1052.70 0.05605
1052.80 0.05603
1052.90 0.05601
1053.00 0.05598
1053.10 0.05596
1053.20 0.05594
1053.30 0.05592
1053.40 0.0559
1053.50 0.05588
1053.60 0.05586
1053.70 0.05584
1053.80 0.05582
1053.90 0.0558
1054.00 0.05578
1054.10 0.05576
1054.20 0.05574
1054.30 0.05572
1054.40 0.05569
1054.50 0.05567
1054.60 0.05565
1054.70 0.05563
1054.80 0.05561
1054.90 0.05559
1055.00 0.05557
1055.10 0.05555
1055.20 0.05553
1055.30 0.05551
1055.40 0.05549
1055.50 0.05547
1055.60 0.05545
1055.70 0.05543
1055.80 0.05541
1055.90 0.05539
1056.00 0.05537
1056.10 0.05535
1056.20 0.05532
1056.30 0.0553
1056.40 0.05528
1056.50 0.05526
1056.60 0.05524
1056.70 0.05522
1056.80 0.0552
1056.90 0.05518
1057.00 0.05516
1057.10 0.05514
1057.20 0.05512
1057.30 0.0551
1057.40 0.05508
1057.50 0.05506
1057.60 0.05504
1057.70 0.05502
1057.80 0.055
1057.90 0.05498
1058.00 0.05496
1058.10 0.05494
1058.20 0.05492
1058.30 0.0549
1058.40 0.05488
1058.50 0.05486
1058.60 0.05484
1058.70 0.05482
1058.80 0.0548
1058.90 0.05478
1059.00 0.05476
1059.10 0.05474
1059.20 0.05472
1059.30 0.0547
1059.40 0.05467
1059.50 0.05465
1059.60 0.05463
1059.70 0.05461
1059.80 0.05459
1059.90 0.05457
1060.00 0.05455
1060.10 0.05453
1060.20 0.05451
1060.30 0.05449
1060.40 0.05447
1060.50 0.05445
1060.60 0.05443
1060.70 0.05441
1060.80 0.05439
1060.90 0.05437
1061.00 0.05435
1061.10 0.05433
1061.20 0.05431
1061.30 0.05429
1061.40 0.05427
1061.50 0.05425
1061.60 0.05423
1061.70 0.05421
1061.80 0.05419
1061.90 0.05417
1062.00 0.05415
1062.10 0.05413
1062.20 0.05411
1062.30 0.05409
1062.40 0.05407
1062.50 0.05405
1062.60 0.05403
1062.70 0.05401
1062.80 0.05399
1062.90 0.05397
1063.00 0.05395
1063.10 0.05393
1063.20 0.05391
1063.30 0.05389
1063.40 0.05387
1063.50 0.05385
1063.60 0.05383
1063.70 0.05381
1063.80 0.0538
1063.90 0.05378
1064.00 0.05376
1064.10 0.05374
1064.20 0.05372
1064.30 0.0537
1064.40 0.05368
1064.50 0.05366
1064.60 0.05364
1064.70 0.05362
1064.80 0.0536
1064.90 0.05358
1065.00 0.05356
1065.10 0.05354
1065.20 0.05352
1065.30 0.0535
1065.40 0.05348
1065.50 0.05346
1065.60 0.05344
1065.70 0.05342
1065.80 0.0534
1065.90 0.05338
1066.00 0.05336
1066.10 0.05334
1066.20 0.05332
1066.30 0.0533
1066.40 0.05328
1066.50 0.05326
1066.60 0.05324
1066.70 0.05322
1066.80 0.0532
1066.90 0.05318
1067.00 0.05316
1067.10 0.05315
1067.20 0.05313
1067.30 0.05311
1067.40 0.05309
1067.50 0.05307
1067.60 0.05305
1067.70 0.05303
1067.80 0.05301
1067.90 0.05299
1068.00 0.05297
1068.10 0.05295
1068.20 0.05293
1068.30 0.05291
1068.40 0.05289
1068.50 0.05287
1068.60 0.05285
1068.70 0.05283
1068.80 0.05281
1068.90 0.05279
1069.00 0.05277
1069.10 0.05276
1069.20 0.05274
1069.30 0.05272
1069.40 0.0527
1069.50 0.05268
1069.60 0.05266
1069.70 0.05264
1069.80 0.05262
1069.90 0.0526
1070.00 0.05258
1070.10 0.05256
1070.20 0.05254
1070.30 0.05252
1070.40 0.0525
1070.50 0.05248
1070.60 0.05246
1070.70 0.05245
1070.80 0.05243
1070.90 0.05241
1071.00 0.05239
1071.10 0.05237
1071.20 0.05235
1071.30 0.05233
1071.40 0.05231
1071.50 0.05229
1071.60 0.05227
1071.70 0.05225
1071.80 0.05223
1071.90 0.05221
1072.00 0.05219
1072.10 0.05218
1072.20 0.05216
1072.30 0.05214
1072.40 0.05212
1072.50 0.0521
1072.60 0.05208
1072.70 0.05206
1072.80 0.05204
1072.90 0.05202
1073.00 0.052
1073.10 0.05198
1073.20 0.05196
1073.30 0.05195
1073.40 0.05193
1073.50 0.05191
1073.60 0.05189
1073.70 0.05187
1073.80 0.05185
1073.90 0.05183
1074.00 0.05181
1074.10 0.05179
1074.20 0.05177
1074.30 0.05175
1074.40 0.05173
1074.50 0.05171
1074.60 0.0517
1074.70 0.05168
1074.80 0.05166
1074.90 0.05164
1075.00 0.05162
1075.10 0.0516
1075.20 0.05158
1075.30 0.05156
1075.40 0.05154
1075.50 0.05152
1075.60 0.0515
1075.70 0.05148
1075.80 0.05147
1075.90 0.05145
1076.00 0.05143
1076.10 0.05141
1076.20 0.05139
1076.30 0.05137
1076.40 0.05135
1076.50 0.05133
1076.60 0.05131
1076.70 0.05129
1076.80 0.05127
1076.90 0.05126
1077.00 0.05124
1077.10 0.05122
1077.20 0.0512
1077.30 0.05118
1077.40 0.05116
1077.50 0.05114
1077.60 0.05112
1077.70 0.0511
1077.80 0.05108
1077.90 0.05106
1078.00 0.05104
1078.10 0.05103
1078.20 0.05101
1078.30 0.05099
1078.40 0.05097
1078.50 0.05095
1078.60 0.05093
1078.70 0.05091
1078.80 0.05089
1078.90 0.05087
1079.00 0.05085
1079.10 0.05083
1079.20 0.05081
1079.30 0.05079
1079.40 0.05078
1079.50 0.05076
1079.60 0.05074
1079.70 0.05072
1079.80 0.0507
1079.90 0.05068
1080.00 0.05066
1080.10 0.05064
1080.20 0.05062
1080.30 0.0506
1080.40 0.05058
1080.50 0.05056
1080.60 0.05054
1080.70 0.05052
1080.80 0.0505
1080.90 0.05048
1081.00 0.05046
1081.10 0.05044
1081.20 0.05043
1081.30 0.05041
1081.40 0.05039
1081.50 0.05037
1081.60 0.05035
1081.70 0.05033
1081.80 0.05031
1081.90 0.05029
1082.00 0.05027
1082.10 0.05025
1082.20 0.05023
1082.30 0.05021
1082.40 0.05019
1082.50 0.05017
1082.60 0.05015
1082.70 0.05013
1082.80 0.05011
1082.90 0.05009
1083.00 0.05007
1083.10 0.05005
1083.20 0.05003
1083.30 0.05001
1083.40 0.04999
1083.50 0.04997
1083.60 0.04995
1083.70 0.04993
1083.80 0.04991
1083.90 0.04989
1084.00 0.04987
1084.10 0.04984
1084.20 0.04982
1084.30 0.0498
1084.40 0.04978
1084.50 0.04976
1084.60 0.04974
1084.70 0.04972
1084.80 0.0497
1084.90 0.04967
1085.00 0.04965
1085.10 0.04963
1085.20 0.04961
1085.30 0.04959
1085.40 0.04957
1085.50 0.04954
1085.60 0.04952
1085.70 0.0495
1085.80 0.04948
1085.90 0.04946
1086.00 0.04944
1086.10 0.04942
1086.20 0.04939
1086.30 0.04937
1086.40 0.04935
1086.50 0.04933
1086.60 0.04931
1086.70 0.04928
1086.80 0.04926
1086.90 0.04924
1087.00 0.04921
1087.10 0.04919
1087.20 0.04917
1087.30 0.04914
1087.40 0.04912
1087.50 0.04909
1087.60 0.04907
1087.70 0.04904
1087.80 0.04902
1087.90 0.049
1088.00 0.04897
1088.10 0.04895
1088.20 0.04892
1088.30 0.0489
1088.40 0.04887
1088.50 0.04885
1088.60 0.04882
1088.70 0.04879
1088.80 0.04877
1088.90 0.04874
1089.00 0.04871
1089.10 0.04869
1089.20 0.04866
1089.30 0.04863
1089.40 0.0486
1089.50 0.04858
1089.60 0.04855
1089.70 0.04852
1089.80 0.0485
1089.90 0.04847
1090.00 0.04844
1090.10 0.04842
1090.20 0.04839
1090.30 0.04836
1090.40 0.04833
1090.50 0.04831
1090.60 0.04828
1090.70 0.04825
1090.80 0.04822
1090.90 0.0482
1091.00 0.04817
1091.10 0.04814
1091.20 0.04811
1091.30 0.04808
1091.40 0.04806
1091.50 0.04803
1091.60 0.048
1091.70 0.04797
1091.80 0.04795
1091.90 0.04792
1092.00 0.04789
1092.10 0.04787
1092.20 0.04785
1092.30 0.04783
1092.40 0.04781
1092.50 0.04779
1092.60 0.04777
1092.70 0.04776
1092.80 0.04775
1092.90 0.04775
1093.00 0.04774
1093.10 0.04774
1093.20 0.04775
1093.30 0.04776
1093.40 0.04777
1093.50 0.0478
1093.60 0.04786
1093.70 0.0479
1093.80 0.04792
1093.90 0.04791
1094.00 0.04783
1094.10 0.04775
1094.20 0.04766
1094.30 0.04759
1094.40 0.04756
1094.50 0.04753
1094.60 0.04749
1094.70 0.04746
1094.80 0.04743
1094.90 0.0474
1095.00 0.04737
1095.10 0.04736
1095.20 0.04735
1095.30 0.04734
1095.40 0.04733
1095.50 0.04732
1095.60 0.04731
1095.70 0.0473
1095.80 0.04729
1095.90 0.04728
1096.00 0.04727
1096.10 0.04726
1096.20 0.04725
1096.30 0.04724
1096.40 0.04723
1096.50 0.04722
1096.60 0.04722
1096.70 0.04721
1096.80 0.04721
1096.90 0.0472
1097.00 0.0472
1097.10 0.04719
1097.20 0.04718
1097.30 0.04718
1097.40 0.04717
1097.50 0.04716
1097.60 0.04716
1097.70 0.04715
1097.80 0.04714
1097.90 0.04714
1098.00 0.04713
1098.10 0.04712
1098.20 0.04712
1098.30 0.04711
1098.40 0.0471
1098.50 0.0471
1098.60 0.04709
1098.70 0.04708
1098.80 0.04707
1098.90 0.04706
1099.00 0.04705
1099.10 0.04704
1099.20 0.04703
1099.30 0.04702
1099.40 0.04701
1099.50 0.047
1099.60 0.04699
1099.70 0.04698
1099.80 0.04697
1099.90 0.04696
1100.00 0.04695
1100.10 0.04694
1100.20 0.04693
1100.30 0.04692
1100.40 0.04692
1100.50 0.04691
1100.60 0.04689
1100.70 0.04688
1100.80 0.04687
1100.90 0.04686
1101.00 0.04684
1101.10 0.04683
1101.20 0.04682
1101.30 0.04681
1101.40 0.0468
1101.50 0.04678
1101.60 0.04677
1101.70 0.04676
1101.80 0.04675
1101.90 0.04674
1102.00 0.04672
1102.10 0.04671
1102.20 0.0467
1102.30 0.04668
1102.40 0.04667
1102.50 0.04666
1102.60 0.04664
1102.70 0.04663
1102.80 0.04662
1102.90 0.0466
1103.00 0.04659
1103.10 0.04658
1103.20 0.04656
1103.30 0.04655
1103.40 0.04654
1103.50 0.04652
1103.60 0.04651
1103.70 0.04649
1103.80 0.04648
1103.90 0.04646
1104.00 0.04645
1104.10 0.04644
1104.20 0.04642
1104.30 0.04641
1104.40 0.04639
1104.50 0.04638
1104.60 0.04636
1104.70 0.04635
1104.80 0.04633
1104.90 0.04632
1105.00 0.04631
1105.10 0.04629
1105.20 0.04628
1105.30 0.04626
1105.40 0.04625
1105.50 0.04623
1105.60 0.04622
1105.70 0.0462
1105.80 0.04619
1105.90 0.04617
1106.00 0.04616
1106.10 0.04614
1106.20 0.04613
1106.30 0.04611
1106.40 0.0461
1106.50 0.04608
1106.60 0.04607
1106.70 0.04605
1106.80 0.04604
1106.90 0.04602
1107.00 0.04601
1107.10 0.04599
1107.20 0.04598
1107.30 0.04596
1107.40 0.04595
1107.50 0.04593
1107.60 0.04592
1107.70 0.0459
1107.80 0.04589
1107.90 0.04587
1108.00 0.04586
1108.10 0.04584
1108.20 0.04582
1108.30 0.04581
1108.40 0.04579
1108.50 0.04578
1108.60 0.04576
1108.70 0.04575
1108.80 0.04573
1108.90 0.04572
1109.00 0.0457
1109.10 0.04569
1109.20 0.04567
1109.30 0.04566
1109.40 0.04564
1109.50 0.04562
1109.60 0.04561
1109.70 0.04559
1109.80 0.04558
1109.90 0.04556
1110.00 0.04555
1110.10 0.04553
1110.20 0.04552
1110.30 0.0455
1110.40 0.04549
1110.50 0.04547
1110.60 0.04545
1110.70 0.04544
1110.80 0.04542
1110.90 0.04541
1111.00 0.04539
1111.10 0.04538
1111.20 0.04536
1111.30 0.04535
1111.40 0.04533
1111.50 0.04532
1111.60 0.0453
1111.70 0.04528
1111.80 0.04527
1111.90 0.04525
1112.00 0.04524
1112.10 0.04522
1112.20 0.04521
1112.30 0.04519
1112.40 0.04518
1112.50 0.04516
1112.60 0.04514
1112.70 0.04513
1112.80 0.04511
1112.90 0.0451
1113.00 0.04508
1113.10 0.04507
1113.20 0.04505
1113.30 0.04504
1113.40 0.04502
1113.50 0.04501
1113.60 0.04499
1113.70 0.04497
1113.80 0.04496
1113.90 0.04494
1114.00 0.04493
1114.10 0.04491
1114.20 0.0449
1114.30 0.04488
1114.40 0.04487
1114.50 0.04485
1114.60 0.04484
1114.70 0.04482
1114.80 0.0448
1114.90 0.04479
1115.00 0.04477
1115.10 0.04476
1115.20 0.04474
1115.30 0.04473
1115.40 0.04471
1115.50 0.0447
1115.60 0.04468
1115.70 0.04467
1115.80 0.04465
1115.90 0.04463
1116.00 0.04462
1116.10 0.0446
1116.20 0.04459
1116.30 0.04457
1116.40 0.04456
1116.50 0.04454
1116.60 0.04453
1116.70 0.04451
1116.80 0.0445
1116.90 0.04448
1117.00 0.04447
1117.10 0.04445
1117.20 0.04443
1117.30 0.04442
1117.40 0.0444
1117.50 0.04439
1117.60 0.04437
1117.70 0.04436
1117.80 0.04434
1117.90 0.04433
1118.00 0.04431
1118.10 0.0443
1118.20 0.04428
1118.30 0.04427
1118.40 0.04425
1118.50 0.04424
1118.60 0.04422
1118.70 0.0442
1118.80 0.04419
1118.90 0.04417
1119.00 0.04416
1119.10 0.04414
1119.20 0.04413
1119.30 0.04411
1119.40 0.0441
1119.50 0.04408
1119.60 0.04407
1119.70 0.04405
1119.80 0.04404
1119.90 0.04402
1120.00 0.04401
1120.10 0.04399
1120.20 0.04398
1120.30 0.04396
1120.40 0.04395
1120.50 0.04393
1120.60 0.04391
1120.70 0.0439
1120.80 0.04388
1120.90 0.04387
1121.00 0.04385
1121.10 0.04384
1121.20 0.04382
1121.30 0.04381
1121.40 0.04379
1121.50 0.04378
1121.60 0.04376
1121.70 0.04375
1121.80 0.04373
1121.90 0.04372
1122.00 0.0437
1122.10 0.04369
1122.20 0.04367
1122.30 0.04366
1122.40 0.04364
1122.50 0.04363
1122.60 0.04361
1122.70 0.0436
1122.80 0.04358
1122.90 0.04357
1123.00 0.04355
1123.10 0.04354
1123.20 0.04352
1123.30 0.04351
1123.40 0.04349
1123.50 0.04348
1123.60 0.04346
1123.70 0.04345
1123.80 0.04343
1123.90 0.04342
1124.00 0.0434
1124.10 0.04339
1124.20 0.04337
1124.30 0.04336
1124.40 0.04334
1124.50 0.04333
1124.60 0.04331
1124.70 0.0433
1124.80 0.04328
1124.90 0.04327
1125.00 0.04325
1125.10 0.04324
1125.20 0.04322
1125.30 0.04321
1125.40 0.04319
1125.50 0.04318
1125.60 0.04316
1125.70 0.04315
1125.80 0.04313
1125.90 0.04312
1126.00 0.0431
1126.10 0.04309
1126.20 0.04307
1126.30 0.04306
1126.40 0.04304
1126.50 0.04303
1126.60 0.04301
1126.70 0.043
1126.80 0.04298
1126.90 0.04297
1127.00 0.04295
1127.10 0.04294
1127.20 0.04292
1127.30 0.04291
1127.40 0.04289
1127.50 0.04288
1127.60 0.04286
1127.70 0.04285
1127.80 0.04284
1127.90 0.04282
1128.00 0.04281
1128.10 0.04279
1128.20 0.04278
1128.30 0.04276
1128.40 0.04275
1128.50 0.04273
1128.60 0.04272
1128.70 0.0427
1128.80 0.04269
1128.90 0.04267
1129.00 0.04266
1129.10 0.04264
1129.20 0.04263
1129.30 0.04261
1129.40 0.0426
1129.50 0.04259
1129.60 0.04257
1129.70 0.04256
1129.80 0.04254
1129.90 0.04253
1130.00 0.04251
1130.10 0.0425
1130.20 0.04248
1130.30 0.04247
1130.40 0.04245
1130.50 0.04244
1130.60 0.04242
1130.70 0.04241
1130.80 0.04239
1130.90 0.04238
1131.00 0.04237
1131.10 0.04235
1131.20 0.04234
1131.30 0.04232
1131.40 0.04231
1131.50 0.04229
1131.60 0.04228
1131.70 0.04226
1131.80 0.04225
1131.90 0.04223
1132.00 0.04222
1132.10 0.0422
1132.20 0.04219
1132.30 0.04218
1132.40 0.04216
1132.50 0.04215
1132.60 0.04213
1132.70 0.04212
1132.80 0.0421
1132.90 0.04209
1133.00 0.04207
1133.10 0.04206
1133.20 0.04205
1133.30 0.04203
1133.40 0.04202
1133.50 0.042
1133.60 0.04199
1133.70 0.04197
1133.80 0.04196
1133.90 0.04194
1134.00 0.04193
1134.10 0.04192
1134.20 0.0419
1134.30 0.04189
1134.40 0.04187
1134.50 0.04186
1134.60 0.04184
1134.70 0.04183
1134.80 0.04182
1134.90 0.0418
1135.00 0.04179
1135.10 0.04177
1135.20 0.04176
1135.30 0.04174
1135.40 0.04173
1135.50 0.04171
1135.60 0.0417
1135.70 0.04169
1135.80 0.04167
1135.90 0.04166
1136.00 0.04164
1136.10 0.04163
1136.20 0.04161
1136.30 0.0416
1136.40 0.04159
1136.50 0.04157
1136.60 0.04156
1136.70 0.04154
1136.80 0.04153
1136.90 0.04151
1137.00 0.0415
1137.10 0.04149
1137.20 0.04147
1137.30 0.04146
1137.40 0.04144
1137.50 0.04143
1137.60 0.04142
1137.70 0.0414
1137.80 0.04139
1137.90 0.04137
1138.00 0.04136
1138.10 0.04134
1138.20 0.04133
1138.30 0.04132
1138.40 0.0413
1138.50 0.04129
1138.60 0.04127
1138.70 0.04126
1138.80 0.04125
1138.90 0.04123
1139.00 0.04122
1139.10 0.0412
1139.20 0.04119
1139.30 0.04118
1139.40 0.04116
1139.50 0.04115
1139.60 0.04113
1139.70 0.04112
1139.80 0.0411
1139.90 0.04109
1140.00 0.04108
1140.10 0.04106
1140.20 0.04105
1140.30 0.04103
1140.40 0.04102
1140.50 0.04101
1140.60 0.04099
1140.70 0.04098
1140.80 0.04096
1140.90 0.04095
1141.00 0.04094
1141.10 0.04092
1141.20 0.04091
1141.30 0.04089
1141.40 0.04088
1141.50 0.04087
1141.60 0.04085
1141.70 0.04084
1141.80 0.04082
1141.90 0.04081
1142.00 0.0408
1142.10 0.04078
1142.20 0.04077
1142.30 0.04075
1142.40 0.04074
1142.50 0.04073
1142.60 0.04071
1142.70 0.0407
1142.80 0.04069
1142.90 0.04067
1143.00 0.04066
1143.10 0.04064
1143.20 0.04063
1143.30 0.04062
1143.40 0.0406
1143.50 0.04059
1143.60 0.04057
1143.70 0.04056
1143.80 0.04055
1143.90 0.04053
1144.00 0.04052
1144.10 0.04051
1144.20 0.04049
1144.30 0.04048
1144.40 0.04046
1144.50 0.04045
1144.60 0.04044
1144.70 0.04042
1144.80 0.04041
1144.90 0.04039
1145.00 0.04038
1145.10 0.04037
1145.20 0.04035
1145.30 0.04034
1145.40 0.04033
1145.50 0.04031
1145.60 0.0403
1145.70 0.04028
1145.80 0.04027
1145.90 0.04026
1146.00 0.04024
1146.10 0.04023
1146.20 0.04022
1146.30 0.0402
1146.40 0.04019
1146.50 0.04018
1146.60 0.04016
1146.70 0.04015
1146.80 0.04013
1146.90 0.04012
1147.00 0.04011
1147.10 0.04009
1147.20 0.04008
1147.30 0.04007
1147.40 0.04005
1147.50 0.04004
1147.60 0.04003
1147.70 0.04001
1147.80 0.04
1147.90 0.03998
1148.00 0.03997
1148.10 0.03996
1148.20 0.03994
1148.30 0.03993
1148.40 0.03992
1148.50 0.0399
1148.60 0.03989
1148.70 0.03988
1148.80 0.03986
1148.90 0.03985
1149.00 0.03984
1149.10 0.03982
1149.20 0.03981
1149.30 0.03979
1149.40 0.03978
1149.50 0.03977
1149.60 0.03975
1149.70 0.03974
1149.80 0.03973
1149.90 0.03971
1150.00 0.0397
1150.10 0.03969
1150.20 0.03967
1150.30 0.03966
1150.40 0.03965
1150.50 0.03963
1150.60 0.03962
1150.70 0.03961
1150.80 0.03959
1150.90 0.03958
1151.00 0.03957
1151.10 0.03955
1151.20 0.03954
1151.30 0.03953
1151.40 0.03951
1151.50 0.0395
1151.60 0.03949
1151.70 0.03947
1151.80 0.03946
1151.90 0.03944
1152.00 0.03943
1152.10 0.03942
1152.20 0.0394
1152.30 0.03939
1152.40 0.03938
1152.50 0.03936
1152.60 0.03935
1152.70 0.03934
1152.80 0.03933
1152.90 0.03931
1153.00 0.0393
1153.10 0.03929
1153.20 0.03927
1153.30 0.03926
1153.40 0.03925
1153.50 0.03923
1153.60 0.03922
1153.70 0.03921
1153.80 0.03919
1153.90 0.03918
1154.00 0.03917
1154.10 0.03915
1154.20 0.03914
1154.30 0.03913
1154.40 0.03911
1154.50 0.0391
1154.60 0.03909
1154.70 0.03907
1154.80 0.03906
1154.90 0.03905
1155.00 0.03903
1155.10 0.03902
1155.20 0.03901
1155.30 0.03899
1155.40 0.03898
1155.50 0.03897
1155.60 0.03895
1155.70 0.03894
1155.80 0.03893
1155.90 0.03892
1156.00 0.0389
1156.10 0.03889
1156.20 0.03888
1156.30 0.03886
1156.40 0.03885
1156.50 0.03884
1156.60 0.03882
1156.70 0.03881
1156.80 0.0388
1156.90 0.03878
1157.00 0.03877
1157.10 0.03876
1157.20 0.03874
1157.30 0.03873
1157.40 0.03872
1157.50 0.03871
1157.60 0.03869
1157.70 0.03868
1157.80 0.03867
1157.90 0.03865
1158.00 0.03864
1158.10 0.03863
1158.20 0.03861
1158.30 0.0386
1158.40 0.03859
1158.50 0.03858
1158.60 0.03856
1158.70 0.03855
1158.80 0.03854
1158.90 0.03852
1159.00 0.03851
1159.10 0.0385
1159.20 0.03848
1159.30 0.03847
1159.40 0.03846
1159.50 0.03845
1159.60 0.03843
1159.70 0.03842
1159.80 0.03841
1159.90 0.03839
1160.00 0.03838
1160.10 0.03837
1160.20 0.03836
1160.30 0.03834
1160.40 0.03833
1160.50 0.03832
1160.60 0.0383
1160.70 0.03829
1160.80 0.03828
1160.90 0.03826
1161.00 0.03825
1161.10 0.03824
1161.20 0.03823
1161.30 0.03821
1161.40 0.0382
1161.50 0.03819
1161.60 0.03817
1161.70 0.03816
1161.80 0.03815
1161.90 0.03814
1162.00 0.03812
1162.10 0.03811
1162.20 0.0381
1162.30 0.03809
1162.40 0.03807
1162.50 0.03806
1162.60 0.03805
1162.70 0.03803
1162.80 0.03802
1162.90 0.03801
1163.00 0.038
1163.10 0.03798
1163.20 0.03797
1163.30 0.03796
1163.40 0.03794
1163.50 0.03793
1163.60 0.03792
1163.70 0.03791
1163.80 0.03789
1163.90 0.03788
1164.00 0.03787
1164.10 0.03786
1164.20 0.03784
1164.30 0.03783
1164.40 0.03782
1164.50 0.03781
1164.60 0.03779
1164.70 0.03778
1164.80 0.03777
1164.90 0.03775
1165.00 0.03774
1165.10 0.03773
1165.20 0.03772
1165.30 0.0377
1165.40 0.03769
1165.50 0.03768
1165.60 0.03767
1165.70 0.03765
1165.80 0.03764
1165.90 0.03763
1166.00 0.03762
1166.10 0.0376
1166.20 0.03759
1166.30 0.03758
1166.40 0.03757
1166.50 0.03755
1166.60 0.03754
1166.70 0.03753
1166.80 0.03751
1166.90 0.0375
1167.00 0.03749
1167.10 0.03748
1167.20 0.03746
1167.30 0.03745
1167.40 0.03744
1167.50 0.03743
1167.60 0.03741
1167.70 0.0374
1167.80 0.03739
1167.90 0.03738
1168.00 0.03736
1168.10 0.03735
1168.20 0.03734
1168.30 0.03733
1168.40 0.03731
1168.50 0.0373
1168.60 0.03729
1168.70 0.03728
1168.80 0.03727
1168.90 0.03725
1169.00 0.03724
1169.10 0.03723
1169.20 0.03722
1169.30 0.0372
1169.40 0.03719
1169.50 0.03718
1169.60 0.03717
1169.70 0.03715
1169.80 0.03714
1169.90 0.03713
1170.00 0.03712
1170.10 0.0371
1170.20 0.03709
1170.30 0.03708
1170.40 0.03707
1170.50 0.03705
1170.60 0.03704
1170.70 0.03703
1170.80 0.03702
1170.90 0.037
1171.00 0.03699
1171.10 0.03698
1171.20 0.03697
1171.30 0.03696
1171.40 0.03694
1171.50 0.03693
1171.60 0.03692
1171.70 0.03691
1171.80 0.03689
1171.90 0.03688
1172.00 0.03687
1172.10 0.03686
1172.20 0.03684
1172.30 0.03683
1172.40 0.03682
1172.50 0.03681
1172.60 0.0368
1172.70 0.03678
1172.80 0.03677
1172.90 0.03676
1173.00 0.03675
1173.10 0.03673
1173.20 0.03672
1173.30 0.03671
1173.40 0.0367
1173.50 0.03669
1173.60 0.03667
1173.70 0.03666
1173.80 0.03665
1173.90 0.03664
1174.00 0.03662
1174.10 0.03661
1174.20 0.0366
1174.30 0.03659
1174.40 0.03658
1174.50 0.03656
1174.60 0.03655
1174.70 0.03654
1174.80 0.03653
1174.90 0.03652
1175.00 0.0365
1175.10 0.03649
1175.20 0.03648
1175.30 0.03647
1175.40 0.03645
1175.50 0.03644
1175.60 0.03643
1175.70 0.03642
1175.80 0.03641
1175.90 0.03639
1176.00 0.03638
1176.10 0.03637
1176.20 0.03636
1176.30 0.03635
1176.40 0.03633
1176.50 0.03632
1176.60 0.03631
1176.70 0.0363
1176.80 0.03629
1176.90 0.03627
1177.00 0.03626
1177.10 0.03625
1177.20 0.03624
1177.30 0.03623
1177.40 0.03621
1177.50 0.0362
1177.60 0.03619
1177.70 0.03618
1177.80 0.03617
1177.90 0.03615
1178.00 0.03614
1178.10 0.03613
1178.20 0.03612
1178.30 0.03611
1178.40 0.03609
1178.50 0.03608
1178.60 0.03607
1178.70 0.03606
1178.80 0.03605
1178.90 0.03603
1179.00 0.03602
1179.10 0.03601
1179.20 0.036
1179.30 0.03599
1179.40 0.03597
1179.50 0.03596
1179.60 0.03595
1179.70 0.03594
1179.80 0.03593
1179.90 0.03591
1180.00 0.0359
1180.10 0.03589
1180.20 0.03588
1180.30 0.03587
1180.40 0.03586
1180.50 0.03584
1180.60 0.03583
1180.70 0.03582
1180.80 0.03581
1180.90 0.0358
1181.00 0.03578
1181.10 0.03577
1181.20 0.03576
1181.30 0.03575
1181.40 0.03574
1181.50 0.03572
1181.60 0.03571
1181.70 0.0357
1181.80 0.03569
1181.90 0.03568
1182.00 0.03567
1182.10 0.03565
1182.20 0.03564
1182.30 0.03563
1182.40 0.03562
1182.50 0.03561
1182.60 0.0356
1182.70 0.03558
1182.80 0.03557
1182.90 0.03556
1183.00 0.03555
1183.10 0.03554
1183.20 0.03552
1183.30 0.03551
1183.40 0.0355
1183.50 0.03549
1183.60 0.03548
1183.70 0.03547
1183.80 0.03545
1183.90 0.03544
1184.00 0.03543
1184.10 0.03542
1184.20 0.03541
1184.30 0.0354
1184.40 0.03538
1184.50 0.03537
1184.60 0.03536
1184.70 0.03535
1184.80 0.03534
1184.90 0.03533
1185.00 0.03531
1185.10 0.0353
1185.20 0.03529
1185.30 0.03528
1185.40 0.03527
1185.50 0.03526
1185.60 0.03524
1185.70 0.03523
1185.80 0.03522
1185.90 0.03521
1186.00 0.0352
1186.10 0.03519
1186.20 0.03518
1186.30 0.03516
1186.40 0.03515
1186.50 0.03514
1186.60 0.03513
1186.70 0.03512
1186.80 0.03511
1186.90 0.03509
1187.00 0.03508
1187.10 0.03507
1187.20 0.03506
1187.30 0.03505
1187.40 0.03504
1187.50 0.03502
1187.60 0.03501
1187.70 0.035
1187.80 0.03499
1187.90 0.03498
1188.00 0.03497
1188.10 0.03496
1188.20 0.03494
1188.30 0.03493
1188.40 0.03492
1188.50 0.03491
1188.60 0.0349
1188.70 0.03489
1188.80 0.03488
1188.90 0.03486
1189.00 0.03485
1189.10 0.03484
1189.20 0.03483
1189.30 0.03482
1189.40 0.03481
1189.50 0.0348
1189.60 0.03478
1189.70 0.03477
1189.80 0.03476
1189.90 0.03475
1190.00 0.03474
1190.10 0.03473
1190.20 0.03472
1190.30 0.0347
1190.40 0.03469
1190.50 0.03468
1190.60 0.03467
1190.70 0.03466
1190.80 0.03465
1190.90 0.03464
1191.00 0.03462
1191.10 0.03461
1191.20 0.0346
1191.30 0.03459
1191.40 0.03458
1191.50 0.03457
1191.60 0.03456
1191.70 0.03455
1191.80 0.03453
1191.90 0.03452
1192.00 0.03451
1192.10 0.0345
1192.20 0.03449
1192.30 0.03448
1192.40 0.03447
1192.50 0.03445
1192.60 0.03444
1192.70 0.03443
1192.80 0.03442
1192.90 0.03441
1193.00 0.0344
1193.10 0.03439
1193.20 0.03438
1193.30 0.03436
1193.40 0.03435
1193.50 0.03434
1193.60 0.03433
1193.70 0.03432
1193.80 0.03431
1193.90 0.0343
1194.00 0.03429
1194.10 0.03428
1194.20 0.03426
1194.30 0.03425
1194.40 0.03424
1194.50 0.03423
1194.60 0.03422
1194.70 0.03421
1194.80 0.0342
1194.90 0.03419
1195.00 0.03417
1195.10 0.03416
1195.20 0.03415
1195.30 0.03414
1195.40 0.03413
1195.50 0.03412
1195.60 0.03411
1195.70 0.0341
1195.80 0.03409
1195.90 0.03407
1196.00 0.03406
1196.10 0.03405
1196.20 0.03404
1196.30 0.03403
1196.40 0.03402
1196.50 0.03401
1196.60 0.034
1196.70 0.03398
1196.80 0.03397
1196.90 0.03396
1197.00 0.03395
1197.10 0.03394
1197.20 0.03393
1197.30 0.03392
1197.40 0.03391
1197.50 0.0339
1197.60 0.03389
1197.70 0.03387
1197.80 0.03386
1197.90 0.03385
1198.00 0.03384
1198.10 0.03383
1198.20 0.03382
1198.30 0.03381
1198.40 0.0338
1198.50 0.03379
1198.60 0.03378
1198.70 0.03376
1198.80 0.03375
1198.90 0.03374
1199.00 0.03373
1199.10 0.03372
1199.20 0.03371
1199.30 0.0337
1199.40 0.03369
1199.50 0.03368
1199.60 0.03367
1199.70 0.03365
1199.80 0.03364
1199.90 0.03363
1200.00 0
