# Version 2.1 - nm, norm@500 to 1, cut digits, bergeron_16500_65.dat_16500
# Wavelength(nm)  Flambda(ergs/cm^s/s/nm)
300.00 2.43
300.10 2.428
300.20 2.426
300.30 2.424
300.40 2.422
300.50 2.42
300.60 2.418
300.70 2.416
300.80 2.414
300.90 2.412
301.00 2.41
301.10 2.408
301.20 2.406
301.30 2.404
301.40 2.402
301.50 2.4
301.60 2.398
301.70 2.396
301.80 2.395
301.90 2.393
302.00 2.391
302.10 2.389
302.20 2.387
302.30 2.385
302.40 2.383
302.50 2.381
302.60 2.379
302.70 2.377
302.80 2.375
302.90 2.373
303.00 2.371
303.10 2.369
303.20 2.367
303.30 2.365
303.40 2.363
303.50 2.362
303.60 2.36
303.70 2.358
303.80 2.356
303.90 2.354
304.00 2.352
304.10 2.35
304.20 2.348
304.30 2.346
304.40 2.344
304.50 2.342
304.60 2.341
304.70 2.339
304.80 2.337
304.90 2.335
305.00 2.333
305.10 2.331
305.20 2.329
305.30 2.327
305.40 2.326
305.50 2.324
305.60 2.322
305.70 2.32
305.80 2.318
305.90 2.316
306.00 2.314
306.10 2.312
306.20 2.311
306.30 2.309
306.40 2.307
306.50 2.305
306.60 2.303
306.70 2.301
306.80 2.3
306.90 2.298
307.00 2.296
307.10 2.294
307.20 2.292
307.30 2.29
307.40 2.289
307.50 2.287
307.60 2.285
307.70 2.283
307.80 2.281
307.90 2.279
308.00 2.278
308.10 2.276
308.20 2.274
308.30 2.272
308.40 2.27
308.50 2.269
308.60 2.267
308.70 2.265
308.80 2.263
308.90 2.261
309.00 2.26
309.10 2.258
309.20 2.256
309.30 2.254
309.40 2.252
309.50 2.251
309.60 2.249
309.70 2.247
309.80 2.245
309.90 2.243
310.00 2.242
310.10 2.24
310.20 2.238
310.30 2.236
310.40 2.234
310.50 2.233
310.60 2.231
310.70 2.229
310.80 2.227
310.90 2.226
311.00 2.224
311.10 2.222
311.20 2.22
311.30 2.219
311.40 2.217
311.50 2.215
311.60 2.213
311.70 2.211
311.80 2.21
311.90 2.208
312.00 2.206
312.10 2.204
312.20 2.203
312.30 2.201
312.40 2.199
312.50 2.197
312.60 2.196
312.70 2.194
312.80 2.192
312.90 2.191
313.00 2.189
313.10 2.187
313.20 2.185
313.30 2.184
313.40 2.182
313.50 2.18
313.60 2.179
313.70 2.177
313.80 2.175
313.90 2.173
314.00 2.172
314.10 2.17
314.20 2.168
314.30 2.167
314.40 2.165
314.50 2.163
314.60 2.161
314.70 2.16
314.80 2.158
314.90 2.156
315.00 2.155
315.10 2.153
315.20 2.151
315.30 2.15
315.40 2.148
315.50 2.146
315.60 2.144
315.70 2.143
315.80 2.141
315.90 2.139
316.00 2.138
316.10 2.136
316.20 2.134
316.30 2.133
316.40 2.131
316.50 2.129
316.60 2.128
316.70 2.126
316.80 2.124
316.90 2.123
317.00 2.121
317.10 2.119
317.20 2.118
317.30 2.116
317.40 2.115
317.50 2.113
317.60 2.111
317.70 2.11
317.80 2.108
317.90 2.106
318.00 2.105
318.10 2.103
318.20 2.101
318.30 2.1
318.40 2.098
318.50 2.096
318.60 2.095
318.70 2.093
318.80 2.092
318.90 2.09
319.00 2.088
319.10 2.087
319.20 2.085
319.30 2.083
319.40 2.082
319.50 2.08
319.60 2.079
319.70 2.077
319.80 2.075
319.90 2.074
320.00 2.072
320.10 2.071
320.20 2.069
320.30 2.067
320.40 2.066
320.50 2.064
320.60 2.063
320.70 2.061
320.80 2.059
320.90 2.058
321.00 2.056
321.10 2.055
321.20 2.053
321.30 2.051
321.40 2.05
321.50 2.048
321.60 2.047
321.70 2.045
321.80 2.044
321.90 2.042
322.00 2.04
322.10 2.039
322.20 2.037
322.30 2.036
322.40 2.034
322.50 2.033
322.60 2.031
322.70 2.029
322.80 2.028
322.90 2.026
323.00 2.025
323.10 2.023
323.20 2.022
323.30 2.02
323.40 2.019
323.50 2.017
323.60 2.015
323.70 2.014
323.80 2.012
323.90 2.011
324.00 2.009
324.10 2.008
324.20 2.006
324.30 2.005
324.40 2.003
324.50 2.002
324.60 2
324.70 1.998
324.80 1.997
324.90 1.995
325.00 1.994
325.10 1.992
325.20 1.991
325.30 1.989
325.40 1.988
325.50 1.986
325.60 1.985
325.70 1.983
325.80 1.982
325.90 1.98
326.00 1.979
326.10 1.977
326.20 1.976
326.30 1.974
326.40 1.973
326.50 1.971
326.60 1.97
326.70 1.968
326.80 1.967
326.90 1.965
327.00 1.964
327.10 1.962
327.20 1.961
327.30 1.959
327.40 1.958
327.50 1.956
327.60 1.955
327.70 1.953
327.80 1.952
327.90 1.95
328.00 1.949
328.10 1.947
328.20 1.946
328.30 1.944
328.40 1.943
328.50 1.941
328.60 1.94
328.70 1.938
328.80 1.937
328.90 1.936
329.00 1.934
329.10 1.933
329.20 1.931
329.30 1.93
329.40 1.928
329.50 1.927
329.60 1.925
329.70 1.924
329.80 1.922
329.90 1.921
330.00 1.919
330.10 1.918
330.20 1.917
330.30 1.915
330.40 1.914
330.50 1.912
330.60 1.911
330.70 1.909
330.80 1.908
330.90 1.906
331.00 1.905
331.10 1.904
331.20 1.902
331.30 1.901
331.40 1.899
331.50 1.898
331.60 1.896
331.70 1.895
331.80 1.894
331.90 1.892
332.00 1.891
332.10 1.889
332.20 1.888
332.30 1.887
332.40 1.885
332.50 1.884
332.60 1.882
332.70 1.881
332.80 1.879
332.90 1.878
333.00 1.877
333.10 1.875
333.20 1.874
333.30 1.872
333.40 1.871
333.50 1.87
333.60 1.868
333.70 1.867
333.80 1.865
333.90 1.864
334.00 1.863
334.10 1.861
334.20 1.86
334.30 1.858
334.40 1.857
334.50 1.856
334.60 1.854
334.70 1.853
334.80 1.852
334.90 1.85
335.00 1.849
335.10 1.847
335.20 1.846
335.30 1.845
335.40 1.843
335.50 1.842
335.60 1.84
335.70 1.839
335.80 1.838
335.90 1.836
336.00 1.835
336.10 1.834
336.20 1.832
336.30 1.831
336.40 1.829
336.50 1.828
336.60 1.827
336.70 1.825
336.80 1.824
336.90 1.823
337.00 1.821
337.10 1.82
337.20 1.819
337.30 1.817
337.40 1.816
337.50 1.815
337.60 1.813
337.70 1.812
337.80 1.811
337.90 1.809
338.00 1.808
338.10 1.807
338.20 1.805
338.30 1.804
338.40 1.803
338.50 1.801
338.60 1.8
338.70 1.799
338.80 1.797
338.90 1.796
339.00 1.795
339.10 1.793
339.20 1.792
339.30 1.791
339.40 1.789
339.50 1.788
339.60 1.787
339.70 1.785
339.80 1.784
339.90 1.783
340.00 1.781
340.10 1.78
340.20 1.779
340.30 1.777
340.40 1.776
340.50 1.775
340.60 1.773
340.70 1.772
340.80 1.771
340.90 1.77
341.00 1.768
341.10 1.767
341.20 1.766
341.30 1.764
341.40 1.763
341.50 1.762
341.60 1.76
341.70 1.759
341.80 1.758
341.90 1.757
342.00 1.755
342.10 1.754
342.20 1.753
342.30 1.751
342.40 1.75
342.50 1.749
342.60 1.748
342.70 1.746
342.80 1.745
342.90 1.744
343.00 1.742
343.10 1.741
343.20 1.74
343.30 1.739
343.40 1.737
343.50 1.736
343.60 1.735
343.70 1.734
343.80 1.732
343.90 1.731
344.00 1.73
344.10 1.729
344.20 1.727
344.30 1.726
344.40 1.725
344.50 1.724
344.60 1.722
344.70 1.721
344.80 1.72
344.90 1.718
345.00 1.717
345.10 1.716
345.20 1.715
345.30 1.713
345.40 1.712
345.50 1.711
345.60 1.71
345.70 1.708
345.80 1.707
345.90 1.706
346.00 1.705
346.10 1.703
346.20 1.702
346.30 1.701
346.40 1.7
346.50 1.699
346.60 1.697
346.70 1.696
346.80 1.695
346.90 1.694
347.00 1.692
347.10 1.691
347.20 1.69
347.30 1.689
347.40 1.687
347.50 1.686
347.60 1.685
347.70 1.684
347.80 1.683
347.90 1.681
348.00 1.68
348.10 1.679
348.20 1.678
348.30 1.676
348.40 1.675
348.50 1.674
348.60 1.673
348.70 1.672
348.80 1.67
348.90 1.669
349.00 1.668
349.10 1.667
349.20 1.666
349.30 1.664
349.40 1.663
349.50 1.662
349.60 1.661
349.70 1.66
349.80 1.658
349.90 1.657
350.00 1.656
350.10 1.655
350.20 1.654
350.30 1.652
350.40 1.651
350.50 1.65
350.60 1.649
350.70 1.648
350.80 1.647
350.90 1.645
351.00 1.644
351.10 1.643
351.20 1.642
351.30 1.641
351.40 1.639
351.50 1.638
351.60 1.637
351.70 1.636
351.80 1.635
351.90 1.633
352.00 1.632
352.10 1.631
352.20 1.63
352.30 1.629
352.40 1.628
352.50 1.626
352.60 1.625
352.70 1.624
352.80 1.623
352.90 1.622
353.00 1.621
353.10 1.62
353.20 1.618
353.30 1.617
353.40 1.616
353.50 1.615
353.60 1.614
353.70 1.613
353.80 1.611
353.90 1.61
354.00 1.609
354.10 1.608
354.20 1.607
354.30 1.606
354.40 1.605
354.50 1.603
354.60 1.602
354.70 1.601
354.80 1.6
354.90 1.599
355.00 1.598
355.10 1.597
355.20 1.595
355.30 1.594
355.40 1.593
355.50 1.592
355.60 1.591
355.70 1.59
355.80 1.589
355.90 1.587
356.00 1.586
356.10 1.585
356.20 1.584
356.30 1.583
356.40 1.582
356.50 1.581
356.60 1.58
356.70 1.578
356.80 1.577
356.90 1.576
357.00 1.575
357.10 1.574
357.20 1.573
357.30 1.572
357.40 1.571
357.50 1.569
357.60 1.568
357.70 1.567
357.80 1.566
357.90 1.565
358.00 1.564
358.10 1.563
358.20 1.562
358.30 1.561
358.40 1.559
358.50 1.558
358.60 1.557
358.70 1.556
358.80 1.555
358.90 1.554
359.00 1.553
359.10 1.552
359.20 1.551
359.30 1.55
359.40 1.548
359.50 1.547
359.60 1.546
359.70 1.545
359.80 1.544
359.90 1.543
360.00 1.542
360.10 1.541
360.20 1.54
360.30 1.539
360.40 1.538
360.50 1.536
360.60 1.535
360.70 1.534
360.80 1.533
360.90 1.532
361.00 1.531
361.10 1.53
361.20 1.529
361.30 1.528
361.40 1.527
361.50 1.526
361.60 1.525
361.70 1.524
361.80 1.522
361.90 1.521
362.00 1.52
362.10 1.519
362.20 1.518
362.30 1.517
362.40 1.516
362.50 1.515
362.60 1.514
362.70 1.513
362.80 1.512
362.90 1.511
363.00 1.51
363.10 1.509
363.20 1.508
363.30 1.506
363.40 1.505
363.50 1.504
363.60 1.503
363.70 1.502
363.80 1.501
363.90 1.5
364.00 1.499
364.10 1.498
364.20 1.497
364.30 1.496
364.40 1.495
364.50 1.494
364.60 1.493
364.70 1.492
364.80 1.491
364.90 1.49
365.00 1.489
365.10 1.488
365.20 1.487
365.30 1.486
365.40 1.485
365.50 1.484
365.60 1.483
365.70 1.482
365.80 1.481
365.90 1.48
366.00 1.479
366.10 1.478
366.20 1.477
366.30 1.476
366.40 1.475
366.50 1.474
366.60 1.473
366.70 1.472
366.80 1.472
366.90 1.471
367.00 1.47
367.10 1.469
367.20 1.468
367.30 1.467
367.40 1.466
367.50 1.465
367.60 1.464
367.70 1.463
367.80 1.462
367.90 1.461
368.00 1.461
368.10 1.461
368.20 1.461
368.30 1.462
368.40 1.462
368.50 1.463
368.60 1.463
368.70 1.464
368.80 1.464
368.90 1.465
369.00 1.465
369.10 1.466
369.20 1.466
369.30 1.467
369.40 1.467
369.50 1.467
369.60 1.468
369.70 1.468
369.80 1.469
369.90 1.469
370.00 1.47
370.10 1.473
370.20 1.476
370.30 1.479
370.40 1.482
370.50 1.486
370.60 1.489
370.70 1.492
370.80 1.495
370.90 1.498
371.00 1.502
371.10 1.505
371.20 1.508
371.30 1.511
371.40 1.514
371.50 1.517
371.60 1.52
371.70 1.524
371.80 1.527
371.90 1.53
372.00 1.533
372.10 1.538
372.20 1.544
372.30 1.549
372.40 1.555
372.50 1.56
372.60 1.566
372.70 1.571
372.80 1.577
372.90 1.582
373.00 1.587
373.10 1.593
373.20 1.598
373.30 1.604
373.40 1.609
373.50 1.614
373.60 1.62
373.70 1.625
373.80 1.631
373.90 1.636
374.00 1.641
374.10 1.647
374.20 1.652
374.30 1.658
374.40 1.663
374.50 1.669
374.60 1.674
374.70 1.679
374.80 1.685
374.90 1.69
375.00 1.696
375.10 1.701
375.20 1.707
375.30 1.712
375.40 1.717
375.50 1.723
375.60 1.728
375.70 1.733
375.80 1.739
375.90 1.744
376.00 1.75
376.10 1.752
376.20 1.754
376.30 1.757
376.40 1.759
376.50 1.761
376.60 1.764
376.70 1.766
376.80 1.768
376.90 1.771
377.00 1.773
377.10 1.767
377.20 1.762
377.30 1.756
377.40 1.75
377.50 1.745
377.60 1.739
377.70 1.734
377.80 1.728
377.90 1.722
378.00 1.717
378.10 1.688
378.20 1.66
378.30 1.632
378.40 1.604
378.50 1.575
378.60 1.547
378.70 1.519
378.80 1.491
378.90 1.463
379.00 1.435
379.10 1.411
379.20 1.388
379.30 1.365
379.40 1.341
379.50 1.318
379.60 1.295
379.70 1.271
379.80 1.248
379.90 1.225
380.00 1.202
380.10 1.238
380.20 1.274
380.30 1.31
380.40 1.346
380.50 1.382
380.60 1.418
380.70 1.454
380.80 1.49
380.90 1.526
381.00 1.561
381.10 1.577
381.20 1.593
381.30 1.609
381.40 1.625
381.50 1.64
381.60 1.643
381.70 1.641
381.80 1.634
381.90 1.623
382.00 1.607
382.10 1.587
382.20 1.562
382.30 1.518
382.40 1.475
382.50 1.432
382.60 1.388
382.70 1.345
382.80 1.302
382.90 1.259
383.00 1.216
383.10 1.173
383.20 1.13
383.30 1.082
383.40 1.032
383.50 0.9781
383.60 0.9901
383.70 1.042
383.80 1.09
383.90 1.137
384.00 1.184
384.10 1.231
384.20 1.278
384.30 1.327
384.40 1.376
384.50 1.423
384.60 1.469
384.70 1.511
384.80 1.55
384.90 1.586
385.00 1.618
385.10 1.645
385.20 1.67
385.30 1.692
385.40 1.709
385.50 1.725
385.60 1.738
385.70 1.748
385.80 1.756
385.90 1.763
386.00 1.766
386.10 1.768
386.20 1.767
386.30 1.764
386.40 1.759
386.50 1.753
386.60 1.743
386.70 1.732
386.80 1.719
386.90 1.702
387.00 1.684
387.10 1.664
387.20 1.639
387.30 1.612
387.40 1.583
387.50 1.549
387.60 1.513
387.70 1.473
387.80 1.428
387.90 1.381
388.00 1.332
388.10 1.279
388.20 1.227
388.30 1.174
388.40 1.122
388.50 1.071
388.60 1.019
388.70 0.9659
388.80 0.908
388.90 0.8456
389.00 0.9034
389.10 0.9587
389.20 1.012
389.30 1.062
389.40 1.112
389.50 1.162
389.60 1.214
389.70 1.266
389.80 1.317
389.90 1.366
390.00 1.413
390.10 1.458
390.20 1.498
390.30 1.536
390.40 1.572
390.50 1.603
390.60 1.632
390.70 1.66
390.80 1.684
390.90 1.707
391.00 1.728
391.10 1.747
391.20 1.764
391.30 1.781
391.40 1.796
391.50 1.809
391.60 1.822
391.70 1.833
391.80 1.843
391.90 1.852
392.00 1.86
392.10 1.866
392.20 1.873
392.30 1.877
392.40 1.881
392.50 1.885
392.60 1.887
392.70 1.888
392.80 1.888
392.90 1.888
393.00 1.886
393.10 1.884
393.20 1.881
393.30 1.877
393.40 1.872
393.50 1.866
393.60 1.859
393.70 1.851
393.80 1.842
393.90 1.832
394.00 1.821
394.10 1.808
394.20 1.795
394.30 1.781
394.40 1.765
394.50 1.748
394.60 1.73
394.70 1.71
394.80 1.689
394.90 1.667
395.00 1.642
395.10 1.617
395.20 1.59
395.30 1.561
395.40 1.53
395.50 1.497
395.60 1.461
395.70 1.424
395.80 1.384
395.90 1.341
396.00 1.296
396.10 1.25
396.20 1.201
396.30 1.15
396.40 1.099
396.50 1.048
396.60 0.998
396.70 0.948
396.80 0.8942
396.90 0.8259
397.00 0.743
397.10 0.8196
397.20 0.8847
397.30 0.9385
397.40 0.9874
397.50 1.036
397.60 1.086
397.70 1.135
397.80 1.184
397.90 1.232
398.00 1.277
398.10 1.32
398.20 1.362
398.30 1.4
398.40 1.436
398.50 1.471
398.60 1.502
398.70 1.532
398.80 1.56
398.90 1.585
399.00 1.61
399.10 1.633
399.20 1.654
399.30 1.674
399.40 1.694
399.50 1.711
399.60 1.728
399.70 1.744
399.80 1.758
399.90 1.772
400.00 1.785
400.10 1.797
400.20 1.808
400.30 1.818
400.40 1.828
400.50 1.837
400.60 1.845
400.70 1.852
400.80 1.86
400.90 1.866
401.00 1.872
401.10 1.877
401.20 1.883
401.30 1.887
401.40 1.891
401.50 1.895
401.60 1.899
401.70 1.902
401.80 1.904
401.90 1.907
402.00 1.909
402.10 1.911
402.20 1.912
402.30 1.914
402.40 1.915
402.50 1.915
402.60 1.916
402.70 1.916
402.80 1.916
402.90 1.916
403.00 1.916
403.10 1.916
403.20 1.915
403.30 1.914
403.40 1.913
403.50 1.912
403.60 1.91
403.70 1.909
403.80 1.907
403.90 1.905
404.00 1.903
404.10 1.9
404.20 1.898
404.30 1.895
404.40 1.892
404.50 1.889
404.60 1.886
404.70 1.882
404.80 1.879
404.90 1.874
405.00 1.87
405.10 1.866
405.20 1.861
405.30 1.856
405.40 1.85
405.50 1.845
405.60 1.839
405.70 1.832
405.80 1.826
405.90 1.818
406.00 1.811
406.10 1.803
406.20 1.795
406.30 1.786
406.40 1.777
406.50 1.767
406.60 1.757
406.70 1.746
406.80 1.734
406.90 1.722
407.00 1.709
407.10 1.695
407.20 1.68
407.30 1.664
407.40 1.648
407.50 1.631
407.60 1.612
407.70 1.592
407.80 1.572
407.90 1.55
408.00 1.527
408.10 1.504
408.20 1.479
408.30 1.453
408.40 1.426
408.50 1.398
408.60 1.368
408.70 1.338
408.80 1.306
408.90 1.272
409.00 1.237
409.10 1.2
409.20 1.162
409.30 1.123
409.40 1.08
409.50 1.037
409.60 0.9921
409.70 0.9474
409.80 0.9026
409.90 0.8578
410.00 0.804
410.10 0.7419
410.20 0.6716
410.30 0.7626
410.40 0.832
410.50 0.8797
410.60 0.9231
410.70 0.9666
410.80 1.01
410.90 1.053
411.00 1.094
411.10 1.133
411.20 1.17
411.30 1.206
411.40 1.24
411.50 1.272
411.60 1.302
411.70 1.332
411.80 1.359
411.90 1.386
412.00 1.411
412.10 1.435
412.20 1.458
412.30 1.48
412.40 1.5
412.50 1.52
412.60 1.538
412.70 1.555
412.80 1.572
412.90 1.587
413.00 1.601
413.10 1.615
413.20 1.627
413.30 1.639
413.40 1.649
413.50 1.66
413.60 1.669
413.70 1.678
413.80 1.686
413.90 1.693
414.00 1.7
414.10 1.707
414.20 1.713
414.30 1.718
414.40 1.724
414.50 1.728
414.60 1.733
414.70 1.737
414.80 1.741
414.90 1.745
415.00 1.748
415.10 1.751
415.20 1.754
415.30 1.757
415.40 1.759
415.50 1.761
415.60 1.763
415.70 1.765
415.80 1.767
415.90 1.768
416.00 1.769
416.10 1.771
416.20 1.772
416.30 1.773
416.40 1.773
416.50 1.774
416.60 1.775
416.70 1.775
416.80 1.776
416.90 1.776
417.00 1.776
417.10 1.777
417.20 1.777
417.30 1.777
417.40 1.777
417.50 1.777
417.60 1.777
417.70 1.776
417.80 1.776
417.90 1.776
418.00 1.776
418.10 1.775
418.20 1.775
418.30 1.774
418.40 1.774
418.50 1.773
418.60 1.773
418.70 1.772
418.80 1.771
418.90 1.771
419.00 1.77
419.10 1.769
419.20 1.768
419.30 1.768
419.40 1.767
419.50 1.766
419.60 1.765
419.70 1.764
419.80 1.763
419.90 1.762
420.00 1.761
420.10 1.76
420.20 1.759
420.30 1.758
420.40 1.757
420.50 1.756
420.60 1.755
420.70 1.754
420.80 1.753
420.90 1.752
421.00 1.751
421.10 1.75
421.20 1.748
421.30 1.747
421.40 1.746
421.50 1.745
421.60 1.743
421.70 1.742
421.80 1.741
421.90 1.74
422.00 1.738
422.10 1.737
422.20 1.736
422.30 1.734
422.40 1.733
422.50 1.732
422.60 1.73
422.70 1.729
422.80 1.727
422.90 1.726
423.00 1.725
423.10 1.723
423.20 1.722
423.30 1.72
423.40 1.719
423.50 1.717
423.60 1.716
423.70 1.714
423.80 1.713
423.90 1.711
424.00 1.709
424.10 1.708
424.20 1.706
424.30 1.704
424.40 1.703
424.50 1.701
424.60 1.699
424.70 1.697
424.80 1.696
424.90 1.694
425.00 1.692
425.10 1.69
425.20 1.688
425.30 1.686
425.40 1.684
425.50 1.682
425.60 1.68
425.70 1.678
425.80 1.676
425.90 1.674
426.00 1.672
426.10 1.67
426.20 1.667
426.30 1.665
426.40 1.662
426.50 1.66
426.60 1.657
426.70 1.655
426.80 1.652
426.90 1.65
427.00 1.647
427.10 1.644
427.20 1.641
427.30 1.639
427.40 1.636
427.50 1.632
427.60 1.629
427.70 1.626
427.80 1.623
427.90 1.619
428.00 1.616
428.10 1.612
428.20 1.609
428.30 1.605
428.40 1.601
428.50 1.596
428.60 1.592
428.70 1.588
428.80 1.583
428.90 1.578
429.00 1.574
429.10 1.569
429.20 1.563
429.30 1.558
429.40 1.552
429.50 1.546
429.60 1.54
429.70 1.533
429.80 1.527
429.90 1.52
430.00 1.513
430.10 1.505
430.20 1.497
430.30 1.489
430.40 1.48
430.50 1.471
430.60 1.462
430.70 1.452
430.80 1.442
430.90 1.431
431.00 1.42
431.10 1.408
431.20 1.396
431.30 1.383
431.40 1.37
431.50 1.356
431.60 1.341
431.70 1.325
431.80 1.308
431.90 1.29
432.00 1.271
432.10 1.252
432.20 1.231
432.30 1.208
432.40 1.185
432.50 1.159
432.60 1.132
432.70 1.104
432.80 1.074
432.90 1.044
433.00 1.014
433.10 0.9851
433.20 0.9549
433.30 0.9239
433.40 0.8903
433.50 0.8559
433.60 0.8205
433.70 0.7842
433.80 0.7445
433.90 0.7016
434.00 0.5925
434.10 0.5936
434.20 0.7048
434.30 0.7462
434.40 0.7845
434.50 0.8199
434.60 0.8541
434.70 0.8873
434.80 0.9196
434.90 0.9491
435.00 0.9778
435.10 1.006
435.20 1.034
435.30 1.062
435.40 1.09
435.50 1.116
435.60 1.141
435.70 1.165
435.80 1.186
435.90 1.206
436.00 1.225
436.10 1.242
436.20 1.259
436.30 1.274
436.40 1.289
436.50 1.302
436.60 1.315
436.70 1.326
436.80 1.337
436.90 1.348
437.00 1.357
437.10 1.366
437.20 1.375
437.30 1.383
437.40 1.391
437.50 1.398
437.60 1.405
437.70 1.411
437.80 1.417
437.90 1.423
438.00 1.428
438.10 1.433
438.20 1.437
438.30 1.442
438.40 1.446
438.50 1.45
438.60 1.453
438.70 1.456
438.80 1.459
438.90 1.462
439.00 1.465
439.10 1.467
439.20 1.47
439.30 1.472
439.40 1.474
439.50 1.475
439.60 1.477
439.70 1.479
439.80 1.48
439.90 1.481
440.00 1.482
440.10 1.484
440.20 1.485
440.30 1.485
440.40 1.486
440.50 1.487
440.60 1.487
440.70 1.488
440.80 1.488
440.90 1.489
441.00 1.489
441.10 1.489
441.20 1.489
441.30 1.489
441.40 1.49
441.50 1.489
441.60 1.489
441.70 1.489
441.80 1.489
441.90 1.489
442.00 1.489
442.10 1.489
442.20 1.488
442.30 1.488
442.40 1.488
442.50 1.487
442.60 1.487
442.70 1.486
442.80 1.486
442.90 1.485
443.00 1.485
443.10 1.484
443.20 1.484
443.30 1.483
443.40 1.483
443.50 1.482
443.60 1.481
443.70 1.481
443.80 1.48
443.90 1.479
444.00 1.479
444.10 1.478
444.20 1.477
444.30 1.476
444.40 1.476
444.50 1.475
444.60 1.474
444.70 1.473
444.80 1.473
444.90 1.472
445.00 1.471
445.10 1.47
445.20 1.469
445.30 1.468
445.40 1.468
445.50 1.467
445.60 1.466
445.70 1.465
445.80 1.464
445.90 1.463
446.00 1.462
446.10 1.461
446.20 1.46
446.30 1.46
446.40 1.459
446.50 1.458
446.60 1.457
446.70 1.456
446.80 1.455
446.90 1.454
447.00 1.453
447.10 1.452
447.20 1.451
447.30 1.45
447.40 1.449
447.50 1.448
447.60 1.447
447.70 1.446
447.80 1.446
447.90 1.445
448.00 1.444
448.10 1.443
448.20 1.442
448.30 1.441
448.40 1.44
448.50 1.439
448.60 1.438
448.70 1.437
448.80 1.436
448.90 1.435
449.00 1.434
449.10 1.433
449.20 1.432
449.30 1.431
449.40 1.43
449.50 1.429
449.60 1.428
449.70 1.427
449.80 1.426
449.90 1.425
450.00 1.424
450.10 1.423
450.20 1.422
450.30 1.421
450.40 1.42
450.50 1.419
450.60 1.418
450.70 1.417
450.80 1.416
450.90 1.415
451.00 1.414
451.10 1.413
451.20 1.412
451.30 1.411
451.40 1.41
451.50 1.409
451.60 1.408
451.70 1.407
451.80 1.406
451.90 1.405
452.00 1.404
452.10 1.403
452.20 1.402
452.30 1.401
452.40 1.4
452.50 1.399
452.60 1.398
452.70 1.398
452.80 1.397
452.90 1.396
453.00 1.395
453.10 1.394
453.20 1.393
453.30 1.392
453.40 1.391
453.50 1.39
453.60 1.389
453.70 1.388
453.80 1.387
453.90 1.386
454.00 1.385
454.10 1.384
454.20 1.383
454.30 1.382
454.40 1.381
454.50 1.38
454.60 1.379
454.70 1.378
454.80 1.377
454.90 1.376
455.00 1.375
455.10 1.374
455.20 1.373
455.30 1.372
455.40 1.371
455.50 1.37
455.60 1.369
455.70 1.368
455.80 1.367
455.90 1.366
456.00 1.365
456.10 1.364
456.20 1.363
456.30 1.362
456.40 1.361
456.50 1.36
456.60 1.359
456.70 1.358
456.80 1.357
456.90 1.356
457.00 1.355
457.10 1.354
457.20 1.353
457.30 1.352
457.40 1.351
457.50 1.35
457.60 1.349
457.70 1.348
457.80 1.347
457.90 1.346
458.00 1.345
458.10 1.344
458.20 1.343
458.30 1.342
458.40 1.342
458.50 1.341
458.60 1.34
458.70 1.339
458.80 1.338
458.90 1.337
459.00 1.336
459.10 1.335
459.20 1.334
459.30 1.333
459.40 1.332
459.50 1.331
459.60 1.33
459.70 1.329
459.80 1.328
459.90 1.327
460.00 1.326
460.10 1.325
460.20 1.324
460.30 1.323
460.40 1.322
460.50 1.321
460.60 1.32
460.70 1.319
460.80 1.318
460.90 1.317
461.00 1.316
461.10 1.315
461.20 1.315
461.30 1.314
461.40 1.313
461.50 1.312
461.60 1.311
461.70 1.31
461.80 1.309
461.90 1.308
462.00 1.307
462.10 1.306
462.20 1.305
462.30 1.304
462.40 1.303
462.50 1.302
462.60 1.301
462.70 1.3
462.80 1.299
462.90 1.298
463.00 1.297
463.10 1.296
463.20 1.295
463.30 1.294
463.40 1.293
463.50 1.292
463.60 1.292
463.70 1.291
463.80 1.29
463.90 1.289
464.00 1.288
464.10 1.287
464.20 1.286
464.30 1.285
464.40 1.284
464.50 1.283
464.60 1.282
464.70 1.281
464.80 1.28
464.90 1.279
465.00 1.278
465.10 1.277
465.20 1.276
465.30 1.275
465.40 1.275
465.50 1.274
465.60 1.273
465.70 1.272
465.80 1.271
465.90 1.27
466.00 1.269
466.10 1.268
466.20 1.267
466.30 1.266
466.40 1.265
466.50 1.264
466.60 1.263
466.70 1.262
466.80 1.261
466.90 1.26
467.00 1.259
467.10 1.258
467.20 1.257
467.30 1.257
467.40 1.256
467.50 1.255
467.60 1.254
467.70 1.253
467.80 1.252
467.90 1.251
468.00 1.25
468.10 1.249
468.20 1.248
468.30 1.247
468.40 1.246
468.50 1.245
468.60 1.244
468.70 1.243
468.80 1.242
468.90 1.241
469.00 1.24
469.10 1.239
469.20 1.238
469.30 1.238
469.40 1.237
469.50 1.236
469.60 1.235
469.70 1.234
469.80 1.233
469.90 1.232
470.00 1.231
470.10 1.23
470.20 1.229
470.30 1.228
470.40 1.227
470.50 1.226
470.60 1.225
470.70 1.224
470.80 1.223
470.90 1.222
471.00 1.221
471.10 1.22
471.20 1.219
471.30 1.218
471.40 1.217
471.50 1.216
471.60 1.215
471.70 1.214
471.80 1.213
471.90 1.213
472.00 1.212
472.10 1.211
472.20 1.21
472.30 1.209
472.40 1.208
472.50 1.207
472.60 1.206
472.70 1.205
472.80 1.204
472.90 1.203
473.00 1.202
473.10 1.201
473.20 1.2
473.30 1.198
473.40 1.197
473.50 1.196
473.60 1.195
473.70 1.194
473.80 1.193
473.90 1.192
474.00 1.191
474.10 1.19
474.20 1.189
474.30 1.188
474.40 1.187
474.50 1.186
474.60 1.185
474.70 1.184
474.80 1.182
474.90 1.181
475.00 1.18
475.10 1.179
475.20 1.178
475.30 1.177
475.40 1.176
475.50 1.175
475.60 1.173
475.70 1.172
475.80 1.171
475.90 1.17
476.00 1.169
476.10 1.168
476.20 1.166
476.30 1.165
476.40 1.164
476.50 1.162
476.60 1.161
476.70 1.16
476.80 1.159
476.90 1.157
477.00 1.156
477.10 1.155
477.20 1.153
477.30 1.152
477.40 1.151
477.50 1.149
477.60 1.148
477.70 1.146
477.80 1.145
477.90 1.143
478.00 1.142
478.10 1.14
478.20 1.139
478.30 1.137
478.40 1.135
478.50 1.133
478.60 1.132
478.70 1.13
478.80 1.128
478.90 1.126
479.00 1.125
479.10 1.123
479.20 1.121
479.30 1.119
479.40 1.117
479.50 1.114
479.60 1.112
479.70 1.11
479.80 1.108
479.90 1.106
480.00 1.103
480.10 1.101
480.20 1.099
480.30 1.096
480.40 1.093
480.50 1.09
480.60 1.087
480.70 1.084
480.80 1.081
480.90 1.078
481.00 1.075
481.10 1.072
481.20 1.068
481.30 1.064
481.40 1.06
481.50 1.056
481.60 1.051
481.70 1.047
481.80 1.043
481.90 1.039
482.00 1.034
482.10 1.03
482.20 1.024
482.30 1.018
482.40 1.012
482.50 1.005
482.60 0.9987
482.70 0.9923
482.80 0.9859
482.90 0.9795
483.00 0.9731
483.10 0.9667
483.20 0.9579
483.30 0.9479
483.40 0.9379
483.50 0.9279
483.60 0.918
483.70 0.908
483.80 0.8981
483.90 0.8882
484.00 0.8782
484.10 0.8683
484.20 0.8561
484.30 0.8429
484.40 0.8296
484.50 0.8164
484.60 0.8032
484.70 0.7883
484.80 0.7727
484.90 0.7571
485.00 0.7415
485.10 0.7259
485.20 0.7094
485.30 0.6924
485.40 0.6744
485.50 0.6559
485.60 0.6362
485.70 0.616
485.80 0.5933
485.90 0.5694
486.00 0.5386
486.10 0.4284
486.20 0.4895
486.30 0.5504
486.40 0.5759
486.50 0.5993
486.60 0.6201
486.70 0.6397
486.80 0.658
486.90 0.6757
487.00 0.6923
487.10 0.7083
487.20 0.7234
487.30 0.738
487.40 0.7525
487.50 0.7671
487.60 0.7816
487.70 0.7944
487.80 0.8065
487.90 0.8185
488.00 0.8305
488.10 0.8425
488.20 0.8521
488.30 0.8606
488.40 0.8691
488.50 0.8776
488.60 0.8861
488.70 0.8946
488.80 0.9031
488.90 0.9116
489.00 0.92
489.10 0.9285
489.20 0.9345
489.30 0.9393
489.40 0.9441
489.50 0.9489
489.60 0.9537
489.70 0.9585
489.80 0.9633
489.90 0.9681
490.00 0.9729
490.10 0.9776
490.20 0.9809
490.30 0.9835
490.40 0.9861
490.50 0.9886
490.60 0.9912
490.70 0.9938
490.80 0.9963
490.90 0.9989
491.00 1.001
491.10 1.004
491.20 1.006
491.30 1.007
491.40 1.008
491.50 1.01
491.60 1.011
491.70 1.012
491.80 1.013
491.90 1.015
492.00 1.016
492.10 1.017
492.20 1.018
492.30 1.018
492.40 1.019
492.50 1.02
492.60 1.02
492.70 1.021
492.80 1.021
492.90 1.022
493.00 1.022
493.10 1.023
493.20 1.023
493.30 1.023
493.40 1.023
493.50 1.023
493.60 1.024
493.70 1.024
493.80 1.024
493.90 1.024
494.00 1.024
494.10 1.024
494.20 1.024
494.30 1.024
494.40 1.024
494.50 1.024
494.60 1.023
494.70 1.023
494.80 1.023
494.90 1.023
495.00 1.023
495.10 1.023
495.20 1.022
495.30 1.022
495.40 1.022
495.50 1.021
495.60 1.021
495.70 1.021
495.80 1.02
495.90 1.02
496.00 1.02
496.10 1.019
496.20 1.019
496.30 1.019
496.40 1.018
496.50 1.018
496.60 1.017
496.70 1.017
496.80 1.017
496.90 1.016
497.00 1.016
497.10 1.015
497.20 1.015
497.30 1.014
497.40 1.014
497.50 1.013
497.60 1.013
497.70 1.012
497.80 1.012
497.90 1.011
498.00 1.011
498.10 1.01
498.20 1.01
498.30 1.009
498.40 1.009
498.50 1.008
498.60 1.008
498.70 1.007
498.80 1.007
498.90 1.006
499.00 1.006
499.10 1.005
499.20 1.005
499.30 1.004
499.40 1.003
499.50 1.003
499.60 1.002
499.70 1.002
499.80 1.001
499.90 1.001
500.00 1
500.10 0.9994
500.20 0.9989
500.30 0.9983
500.40 0.9977
500.50 0.9971
500.60 0.9965
500.70 0.9959
500.80 0.9953
500.90 0.9948
501.00 0.9942
501.10 0.9936
501.20 0.993
501.30 0.9924
501.40 0.9918
501.50 0.9912
501.60 0.9906
501.70 0.99
501.80 0.9894
501.90 0.9888
502.00 0.9882
502.10 0.9876
502.20 0.987
502.30 0.9864
502.40 0.9858
502.50 0.9852
502.60 0.9846
502.70 0.984
502.80 0.9834
502.90 0.9828
503.00 0.9822
503.10 0.9816
503.20 0.981
503.30 0.9803
503.40 0.9797
503.50 0.9791
503.60 0.9785
503.70 0.9779
503.80 0.9773
503.90 0.9766
504.00 0.976
504.10 0.9754
504.20 0.9748
504.30 0.9742
504.40 0.9736
504.50 0.9729
504.60 0.9723
504.70 0.9717
504.80 0.9711
504.90 0.9705
505.00 0.9699
505.10 0.9693
505.20 0.9687
505.30 0.968
505.40 0.9674
505.50 0.9668
505.60 0.9662
505.70 0.9656
505.80 0.965
505.90 0.9643
506.00 0.9637
506.10 0.9631
506.20 0.9625
506.30 0.9619
506.40 0.9613
506.50 0.9607
506.60 0.96
506.70 0.9594
506.80 0.9588
506.90 0.9582
507.00 0.9576
507.10 0.957
507.20 0.9564
507.30 0.9557
507.40 0.9551
507.50 0.9545
507.60 0.9539
507.70 0.9533
507.80 0.9527
507.90 0.9521
508.00 0.9514
508.10 0.9508
508.20 0.9502
508.30 0.9496
508.40 0.949
508.50 0.9484
508.60 0.9478
508.70 0.9472
508.80 0.9465
508.90 0.9459
509.00 0.9453
509.10 0.9447
509.20 0.9441
509.30 0.9435
509.40 0.9429
509.50 0.9423
509.60 0.9417
509.70 0.9411
509.80 0.9405
509.90 0.9398
510.00 0.9392
510.10 0.9386
510.20 0.938
510.30 0.9374
510.40 0.9368
510.50 0.9362
510.60 0.9356
510.70 0.935
510.80 0.9344
510.90 0.9337
511.00 0.9331
511.10 0.9325
511.20 0.9319
511.30 0.9313
511.40 0.9307
511.50 0.9301
511.60 0.9295
511.70 0.9289
511.80 0.9283
511.90 0.9277
512.00 0.9271
512.10 0.9265
512.20 0.9259
512.30 0.9253
512.40 0.9247
512.50 0.9241
512.60 0.9235
512.70 0.9229
512.80 0.9223
512.90 0.9217
513.00 0.9211
513.10 0.9205
513.20 0.9199
513.30 0.9193
513.40 0.9187
513.50 0.9181
513.60 0.9175
513.70 0.9169
513.80 0.9163
513.90 0.9157
514.00 0.9151
514.10 0.9145
514.20 0.9139
514.30 0.9133
514.40 0.9128
514.50 0.9122
514.60 0.9116
514.70 0.911
514.80 0.9104
514.90 0.9098
515.00 0.9092
515.10 0.9086
515.20 0.9081
515.30 0.9075
515.40 0.9069
515.50 0.9063
515.60 0.9057
515.70 0.9051
515.80 0.9045
515.90 0.9039
516.00 0.9033
516.10 0.9027
516.20 0.9022
516.30 0.9016
516.40 0.901
516.50 0.9004
516.60 0.8998
516.70 0.8993
516.80 0.8987
516.90 0.8981
517.00 0.8975
517.10 0.8969
517.20 0.8964
517.30 0.8958
517.40 0.8952
517.50 0.8946
517.60 0.894
517.70 0.8934
517.80 0.8929
517.90 0.8923
518.00 0.8917
518.10 0.8911
518.20 0.8905
518.30 0.89
518.40 0.8894
518.50 0.8888
518.60 0.8882
518.70 0.8877
518.80 0.8871
518.90 0.8865
519.00 0.886
519.10 0.8854
519.20 0.8848
519.30 0.8842
519.40 0.8837
519.50 0.8831
519.60 0.8825
519.70 0.8819
519.80 0.8814
519.90 0.8808
520.00 0.8802
520.10 0.8796
520.20 0.8791
520.30 0.8785
520.40 0.8779
520.50 0.8774
520.60 0.8768
520.70 0.8762
520.80 0.8757
520.90 0.8751
521.00 0.8745
521.10 0.874
521.20 0.8734
521.30 0.8729
521.40 0.8723
521.50 0.8717
521.60 0.8712
521.70 0.8706
521.80 0.87
521.90 0.8695
522.00 0.8689
522.10 0.8684
522.20 0.8678
522.30 0.8672
522.40 0.8667
522.50 0.8661
522.60 0.8656
522.70 0.865
522.80 0.8645
522.90 0.8639
523.00 0.8633
523.10 0.8628
523.20 0.8622
523.30 0.8617
523.40 0.8611
523.50 0.8606
523.60 0.86
523.70 0.8595
523.80 0.8589
523.90 0.8584
524.00 0.8578
524.10 0.8573
524.20 0.8567
524.30 0.8561
524.40 0.8556
524.50 0.855
524.60 0.8545
524.70 0.8539
524.80 0.8534
524.90 0.8528
525.00 0.8523
525.10 0.8517
525.20 0.8512
525.30 0.8507
525.40 0.8501
525.50 0.8496
525.60 0.849
525.70 0.8485
525.80 0.8479
525.90 0.8474
526.00 0.8468
526.10 0.8463
526.20 0.8457
526.30 0.8452
526.40 0.8446
526.50 0.8441
526.60 0.8436
526.70 0.843
526.80 0.8425
526.90 0.8419
527.00 0.8414
527.10 0.8408
527.20 0.8403
527.30 0.8398
527.40 0.8392
527.50 0.8387
527.60 0.8382
527.70 0.8376
527.80 0.8371
527.90 0.8366
528.00 0.836
528.10 0.8355
528.20 0.835
528.30 0.8344
528.40 0.8339
528.50 0.8334
528.60 0.8328
528.70 0.8323
528.80 0.8318
528.90 0.8312
529.00 0.8307
529.10 0.8302
529.20 0.8296
529.30 0.8291
529.40 0.8286
529.50 0.828
529.60 0.8275
529.70 0.827
529.80 0.8265
529.90 0.8259
530.00 0.8254
530.10 0.8249
530.20 0.8244
530.30 0.8238
530.40 0.8233
530.50 0.8228
530.60 0.8222
530.70 0.8217
530.80 0.8212
530.90 0.8207
531.00 0.8201
531.10 0.8196
531.20 0.8191
531.30 0.8186
531.40 0.818
531.50 0.8175
531.60 0.817
531.70 0.8165
531.80 0.816
531.90 0.8154
532.00 0.8149
532.10 0.8144
532.20 0.8139
532.30 0.8134
532.40 0.8128
532.50 0.8123
532.60 0.8118
532.70 0.8113
532.80 0.8108
532.90 0.8103
533.00 0.8098
533.10 0.8092
533.20 0.8087
533.30 0.8082
533.40 0.8077
533.50 0.8072
533.60 0.8067
533.70 0.8062
533.80 0.8057
533.90 0.8051
534.00 0.8046
534.10 0.8041
534.20 0.8036
534.30 0.8031
534.40 0.8026
534.50 0.8021
534.60 0.8016
534.70 0.8011
534.80 0.8006
534.90 0.8001
535.00 0.7996
535.10 0.7991
535.20 0.7986
535.30 0.7981
535.40 0.7976
535.50 0.7971
535.60 0.7965
535.70 0.796
535.80 0.7955
535.90 0.795
536.00 0.7945
536.10 0.794
536.20 0.7935
536.30 0.793
536.40 0.7925
536.50 0.792
536.60 0.7915
536.70 0.791
536.80 0.7905
536.90 0.79
537.00 0.7895
537.10 0.789
537.20 0.7885
537.30 0.788
537.40 0.7875
537.50 0.787
537.60 0.7865
537.70 0.786
537.80 0.7855
537.90 0.785
538.00 0.7845
538.10 0.7841
538.20 0.7836
538.30 0.7831
538.40 0.7826
538.50 0.7821
538.60 0.7816
538.70 0.7811
538.80 0.7806
538.90 0.7801
539.00 0.7796
539.10 0.7791
539.20 0.7786
539.30 0.7781
539.40 0.7776
539.50 0.7771
539.60 0.7766
539.70 0.7762
539.80 0.7757
539.90 0.7752
540.00 0.7747
540.10 0.7742
540.20 0.7737
540.30 0.7732
540.40 0.7728
540.50 0.7723
540.60 0.7718
540.70 0.7713
540.80 0.7708
540.90 0.7703
541.00 0.7699
541.10 0.7694
541.20 0.7689
541.30 0.7684
541.40 0.7679
541.50 0.7674
541.60 0.767
541.70 0.7665
541.80 0.766
541.90 0.7655
542.00 0.765
542.10 0.7646
542.20 0.7641
542.30 0.7636
542.40 0.7631
542.50 0.7626
542.60 0.7622
542.70 0.7617
542.80 0.7612
542.90 0.7607
543.00 0.7603
543.10 0.7598
543.20 0.7593
543.30 0.7588
543.40 0.7584
543.50 0.7579
543.60 0.7574
543.70 0.757
543.80 0.7565
543.90 0.756
544.00 0.7556
544.10 0.7551
544.20 0.7546
544.30 0.7541
544.40 0.7537
544.50 0.7532
544.60 0.7527
544.70 0.7523
544.80 0.7518
544.90 0.7513
545.00 0.7508
545.10 0.7504
545.20 0.7499
545.30 0.7494
545.40 0.749
545.50 0.7485
545.60 0.748
545.70 0.7476
545.80 0.7471
545.90 0.7466
546.00 0.7461
546.10 0.7457
546.20 0.7452
546.30 0.7448
546.40 0.7443
546.50 0.7439
546.60 0.7434
546.70 0.7429
546.80 0.7425
546.90 0.742
547.00 0.7416
547.10 0.7411
547.20 0.7407
547.30 0.7402
547.40 0.7398
547.50 0.7393
547.60 0.7388
547.70 0.7384
547.80 0.7379
547.90 0.7375
548.00 0.737
548.10 0.7366
548.20 0.7361
548.30 0.7356
548.40 0.7352
548.50 0.7347
548.60 0.7343
548.70 0.7338
548.80 0.7333
548.90 0.7329
549.00 0.7324
549.10 0.732
549.20 0.7315
549.30 0.7311
549.40 0.7306
549.50 0.7302
549.60 0.7297
549.70 0.7292
549.80 0.7288
549.90 0.7283
550.00 0.7279
550.10 0.7274
550.20 0.727
550.30 0.7265
550.40 0.7261
550.50 0.7256
550.60 0.7252
550.70 0.7247
550.80 0.7243
550.90 0.7239
551.00 0.7234
551.10 0.723
551.20 0.7225
551.30 0.7221
551.40 0.7216
551.50 0.7212
551.60 0.7208
551.70 0.7203
551.80 0.7199
551.90 0.7194
552.00 0.719
552.10 0.7186
552.20 0.7181
552.30 0.7177
552.40 0.7172
552.50 0.7168
552.60 0.7163
552.70 0.7159
552.80 0.7155
552.90 0.715
553.00 0.7146
553.10 0.7141
553.20 0.7137
553.30 0.7132
553.40 0.7128
553.50 0.7124
553.60 0.7119
553.70 0.7115
553.80 0.711
553.90 0.7106
554.00 0.7102
554.10 0.7097
554.20 0.7093
554.30 0.7089
554.40 0.7084
554.50 0.708
554.60 0.7076
554.70 0.7071
554.80 0.7067
554.90 0.7063
555.00 0.7058
555.10 0.7054
555.20 0.705
555.30 0.7045
555.40 0.7041
555.50 0.7037
555.60 0.7032
555.70 0.7028
555.80 0.7024
555.90 0.7019
556.00 0.7015
556.10 0.7011
556.20 0.7006
556.30 0.7002
556.40 0.6998
556.50 0.6993
556.60 0.6989
556.70 0.6985
556.80 0.6981
556.90 0.6976
557.00 0.6972
557.10 0.6968
557.20 0.6964
557.30 0.6959
557.40 0.6955
557.50 0.6951
557.60 0.6947
557.70 0.6942
557.80 0.6938
557.90 0.6934
558.00 0.693
558.10 0.6925
558.20 0.6921
558.30 0.6917
558.40 0.6913
558.50 0.6909
558.60 0.6904
558.70 0.69
558.80 0.6896
558.90 0.6892
559.00 0.6888
559.10 0.6883
559.20 0.6879
559.30 0.6875
559.40 0.6871
559.50 0.6867
559.60 0.6862
559.70 0.6858
559.80 0.6854
559.90 0.685
560.00 0.6846
560.10 0.6841
560.20 0.6837
560.30 0.6833
560.40 0.6829
560.50 0.6825
560.60 0.6821
560.70 0.6816
560.80 0.6812
560.90 0.6808
561.00 0.6804
561.10 0.68
561.20 0.6796
561.30 0.6792
561.40 0.6787
561.50 0.6783
561.60 0.6779
561.70 0.6775
561.80 0.6771
561.90 0.6767
562.00 0.6763
562.10 0.6758
562.20 0.6754
562.30 0.675
562.40 0.6746
562.50 0.6742
562.60 0.6738
562.70 0.6734
562.80 0.673
562.90 0.6726
563.00 0.6721
563.10 0.6717
563.20 0.6713
563.30 0.6709
563.40 0.6705
563.50 0.6701
563.60 0.6697
563.70 0.6693
563.80 0.6689
563.90 0.6685
564.00 0.6681
564.10 0.6677
564.20 0.6673
564.30 0.6669
564.40 0.6665
564.50 0.6661
564.60 0.6657
564.70 0.6653
564.80 0.6649
564.90 0.6645
565.00 0.6641
565.10 0.6637
565.20 0.6633
565.30 0.6629
565.40 0.6625
565.50 0.6621
565.60 0.6617
565.70 0.6613
565.80 0.6609
565.90 0.6605
566.00 0.6601
566.10 0.6597
566.20 0.6593
566.30 0.6589
566.40 0.6585
566.50 0.6581
566.60 0.6577
566.70 0.6573
566.80 0.6569
566.90 0.6565
567.00 0.6561
567.10 0.6557
567.20 0.6553
567.30 0.6549
567.40 0.6545
567.50 0.6541
567.60 0.6537
567.70 0.6534
567.80 0.653
567.90 0.6526
568.00 0.6522
568.10 0.6518
568.20 0.6514
568.30 0.651
568.40 0.6506
568.50 0.6502
568.60 0.6498
568.70 0.6494
568.80 0.649
568.90 0.6487
569.00 0.6483
569.10 0.6479
569.20 0.6475
569.30 0.6471
569.40 0.6467
569.50 0.6463
569.60 0.6459
569.70 0.6455
569.80 0.6452
569.90 0.6448
570.00 0.6444
570.10 0.644
570.20 0.6436
570.30 0.6432
570.40 0.6428
570.50 0.6424
570.60 0.6421
570.70 0.6417
570.80 0.6413
570.90 0.6409
571.00 0.6405
571.10 0.6401
571.20 0.6398
571.30 0.6394
571.40 0.639
571.50 0.6386
571.60 0.6382
571.70 0.6379
571.80 0.6375
571.90 0.6371
572.00 0.6367
572.10 0.6363
572.20 0.636
572.30 0.6356
572.40 0.6352
572.50 0.6348
572.60 0.6344
572.70 0.6341
572.80 0.6337
572.90 0.6333
573.00 0.6329
573.10 0.6325
573.20 0.6322
573.30 0.6318
573.40 0.6314
573.50 0.631
573.60 0.6307
573.70 0.6303
573.80 0.6299
573.90 0.6295
574.00 0.6292
574.10 0.6288
574.20 0.6284
574.30 0.628
574.40 0.6277
574.50 0.6273
574.60 0.6269
574.70 0.6265
574.80 0.6262
574.90 0.6258
575.00 0.6254
575.10 0.625
575.20 0.6247
575.30 0.6243
575.40 0.6239
575.50 0.6235
575.60 0.6232
575.70 0.6228
575.80 0.6224
575.90 0.6221
576.00 0.6217
576.10 0.6213
576.20 0.621
576.30 0.6206
576.40 0.6202
576.50 0.6199
576.60 0.6195
576.70 0.6191
576.80 0.6188
576.90 0.6184
577.00 0.618
577.10 0.6177
577.20 0.6173
577.30 0.6169
577.40 0.6166
577.50 0.6162
577.60 0.6158
577.70 0.6155
577.80 0.6151
577.90 0.6147
578.00 0.6144
578.10 0.614
578.20 0.6137
578.30 0.6133
578.40 0.6129
578.50 0.6126
578.60 0.6122
578.70 0.6118
578.80 0.6115
578.90 0.6111
579.00 0.6108
579.10 0.6104
579.20 0.61
579.30 0.6097
579.40 0.6093
579.50 0.6089
579.60 0.6086
579.70 0.6082
579.80 0.6079
579.90 0.6075
580.00 0.6071
580.10 0.6068
580.20 0.6064
580.30 0.6061
580.40 0.6057
580.50 0.6054
580.60 0.605
580.70 0.6046
580.80 0.6043
580.90 0.6039
581.00 0.6036
581.10 0.6032
581.20 0.6028
581.30 0.6025
581.40 0.6021
581.50 0.6018
581.60 0.6014
581.70 0.6011
581.80 0.6007
581.90 0.6004
582.00 0.6
582.10 0.5997
582.20 0.5993
582.30 0.599
582.40 0.5986
582.50 0.5983
582.60 0.5979
582.70 0.5976
582.80 0.5972
582.90 0.5969
583.00 0.5965
583.10 0.5962
583.20 0.5958
583.30 0.5955
583.40 0.5951
583.50 0.5948
583.60 0.5944
583.70 0.5941
583.80 0.5937
583.90 0.5934
584.00 0.593
584.10 0.5927
584.20 0.5923
584.30 0.592
584.40 0.5916
584.50 0.5913
584.60 0.591
584.70 0.5906
584.80 0.5903
584.90 0.5899
585.00 0.5896
585.10 0.5892
585.20 0.5889
585.30 0.5885
585.40 0.5882
585.50 0.5878
585.60 0.5875
585.70 0.5871
585.80 0.5868
585.90 0.5865
586.00 0.5861
586.10 0.5858
586.20 0.5854
586.30 0.5851
586.40 0.5847
586.50 0.5844
586.60 0.5841
586.70 0.5837
586.80 0.5834
586.90 0.583
587.00 0.5827
587.10 0.5824
587.20 0.582
587.30 0.5817
587.40 0.5813
587.50 0.581
587.60 0.5807
587.70 0.5803
587.80 0.58
587.90 0.5796
588.00 0.5793
588.10 0.579
588.20 0.5786
588.30 0.5783
588.40 0.578
588.50 0.5776
588.60 0.5773
588.70 0.5769
588.80 0.5766
588.90 0.5763
589.00 0.5759
589.10 0.5756
589.20 0.5753
589.30 0.5749
589.40 0.5746
589.50 0.5743
589.60 0.5739
589.70 0.5736
589.80 0.5733
589.90 0.5729
590.00 0.5726
590.10 0.5723
590.20 0.5719
590.30 0.5716
590.40 0.5713
590.50 0.5709
590.60 0.5706
590.70 0.5703
590.80 0.57
590.90 0.5696
591.00 0.5693
591.10 0.569
591.20 0.5686
591.30 0.5683
591.40 0.568
591.50 0.5676
591.60 0.5673
591.70 0.567
591.80 0.5667
591.90 0.5663
592.00 0.566
592.10 0.5657
592.20 0.5653
592.30 0.565
592.40 0.5647
592.50 0.5643
592.60 0.564
592.70 0.5637
592.80 0.5634
592.90 0.563
593.00 0.5627
593.10 0.5624
593.20 0.5621
593.30 0.5617
593.40 0.5614
593.50 0.5611
593.60 0.5608
593.70 0.5604
593.80 0.5601
593.90 0.5598
594.00 0.5595
594.10 0.5592
594.20 0.5588
594.30 0.5585
594.40 0.5582
594.50 0.5579
594.60 0.5576
594.70 0.5572
594.80 0.5569
594.90 0.5566
595.00 0.5563
595.10 0.556
595.20 0.5556
595.30 0.5553
595.40 0.555
595.50 0.5547
595.60 0.5543
595.70 0.554
595.80 0.5537
595.90 0.5534
596.00 0.553
596.10 0.5527
596.20 0.5524
596.30 0.5521
596.40 0.5517
596.50 0.5514
596.60 0.5511
596.70 0.5508
596.80 0.5504
596.90 0.5501
597.00 0.5498
597.10 0.5495
597.20 0.5491
597.30 0.5488
597.40 0.5485
597.50 0.5482
597.60 0.5479
597.70 0.5476
597.80 0.5473
597.90 0.5469
598.00 0.5466
598.10 0.5463
598.20 0.546
598.30 0.5457
598.40 0.5454
598.50 0.5451
598.60 0.5447
598.70 0.5444
598.80 0.5441
598.90 0.5438
599.00 0.5435
599.10 0.5432
599.20 0.5429
599.30 0.5426
599.40 0.5422
599.50 0.5419
599.60 0.5416
599.70 0.5413
599.80 0.541
599.90 0.5407
600.00 0.5404
600.10 0.5401
600.20 0.5398
600.30 0.5395
600.40 0.5391
600.50 0.5388
600.60 0.5385
600.70 0.5382
600.80 0.5379
600.90 0.5376
601.00 0.5373
601.10 0.537
601.20 0.5367
601.30 0.5364
601.40 0.5361
601.50 0.5358
601.60 0.5354
601.70 0.5351
601.80 0.5348
601.90 0.5345
602.00 0.5342
602.10 0.5339
602.20 0.5336
602.30 0.5333
602.40 0.533
602.50 0.5327
602.60 0.5324
602.70 0.5321
602.80 0.5318
602.90 0.5315
603.00 0.5312
603.10 0.5309
603.20 0.5305
603.30 0.5302
603.40 0.5299
603.50 0.5296
603.60 0.5293
603.70 0.529
603.80 0.5287
603.90 0.5284
604.00 0.5281
604.10 0.5278
604.20 0.5275
604.30 0.5272
604.40 0.5269
604.50 0.5266
604.60 0.5263
604.70 0.526
604.80 0.5257
604.90 0.5254
605.00 0.5251
605.10 0.5248
605.20 0.5245
605.30 0.5242
605.40 0.5239
605.50 0.5236
605.60 0.5233
605.70 0.523
605.80 0.5227
605.90 0.5224
606.00 0.5221
606.10 0.5218
606.20 0.5215
606.30 0.5212
606.40 0.521
606.50 0.5207
606.60 0.5204
606.70 0.5201
606.80 0.5198
606.90 0.5195
607.00 0.5192
607.10 0.5189
607.20 0.5186
607.30 0.5183
607.40 0.518
607.50 0.5177
607.60 0.5174
607.70 0.5171
607.80 0.5169
607.90 0.5166
608.00 0.5163
608.10 0.516
608.20 0.5157
608.30 0.5154
608.40 0.5151
608.50 0.5148
608.60 0.5145
608.70 0.5142
608.80 0.5139
608.90 0.5136
609.00 0.5133
609.10 0.513
609.20 0.5127
609.30 0.5124
609.40 0.5122
609.50 0.5119
609.60 0.5116
609.70 0.5113
609.80 0.511
609.90 0.5107
610.00 0.5104
610.10 0.5101
610.20 0.5099
610.30 0.5096
610.40 0.5093
610.50 0.509
610.60 0.5087
610.70 0.5084
610.80 0.5081
610.90 0.5078
611.00 0.5076
611.10 0.5073
611.20 0.507
611.30 0.5067
611.40 0.5064
611.50 0.5061
611.60 0.5058
611.70 0.5055
611.80 0.5053
611.90 0.505
612.00 0.5047
612.10 0.5044
612.20 0.5041
612.30 0.5038
612.40 0.5036
612.50 0.5033
612.60 0.503
612.70 0.5027
612.80 0.5024
612.90 0.5021
613.00 0.5019
613.10 0.5016
613.20 0.5013
613.30 0.501
613.40 0.5007
613.50 0.5004
613.60 0.5002
613.70 0.4999
613.80 0.4996
613.90 0.4993
614.00 0.499
614.10 0.4987
614.20 0.4985
614.30 0.4982
614.40 0.4979
614.50 0.4976
614.60 0.4973
614.70 0.4971
614.80 0.4968
614.90 0.4965
615.00 0.4962
615.10 0.4959
615.20 0.4957
615.30 0.4954
615.40 0.4951
615.50 0.4948
615.60 0.4946
615.70 0.4943
615.80 0.494
615.90 0.4937
616.00 0.4935
616.10 0.4932
616.20 0.4929
616.30 0.4926
616.40 0.4924
616.50 0.4921
616.60 0.4918
616.70 0.4915
616.80 0.4912
616.90 0.491
617.00 0.4907
617.10 0.4904
617.20 0.4901
617.30 0.4899
617.40 0.4896
617.50 0.4893
617.60 0.489
617.70 0.4888
617.80 0.4885
617.90 0.4882
618.00 0.4879
618.10 0.4877
618.20 0.4874
618.30 0.4871
618.40 0.4869
618.50 0.4866
618.60 0.4863
618.70 0.486
618.80 0.4858
618.90 0.4855
619.00 0.4852
619.10 0.4849
619.20 0.4847
619.30 0.4844
619.40 0.4841
619.50 0.4839
619.60 0.4836
619.70 0.4833
619.80 0.4831
619.90 0.4828
620.00 0.4825
620.10 0.4822
620.20 0.482
620.30 0.4817
620.40 0.4814
620.50 0.4812
620.60 0.4809
620.70 0.4806
620.80 0.4804
620.90 0.4801
621.00 0.4798
621.10 0.4795
621.20 0.4793
621.30 0.479
621.40 0.4787
621.50 0.4785
621.60 0.4782
621.70 0.4779
621.80 0.4777
621.90 0.4774
622.00 0.4771
622.10 0.4769
622.20 0.4766
622.30 0.4763
622.40 0.4761
622.50 0.4758
622.60 0.4755
622.70 0.4753
622.80 0.475
622.90 0.4747
623.00 0.4745
623.10 0.4742
623.20 0.4739
623.30 0.4737
623.40 0.4734
623.50 0.4732
623.60 0.4729
623.70 0.4726
623.80 0.4724
623.90 0.4721
624.00 0.4718
624.10 0.4716
624.20 0.4713
624.30 0.471
624.40 0.4708
624.50 0.4705
624.60 0.4703
624.70 0.47
624.80 0.4697
624.90 0.4695
625.00 0.4692
625.10 0.4689
625.20 0.4687
625.30 0.4684
625.40 0.4682
625.50 0.4679
625.60 0.4676
625.70 0.4674
625.80 0.4671
625.90 0.4669
626.00 0.4666
626.10 0.4663
626.20 0.4661
626.30 0.4658
626.40 0.4656
626.50 0.4653
626.60 0.465
626.70 0.4648
626.80 0.4645
626.90 0.4643
627.00 0.464
627.10 0.4637
627.20 0.4635
627.30 0.4632
627.40 0.463
627.50 0.4627
627.60 0.4624
627.70 0.4622
627.80 0.4619
627.90 0.4617
628.00 0.4614
628.10 0.4612
628.20 0.4609
628.30 0.4606
628.40 0.4604
628.50 0.4601
628.60 0.4599
628.70 0.4596
628.80 0.4594
628.90 0.4591
629.00 0.4588
629.10 0.4586
629.20 0.4583
629.30 0.4581
629.40 0.4578
629.50 0.4576
629.60 0.4573
629.70 0.4571
629.80 0.4568
629.90 0.4565
630.00 0.4563
630.10 0.456
630.20 0.4558
630.30 0.4555
630.40 0.4553
630.50 0.455
630.60 0.4548
630.70 0.4545
630.80 0.4542
630.90 0.454
631.00 0.4537
631.10 0.4535
631.20 0.4532
631.30 0.453
631.40 0.4527
631.50 0.4525
631.60 0.4522
631.70 0.452
631.80 0.4517
631.90 0.4515
632.00 0.4512
632.10 0.451
632.20 0.4507
632.30 0.4504
632.40 0.4502
632.50 0.4499
632.60 0.4497
632.70 0.4494
632.80 0.4492
632.90 0.4489
633.00 0.4487
633.10 0.4484
633.20 0.4482
633.30 0.4479
633.40 0.4477
633.50 0.4474
633.60 0.4472
633.70 0.4469
633.80 0.4467
633.90 0.4464
634.00 0.4462
634.10 0.4459
634.20 0.4457
634.30 0.4454
634.40 0.4452
634.50 0.4449
634.60 0.4446
634.70 0.4444
634.80 0.4441
634.90 0.4439
635.00 0.4436
635.10 0.4434
635.20 0.4431
635.30 0.4429
635.40 0.4426
635.50 0.4424
635.60 0.4421
635.70 0.4419
635.80 0.4416
635.90 0.4414
636.00 0.4411
636.10 0.4409
636.20 0.4406
636.30 0.4404
636.40 0.4401
636.50 0.4399
636.60 0.4396
636.70 0.4394
636.80 0.4391
636.90 0.4389
637.00 0.4386
637.10 0.4384
637.20 0.4381
637.30 0.4379
637.40 0.4376
637.50 0.4373
637.60 0.4371
637.70 0.4368
637.80 0.4366
637.90 0.4363
638.00 0.4361
638.10 0.4358
638.20 0.4356
638.30 0.4353
638.40 0.4351
638.50 0.4348
638.60 0.4346
638.70 0.4343
638.80 0.4341
638.90 0.4338
639.00 0.4335
639.10 0.4333
639.20 0.433
639.30 0.4328
639.40 0.4325
639.50 0.4323
639.60 0.432
639.70 0.4318
639.80 0.4315
639.90 0.4312
640.00 0.431
640.10 0.4307
640.20 0.4305
640.30 0.4302
640.40 0.43
640.50 0.4297
640.60 0.4294
640.70 0.4292
640.80 0.4289
640.90 0.4287
641.00 0.4284
641.10 0.4281
641.20 0.4279
641.30 0.4276
641.40 0.4274
641.50 0.4271
641.60 0.4268
641.70 0.4266
641.80 0.4263
641.90 0.426
642.00 0.4258
642.10 0.4255
642.20 0.4252
642.30 0.425
642.40 0.4247
642.50 0.4244
642.60 0.4242
642.70 0.4239
642.80 0.4236
642.90 0.4233
643.00 0.4231
643.10 0.4228
643.20 0.4225
643.30 0.4223
643.40 0.422
643.50 0.4217
643.60 0.4214
643.70 0.4211
643.80 0.4208
643.90 0.4206
644.00 0.4203
644.10 0.42
644.20 0.4197
644.30 0.4194
644.40 0.4191
644.50 0.4188
644.60 0.4186
644.70 0.4183
644.80 0.418
644.90 0.4177
645.00 0.4174
645.10 0.4171
645.20 0.4168
645.30 0.4165
645.40 0.4162
645.50 0.4158
645.60 0.4155
645.70 0.4152
645.80 0.4149
645.90 0.4146
646.00 0.4143
646.10 0.4139
646.20 0.4136
646.30 0.4133
646.40 0.4129
646.50 0.4126
646.60 0.4123
646.70 0.4119
646.80 0.4116
646.90 0.4112
647.00 0.4109
647.10 0.4105
647.20 0.4102
647.30 0.4098
647.40 0.4094
647.50 0.409
647.60 0.4086
647.70 0.4082
647.80 0.4078
647.90 0.4074
648.00 0.407
648.10 0.4067
648.20 0.4063
648.30 0.4059
648.40 0.4054
648.50 0.4049
648.60 0.4044
648.70 0.404
648.80 0.4035
648.90 0.403
649.00 0.4026
649.10 0.4021
649.20 0.4016
649.30 0.4012
649.40 0.4006
649.50 0.4
649.60 0.3994
649.70 0.3988
649.80 0.3983
649.90 0.3977
650.00 0.3971
650.10 0.3965
650.20 0.396
650.30 0.3953
650.40 0.3946
650.50 0.3938
650.60 0.393
650.70 0.3923
650.80 0.3915
650.90 0.3907
651.00 0.39
651.10 0.3892
651.20 0.3884
651.30 0.3876
651.40 0.3865
651.50 0.3854
651.60 0.3843
651.70 0.3833
651.80 0.3822
651.90 0.3811
652.00 0.38
652.10 0.3789
652.20 0.3778
652.30 0.3767
652.40 0.3751
652.50 0.3735
652.60 0.3719
652.70 0.3703
652.80 0.3687
652.90 0.3671
653.00 0.3655
653.10 0.3639
653.20 0.3623
653.30 0.3605
653.40 0.3581
653.50 0.3557
653.60 0.3534
653.70 0.351
653.80 0.3486
653.90 0.3462
654.00 0.3438
654.10 0.3414
654.20 0.339
654.30 0.3365
654.40 0.3333
654.50 0.3301
654.60 0.3269
654.70 0.3238
654.80 0.3204
654.90 0.3165
655.00 0.3126
655.10 0.3086
655.20 0.3047
655.30 0.3007
655.40 0.2963
655.50 0.2918
655.60 0.2869
655.70 0.2819
655.80 0.2763
655.90 0.2704
656.00 0.2628
656.10 0.2546
656.20 0.2209
656.30 0.1874
656.40 0.2436
656.50 0.2576
656.60 0.265
656.70 0.2719
656.80 0.2772
656.90 0.2824
657.00 0.287
657.10 0.2915
657.20 0.2956
657.30 0.2996
657.40 0.3032
657.50 0.3068
657.60 0.3104
657.70 0.314
657.80 0.3175
657.90 0.3203
658.00 0.3231
658.10 0.3259
658.20 0.3287
658.30 0.3314
658.40 0.3334
658.50 0.3354
658.60 0.3374
658.70 0.3394
658.80 0.3414
658.90 0.3434
659.00 0.3453
659.10 0.3473
659.20 0.3493
659.30 0.3511
659.40 0.3523
659.50 0.3535
659.60 0.3546
659.70 0.3558
659.80 0.357
659.90 0.3581
660.00 0.3593
660.10 0.3605
660.20 0.3616
660.30 0.3627
660.40 0.3633
660.50 0.3639
660.60 0.3646
660.70 0.3652
660.80 0.3659
660.90 0.3665
661.00 0.3671
661.10 0.3678
661.20 0.3684
661.30 0.369
661.40 0.3693
661.50 0.3696
661.60 0.37
661.70 0.3703
661.80 0.3706
661.90 0.3709
662.00 0.3713
662.10 0.3716
662.20 0.3719
662.30 0.3722
662.40 0.3723
662.50 0.3725
662.60 0.3726
662.70 0.3727
662.80 0.3729
662.90 0.373
663.00 0.3731
663.10 0.3733
663.20 0.3734
663.30 0.3735
663.40 0.3736
663.50 0.3736
663.60 0.3736
663.70 0.3736
663.80 0.3737
663.90 0.3737
664.00 0.3737
664.10 0.3738
664.20 0.3738
664.30 0.3738
664.40 0.3738
664.50 0.3737
664.60 0.3737
664.70 0.3736
664.80 0.3736
664.90 0.3735
665.00 0.3735
665.10 0.3735
665.20 0.3734
665.30 0.3734
665.40 0.3733
665.50 0.3732
665.60 0.3731
665.70 0.373
665.80 0.3729
665.90 0.3728
666.00 0.3728
666.10 0.3727
666.20 0.3726
666.30 0.3725
666.40 0.3724
666.50 0.3723
666.60 0.3721
666.70 0.372
666.80 0.3719
666.90 0.3718
667.00 0.3717
667.10 0.3716
667.20 0.3715
667.30 0.3713
667.40 0.3712
667.50 0.3711
667.60 0.3709
667.70 0.3708
667.80 0.3707
667.90 0.3705
668.00 0.3704
668.10 0.3703
668.20 0.3701
668.30 0.37
668.40 0.3698
668.50 0.3697
668.60 0.3695
668.70 0.3694
668.80 0.3693
668.90 0.3691
669.00 0.369
669.10 0.3688
669.20 0.3687
669.30 0.3685
669.40 0.3684
669.50 0.3682
669.60 0.368
669.70 0.3679
669.80 0.3677
669.90 0.3676
670.00 0.3674
670.10 0.3673
670.20 0.3671
670.30 0.3669
670.40 0.3668
670.50 0.3666
670.60 0.3665
670.70 0.3663
670.80 0.3661
670.90 0.366
671.00 0.3658
671.10 0.3656
671.20 0.3655
671.30 0.3653
671.40 0.3651
671.50 0.365
671.60 0.3648
671.70 0.3646
671.80 0.3645
671.90 0.3643
672.00 0.3641
672.10 0.364
672.20 0.3638
672.30 0.3636
672.40 0.3635
672.50 0.3633
672.60 0.3631
672.70 0.363
672.80 0.3628
672.90 0.3626
673.00 0.3624
673.10 0.3623
673.20 0.3621
673.30 0.3619
673.40 0.3618
673.50 0.3616
673.60 0.3614
673.70 0.3612
673.80 0.3611
673.90 0.3609
674.00 0.3607
674.10 0.3606
674.20 0.3604
674.30 0.3602
674.40 0.36
674.50 0.3599
674.60 0.3597
674.70 0.3595
674.80 0.3593
674.90 0.3592
675.00 0.359
675.10 0.3588
675.20 0.3586
675.30 0.3585
675.40 0.3583
675.50 0.3581
675.60 0.3579
675.70 0.3578
675.80 0.3576
675.90 0.3574
676.00 0.3572
676.10 0.3571
676.20 0.3569
676.30 0.3567
676.40 0.3566
676.50 0.3564
676.60 0.3562
676.70 0.356
676.80 0.3558
676.90 0.3557
677.00 0.3555
677.10 0.3553
677.20 0.3551
677.30 0.355
677.40 0.3548
677.50 0.3546
677.60 0.3544
677.70 0.3543
677.80 0.3541
677.90 0.3539
678.00 0.3537
678.10 0.3536
678.20 0.3534
678.30 0.3532
678.40 0.353
678.50 0.3529
678.60 0.3527
678.70 0.3525
678.80 0.3523
678.90 0.3522
679.00 0.352
679.10 0.3518
679.20 0.3516
679.30 0.3515
679.40 0.3513
679.50 0.3511
679.60 0.3509
679.70 0.3508
679.80 0.3506
679.90 0.3504
680.00 0.3502
680.10 0.3501
680.20 0.3499
680.30 0.3497
680.40 0.3496
680.50 0.3494
680.60 0.3492
680.70 0.349
680.80 0.3489
680.90 0.3487
681.00 0.3485
681.10 0.3483
681.20 0.3482
681.30 0.348
681.40 0.3478
681.50 0.3476
681.60 0.3475
681.70 0.3473
681.80 0.3471
681.90 0.3469
682.00 0.3468
682.10 0.3466
682.20 0.3464
682.30 0.3463
682.40 0.3461
682.50 0.3459
682.60 0.3457
682.70 0.3456
682.80 0.3454
682.90 0.3452
683.00 0.345
683.10 0.3449
683.20 0.3447
683.30 0.3445
683.40 0.3443
683.50 0.3442
683.60 0.344
683.70 0.3438
683.80 0.3437
683.90 0.3435
684.00 0.3433
684.10 0.3431
684.20 0.343
684.30 0.3428
684.40 0.3426
684.50 0.3425
684.60 0.3423
684.70 0.3421
684.80 0.3419
684.90 0.3418
685.00 0.3416
685.10 0.3414
685.20 0.3413
685.30 0.3411
685.40 0.3409
685.50 0.3407
685.60 0.3406
685.70 0.3404
685.80 0.3402
685.90 0.3401
686.00 0.3399
686.10 0.3397
686.20 0.3395
686.30 0.3394
686.40 0.3392
686.50 0.339
686.60 0.3389
686.70 0.3387
686.80 0.3385
686.90 0.3384
687.00 0.3382
687.10 0.338
687.20 0.3378
687.30 0.3377
687.40 0.3375
687.50 0.3373
687.60 0.3372
687.70 0.337
687.80 0.3368
687.90 0.3367
688.00 0.3365
688.10 0.3363
688.20 0.3362
688.30 0.336
688.40 0.3358
688.50 0.3357
688.60 0.3355
688.70 0.3353
688.80 0.3352
688.90 0.335
689.00 0.3348
689.10 0.3346
689.20 0.3345
689.30 0.3343
689.40 0.3341
689.50 0.334
689.60 0.3338
689.70 0.3336
689.80 0.3335
689.90 0.3333
690.00 0.3331
690.10 0.333
690.20 0.3328
690.30 0.3326
690.40 0.3325
690.50 0.3323
690.60 0.3322
690.70 0.332
690.80 0.3318
690.90 0.3317
691.00 0.3315
691.10 0.3313
691.20 0.3312
691.30 0.331
691.40 0.3308
691.50 0.3307
691.60 0.3305
691.70 0.3303
691.80 0.3302
691.90 0.33
692.00 0.3298
692.10 0.3297
692.20 0.3295
692.30 0.3293
692.40 0.3292
692.50 0.329
692.60 0.3289
692.70 0.3287
692.80 0.3285
692.90 0.3284
693.00 0.3282
693.10 0.328
693.20 0.3279
693.30 0.3277
693.40 0.3275
693.50 0.3274
693.60 0.3272
693.70 0.3271
693.80 0.3269
693.90 0.3267
694.00 0.3266
694.10 0.3264
694.20 0.3262
694.30 0.3261
694.40 0.3259
694.50 0.3257
694.60 0.3256
694.70 0.3254
694.80 0.3253
694.90 0.3251
695.00 0.3249
695.10 0.3248
695.20 0.3246
695.30 0.3245
695.40 0.3243
695.50 0.3241
695.60 0.324
695.70 0.3238
695.80 0.3236
695.90 0.3235
696.00 0.3233
696.10 0.3232
696.20 0.323
696.30 0.3228
696.40 0.3227
696.50 0.3225
696.60 0.3224
696.70 0.3222
696.80 0.322
696.90 0.3219
697.00 0.3217
697.10 0.3216
697.20 0.3214
697.30 0.3212
697.40 0.3211
697.50 0.3209
697.60 0.3207
697.70 0.3206
697.80 0.3204
697.90 0.3203
698.00 0.3201
698.10 0.3199
698.20 0.3198
698.30 0.3196
698.40 0.3195
698.50 0.3193
698.60 0.3192
698.70 0.319
698.80 0.3188
698.90 0.3187
699.00 0.3185
699.10 0.3184
699.20 0.3182
699.30 0.318
699.40 0.3179
699.50 0.3177
699.60 0.3176
699.70 0.3174
699.80 0.3172
699.90 0.3171
700.00 0.3169
700.10 0.3168
700.20 0.3166
700.30 0.3165
700.40 0.3163
700.50 0.3162
700.60 0.316
700.70 0.3159
700.80 0.3157
700.90 0.3156
701.00 0.3154
701.10 0.3152
701.20 0.3151
701.30 0.3149
701.40 0.3148
701.50 0.3146
701.60 0.3145
701.70 0.3143
701.80 0.3142
701.90 0.314
702.00 0.3139
702.10 0.3137
702.20 0.3136
702.30 0.3134
702.40 0.3133
702.50 0.3131
702.60 0.313
702.70 0.3128
702.80 0.3127
702.90 0.3125
703.00 0.3124
703.10 0.3122
703.20 0.3121
703.30 0.3119
703.40 0.3118
703.50 0.3116
703.60 0.3114
703.70 0.3113
703.80 0.3111
703.90 0.311
704.00 0.3108
704.10 0.3107
704.20 0.3105
704.30 0.3104
704.40 0.3102
704.50 0.3101
704.60 0.3099
704.70 0.3098
704.80 0.3096
704.90 0.3095
705.00 0.3093
705.10 0.3092
705.20 0.309
705.30 0.3089
705.40 0.3087
705.50 0.3086
705.60 0.3084
705.70 0.3083
705.80 0.3081
705.90 0.308
706.00 0.3078
706.10 0.3077
706.20 0.3075
706.30 0.3074
706.40 0.3072
706.50 0.3071
706.60 0.3069
706.70 0.3068
706.80 0.3066
706.90 0.3065
707.00 0.3063
707.10 0.3062
707.20 0.306
707.30 0.3059
707.40 0.3057
707.50 0.3056
707.60 0.3054
707.70 0.3053
707.80 0.3051
707.90 0.305
708.00 0.3048
708.10 0.3047
708.20 0.3045
708.30 0.3044
708.40 0.3042
708.50 0.3041
708.60 0.3039
708.70 0.3038
708.80 0.3036
708.90 0.3035
709.00 0.3033
709.10 0.3032
709.20 0.303
709.30 0.3029
709.40 0.3027
709.50 0.3026
709.60 0.3024
709.70 0.3023
709.80 0.3021
709.90 0.302
710.00 0.3018
710.10 0.3017
710.20 0.3015
710.30 0.3014
710.40 0.3012
710.50 0.3011
710.60 0.3009
710.70 0.3008
710.80 0.3006
710.90 0.3005
711.00 0.3003
711.10 0.3002
711.20 0.3
711.30 0.2999
711.40 0.2997
711.50 0.2996
711.60 0.2995
711.70 0.2993
711.80 0.2992
711.90 0.299
712.00 0.2989
712.10 0.2987
712.20 0.2986
712.30 0.2984
712.40 0.2983
712.50 0.2981
712.60 0.298
712.70 0.2978
712.80 0.2977
712.90 0.2975
713.00 0.2974
713.10 0.2973
713.20 0.2971
713.30 0.297
713.40 0.2968
713.50 0.2967
713.60 0.2965
713.70 0.2964
713.80 0.2962
713.90 0.2961
714.00 0.2959
714.10 0.2958
714.20 0.2957
714.30 0.2955
714.40 0.2954
714.50 0.2952
714.60 0.2951
714.70 0.2949
714.80 0.2948
714.90 0.2946
715.00 0.2945
715.10 0.2944
715.20 0.2942
715.30 0.2941
715.40 0.2939
715.50 0.2938
715.60 0.2936
715.70 0.2935
715.80 0.2934
715.90 0.2932
716.00 0.2931
716.10 0.2929
716.20 0.2928
716.30 0.2926
716.40 0.2925
716.50 0.2924
716.60 0.2922
716.70 0.2921
716.80 0.2919
716.90 0.2918
717.00 0.2917
717.10 0.2915
717.20 0.2914
717.30 0.2912
717.40 0.2911
717.50 0.2909
717.60 0.2908
717.70 0.2907
717.80 0.2905
717.90 0.2904
718.00 0.2902
718.10 0.2901
718.20 0.29
718.30 0.2898
718.40 0.2897
718.50 0.2895
718.60 0.2894
718.70 0.2893
718.80 0.2891
718.90 0.289
719.00 0.2888
719.10 0.2887
719.20 0.2885
719.30 0.2884
719.40 0.2883
719.50 0.2881
719.60 0.288
719.70 0.2878
719.80 0.2877
719.90 0.2876
720.00 0.2874
720.10 0.2873
720.20 0.2872
720.30 0.287
720.40 0.2869
720.50 0.2867
720.60 0.2866
720.70 0.2865
720.80 0.2863
720.90 0.2862
721.00 0.286
721.10 0.2859
721.20 0.2858
721.30 0.2856
721.40 0.2855
721.50 0.2853
721.60 0.2852
721.70 0.2851
721.80 0.2849
721.90 0.2848
722.00 0.2847
722.10 0.2845
722.20 0.2844
722.30 0.2842
722.40 0.2841
722.50 0.284
722.60 0.2838
722.70 0.2837
722.80 0.2836
722.90 0.2834
723.00 0.2833
723.10 0.2831
723.20 0.283
723.30 0.2829
723.40 0.2827
723.50 0.2826
723.60 0.2825
723.70 0.2823
723.80 0.2822
723.90 0.282
724.00 0.2819
724.10 0.2818
724.20 0.2816
724.30 0.2815
724.40 0.2814
724.50 0.2812
724.60 0.2811
724.70 0.281
724.80 0.2808
724.90 0.2807
725.00 0.2805
725.10 0.2804
725.20 0.2803
725.30 0.2801
725.40 0.28
725.50 0.2799
725.60 0.2797
725.70 0.2796
725.80 0.2795
725.90 0.2793
726.00 0.2792
726.10 0.2791
726.20 0.2789
726.30 0.2788
726.40 0.2787
726.50 0.2785
726.60 0.2784
726.70 0.2783
726.80 0.2781
726.90 0.278
727.00 0.2779
727.10 0.2777
727.20 0.2776
727.30 0.2775
727.40 0.2773
727.50 0.2772
727.60 0.2771
727.70 0.2769
727.80 0.2768
727.90 0.2767
728.00 0.2765
728.10 0.2764
728.20 0.2763
728.30 0.2761
728.40 0.276
728.50 0.2759
728.60 0.2757
728.70 0.2756
728.80 0.2755
728.90 0.2753
729.00 0.2752
729.10 0.2751
729.20 0.2749
729.30 0.2748
729.40 0.2747
729.50 0.2745
729.60 0.2744
729.70 0.2743
729.80 0.2741
729.90 0.274
730.00 0.2739
730.10 0.2737
730.20 0.2736
730.30 0.2735
730.40 0.2734
730.50 0.2732
730.60 0.2731
730.70 0.273
730.80 0.2728
730.90 0.2727
731.00 0.2726
731.10 0.2724
731.20 0.2723
731.30 0.2722
731.40 0.2721
731.50 0.2719
731.60 0.2718
731.70 0.2717
731.80 0.2715
731.90 0.2714
732.00 0.2713
732.10 0.2711
732.20 0.271
732.30 0.2709
732.40 0.2708
732.50 0.2706
732.60 0.2705
732.70 0.2704
732.80 0.2702
732.90 0.2701
733.00 0.27
733.10 0.2699
733.20 0.2697
733.30 0.2696
733.40 0.2695
733.50 0.2693
733.60 0.2692
733.70 0.2691
733.80 0.269
733.90 0.2688
734.00 0.2687
734.10 0.2686
734.20 0.2684
734.30 0.2683
734.40 0.2682
734.50 0.2681
734.60 0.2679
734.70 0.2678
734.80 0.2677
734.90 0.2675
735.00 0.2674
735.10 0.2673
735.20 0.2672
735.30 0.267
735.40 0.2669
735.50 0.2668
735.60 0.2667
735.70 0.2665
735.80 0.2664
735.90 0.2663
736.00 0.2661
736.10 0.266
736.20 0.2659
736.30 0.2658
736.40 0.2656
736.50 0.2655
736.60 0.2654
736.70 0.2653
736.80 0.2651
736.90 0.265
737.00 0.2649
737.10 0.2648
737.20 0.2646
737.30 0.2645
737.40 0.2644
737.50 0.2642
737.60 0.2641
737.70 0.264
737.80 0.2639
737.90 0.2637
738.00 0.2636
738.10 0.2635
738.20 0.2634
738.30 0.2632
738.40 0.2631
738.50 0.263
738.60 0.2629
738.70 0.2627
738.80 0.2626
738.90 0.2625
739.00 0.2624
739.10 0.2622
739.20 0.2621
739.30 0.262
739.40 0.2619
739.50 0.2617
739.60 0.2616
739.70 0.2615
739.80 0.2614
739.90 0.2612
740.00 0.2611
740.10 0.261
740.20 0.2609
740.30 0.2607
740.40 0.2606
740.50 0.2605
740.60 0.2604
740.70 0.2603
740.80 0.2601
740.90 0.26
741.00 0.2599
741.10 0.2598
741.20 0.2596
741.30 0.2595
741.40 0.2594
741.50 0.2593
741.60 0.2591
741.70 0.259
741.80 0.2589
741.90 0.2588
742.00 0.2587
742.10 0.2585
742.20 0.2584
742.30 0.2583
742.40 0.2582
742.50 0.2581
742.60 0.2579
742.70 0.2578
742.80 0.2577
742.90 0.2576
743.00 0.2574
743.10 0.2573
743.20 0.2572
743.30 0.2571
743.40 0.257
743.50 0.2568
743.60 0.2567
743.70 0.2566
743.80 0.2565
743.90 0.2564
744.00 0.2562
744.10 0.2561
744.20 0.256
744.30 0.2559
744.40 0.2558
744.50 0.2556
744.60 0.2555
744.70 0.2554
744.80 0.2553
744.90 0.2552
745.00 0.255
745.10 0.2549
745.20 0.2548
745.30 0.2547
745.40 0.2546
745.50 0.2544
745.60 0.2543
745.70 0.2542
745.80 0.2541
745.90 0.254
746.00 0.2538
746.10 0.2537
746.20 0.2536
746.30 0.2535
746.40 0.2534
746.50 0.2532
746.60 0.2531
746.70 0.253
746.80 0.2529
746.90 0.2528
747.00 0.2526
747.10 0.2525
747.20 0.2524
747.30 0.2523
747.40 0.2522
747.50 0.252
747.60 0.2519
747.70 0.2518
747.80 0.2517
747.90 0.2516
748.00 0.2515
748.10 0.2513
748.20 0.2512
748.30 0.2511
748.40 0.251
748.50 0.2509
748.60 0.2507
748.70 0.2506
748.80 0.2505
748.90 0.2504
749.00 0.2503
749.10 0.2501
749.20 0.25
749.30 0.2499
749.40 0.2498
749.50 0.2497
749.60 0.2496
749.70 0.2494
749.80 0.2493
749.90 0.2492
750.00 0.2491
750.10 0.249
750.20 0.2489
750.30 0.2487
750.40 0.2486
750.50 0.2485
750.60 0.2484
750.70 0.2483
750.80 0.2482
750.90 0.248
751.00 0.2479
751.10 0.2478
751.20 0.2477
751.30 0.2476
751.40 0.2475
751.50 0.2474
751.60 0.2472
751.70 0.2471
751.80 0.247
751.90 0.2469
752.00 0.2468
752.10 0.2467
752.20 0.2466
752.30 0.2464
752.40 0.2463
752.50 0.2462
752.60 0.2461
752.70 0.246
752.80 0.2459
752.90 0.2458
753.00 0.2456
753.10 0.2455
753.20 0.2454
753.30 0.2453
753.40 0.2452
753.50 0.2451
753.60 0.245
753.70 0.2448
753.80 0.2447
753.90 0.2446
754.00 0.2445
754.10 0.2444
754.20 0.2443
754.30 0.2442
754.40 0.244
754.50 0.2439
754.60 0.2438
754.70 0.2437
754.80 0.2436
754.90 0.2435
755.00 0.2434
755.10 0.2432
755.20 0.2431
755.30 0.243
755.40 0.2429
755.50 0.2428
755.60 0.2427
755.70 0.2426
755.80 0.2425
755.90 0.2423
756.00 0.2422
756.10 0.2421
756.20 0.242
756.30 0.2419
756.40 0.2418
756.50 0.2417
756.60 0.2416
756.70 0.2414
756.80 0.2413
756.90 0.2412
757.00 0.2411
757.10 0.241
757.20 0.2409
757.30 0.2408
757.40 0.2407
757.50 0.2405
757.60 0.2404
757.70 0.2403
757.80 0.2402
757.90 0.2401
758.00 0.24
758.10 0.2399
758.20 0.2398
758.30 0.2396
758.40 0.2395
758.50 0.2394
758.60 0.2393
758.70 0.2392
758.80 0.2391
758.90 0.239
759.00 0.2389
759.10 0.2388
759.20 0.2386
759.30 0.2385
759.40 0.2384
759.50 0.2383
759.60 0.2382
759.70 0.2381
759.80 0.238
759.90 0.2379
760.00 0.2378
760.10 0.2376
760.20 0.2375
760.30 0.2374
760.40 0.2373
760.50 0.2372
760.60 0.2371
760.70 0.237
760.80 0.2369
760.90 0.2368
761.00 0.2367
761.10 0.2366
761.20 0.2364
761.30 0.2363
761.40 0.2362
761.50 0.2361
761.60 0.236
761.70 0.2359
761.80 0.2358
761.90 0.2357
762.00 0.2356
762.10 0.2355
762.20 0.2354
762.30 0.2353
762.40 0.2351
762.50 0.235
762.60 0.2349
762.70 0.2348
762.80 0.2347
762.90 0.2346
763.00 0.2345
763.10 0.2344
763.20 0.2343
763.30 0.2342
763.40 0.2341
763.50 0.234
763.60 0.2339
763.70 0.2337
763.80 0.2336
763.90 0.2335
764.00 0.2334
764.10 0.2333
764.20 0.2332
764.30 0.2331
764.40 0.233
764.50 0.2329
764.60 0.2328
764.70 0.2327
764.80 0.2326
764.90 0.2325
765.00 0.2324
765.10 0.2322
765.20 0.2321
765.30 0.232
765.40 0.2319
765.50 0.2318
765.60 0.2317
765.70 0.2316
765.80 0.2315
765.90 0.2314
766.00 0.2313
766.10 0.2312
766.20 0.2311
766.30 0.231
766.40 0.2309
766.50 0.2308
766.60 0.2306
766.70 0.2305
766.80 0.2304
766.90 0.2303
767.00 0.2302
767.10 0.2301
767.20 0.23
767.30 0.2299
767.40 0.2298
767.50 0.2297
767.60 0.2296
767.70 0.2295
767.80 0.2294
767.90 0.2293
768.00 0.2292
768.10 0.2291
768.20 0.229
768.30 0.2289
768.40 0.2287
768.50 0.2286
768.60 0.2285
768.70 0.2284
768.80 0.2283
768.90 0.2282
769.00 0.2281
769.10 0.228
769.20 0.2279
769.30 0.2278
769.40 0.2277
769.50 0.2276
769.60 0.2275
769.70 0.2274
769.80 0.2273
769.90 0.2272
770.00 0.2271
770.10 0.227
770.20 0.2269
770.30 0.2268
770.40 0.2267
770.50 0.2266
770.60 0.2264
770.70 0.2263
770.80 0.2262
770.90 0.2261
771.00 0.226
771.10 0.2259
771.20 0.2258
771.30 0.2257
771.40 0.2256
771.50 0.2255
771.60 0.2254
771.70 0.2253
771.80 0.2252
771.90 0.2251
772.00 0.225
772.10 0.2249
772.20 0.2248
772.30 0.2247
772.40 0.2246
772.50 0.2245
772.60 0.2244
772.70 0.2243
772.80 0.2242
772.90 0.2241
773.00 0.224
773.10 0.2239
773.20 0.2238
773.30 0.2237
773.40 0.2236
773.50 0.2235
773.60 0.2234
773.70 0.2233
773.80 0.2232
773.90 0.2231
774.00 0.223
774.10 0.2229
774.20 0.2228
774.30 0.2227
774.40 0.2226
774.50 0.2225
774.60 0.2224
774.70 0.2223
774.80 0.2222
774.90 0.2221
775.00 0.222
775.10 0.2219
775.20 0.2218
775.30 0.2217
775.40 0.2216
775.50 0.2215
775.60 0.2214
775.70 0.2213
775.80 0.2212
775.90 0.2211
776.00 0.221
776.10 0.2209
776.20 0.2208
776.30 0.2207
776.40 0.2206
776.50 0.2205
776.60 0.2204
776.70 0.2203
776.80 0.2202
776.90 0.2201
777.00 0.22
777.10 0.2199
777.20 0.2198
777.30 0.2197
777.40 0.2196
777.50 0.2195
777.60 0.2194
777.70 0.2193
777.80 0.2192
777.90 0.2191
778.00 0.219
778.10 0.2189
778.20 0.2188
778.30 0.2187
778.40 0.2186
778.50 0.2185
778.60 0.2184
778.70 0.2183
778.80 0.2182
778.90 0.2181
779.00 0.218
779.10 0.2179
779.20 0.2178
779.30 0.2177
779.40 0.2176
779.50 0.2175
779.60 0.2174
779.70 0.2173
779.80 0.2172
779.90 0.2171
780.00 0.217
780.10 0.2169
780.20 0.2168
780.30 0.2167
780.40 0.2166
780.50 0.2165
780.60 0.2164
780.70 0.2163
780.80 0.2162
780.90 0.2161
781.00 0.216
781.10 0.2159
781.20 0.2158
781.30 0.2157
781.40 0.2156
781.50 0.2155
781.60 0.2154
781.70 0.2153
781.80 0.2152
781.90 0.2151
782.00 0.215
782.10 0.2149
782.20 0.2148
782.30 0.2147
782.40 0.2147
782.50 0.2146
782.60 0.2145
782.70 0.2144
782.80 0.2143
782.90 0.2142
783.00 0.2141
783.10 0.214
783.20 0.2139
783.30 0.2138
783.40 0.2137
783.50 0.2136
783.60 0.2135
783.70 0.2134
783.80 0.2133
783.90 0.2132
784.00 0.2131
784.10 0.213
784.20 0.2129
784.30 0.2128
784.40 0.2127
784.50 0.2126
784.60 0.2125
784.70 0.2124
784.80 0.2123
784.90 0.2123
785.00 0.2122
785.10 0.2121
785.20 0.212
785.30 0.2119
785.40 0.2118
785.50 0.2117
785.60 0.2116
785.70 0.2115
785.80 0.2114
785.90 0.2113
786.00 0.2112
786.10 0.2111
786.20 0.211
786.30 0.2109
786.40 0.2108
786.50 0.2107
786.60 0.2106
786.70 0.2105
786.80 0.2104
786.90 0.2104
787.00 0.2103
787.10 0.2102
787.20 0.2101
787.30 0.21
787.40 0.2099
787.50 0.2098
787.60 0.2097
787.70 0.2096
787.80 0.2095
787.90 0.2094
788.00 0.2093
788.10 0.2092
788.20 0.2091
788.30 0.209
788.40 0.2089
788.50 0.2088
788.60 0.2088
788.70 0.2087
788.80 0.2086
788.90 0.2085
789.00 0.2084
789.10 0.2083
789.20 0.2082
789.30 0.2081
789.40 0.208
789.50 0.2079
789.60 0.2078
789.70 0.2077
789.80 0.2076
789.90 0.2075
790.00 0.2074
790.10 0.2074
790.20 0.2073
790.30 0.2072
790.40 0.2071
790.50 0.207
790.60 0.2069
790.70 0.2068
790.80 0.2067
790.90 0.2066
791.00 0.2065
791.10 0.2064
791.20 0.2063
791.30 0.2062
791.40 0.2062
791.50 0.2061
791.60 0.206
791.70 0.2059
791.80 0.2058
791.90 0.2057
792.00 0.2056
792.10 0.2055
792.20 0.2054
792.30 0.2053
792.40 0.2052
792.50 0.2052
792.60 0.2051
792.70 0.205
792.80 0.2049
792.90 0.2048
793.00 0.2047
793.10 0.2046
793.20 0.2045
793.30 0.2044
793.40 0.2043
793.50 0.2042
793.60 0.2042
793.70 0.2041
793.80 0.204
793.90 0.2039
794.00 0.2038
794.10 0.2037
794.20 0.2036
794.30 0.2035
794.40 0.2034
794.50 0.2033
794.60 0.2033
794.70 0.2032
794.80 0.2031
794.90 0.203
795.00 0.2029
795.10 0.2028
795.20 0.2027
795.30 0.2026
795.40 0.2025
795.50 0.2024
795.60 0.2023
795.70 0.2023
795.80 0.2022
795.90 0.2021
796.00 0.202
796.10 0.2019
796.20 0.2018
796.30 0.2017
796.40 0.2016
796.50 0.2015
796.60 0.2015
796.70 0.2014
796.80 0.2013
796.90 0.2012
797.00 0.2011
797.10 0.201
797.20 0.2009
797.30 0.2008
797.40 0.2007
797.50 0.2006
797.60 0.2006
797.70 0.2005
797.80 0.2004
797.90 0.2003
798.00 0.2002
798.10 0.2001
798.20 0.2
798.30 0.1999
798.40 0.1998
798.50 0.1998
798.60 0.1997
798.70 0.1996
798.80 0.1995
798.90 0.1994
799.00 0.1993
799.10 0.1992
799.20 0.1991
799.30 0.1991
799.40 0.199
799.50 0.1989
799.60 0.1988
799.70 0.1987
799.80 0.1986
799.90 0.1985
800.00 0.1984
800.10 0.1983
800.20 0.1983
800.30 0.1982
800.40 0.1981
800.50 0.198
800.60 0.1979
800.70 0.1978
800.80 0.1977
800.90 0.1977
801.00 0.1976
801.10 0.1975
801.20 0.1974
801.30 0.1973
801.40 0.1972
801.50 0.1971
801.60 0.197
801.70 0.197
801.80 0.1969
801.90 0.1968
802.00 0.1967
802.10 0.1966
802.20 0.1965
802.30 0.1964
802.40 0.1964
802.50 0.1963
802.60 0.1962
802.70 0.1961
802.80 0.196
802.90 0.1959
803.00 0.1958
803.10 0.1958
803.20 0.1957
803.30 0.1956
803.40 0.1955
803.50 0.1954
803.60 0.1953
803.70 0.1952
803.80 0.1952
803.90 0.1951
804.00 0.195
804.10 0.1949
804.20 0.1948
804.30 0.1947
804.40 0.1946
804.50 0.1946
804.60 0.1945
804.70 0.1944
804.80 0.1943
804.90 0.1942
805.00 0.1941
805.10 0.194
805.20 0.194
805.30 0.1939
805.40 0.1938
805.50 0.1937
805.60 0.1936
805.70 0.1935
805.80 0.1934
805.90 0.1934
806.00 0.1933
806.10 0.1932
806.20 0.1931
806.30 0.193
806.40 0.1929
806.50 0.1929
806.60 0.1928
806.70 0.1927
806.80 0.1926
806.90 0.1925
807.00 0.1924
807.10 0.1923
807.20 0.1923
807.30 0.1922
807.40 0.1921
807.50 0.192
807.60 0.1919
807.70 0.1918
807.80 0.1918
807.90 0.1917
808.00 0.1916
808.10 0.1915
808.20 0.1914
808.30 0.1913
808.40 0.1912
808.50 0.1912
808.60 0.1911
808.70 0.191
808.80 0.1909
808.90 0.1908
809.00 0.1907
809.10 0.1907
809.20 0.1906
809.30 0.1905
809.40 0.1904
809.50 0.1903
809.60 0.1902
809.70 0.1902
809.80 0.1901
809.90 0.19
810.00 0.1899
810.10 0.1898
810.20 0.1897
810.30 0.1897
810.40 0.1896
810.50 0.1895
810.60 0.1894
810.70 0.1893
810.80 0.1892
810.90 0.1892
811.00 0.1891
811.10 0.189
811.20 0.1889
811.30 0.1888
811.40 0.1888
811.50 0.1887
811.60 0.1886
811.70 0.1885
811.80 0.1884
811.90 0.1883
812.00 0.1883
812.10 0.1882
812.20 0.1881
812.30 0.188
812.40 0.1879
812.50 0.1879
812.60 0.1878
812.70 0.1877
812.80 0.1876
812.90 0.1875
813.00 0.1875
813.10 0.1874
813.20 0.1873
813.30 0.1872
813.40 0.1871
813.50 0.187
813.60 0.187
813.70 0.1869
813.80 0.1868
813.90 0.1867
814.00 0.1866
814.10 0.1866
814.20 0.1865
814.30 0.1864
814.40 0.1863
814.50 0.1862
814.60 0.1862
814.70 0.1861
814.80 0.186
814.90 0.1859
815.00 0.1858
815.10 0.1858
815.20 0.1857
815.30 0.1856
815.40 0.1855
815.50 0.1854
815.60 0.1853
815.70 0.1853
815.80 0.1852
815.90 0.1851
816.00 0.185
816.10 0.1849
816.20 0.1849
816.30 0.1848
816.40 0.1847
816.50 0.1846
816.60 0.1845
816.70 0.1845
816.80 0.1844
816.90 0.1843
817.00 0.1842
817.10 0.1841
817.20 0.1841
817.30 0.184
817.40 0.1839
817.50 0.1838
817.60 0.1837
817.70 0.1837
817.80 0.1836
817.90 0.1835
818.00 0.1834
818.10 0.1833
818.20 0.1833
818.30 0.1832
818.40 0.1831
818.50 0.183
818.60 0.1829
818.70 0.1829
818.80 0.1828
818.90 0.1827
819.00 0.1826
819.10 0.1826
819.20 0.1825
819.30 0.1824
819.40 0.1823
819.50 0.1822
819.60 0.1822
819.70 0.1821
819.80 0.182
819.90 0.1819
820.00 0.1818
820.10 0.1818
820.20 0.1817
820.30 0.1816
820.40 0.1815
820.50 0.1814
820.60 0.1814
820.70 0.1813
820.80 0.1812
820.90 0.1811
821.00 0.1811
821.10 0.181
821.20 0.1809
821.30 0.1808
821.40 0.1807
821.50 0.1807
821.60 0.1806
821.70 0.1805
821.80 0.1804
821.90 0.1804
822.00 0.1803
822.10 0.1802
822.20 0.1801
822.30 0.18
822.40 0.18
822.50 0.1799
822.60 0.1798
822.70 0.1797
822.80 0.1797
822.90 0.1796
823.00 0.1795
823.10 0.1794
823.20 0.1794
823.30 0.1793
823.40 0.1792
823.50 0.1791
823.60 0.179
823.70 0.179
823.80 0.1789
823.90 0.1788
824.00 0.1787
824.10 0.1787
824.20 0.1786
824.30 0.1785
824.40 0.1784
824.50 0.1784
824.60 0.1783
824.70 0.1782
824.80 0.1781
824.90 0.178
825.00 0.178
825.10 0.1779
825.20 0.1778
825.30 0.1777
825.40 0.1777
825.50 0.1776
825.60 0.1775
825.70 0.1774
825.80 0.1774
825.90 0.1773
826.00 0.1772
826.10 0.1771
826.20 0.1771
826.30 0.177
826.40 0.1769
826.50 0.1768
826.60 0.1768
826.70 0.1767
826.80 0.1766
826.90 0.1765
827.00 0.1764
827.10 0.1764
827.20 0.1763
827.30 0.1762
827.40 0.1761
827.50 0.1761
827.60 0.176
827.70 0.1759
827.80 0.1758
827.90 0.1758
828.00 0.1757
828.10 0.1756
828.20 0.1755
828.30 0.1755
828.40 0.1754
828.50 0.1753
828.60 0.1752
828.70 0.1752
828.80 0.1751
828.90 0.175
829.00 0.1749
829.10 0.1749
829.20 0.1748
829.30 0.1747
829.40 0.1746
829.50 0.1746
829.60 0.1745
829.70 0.1744
829.80 0.1744
829.90 0.1743
830.00 0.1742
830.10 0.1741
830.20 0.1741
830.30 0.174
830.40 0.1739
830.50 0.1738
830.60 0.1738
830.70 0.1737
830.80 0.1736
830.90 0.1735
831.00 0.1735
831.10 0.1734
831.20 0.1733
831.30 0.1732
831.40 0.1732
831.50 0.1731
831.60 0.173
831.70 0.1729
831.80 0.1729
831.90 0.1728
832.00 0.1727
832.10 0.1726
832.20 0.1726
832.30 0.1725
832.40 0.1724
832.50 0.1724
832.60 0.1723
832.70 0.1722
832.80 0.1721
832.90 0.1721
833.00 0.172
833.10 0.1719
833.20 0.1718
833.30 0.1718
833.40 0.1717
833.50 0.1716
833.60 0.1716
833.70 0.1715
833.80 0.1714
833.90 0.1713
834.00 0.1713
834.10 0.1712
834.20 0.1711
834.30 0.171
834.40 0.171
834.50 0.1709
834.60 0.1708
834.70 0.1708
834.80 0.1707
834.90 0.1706
835.00 0.1705
835.10 0.1705
835.20 0.1704
835.30 0.1703
835.40 0.1702
835.50 0.1702
835.60 0.1701
835.70 0.17
835.80 0.17
835.90 0.1699
836.00 0.1698
836.10 0.1697
836.20 0.1697
836.30 0.1696
836.40 0.1695
836.50 0.1695
836.60 0.1694
836.70 0.1693
836.80 0.1692
836.90 0.1692
837.00 0.1691
837.10 0.169
837.20 0.1689
837.30 0.1689
837.40 0.1688
837.50 0.1687
837.60 0.1687
837.70 0.1686
837.80 0.1685
837.90 0.1684
838.00 0.1684
838.10 0.1683
838.20 0.1682
838.30 0.1682
838.40 0.1681
838.50 0.168
838.60 0.1679
838.70 0.1679
838.80 0.1678
838.90 0.1677
839.00 0.1677
839.10 0.1676
839.20 0.1675
839.30 0.1675
839.40 0.1674
839.50 0.1673
839.60 0.1672
839.70 0.1672
839.80 0.1671
839.90 0.167
840.00 0.167
840.10 0.1669
840.20 0.1668
840.30 0.1667
840.40 0.1667
840.50 0.1666
840.60 0.1665
840.70 0.1665
840.80 0.1664
840.90 0.1663
841.00 0.1663
841.10 0.1662
841.20 0.1661
841.30 0.166
841.40 0.166
841.50 0.1659
841.60 0.1658
841.70 0.1658
841.80 0.1657
841.90 0.1656
842.00 0.1655
842.10 0.1655
842.20 0.1654
842.30 0.1653
842.40 0.1653
842.50 0.1652
842.60 0.1651
842.70 0.165
842.80 0.165
842.90 0.1649
843.00 0.1648
843.10 0.1648
843.20 0.1647
843.30 0.1646
843.40 0.1646
843.50 0.1645
843.60 0.1644
843.70 0.1643
843.80 0.1643
843.90 0.1642
844.00 0.1641
844.10 0.1641
844.20 0.164
844.30 0.1639
844.40 0.1638
844.50 0.1638
844.60 0.1637
844.70 0.1636
844.80 0.1636
844.90 0.1635
845.00 0.1634
845.10 0.1633
845.20 0.1633
845.30 0.1632
845.40 0.1631
845.50 0.1631
845.60 0.163
845.70 0.1629
845.80 0.1629
845.90 0.1628
846.00 0.1627
846.10 0.1626
846.20 0.1626
846.30 0.1625
846.40 0.1624
846.50 0.1624
846.60 0.1623
846.70 0.1622
846.80 0.1622
846.90 0.1621
847.00 0.162
847.10 0.162
847.20 0.162
847.30 0.1619
847.40 0.1619
847.50 0.1619
847.60 0.1618
847.70 0.1618
847.80 0.1618
847.90 0.1618
848.00 0.1617
848.10 0.1617
848.20 0.1617
848.30 0.1616
848.40 0.1616
848.50 0.1616
848.60 0.1615
848.70 0.1615
848.80 0.1615
848.90 0.1615
849.00 0.1614
849.10 0.1614
849.20 0.1614
849.30 0.1613
849.40 0.1613
849.50 0.1613
849.60 0.1613
849.70 0.1612
849.80 0.1612
849.90 0.1612
850.00 0.1611
850.10 0.1611
850.20 0.1611
850.30 0.1611
850.40 0.161
850.50 0.161
850.60 0.161
850.70 0.1609
850.80 0.1609
850.90 0.1609
851.00 0.1609
851.10 0.1608
851.20 0.1608
851.30 0.1608
851.40 0.1607
851.50 0.1607
851.60 0.1607
851.70 0.1607
851.80 0.1606
851.90 0.1606
852.00 0.1606
852.10 0.1605
852.20 0.1605
852.30 0.1604
852.40 0.1604
852.50 0.1604
852.60 0.1603
852.70 0.1603
852.80 0.1602
852.90 0.1602
853.00 0.1602
853.10 0.1601
853.20 0.1601
853.30 0.16
853.40 0.16
853.50 0.16
853.60 0.1599
853.70 0.1599
853.80 0.1598
853.90 0.1598
854.00 0.1597
854.10 0.1597
854.20 0.1597
854.30 0.1596
854.40 0.1596
854.50 0.1595
854.60 0.1595
854.70 0.1595
854.80 0.1594
854.90 0.1594
855.00 0.1593
855.10 0.1593
855.20 0.1593
855.30 0.1592
855.40 0.1592
855.50 0.1591
855.60 0.1591
855.70 0.1591
855.80 0.159
855.90 0.159
856.00 0.1589
856.10 0.1589
856.20 0.1589
856.30 0.1588
856.40 0.1588
856.50 0.1587
856.60 0.1587
856.70 0.1587
856.80 0.1586
856.90 0.1586
857.00 0.1585
857.10 0.1585
857.20 0.1585
857.30 0.1584
857.40 0.1584
857.50 0.1583
857.60 0.1583
857.70 0.1583
857.80 0.1582
857.90 0.1582
858.00 0.1582
858.10 0.1581
858.20 0.1581
858.30 0.158
858.40 0.158
858.50 0.158
858.60 0.1579
858.70 0.1579
858.80 0.1579
858.90 0.1578
859.00 0.1578
859.10 0.1578
859.20 0.1577
859.30 0.1577
859.40 0.1576
859.50 0.1576
859.60 0.1576
859.70 0.1575
859.80 0.1575
859.90 0.1575
860.00 0.1574
860.10 0.1574
860.20 0.1573
860.30 0.1573
860.40 0.1573
860.50 0.1572
860.60 0.1572
860.70 0.1572
860.80 0.1571
860.90 0.1571
861.00 0.157
861.10 0.157
861.20 0.157
861.30 0.1569
861.40 0.1569
861.50 0.1569
861.60 0.1568
861.70 0.1568
861.80 0.1568
861.90 0.1567
862.00 0.1567
862.10 0.1566
862.20 0.1565
862.30 0.1564
862.40 0.1563
862.50 0.1562
862.60 0.1561
862.70 0.156
862.80 0.1559
862.90 0.1558
863.00 0.1556
863.10 0.1555
863.20 0.1554
863.30 0.1553
863.40 0.1552
863.50 0.1551
863.60 0.155
863.70 0.1549
863.80 0.1548
863.90 0.1547
864.00 0.1546
864.10 0.1545
864.20 0.1544
864.30 0.1543
864.40 0.1542
864.50 0.1541
864.60 0.154
864.70 0.1539
864.80 0.1538
864.90 0.1537
865.00 0.1536
865.10 0.1535
865.20 0.1534
865.30 0.1533
865.40 0.1532
865.50 0.1531
865.60 0.153
865.70 0.1529
865.80 0.1528
865.90 0.1527
866.00 0.1526
866.10 0.1525
866.20 0.1524
866.30 0.1523
866.40 0.1522
866.50 0.1521
866.60 0.152
866.70 0.1519
866.80 0.1518
866.90 0.1517
867.00 0.1516
867.10 0.1516
867.20 0.1516
867.30 0.1516
867.40 0.1516
867.50 0.1517
867.60 0.1517
867.70 0.1517
867.80 0.1517
867.90 0.1517
868.00 0.1518
868.10 0.1518
868.20 0.1518
868.30 0.1518
868.40 0.1519
868.50 0.1519
868.60 0.1519
868.70 0.1519
868.80 0.1519
868.90 0.152
869.00 0.152
869.10 0.152
869.20 0.152
869.30 0.152
869.40 0.1521
869.50 0.1521
869.60 0.1521
869.70 0.1521
869.80 0.1521
869.90 0.1522
870.00 0.1522
870.10 0.1522
870.20 0.1522
870.30 0.1523
870.40 0.1523
870.50 0.1523
870.60 0.1523
870.70 0.1523
870.80 0.1524
870.90 0.1524
871.00 0.1524
871.10 0.1524
871.20 0.1524
871.30 0.1525
871.40 0.1525
871.50 0.1525
871.60 0.1525
871.70 0.1525
871.80 0.1526
871.90 0.1526
872.00 0.1526
872.10 0.1525
872.20 0.1523
872.30 0.1522
872.40 0.1521
872.50 0.152
872.60 0.1518
872.70 0.1517
872.80 0.1516
872.90 0.1515
873.00 0.1513
873.10 0.1512
873.20 0.1511
873.30 0.151
873.40 0.1508
873.50 0.1507
873.60 0.1506
873.70 0.1505
873.80 0.1503
873.90 0.1502
874.00 0.1501
874.10 0.15
874.20 0.1498
874.30 0.1497
874.40 0.1496
874.50 0.1495
874.60 0.1493
874.70 0.1492
874.80 0.1491
874.90 0.149
875.00 0.1488
875.10 0.1487
875.20 0.1486
875.30 0.1485
875.40 0.1483
875.50 0.1482
875.60 0.1481
875.70 0.148
875.80 0.1478
875.90 0.1477
876.00 0.1476
876.10 0.1475
876.20 0.1473
876.30 0.1472
876.40 0.1471
876.50 0.147
876.60 0.1468
876.70 0.1467
876.80 0.1466
876.90 0.1465
877.00 0.1463
877.10 0.1464
877.20 0.1464
877.30 0.1464
877.40 0.1464
877.50 0.1464
877.60 0.1464
877.70 0.1465
877.80 0.1465
877.90 0.1465
878.00 0.1465
878.10 0.1465
878.20 0.1466
878.30 0.1466
878.40 0.1466
878.50 0.1466
878.60 0.1466
878.70 0.1466
878.80 0.1467
878.90 0.1467
879.00 0.1467
879.10 0.1467
879.20 0.1467
879.30 0.1468
879.40 0.1468
879.50 0.1468
879.60 0.1468
879.70 0.1468
879.80 0.1468
879.90 0.1469
880.00 0.1469
880.10 0.1469
880.20 0.1469
880.30 0.1469
880.40 0.147
880.50 0.147
880.60 0.147
880.70 0.147
880.80 0.147
880.90 0.147
881.00 0.1471
881.10 0.1471
881.20 0.1471
881.30 0.1471
881.40 0.1471
881.50 0.1472
881.60 0.1472
881.70 0.1472
881.80 0.1472
881.90 0.1472
882.00 0.1472
882.10 0.1468
882.20 0.1464
882.30 0.146
882.40 0.1456
882.50 0.1452
882.60 0.1448
882.70 0.1444
882.80 0.144
882.90 0.1436
883.00 0.1432
883.10 0.1428
883.20 0.1424
883.30 0.142
883.40 0.1416
883.50 0.1411
883.60 0.1407
883.70 0.1403
883.80 0.1399
883.90 0.1395
884.00 0.1391
884.10 0.1387
884.20 0.1383
884.30 0.1379
884.40 0.1375
884.50 0.1371
884.60 0.1367
884.70 0.1363
884.80 0.1359
884.90 0.1355
885.00 0.1351
885.10 0.1347
885.20 0.1343
885.30 0.1339
885.40 0.1335
885.50 0.1331
885.60 0.1327
885.70 0.1323
885.80 0.1319
885.90 0.1315
886.00 0.1311
886.10 0.1307
886.20 0.1303
886.30 0.1299
886.40 0.1295
886.50 0.1291
886.60 0.1287
886.70 0.1283
886.80 0.1279
886.90 0.1275
887.00 0.1271
887.10 0.1273
887.20 0.1276
887.30 0.1279
887.40 0.1281
887.50 0.1284
887.60 0.1286
887.70 0.1289
887.80 0.1292
887.90 0.1294
888.00 0.1297
888.10 0.13
888.20 0.1302
888.30 0.1305
888.40 0.1307
888.50 0.131
888.60 0.1313
888.70 0.1315
888.80 0.1318
888.90 0.132
889.00 0.1323
889.10 0.1326
889.20 0.1328
889.30 0.1331
889.40 0.1333
889.50 0.1336
889.60 0.1339
889.70 0.1341
889.80 0.1344
889.90 0.1346
890.00 0.1349
890.10 0.1352
890.20 0.1354
890.30 0.1357
890.40 0.1359
890.50 0.1362
890.60 0.1364
890.70 0.1367
890.80 0.137
890.90 0.1372
891.00 0.1375
891.10 0.1377
891.20 0.138
891.30 0.1383
891.40 0.1385
891.50 0.1388
891.60 0.139
891.70 0.1393
891.80 0.1395
891.90 0.1398
892.00 0.14
892.10 0.1399
892.20 0.1398
892.30 0.1396
892.40 0.1395
892.50 0.1394
892.60 0.1392
892.70 0.1391
892.80 0.1389
892.90 0.1388
893.00 0.1387
893.10 0.1385
893.20 0.1384
893.30 0.1382
893.40 0.1381
893.50 0.138
893.60 0.1378
893.70 0.1377
893.80 0.1375
893.90 0.1374
894.00 0.1373
894.10 0.1371
894.20 0.137
894.30 0.1369
894.40 0.1367
894.50 0.1366
894.60 0.1364
894.70 0.1363
894.80 0.1362
894.90 0.136
895.00 0.1359
895.10 0.1358
895.20 0.1356
895.30 0.1355
895.40 0.1353
895.50 0.1352
895.60 0.1351
895.70 0.1349
895.80 0.1348
895.90 0.1347
896.00 0.1345
896.10 0.1344
896.20 0.1342
896.30 0.1341
896.40 0.134
896.50 0.1338
896.60 0.1337
896.70 0.1336
896.80 0.1334
896.90 0.1333
897.00 0.1331
897.10 0.1328
897.20 0.1324
897.30 0.132
897.40 0.1316
897.50 0.1312
897.60 0.1308
897.70 0.1304
897.80 0.13
897.90 0.1296
898.00 0.1293
898.10 0.1289
898.20 0.1285
898.30 0.1281
898.40 0.1277
898.50 0.1273
898.60 0.1269
898.70 0.1265
898.80 0.1261
898.90 0.1258
899.00 0.1254
899.10 0.125
899.20 0.1246
899.30 0.1242
899.40 0.1238
899.50 0.1234
899.60 0.1231
899.70 0.1227
899.80 0.1223
899.90 0.1219
900.00 0.1215
900.10 0.1211
900.20 0.1207
900.30 0.1204
900.40 0.12
900.50 0.1196
900.60 0.1192
900.70 0.1188
900.80 0.1184
900.90 0.1181
901.00 0.1177
901.10 0.1173
901.20 0.1169
901.30 0.1165
901.40 0.1161
901.50 0.1158
901.60 0.1154
901.70 0.115
901.80 0.1146
901.90 0.1142
902.00 0.1138
902.10 0.1142
902.20 0.1145
902.30 0.1148
902.40 0.1151
902.50 0.1155
902.60 0.1158
902.70 0.1161
902.80 0.1164
902.90 0.1168
903.00 0.1171
903.10 0.1174
903.20 0.1177
903.30 0.118
903.40 0.1184
903.50 0.1187
903.60 0.119
903.70 0.1193
903.80 0.1197
903.90 0.12
904.00 0.1203
904.10 0.1206
904.20 0.1209
904.30 0.1213
904.40 0.1216
904.50 0.1219
904.60 0.1222
904.70 0.1225
904.80 0.1229
904.90 0.1232
905.00 0.1235
905.10 0.1238
905.20 0.1241
905.30 0.1245
905.40 0.1248
905.50 0.1251
905.60 0.1254
905.70 0.1257
905.80 0.1261
905.90 0.1264
906.00 0.1267
906.10 0.127
906.20 0.1273
906.30 0.1276
906.40 0.128
906.50 0.1283
906.60 0.1286
906.70 0.1289
906.80 0.1292
906.90 0.1296
907.00 0.1299
907.10 0.1299
907.20 0.1299
907.30 0.13
907.40 0.13
907.50 0.1301
907.60 0.1301
907.70 0.1301
907.80 0.1302
907.90 0.1302
908.00 0.1302
908.10 0.1303
908.20 0.1303
908.30 0.1303
908.40 0.1304
908.50 0.1304
908.60 0.1304
908.70 0.1305
908.80 0.1305
908.90 0.1306
909.00 0.1306
909.10 0.1306
909.20 0.1307
909.30 0.1307
909.40 0.1307
909.50 0.1308
909.60 0.1308
909.70 0.1308
909.80 0.1309
909.90 0.1309
910.00 0.1309
910.10 0.131
910.20 0.131
910.30 0.131
910.40 0.1311
910.50 0.1311
910.60 0.1312
910.70 0.1312
910.80 0.1312
910.90 0.1313
911.00 0.1313
911.10 0.1313
911.20 0.1314
911.30 0.1314
911.40 0.1314
911.50 0.1315
911.60 0.1315
911.70 0.1315
911.80 0.1316
911.90 0.1316
912.00 0.1316
912.10 0.1315
912.20 0.1313
912.30 0.1312
912.40 0.131
912.50 0.1308
912.60 0.1307
912.70 0.1305
912.80 0.1303
912.90 0.1302
913.00 0.13
913.10 0.1299
913.20 0.1297
913.30 0.1295
913.40 0.1294
913.50 0.1292
913.60 0.129
913.70 0.1289
913.80 0.1287
913.90 0.1286
914.00 0.1284
914.10 0.1282
914.20 0.1281
914.30 0.1279
914.40 0.1277
914.50 0.1276
914.60 0.1274
914.70 0.1273
914.80 0.1271
914.90 0.1269
915.00 0.1268
915.10 0.1266
915.20 0.1265
915.30 0.1263
915.40 0.1261
915.50 0.126
915.60 0.1258
915.70 0.1256
915.80 0.1255
915.90 0.1253
916.00 0.1252
916.10 0.125
916.20 0.1248
916.30 0.1247
916.40 0.1245
916.50 0.1244
916.60 0.1242
916.70 0.124
916.80 0.1239
916.90 0.1237
917.00 0.1236
917.10 0.1231
917.20 0.1226
917.30 0.1222
917.40 0.1217
917.50 0.1212
917.60 0.1208
917.70 0.1203
917.80 0.1199
917.90 0.1194
918.00 0.1189
918.10 0.1185
918.20 0.118
918.30 0.1175
918.40 0.1171
918.50 0.1166
918.60 0.1162
918.70 0.1157
918.80 0.1152
918.90 0.1148
919.00 0.1143
919.10 0.1139
919.20 0.1134
919.30 0.1129
919.40 0.1125
919.50 0.112
919.60 0.1116
919.70 0.1111
919.80 0.1106
919.90 0.1102
920.00 0.1097
920.10 0.1093
920.20 0.1088
920.30 0.1084
920.40 0.1079
920.50 0.1074
920.60 0.107
920.70 0.1065
920.80 0.1061
920.90 0.1056
921.00 0.1052
921.10 0.1047
921.20 0.1042
921.30 0.1038
921.40 0.1033
921.50 0.1029
921.60 0.1024
921.70 0.102
921.80 0.1015
921.90 0.1011
922.00 0.1006
922.10 0.1009
922.20 0.1012
922.30 0.1015
922.40 0.1018
922.50 0.1021
922.60 0.1024
922.70 0.1027
922.80 0.103
922.90 0.1033
923.00 0.1036
923.10 0.1039
923.20 0.1042
923.30 0.1045
923.40 0.1048
923.50 0.1051
923.60 0.1055
923.70 0.1058
923.80 0.1061
923.90 0.1064
924.00 0.1067
924.10 0.107
924.20 0.1073
924.30 0.1076
924.40 0.1079
924.50 0.1082
924.60 0.1085
924.70 0.1088
924.80 0.1091
924.90 0.1094
925.00 0.1097
925.10 0.11
925.20 0.1103
925.30 0.1106
925.40 0.1109
925.50 0.1112
925.60 0.1115
925.70 0.1118
925.80 0.1121
925.90 0.1124
926.00 0.1127
926.10 0.113
926.20 0.1132
926.30 0.1135
926.40 0.1138
926.50 0.1141
926.60 0.1144
926.70 0.1147
926.80 0.115
926.90 0.1153
927.00 0.1156
927.10 0.1158
927.20 0.1159
927.30 0.116
927.40 0.1162
927.50 0.1163
927.60 0.1165
927.70 0.1166
927.80 0.1167
927.90 0.1169
928.00 0.117
928.10 0.1172
928.20 0.1173
928.30 0.1174
928.40 0.1176
928.50 0.1177
928.60 0.1178
928.70 0.118
928.80 0.1181
928.90 0.1183
929.00 0.1184
929.10 0.1185
929.20 0.1187
929.30 0.1188
929.40 0.1189
929.50 0.1191
929.60 0.1192
929.70 0.1194
929.80 0.1195
929.90 0.1196
930.00 0.1198
930.10 0.1199
930.20 0.12
930.30 0.1202
930.40 0.1203
930.50 0.1204
930.60 0.1206
930.70 0.1207
930.80 0.1209
930.90 0.121
931.00 0.1211
931.10 0.1213
931.20 0.1214
931.30 0.1215
931.40 0.1217
931.50 0.1218
931.60 0.1219
931.70 0.1221
931.80 0.1222
931.90 0.1224
932.00 0.1225
932.10 0.1225
932.20 0.1225
932.30 0.1225
932.40 0.1225
932.50 0.1226
932.60 0.1226
932.70 0.1226
932.80 0.1226
932.90 0.1226
933.00 0.1226
933.10 0.1226
933.20 0.1226
933.30 0.1227
933.40 0.1227
933.50 0.1227
933.60 0.1227
933.70 0.1227
933.80 0.1227
933.90 0.1227
934.00 0.1227
934.10 0.1228
934.20 0.1228
934.30 0.1228
934.40 0.1228
934.50 0.1227
934.60 0.1227
934.70 0.1227
934.80 0.1227
934.90 0.1227
935.00 0.1226
935.10 0.1226
935.20 0.1226
935.30 0.1226
935.40 0.1226
935.50 0.1225
935.60 0.1225
935.70 0.1225
935.80 0.1225
935.90 0.1224
936.00 0.1224
936.10 0.1224
936.20 0.1224
936.30 0.1224
936.40 0.1223
936.50 0.1223
936.60 0.1223
936.70 0.1223
936.80 0.1223
936.90 0.1222
937.00 0.1222
937.10 0.1222
937.20 0.1221
937.30 0.1221
937.40 0.1221
937.50 0.122
937.60 0.122
937.70 0.1219
937.80 0.1219
937.90 0.1219
938.00 0.1218
938.10 0.1218
938.20 0.1217
938.30 0.1217
938.40 0.1217
938.50 0.1216
938.60 0.1215
938.70 0.1215
938.80 0.1214
938.90 0.1214
939.00 0.1213
939.10 0.1213
939.20 0.1212
939.30 0.1212
939.40 0.1211
939.50 0.1211
939.60 0.121
939.70 0.121
939.80 0.1209
939.90 0.1209
940.00 0.1208
940.10 0.1208
940.20 0.1207
940.30 0.1207
940.40 0.1206
940.50 0.1205
940.60 0.1205
940.70 0.1204
940.80 0.1203
940.90 0.1203
941.00 0.1202
941.10 0.1201
941.20 0.1201
941.30 0.12
941.40 0.1199
941.50 0.1199
941.60 0.1198
941.70 0.1197
941.80 0.1197
941.90 0.1196
942.00 0.1195
942.10 0.1195
942.20 0.1194
942.30 0.1193
942.40 0.1192
942.50 0.1191
942.60 0.119
942.70 0.1189
942.80 0.1188
942.90 0.1187
943.00 0.1186
943.10 0.1185
943.20 0.1184
943.30 0.1184
943.40 0.1183
943.50 0.1182
943.60 0.1181
943.70 0.118
943.80 0.1179
943.90 0.1178
944.00 0.1177
944.10 0.1176
944.20 0.1175
944.30 0.1174
944.40 0.1173
944.50 0.1172
944.60 0.117
944.70 0.1169
944.80 0.1168
944.90 0.1167
945.00 0.1166
945.10 0.1164
945.20 0.1163
945.30 0.1162
945.40 0.116
945.50 0.1159
945.60 0.1157
945.70 0.1156
945.80 0.1154
945.90 0.1152
946.00 0.1151
946.10 0.1149
946.20 0.1148
946.30 0.1146
946.40 0.1144
946.50 0.1143
946.60 0.1141
946.70 0.114
946.80 0.1138
946.90 0.1136
947.00 0.1135
947.10 0.1133
947.20 0.1131
947.30 0.1129
947.40 0.1127
947.50 0.1124
947.60 0.1122
947.70 0.1119
947.80 0.1116
947.90 0.1114
948.00 0.1111
948.10 0.1109
948.20 0.1106
948.30 0.1104
948.40 0.1101
948.50 0.1099
948.60 0.1096
948.70 0.1094
948.80 0.1091
948.90 0.1089
949.00 0.1086
949.10 0.1084
949.20 0.1081
949.30 0.1079
949.40 0.1075
949.50 0.1071
949.60 0.1067
949.70 0.1064
949.80 0.106
949.90 0.1056
950.00 0.1052
950.10 0.1049
950.20 0.1045
950.30 0.1041
950.40 0.1037
950.50 0.1034
950.60 0.103
950.70 0.1026
950.80 0.1022
950.90 0.1018
951.00 0.1015
951.10 0.1011
951.20 0.1007
951.30 0.1003
951.40 0.09987
951.50 0.09939
951.60 0.09892
951.70 0.09844
951.80 0.09797
951.90 0.0975
952.00 0.09702
952.10 0.0965
952.20 0.09597
952.30 0.09545
952.40 0.09492
952.50 0.0944
952.60 0.09387
952.70 0.09335
952.80 0.09282
952.90 0.09226
953.00 0.09169
953.10 0.09113
953.20 0.09056
953.30 0.09
953.40 0.08943
953.50 0.08887
953.60 0.08828
953.70 0.0877
953.80 0.08712
953.90 0.08653
954.00 0.08602
954.10 0.0855
954.20 0.08527
954.30 0.08628
954.40 0.08522
954.50 0.08539
954.60 0.08585
954.70 0.08631
954.80 0.08683
954.90 0.08735
955.00 0.08787
955.10 0.08839
955.20 0.08889
955.30 0.08939
955.40 0.08988
955.50 0.09038
955.60 0.09088
955.70 0.09138
955.80 0.09187
955.90 0.09231
956.00 0.09274
956.10 0.09318
956.20 0.09361
956.30 0.09405
956.40 0.09448
956.50 0.09492
956.60 0.09535
956.70 0.09579
956.80 0.09622
956.90 0.09665
957.00 0.09709
957.10 0.09747
957.20 0.09784
957.30 0.09822
957.40 0.09851
957.50 0.0988
957.60 0.0991
957.70 0.09939
957.80 0.09968
957.90 0.09997
958.00 0.1003
958.10 0.1005
958.20 0.1008
958.30 0.1011
958.40 0.1014
958.50 0.1017
958.60 0.102
958.70 0.1023
958.80 0.1026
958.90 0.1029
959.00 0.1032
959.10 0.1034
959.20 0.1037
959.30 0.104
959.40 0.1042
959.50 0.1043
959.60 0.1045
959.70 0.1047
959.80 0.1048
959.90 0.105
960.00 0.1052
960.10 0.1053
960.20 0.1055
960.30 0.1056
960.40 0.1058
960.50 0.106
960.60 0.1061
960.70 0.1063
960.80 0.1064
960.90 0.1066
961.00 0.1068
961.10 0.1069
961.20 0.1071
961.30 0.1073
961.40 0.1074
961.50 0.1074
961.60 0.1075
961.70 0.1076
961.80 0.1077
961.90 0.1078
962.00 0.1079
962.10 0.108
962.20 0.1081
962.30 0.1081
962.40 0.1082
962.50 0.1082
962.60 0.1083
962.70 0.1084
962.80 0.1084
962.90 0.1085
963.00 0.1086
963.10 0.1086
963.20 0.1087
963.30 0.1088
963.40 0.1088
963.50 0.1088
963.60 0.1089
963.70 0.1089
963.80 0.1089
963.90 0.109
964.00 0.109
964.10 0.109
964.20 0.1091
964.30 0.1091
964.40 0.1091
964.50 0.1091
964.60 0.1091
964.70 0.1091
964.80 0.1092
964.90 0.1092
965.00 0.1092
965.10 0.1092
965.20 0.1092
965.30 0.1092
965.40 0.1092
965.50 0.1092
965.60 0.1092
965.70 0.1092
965.80 0.1092
965.90 0.1093
966.00 0.1093
966.10 0.1093
966.20 0.1093
966.30 0.1093
966.40 0.1093
966.50 0.1093
966.60 0.1093
966.70 0.1093
966.80 0.1093
966.90 0.1093
967.00 0.1092
967.10 0.1092
967.20 0.1092
967.30 0.1092
967.40 0.1092
967.50 0.1092
967.60 0.1092
967.70 0.1091
967.80 0.1091
967.90 0.1091
968.00 0.1091
968.10 0.1091
968.20 0.1091
968.30 0.1091
968.40 0.109
968.50 0.109
968.60 0.109
968.70 0.109
968.80 0.1089
968.90 0.1089
969.00 0.1089
969.10 0.1089
969.20 0.1089
969.30 0.1088
969.40 0.1088
969.50 0.1088
969.60 0.1088
969.70 0.1087
969.80 0.1087
969.90 0.1087
970.00 0.1087
970.10 0.1086
970.20 0.1086
970.30 0.1086
970.40 0.1086
970.50 0.1085
970.60 0.1085
970.70 0.1085
970.80 0.1084
970.90 0.1084
971.00 0.1084
971.10 0.1084
971.20 0.1083
971.30 0.1083
971.40 0.1083
971.50 0.1082
971.60 0.1082
971.70 0.1082
971.80 0.1081
971.90 0.1081
972.00 0.1081
972.10 0.1081
972.20 0.108
972.30 0.108
972.40 0.108
972.50 0.1079
972.60 0.1079
972.70 0.1079
972.80 0.1078
972.90 0.1078
973.00 0.1078
973.10 0.1077
973.20 0.1077
973.30 0.1077
973.40 0.1076
973.50 0.1076
973.60 0.1076
973.70 0.1075
973.80 0.1075
973.90 0.1074
974.00 0.1074
974.10 0.1074
974.20 0.1073
974.30 0.1073
974.40 0.1073
974.50 0.1072
974.60 0.1072
974.70 0.1072
974.80 0.1071
974.90 0.1071
975.00 0.1071
975.10 0.107
975.20 0.107
975.30 0.1069
975.40 0.1069
975.50 0.1069
975.60 0.1068
975.70 0.1068
975.80 0.1068
975.90 0.1067
976.00 0.1067
976.10 0.1066
976.20 0.1066
976.30 0.1066
976.40 0.1065
976.50 0.1065
976.60 0.1065
976.70 0.1064
976.80 0.1064
976.90 0.1064
977.00 0.1063
977.10 0.1063
977.20 0.1062
977.30 0.1062
977.40 0.1062
977.50 0.1061
977.60 0.1061
977.70 0.106
977.80 0.106
977.90 0.106
978.00 0.1059
978.10 0.1059
978.20 0.1058
978.30 0.1058
978.40 0.1058
978.50 0.1057
978.60 0.1057
978.70 0.1056
978.80 0.1056
978.90 0.1056
979.00 0.1055
979.10 0.1055
979.20 0.1054
979.30 0.1054
979.40 0.1054
979.50 0.1053
979.60 0.1053
979.70 0.1052
979.80 0.1052
979.90 0.1052
980.00 0.1051
980.10 0.1051
980.20 0.105
980.30 0.105
980.40 0.105
980.50 0.1049
980.60 0.1049
980.70 0.1048
980.80 0.1048
980.90 0.1048
981.00 0.1047
981.10 0.1047
981.20 0.1046
981.30 0.1046
981.40 0.1046
981.50 0.1045
981.60 0.1045
981.70 0.1044
981.80 0.1044
981.90 0.1044
982.00 0.1043
982.10 0.1043
982.20 0.1042
982.30 0.1042
982.40 0.1042
982.50 0.1041
982.60 0.1041
982.70 0.104
982.80 0.104
982.90 0.1039
983.00 0.1039
983.10 0.1039
983.20 0.1038
983.30 0.1038
983.40 0.1037
983.50 0.1037
983.60 0.1036
983.70 0.1036
983.80 0.1036
983.90 0.1035
984.00 0.1035
984.10 0.1034
984.20 0.1034
984.30 0.1034
984.40 0.1033
984.50 0.1033
984.60 0.1032
984.70 0.1032
984.80 0.1031
984.90 0.1031
985.00 0.103
985.10 0.103
985.20 0.103
985.30 0.1029
985.40 0.1029
985.50 0.1028
985.60 0.1028
985.70 0.1027
985.80 0.1027
985.90 0.1026
986.00 0.1026
986.10 0.1025
986.20 0.1025
986.30 0.1025
986.40 0.1024
986.50 0.1024
986.60 0.1023
986.70 0.1023
986.80 0.1022
986.90 0.1022
987.00 0.1021
987.10 0.1021
987.20 0.102
987.30 0.102
987.40 0.1019
987.50 0.1019
987.60 0.1018
987.70 0.1018
987.80 0.1017
987.90 0.1017
988.00 0.1016
988.10 0.1016
988.20 0.1015
988.30 0.1015
988.40 0.1014
988.50 0.1014
988.60 0.1013
988.70 0.1013
988.80 0.1012
988.90 0.1012
989.00 0.1011
989.10 0.1011
989.20 0.101
989.30 0.101
989.40 0.1009
989.50 0.1009
989.60 0.1008
989.70 0.1007
989.80 0.1007
989.90 0.1006
990.00 0.1006
990.10 0.1005
990.20 0.1005
990.30 0.1004
990.40 0.1004
990.50 0.1003
990.60 0.1003
990.70 0.1002
990.80 0.1001
990.90 0.1001
991.00 0.1
991.10 0.09994
991.20 0.09987
991.30 0.09981
991.40 0.09975
991.50 0.09968
991.60 0.09962
991.70 0.09956
991.80 0.09949
991.90 0.09943
992.00 0.09937
992.10 0.0993
992.20 0.09923
992.30 0.09916
992.40 0.09909
992.50 0.09902
992.60 0.09895
992.70 0.09887
992.80 0.09879
992.90 0.0987
993.00 0.09862
993.10 0.09853
993.20 0.09845
993.30 0.09836
993.40 0.09828
993.50 0.0982
993.60 0.09811
993.70 0.09803
993.80 0.09794
993.90 0.09786
994.00 0.09777
994.10 0.09769
994.20 0.0976
994.30 0.09752
994.40 0.09743
994.50 0.09735
994.60 0.09727
994.70 0.09716
994.80 0.09706
994.90 0.09695
995.00 0.09685
995.10 0.09674
995.20 0.09663
995.30 0.09653
995.40 0.09642
995.50 0.09631
995.60 0.09621
995.70 0.09608
995.80 0.09595
995.90 0.09582
996.00 0.09568
996.10 0.09555
996.20 0.09542
996.30 0.09529
996.40 0.09516
996.50 0.09502
996.60 0.09489
996.70 0.09476
996.80 0.09463
996.90 0.0945
997.00 0.09436
997.10 0.09421
997.20 0.09405
997.30 0.09389
997.40 0.09374
997.50 0.09358
997.60 0.09343
997.70 0.09323
997.80 0.09302
997.90 0.09281
998.00 0.09261
998.10 0.0924
998.20 0.09219
998.30 0.09198
998.40 0.09177
998.50 0.09156
998.60 0.09136
998.70 0.09115
998.80 0.09094
998.90 0.09073
999.00 0.09052
999.10 0.09032
999.20 0.09011
999.30 0.0899
999.40 0.08969
999.50 0.08949
999.60 0.08928
999.70 0.089
999.80 0.08869
999.90 0.08839
1000.00 0.08808
1000.10 0.08777
1000.20 0.08747
1000.30 0.08716
1000.40 0.08686
1000.50 0.08655
1000.60 0.08625
1000.70 0.08594
1000.80 0.08563
1000.90 0.08533
1001.00 0.08502
1001.10 0.08472
1001.20 0.08442
1001.30 0.08411
1001.40 0.08381
1001.50 0.0835
1001.60 0.0832
1001.70 0.08284
1001.80 0.08247
1001.90 0.0821
1002.00 0.08173
1002.10 0.08131
1002.20 0.08089
1002.30 0.08048
1002.40 0.08006
1002.50 0.07964
1002.60 0.07923
1002.70 0.07881
1002.80 0.07839
1002.90 0.07798
1003.00 0.07756
1003.10 0.07715
1003.20 0.07668
1003.30 0.07619
1003.40 0.0757
1003.50 0.07521
1003.60 0.07473
1003.70 0.07424
1003.80 0.07375
1003.90 0.07317
1004.00 0.07256
1004.10 0.07194
1004.20 0.07133
1004.30 0.07055
1004.40 0.06972
1004.50 0.06887
1004.60 0.06871
1004.70 0.06852
1004.80 0.06925
1004.90 0.07003
1005.00 0.07081
1005.10 0.07143
1005.20 0.07199
1005.30 0.07255
1005.40 0.07312
1005.50 0.07358
1005.60 0.07402
1005.70 0.07445
1005.80 0.07488
1005.90 0.07531
1006.00 0.07575
1006.10 0.07618
1006.20 0.07656
1006.30 0.07693
1006.40 0.07729
1006.50 0.07766
1006.60 0.07802
1006.70 0.07839
1006.80 0.07875
1006.90 0.07911
1007.00 0.07948
1007.10 0.07979
1007.20 0.08011
1007.30 0.08042
1007.40 0.08074
1007.50 0.08105
1007.60 0.08137
1007.70 0.08162
1007.80 0.08186
1007.90 0.0821
1008.00 0.08233
1008.10 0.08257
1008.20 0.0828
1008.30 0.08304
1008.40 0.08327
1008.50 0.08351
1008.60 0.08375
1008.70 0.08398
1008.80 0.08422
1008.90 0.08445
1009.00 0.08469
1009.10 0.08492
1009.20 0.08516
1009.30 0.08539
1009.40 0.08563
1009.50 0.08586
1009.60 0.0861
1009.70 0.08626
1009.80 0.08639
1009.90 0.08653
1010.00 0.08667
1010.10 0.0868
1010.20 0.08694
1010.30 0.08707
1010.40 0.08721
1010.50 0.08735
1010.60 0.08748
1010.70 0.08762
1010.80 0.08776
1010.90 0.08789
1011.00 0.08803
1011.10 0.08816
1011.20 0.0883
1011.30 0.08843
1011.40 0.08857
1011.50 0.08871
1011.60 0.08884
1011.70 0.08894
1011.80 0.08903
1011.90 0.08911
1012.00 0.0892
1012.10 0.08926
1012.20 0.08932
1012.30 0.08938
1012.40 0.08944
1012.50 0.08951
1012.60 0.08957
1012.70 0.08963
1012.80 0.08969
1012.90 0.08975
1013.00 0.08981
1013.10 0.08987
1013.20 0.08994
1013.30 0.09
1013.40 0.09006
1013.50 0.09012
1013.60 0.09018
1013.70 0.09022
1013.80 0.09025
1013.90 0.09029
1014.00 0.09032
1014.10 0.09035
1014.20 0.09039
1014.30 0.09042
1014.40 0.09045
1014.50 0.09048
1014.60 0.09052
1014.70 0.09053
1014.80 0.09054
1014.90 0.09055
1015.00 0.09056
1015.10 0.09058
1015.20 0.09059
1015.30 0.0906
1015.40 0.09061
1015.50 0.09062
1015.60 0.09063
1015.70 0.09064
1015.80 0.09065
1015.90 0.09066
1016.00 0.09067
1016.10 0.09068
1016.20 0.09069
1016.30 0.0907
1016.40 0.09071
1016.50 0.09072
1016.60 0.09074
1016.70 0.09074
1016.80 0.09074
1016.90 0.09075
1017.00 0.09075
1017.10 0.09074
1017.20 0.09073
1017.30 0.09072
1017.40 0.09072
1017.50 0.09071
1017.60 0.0907
1017.70 0.09069
1017.80 0.09068
1017.90 0.09068
1018.00 0.09067
1018.10 0.09066
1018.20 0.09065
1018.30 0.09064
1018.40 0.09064
1018.50 0.09063
1018.60 0.09062
1018.70 0.09061
1018.80 0.09059
1018.90 0.09057
1019.00 0.09056
1019.10 0.09054
1019.20 0.09052
1019.30 0.09051
1019.40 0.09049
1019.50 0.09047
1019.60 0.09046
1019.70 0.09044
1019.80 0.09042
1019.90 0.09041
1020.00 0.09039
1020.10 0.09037
1020.20 0.09036
1020.30 0.09034
1020.40 0.09032
1020.50 0.09031
1020.60 0.09029
1020.70 0.09027
1020.80 0.09025
1020.90 0.09023
1021.00 0.0902
1021.10 0.09018
1021.20 0.09016
1021.30 0.09014
1021.40 0.09012
1021.50 0.0901
1021.60 0.09007
1021.70 0.09005
1021.80 0.09003
1021.90 0.09001
1022.00 0.08999
1022.10 0.08996
1022.20 0.08994
1022.30 0.08991
1022.40 0.08989
1022.50 0.08986
1022.60 0.08984
1022.70 0.08981
1022.80 0.08979
1022.90 0.08976
1023.00 0.08974
1023.10 0.08971
1023.20 0.08969
1023.30 0.08966
1023.40 0.08964
1023.50 0.08961
1023.60 0.08959
1023.70 0.08956
1023.80 0.08954
1023.90 0.08951
1024.00 0.08949
1024.10 0.08946
1024.20 0.08944
1024.30 0.08941
1024.40 0.08939
1024.50 0.08936
1024.60 0.08934
1024.70 0.08931
1024.80 0.08928
1024.90 0.08925
1025.00 0.08923
1025.10 0.0892
1025.20 0.08917
1025.30 0.08914
1025.40 0.08912
1025.50 0.08909
1025.60 0.08906
1025.70 0.08903
1025.80 0.08901
1025.90 0.08898
1026.00 0.08895
1026.10 0.08892
1026.20 0.0889
1026.30 0.08887
1026.40 0.08884
1026.50 0.08881
1026.60 0.08879
1026.70 0.08876
1026.80 0.08873
1026.90 0.0887
1027.00 0.08868
1027.10 0.08865
1027.20 0.08862
1027.30 0.08859
1027.40 0.08856
1027.50 0.08853
1027.60 0.0885
1027.70 0.08847
1027.80 0.08844
1027.90 0.08841
1028.00 0.08839
1028.10 0.08836
1028.20 0.08833
1028.30 0.0883
1028.40 0.08827
1028.50 0.08824
1028.60 0.08821
1028.70 0.08818
1028.80 0.08815
1028.90 0.08812
1029.00 0.08809
1029.10 0.08807
1029.20 0.08804
1029.30 0.08801
1029.40 0.08798
1029.50 0.08795
1029.60 0.08792
1029.70 0.08789
1029.80 0.08786
1029.90 0.08783
1030.00 0.0878
1030.10 0.08778
1030.20 0.08775
1030.30 0.08772
1030.40 0.08769
1030.50 0.08766
1030.60 0.08763
1030.70 0.0876
1030.80 0.08757
1030.90 0.08754
1031.00 0.08752
1031.10 0.08749
1031.20 0.08746
1031.30 0.08743
1031.40 0.0874
1031.50 0.08737
1031.60 0.08734
1031.70 0.08731
1031.80 0.08729
1031.90 0.08726
1032.00 0.08723
1032.10 0.0872
1032.20 0.08717
1032.30 0.08714
1032.40 0.08711
1032.50 0.08708
1032.60 0.08705
1032.70 0.08702
1032.80 0.08699
1032.90 0.08696
1033.00 0.08693
1033.10 0.0869
1033.20 0.08687
1033.30 0.08684
1033.40 0.08681
1033.50 0.08678
1033.60 0.08675
1033.70 0.08672
1033.80 0.08669
1033.90 0.08666
1034.00 0.08663
1034.10 0.0866
1034.20 0.08657
1034.30 0.08654
1034.40 0.08651
1034.50 0.08648
1034.60 0.08645
1034.70 0.08642
1034.80 0.08639
1034.90 0.08637
1035.00 0.08634
1035.10 0.08631
1035.20 0.08628
1035.30 0.08625
1035.40 0.08622
1035.50 0.08619
1035.60 0.08616
1035.70 0.08613
1035.80 0.0861
1035.90 0.08607
1036.00 0.08604
1036.10 0.08601
1036.20 0.08598
1036.30 0.08595
1036.40 0.08592
1036.50 0.08589
1036.60 0.08586
1036.70 0.08583
1036.80 0.0858
1036.90 0.08578
1037.00 0.08575
1037.10 0.08572
1037.20 0.08569
1037.30 0.08566
1037.40 0.08563
1037.50 0.0856
1037.60 0.08557
1037.70 0.08554
1037.80 0.08551
1037.90 0.08548
1038.00 0.08545
1038.10 0.08542
1038.20 0.08539
1038.30 0.08536
1038.40 0.08533
1038.50 0.0853
1038.60 0.08527
1038.70 0.08524
1038.80 0.08521
1038.90 0.08518
1039.00 0.08515
1039.10 0.08512
1039.20 0.08509
1039.30 0.08506
1039.40 0.08503
1039.50 0.085
1039.60 0.08497
1039.70 0.08494
1039.80 0.08491
1039.90 0.08488
1040.00 0.08485
1040.10 0.08482
1040.20 0.08479
1040.30 0.08477
1040.40 0.08474
1040.50 0.08471
1040.60 0.08468
1040.70 0.08465
1040.80 0.08462
1040.90 0.08459
1041.00 0.08456
1041.10 0.08453
1041.20 0.0845
1041.30 0.08447
1041.40 0.08444
1041.50 0.08441
1041.60 0.08438
1041.70 0.08435
1041.80 0.08432
1041.90 0.08429
1042.00 0.08426
1042.10 0.08423
1042.20 0.08421
1042.30 0.08418
1042.40 0.08415
1042.50 0.08412
1042.60 0.08409
1042.70 0.08406
1042.80 0.08403
1042.90 0.084
1043.00 0.08397
1043.10 0.08394
1043.20 0.08391
1043.30 0.08388
1043.40 0.08385
1043.50 0.08382
1043.60 0.08379
1043.70 0.08376
1043.80 0.08373
1043.90 0.0837
1044.00 0.08367
1044.10 0.08365
1044.20 0.08362
1044.30 0.08359
1044.40 0.08356
1044.50 0.08353
1044.60 0.0835
1044.70 0.08347
1044.80 0.08344
1044.90 0.08341
1045.00 0.08338
1045.10 0.08335
1045.20 0.08332
1045.30 0.08329
1045.40 0.08326
1045.50 0.08323
1045.60 0.08321
1045.70 0.08318
1045.80 0.08315
1045.90 0.08312
1046.00 0.08309
1046.10 0.08306
1046.20 0.08303
1046.30 0.083
1046.40 0.08297
1046.50 0.08294
1046.60 0.08291
1046.70 0.08288
1046.80 0.08286
1046.90 0.08283
1047.00 0.0828
1047.10 0.08277
1047.20 0.08274
1047.30 0.08271
1047.40 0.08268
1047.50 0.08265
1047.60 0.08262
1047.70 0.08259
1047.80 0.08256
1047.90 0.08253
1048.00 0.08251
1048.10 0.08248
1048.20 0.08245
1048.30 0.08242
1048.40 0.08239
1048.50 0.08236
1048.60 0.08233
1048.70 0.0823
1048.80 0.08227
1048.90 0.08224
1049.00 0.08221
1049.10 0.08219
1049.20 0.08216
1049.30 0.08213
1049.40 0.0821
1049.50 0.08207
1049.60 0.08204
1049.70 0.08201
1049.80 0.08198
1049.90 0.08195
1050.00 0.08193
1050.10 0.0819
1050.20 0.08187
1050.30 0.08184
1050.40 0.08181
1050.50 0.08178
1050.60 0.08175
1050.70 0.08172
1050.80 0.08169
1050.90 0.08167
1051.00 0.08164
1051.10 0.08161
1051.20 0.08158
1051.30 0.08155
1051.40 0.08152
1051.50 0.08149
1051.60 0.08146
1051.70 0.08143
1051.80 0.08141
1051.90 0.08138
1052.00 0.08135
1052.10 0.08132
1052.20 0.08129
1052.30 0.08126
1052.40 0.08123
1052.50 0.0812
1052.60 0.08118
1052.70 0.08115
1052.80 0.08112
1052.90 0.08109
1053.00 0.08106
1053.10 0.08103
1053.20 0.081
1053.30 0.08097
1053.40 0.08095
1053.50 0.08092
1053.60 0.08089
1053.70 0.08086
1053.80 0.08083
1053.90 0.0808
1054.00 0.08077
1054.10 0.08074
1054.20 0.08072
1054.30 0.08069
1054.40 0.08066
1054.50 0.08063
1054.60 0.0806
1054.70 0.08057
1054.80 0.08054
1054.90 0.08052
1055.00 0.08049
1055.10 0.08046
1055.20 0.08043
1055.30 0.0804
1055.40 0.08037
1055.50 0.08034
1055.60 0.08032
1055.70 0.08029
1055.80 0.08026
1055.90 0.08023
1056.00 0.0802
1056.10 0.08017
1056.20 0.08014
1056.30 0.08012
1056.40 0.08009
1056.50 0.08006
1056.60 0.08003
1056.70 0.08
1056.80 0.07997
1056.90 0.07995
1057.00 0.07992
1057.10 0.07989
1057.20 0.07986
1057.30 0.07983
1057.40 0.0798
1057.50 0.07977
1057.60 0.07975
1057.70 0.07972
1057.80 0.07969
1057.90 0.07966
1058.00 0.07963
1058.10 0.0796
1058.20 0.07957
1058.30 0.07955
1058.40 0.07952
1058.50 0.07949
1058.60 0.07946
1058.70 0.07943
1058.80 0.0794
1058.90 0.07937
1059.00 0.07935
1059.10 0.07932
1059.20 0.07929
1059.30 0.07926
1059.40 0.07923
1059.50 0.0792
1059.60 0.07918
1059.70 0.07915
1059.80 0.07912
1059.90 0.07909
1060.00 0.07906
1060.10 0.07903
1060.20 0.07901
1060.30 0.07898
1060.40 0.07895
1060.50 0.07892
1060.60 0.07889
1060.70 0.07886
1060.80 0.07884
1060.90 0.07881
1061.00 0.07878
1061.10 0.07875
1061.20 0.07872
1061.30 0.07869
1061.40 0.07867
1061.50 0.07864
1061.60 0.07861
1061.70 0.07858
1061.80 0.07855
1061.90 0.07853
1062.00 0.0785
1062.10 0.07847
1062.20 0.07844
1062.30 0.07841
1062.40 0.07838
1062.50 0.07835
1062.60 0.07833
1062.70 0.0783
1062.80 0.07827
1062.90 0.07824
1063.00 0.07821
1063.10 0.07818
1063.20 0.07815
1063.30 0.07813
1063.40 0.0781
1063.50 0.07807
1063.60 0.07804
1063.70 0.07801
1063.80 0.07798
1063.90 0.07795
1064.00 0.07793
1064.10 0.0779
1064.20 0.07787
1064.30 0.07784
1064.40 0.07781
1064.50 0.07778
1064.60 0.07776
1064.70 0.07773
1064.80 0.0777
1064.90 0.07767
1065.00 0.07764
1065.10 0.07761
1065.20 0.07759
1065.30 0.07756
1065.40 0.07753
1065.50 0.0775
1065.60 0.07747
1065.70 0.07744
1065.80 0.07742
1065.90 0.07739
1066.00 0.07736
1066.10 0.07733
1066.20 0.0773
1066.30 0.07727
1066.40 0.07725
1066.50 0.07722
1066.60 0.07719
1066.70 0.07716
1066.80 0.07713
1066.90 0.07711
1067.00 0.07708
1067.10 0.07705
1067.20 0.07702
1067.30 0.07699
1067.40 0.07696
1067.50 0.07693
1067.60 0.0769
1067.70 0.07687
1067.80 0.07684
1067.90 0.07681
1068.00 0.07678
1068.10 0.07675
1068.20 0.07673
1068.30 0.0767
1068.40 0.07667
1068.50 0.07664
1068.60 0.07661
1068.70 0.07658
1068.80 0.07655
1068.90 0.07652
1069.00 0.07649
1069.10 0.07646
1069.20 0.07643
1069.30 0.0764
1069.40 0.07637
1069.50 0.07635
1069.60 0.07632
1069.70 0.07629
1069.80 0.07626
1069.90 0.07623
1070.00 0.0762
1070.10 0.07617
1070.20 0.07614
1070.30 0.07611
1070.40 0.07608
1070.50 0.07605
1070.60 0.07603
1070.70 0.076
1070.80 0.07597
1070.90 0.07594
1071.00 0.07591
1071.10 0.07588
1071.20 0.07585
1071.30 0.07582
1071.40 0.07579
1071.50 0.07576
1071.60 0.07574
1071.70 0.07571
1071.80 0.07568
1071.90 0.07565
1072.00 0.07562
1072.10 0.07559
1072.20 0.07556
1072.30 0.07553
1072.40 0.0755
1072.50 0.07547
1072.60 0.07544
1072.70 0.07541
1072.80 0.07538
1072.90 0.07535
1073.00 0.07532
1073.10 0.07529
1073.20 0.07526
1073.30 0.07523
1073.40 0.0752
1073.50 0.07517
1073.60 0.07513
1073.70 0.0751
1073.80 0.07507
1073.90 0.07504
1074.00 0.075
1074.10 0.07497
1074.20 0.07494
1074.30 0.07491
1074.40 0.07487
1074.50 0.07484
1074.60 0.07481
1074.70 0.07478
1074.80 0.07474
1074.90 0.07471
1075.00 0.07468
1075.10 0.07465
1075.20 0.07461
1075.30 0.07458
1075.40 0.07455
1075.50 0.07452
1075.60 0.07449
1075.70 0.07445
1075.80 0.07442
1075.90 0.07439
1076.00 0.07436
1076.10 0.07432
1076.20 0.07429
1076.30 0.07426
1076.40 0.07423
1076.50 0.0742
1076.60 0.07416
1076.70 0.07413
1076.80 0.0741
1076.90 0.07407
1077.00 0.07403
1077.10 0.074
1077.20 0.07397
1077.30 0.07393
1077.40 0.0739
1077.50 0.07386
1077.60 0.07382
1077.70 0.07379
1077.80 0.07375
1077.90 0.07371
1078.00 0.07367
1078.10 0.07364
1078.20 0.0736
1078.30 0.07356
1078.40 0.07352
1078.50 0.07349
1078.60 0.07345
1078.70 0.07341
1078.80 0.07337
1078.90 0.07334
1079.00 0.0733
1079.10 0.07326
1079.20 0.07323
1079.30 0.07319
1079.40 0.07315
1079.50 0.07311
1079.60 0.07307
1079.70 0.07302
1079.80 0.07298
1079.90 0.07294
1080.00 0.07289
1080.10 0.07285
1080.20 0.07281
1080.30 0.07276
1080.40 0.07272
1080.50 0.07268
1080.60 0.07263
1080.70 0.07259
1080.80 0.07255
1080.90 0.0725
1081.00 0.07246
1081.10 0.07242
1081.20 0.07237
1081.30 0.07233
1081.40 0.07229
1081.50 0.07224
1081.60 0.07219
1081.70 0.07214
1081.80 0.07208
1081.90 0.07203
1082.00 0.07198
1082.10 0.07192
1082.20 0.07187
1082.30 0.07181
1082.40 0.07175
1082.50 0.0717
1082.60 0.07164
1082.70 0.07158
1082.80 0.07152
1082.90 0.07147
1083.00 0.07141
1083.10 0.07135
1083.20 0.0713
1083.30 0.07124
1083.40 0.07118
1083.50 0.07112
1083.60 0.07105
1083.70 0.07098
1083.80 0.07091
1083.90 0.07084
1084.00 0.07077
1084.10 0.0707
1084.20 0.07063
1084.30 0.07057
1084.40 0.0705
1084.50 0.07042
1084.60 0.07033
1084.70 0.07024
1084.80 0.07014
1084.90 0.07005
1085.00 0.06996
1085.10 0.06987
1085.20 0.06978
1085.30 0.06969
1085.40 0.0696
1085.50 0.0695
1085.60 0.06941
1085.70 0.06932
1085.80 0.06923
1085.90 0.06914
1086.00 0.06905
1086.10 0.06896
1086.20 0.06886
1086.30 0.06877
1086.40 0.06868
1086.50 0.06858
1086.60 0.06846
1086.70 0.06834
1086.80 0.06823
1086.90 0.06811
1087.00 0.06799
1087.10 0.06784
1087.20 0.0677
1087.30 0.06755
1087.40 0.06741
1087.50 0.06727
1087.60 0.06712
1087.70 0.06698
1087.80 0.06683
1087.90 0.06669
1088.00 0.06655
1088.10 0.0664
1088.20 0.06626
1088.30 0.06612
1088.40 0.06597
1088.50 0.06581
1088.60 0.0656
1088.70 0.0654
1088.80 0.06519
1088.90 0.06499
1089.00 0.06478
1089.10 0.06458
1089.20 0.06437
1089.30 0.06417
1089.40 0.06396
1089.50 0.06376
1089.60 0.06355
1089.70 0.06335
1089.80 0.06314
1089.90 0.06294
1090.00 0.06273
1090.10 0.06253
1090.20 0.06233
1090.30 0.06212
1090.40 0.06192
1090.50 0.06169
1090.60 0.06141
1090.70 0.06113
1090.80 0.06086
1090.90 0.06058
1091.00 0.0603
1091.10 0.06002
1091.20 0.05975
1091.30 0.05947
1091.40 0.05919
1091.50 0.05892
1091.60 0.05864
1091.70 0.05836
1091.80 0.05809
1091.90 0.05781
1092.00 0.05752
1092.10 0.05717
1092.20 0.05682
1092.30 0.05647
1092.40 0.05612
1092.50 0.05577
1092.60 0.05542
1092.70 0.05502
1092.80 0.05453
1092.90 0.05403
1093.00 0.05353
1093.10 0.05292
1093.20 0.05205
1093.30 0.05114
1093.40 0.0499
1093.50 0.04969
1093.60 0.05065
1093.70 0.05166
1093.80 0.0525
1093.90 0.05321
1094.00 0.05367
1094.10 0.05414
1094.20 0.0546
1094.30 0.05501
1094.40 0.05532
1094.50 0.05563
1094.60 0.05594
1094.70 0.05625
1094.80 0.05656
1094.90 0.05687
1095.00 0.05716
1095.10 0.0574
1095.20 0.05763
1095.30 0.05787
1095.40 0.0581
1095.50 0.05834
1095.60 0.05857
1095.70 0.05881
1095.80 0.05904
1095.90 0.05928
1096.00 0.05951
1096.10 0.05975
1096.20 0.05998
1096.30 0.06022
1096.40 0.06045
1096.50 0.06067
1096.60 0.06086
1096.70 0.06104
1096.80 0.06123
1096.90 0.06141
1097.00 0.0616
1097.10 0.06175
1097.20 0.0619
1097.30 0.06204
1097.40 0.06219
1097.50 0.06234
1097.60 0.06249
1097.70 0.06264
1097.80 0.06278
1097.90 0.06293
1098.00 0.06308
1098.10 0.06322
1098.20 0.06337
1098.30 0.06352
1098.40 0.06367
1098.50 0.06379
1098.60 0.06388
1098.70 0.06397
1098.80 0.06406
1098.90 0.06415
1099.00 0.06423
1099.10 0.06432
1099.20 0.06441
1099.30 0.0645
1099.40 0.06459
1099.50 0.06467
1099.60 0.06476
1099.70 0.06485
1099.80 0.06494
1099.90 0.06503
1100.00 0.06511
1100.10 0.0652
1100.20 0.06529
1100.30 0.06538
1100.40 0.06546
1100.50 0.06554
1100.60 0.06558
1100.70 0.06563
1100.80 0.06567
1100.90 0.06572
1101.00 0.06576
1101.10 0.0658
1101.20 0.06585
1101.30 0.06589
1101.40 0.06594
1101.50 0.06598
1101.60 0.06603
1101.70 0.06607
1101.80 0.06611
1101.90 0.06616
1102.00 0.0662
1102.10 0.06623
1102.20 0.06627
1102.30 0.0663
1102.40 0.06633
1102.50 0.06636
1102.60 0.06638
1102.70 0.0664
1102.80 0.06642
1102.90 0.06644
1103.00 0.06646
1103.10 0.06647
1103.20 0.06649
1103.30 0.06651
1103.40 0.06653
1103.50 0.06655
1103.60 0.06655
1103.70 0.06656
1103.80 0.06657
1103.90 0.06657
1104.00 0.06658
1104.10 0.06658
1104.20 0.06659
1104.30 0.06659
1104.40 0.0666
1104.50 0.0666
1104.60 0.06661
1104.70 0.06661
1104.80 0.06662
1104.90 0.06662
1105.00 0.06663
1105.10 0.06663
1105.20 0.06664
1105.30 0.06665
1105.40 0.06665
1105.50 0.06665
1105.60 0.06665
1105.70 0.06664
1105.80 0.06664
1105.90 0.06664
1106.00 0.06663
1106.10 0.06663
1106.20 0.06662
1106.30 0.06662
1106.40 0.06661
1106.50 0.06661
1106.60 0.0666
1106.70 0.0666
1106.80 0.0666
1106.90 0.06659
1107.00 0.06659
1107.10 0.06658
1107.20 0.06657
1107.30 0.06656
1107.40 0.06656
1107.50 0.06655
1107.60 0.06653
1107.70 0.06652
1107.80 0.06651
1107.90 0.0665
1108.00 0.06649
1108.10 0.06648
1108.20 0.06646
1108.30 0.06645
1108.40 0.06644
1108.50 0.06643
1108.60 0.06642
1108.70 0.06641
1108.80 0.06639
1108.90 0.06638
1109.00 0.06637
1109.10 0.06636
1109.20 0.06635
1109.30 0.06634
1109.40 0.06632
1109.50 0.06631
1109.60 0.0663
1109.70 0.06628
1109.80 0.06626
1109.90 0.06625
1110.00 0.06623
1110.10 0.06622
1110.20 0.0662
1110.30 0.06619
1110.40 0.06617
1110.50 0.06616
1110.60 0.06614
1110.70 0.06613
1110.80 0.06611
1110.90 0.0661
1111.00 0.06608
1111.10 0.06606
1111.20 0.06605
1111.30 0.06603
1111.40 0.06602
1111.50 0.066
1111.60 0.06599
1111.70 0.06597
1111.80 0.06596
1111.90 0.06594
1112.00 0.06593
1112.10 0.06591
1112.20 0.06589
1112.30 0.06587
1112.40 0.06586
1112.50 0.06584
1112.60 0.06582
1112.70 0.0658
1112.80 0.06579
1112.90 0.06577
1113.00 0.06575
1113.10 0.06574
1113.20 0.06572
1113.30 0.0657
1113.40 0.06568
1113.50 0.06567
1113.60 0.06565
1113.70 0.06563
1113.80 0.06561
1113.90 0.06559
1114.00 0.06557
1114.10 0.06555
1114.20 0.06553
1114.30 0.06552
1114.40 0.0655
1114.50 0.06548
1114.60 0.06546
1114.70 0.06544
1114.80 0.06542
1114.90 0.0654
1115.00 0.06538
1115.10 0.06537
1115.20 0.06535
1115.30 0.06533
1115.40 0.06531
1115.50 0.06529
1115.60 0.06527
1115.70 0.06525
1115.80 0.06523
1115.90 0.06522
1116.00 0.0652
1116.10 0.06518
1116.20 0.06516
1116.30 0.06514
1116.40 0.06512
1116.50 0.0651
1116.60 0.06509
1116.70 0.06507
1116.80 0.06505
1116.90 0.06503
1117.00 0.06501
1117.10 0.06499
1117.20 0.06497
1117.30 0.06495
1117.40 0.06493
1117.50 0.06491
1117.60 0.06489
1117.70 0.06487
1117.80 0.06485
1117.90 0.06483
1118.00 0.06481
1118.10 0.06479
1118.20 0.06477
1118.30 0.06475
1118.40 0.06473
1118.50 0.06471
1118.60 0.06469
1118.70 0.06467
1118.80 0.06465
1118.90 0.06463
1119.00 0.06461
1119.10 0.06459
1119.20 0.06457
1119.30 0.06455
1119.40 0.06453
1119.50 0.06451
1119.60 0.06449
1119.70 0.06447
1119.80 0.06446
1119.90 0.06444
1120.00 0.06442
1120.10 0.0644
1120.20 0.06438
1120.30 0.06436
1120.40 0.06434
1120.50 0.06432
1120.60 0.0643
1120.70 0.06428
1120.80 0.06426
1120.90 0.06424
1121.00 0.06422
1121.10 0.0642
1121.20 0.06418
1121.30 0.06416
1121.40 0.06414
1121.50 0.06412
1121.60 0.0641
1121.70 0.06408
1121.80 0.06406
1121.90 0.06404
1122.00 0.06402
1122.10 0.064
1122.20 0.06398
1122.30 0.06396
1122.40 0.06394
1122.50 0.06392
1122.60 0.0639
1122.70 0.06388
1122.80 0.06386
1122.90 0.06384
1123.00 0.06382
1123.10 0.0638
1123.20 0.06378
1123.30 0.06376
1123.40 0.06374
1123.50 0.06372
1123.60 0.0637
1123.70 0.06368
1123.80 0.06366
1123.90 0.06364
1124.00 0.06362
1124.10 0.0636
1124.20 0.06358
1124.30 0.06356
1124.40 0.06354
1124.50 0.06352
1124.60 0.0635
1124.70 0.06348
1124.80 0.06346
1124.90 0.06344
1125.00 0.06342
1125.10 0.0634
1125.20 0.06338
1125.30 0.06336
1125.40 0.06334
1125.50 0.06332
1125.60 0.0633
1125.70 0.06328
1125.80 0.06326
1125.90 0.06324
1126.00 0.06322
1126.10 0.0632
1126.20 0.06318
1126.30 0.06316
1126.40 0.06314
1126.50 0.06312
1126.60 0.0631
1126.70 0.06308
1126.80 0.06306
1126.90 0.06304
1127.00 0.06302
1127.10 0.063
1127.20 0.06298
1127.30 0.06295
1127.40 0.06293
1127.50 0.06291
1127.60 0.06289
1127.70 0.06287
1127.80 0.06285
1127.90 0.06283
1128.00 0.06281
1128.10 0.06279
1128.20 0.06277
1128.30 0.06275
1128.40 0.06273
1128.50 0.06271
1128.60 0.06269
1128.70 0.06267
1128.80 0.06265
1128.90 0.06263
1129.00 0.06261
1129.10 0.06259
1129.20 0.06257
1129.30 0.06255
1129.40 0.06253
1129.50 0.06251
1129.60 0.06249
1129.70 0.06247
1129.80 0.06245
1129.90 0.06243
1130.00 0.06241
1130.10 0.06239
1130.20 0.06237
1130.30 0.06235
1130.40 0.06233
1130.50 0.06231
1130.60 0.06229
1130.70 0.06227
1130.80 0.06225
1130.90 0.06223
1131.00 0.06221
1131.10 0.06219
1131.20 0.06217
1131.30 0.06215
1131.40 0.06213
1131.50 0.06211
1131.60 0.06209
1131.70 0.06207
1131.80 0.06205
1131.90 0.06203
1132.00 0.06201
1132.10 0.06199
1132.20 0.06197
1132.30 0.06195
1132.40 0.06193
1132.50 0.06191
1132.60 0.06189
1132.70 0.06187
1132.80 0.06185
1132.90 0.06183
1133.00 0.06181
1133.10 0.06179
1133.20 0.06177
1133.30 0.06175
1133.40 0.06173
1133.50 0.06171
1133.60 0.06169
1133.70 0.06167
1133.80 0.06165
1133.90 0.06163
1134.00 0.06161
1134.10 0.06159
1134.20 0.06157
1134.30 0.06155
1134.40 0.06153
1134.50 0.06151
1134.60 0.06149
1134.70 0.06147
1134.80 0.06145
1134.90 0.06143
1135.00 0.06141
1135.10 0.06139
1135.20 0.06137
1135.30 0.06135
1135.40 0.06133
1135.50 0.06131
1135.60 0.06129
1135.70 0.06128
1135.80 0.06126
1135.90 0.06124
1136.00 0.06122
1136.10 0.0612
1136.20 0.06118
1136.30 0.06116
1136.40 0.06114
1136.50 0.06112
1136.60 0.0611
1136.70 0.06108
1136.80 0.06106
1136.90 0.06104
1137.00 0.06102
1137.10 0.061
1137.20 0.06098
1137.30 0.06096
1137.40 0.06094
1137.50 0.06092
1137.60 0.0609
1137.70 0.06088
1137.80 0.06086
1137.90 0.06084
1138.00 0.06082
1138.10 0.0608
1138.20 0.06078
1138.30 0.06076
1138.40 0.06074
1138.50 0.06072
1138.60 0.0607
1138.70 0.06068
1138.80 0.06066
1138.90 0.06064
1139.00 0.06063
1139.10 0.06061
1139.20 0.06059
1139.30 0.06057
1139.40 0.06055
1139.50 0.06053
1139.60 0.06051
1139.70 0.06049
1139.80 0.06047
1139.90 0.06045
1140.00 0.06043
1140.10 0.06041
1140.20 0.06039
1140.30 0.06037
1140.40 0.06035
1140.50 0.06033
1140.60 0.06031
1140.70 0.06029
1140.80 0.06027
1140.90 0.06025
1141.00 0.06023
1141.10 0.06022
1141.20 0.0602
1141.30 0.06018
1141.40 0.06016
1141.50 0.06014
1141.60 0.06012
1141.70 0.0601
1141.80 0.06008
1141.90 0.06006
1142.00 0.06004
1142.10 0.06002
1142.20 0.06
1142.30 0.05998
1142.40 0.05996
1142.50 0.05994
1142.60 0.05992
1142.70 0.0599
1142.80 0.05989
1142.90 0.05987
1143.00 0.05985
1143.10 0.05983
1143.20 0.05981
1143.30 0.05979
1143.40 0.05977
1143.50 0.05975
1143.60 0.05973
1143.70 0.05971
1143.80 0.05969
1143.90 0.05967
1144.00 0.05965
1144.10 0.05963
1144.20 0.05961
1144.30 0.0596
1144.40 0.05958
1144.50 0.05956
1144.60 0.05954
1144.70 0.05952
1144.80 0.0595
1144.90 0.05948
1145.00 0.05946
1145.10 0.05944
1145.20 0.05942
1145.30 0.0594
1145.40 0.05938
1145.50 0.05937
1145.60 0.05935
1145.70 0.05933
1145.80 0.05931
1145.90 0.05929
1146.00 0.05927
1146.10 0.05925
1146.20 0.05923
1146.30 0.05921
1146.40 0.05919
1146.50 0.05917
1146.60 0.05915
1146.70 0.05914
1146.80 0.05912
1146.90 0.0591
1147.00 0.05908
1147.10 0.05906
1147.20 0.05904
1147.30 0.05902
1147.40 0.059
1147.50 0.05898
1147.60 0.05896
1147.70 0.05894
1147.80 0.05893
1147.90 0.05891
1148.00 0.05889
1148.10 0.05887
1148.20 0.05885
1148.30 0.05883
1148.40 0.05881
1148.50 0.05879
1148.60 0.05877
1148.70 0.05876
1148.80 0.05874
1148.90 0.05872
1149.00 0.0587
1149.10 0.05868
1149.20 0.05866
1149.30 0.05864
1149.40 0.05862
1149.50 0.0586
1149.60 0.05858
1149.70 0.05857
1149.80 0.05855
1149.90 0.05853
1150.00 0.05851
1150.10 0.05849
1150.20 0.05847
1150.30 0.05845
1150.40 0.05843
1150.50 0.05841
1150.60 0.0584
1150.70 0.05838
1150.80 0.05836
1150.90 0.05834
1151.00 0.05832
1151.10 0.0583
1151.20 0.05828
1151.30 0.05826
1151.40 0.05825
1151.50 0.05823
1151.60 0.05821
1151.70 0.05819
1151.80 0.05817
1151.90 0.05815
1152.00 0.05813
1152.10 0.05811
1152.20 0.0581
1152.30 0.05808
1152.40 0.05806
1152.50 0.05804
1152.60 0.05802
1152.70 0.058
1152.80 0.05798
1152.90 0.05797
1153.00 0.05795
1153.10 0.05793
1153.20 0.05791
1153.30 0.05789
1153.40 0.05787
1153.50 0.05785
1153.60 0.05783
1153.70 0.05782
1153.80 0.0578
1153.90 0.05778
1154.00 0.05776
1154.10 0.05774
1154.20 0.05772
1154.30 0.0577
1154.40 0.05769
1154.50 0.05767
1154.60 0.05765
1154.70 0.05763
1154.80 0.05761
1154.90 0.05759
1155.00 0.05758
1155.10 0.05756
1155.20 0.05754
1155.30 0.05752
1155.40 0.0575
1155.50 0.05748
1155.60 0.05746
1155.70 0.05745
1155.80 0.05743
1155.90 0.05741
1156.00 0.05739
1156.10 0.05737
1156.20 0.05735
1156.30 0.05734
1156.40 0.05732
1156.50 0.0573
1156.60 0.05728
1156.70 0.05726
1156.80 0.05724
1156.90 0.05722
1157.00 0.05721
1157.10 0.05719
1157.20 0.05717
1157.30 0.05715
1157.40 0.05713
1157.50 0.05711
1157.60 0.0571
1157.70 0.05708
1157.80 0.05706
1157.90 0.05704
1158.00 0.05702
1158.10 0.057
1158.20 0.05699
1158.30 0.05697
1158.40 0.05695
1158.50 0.05693
1158.60 0.05691
1158.70 0.0569
1158.80 0.05688
1158.90 0.05686
1159.00 0.05684
1159.10 0.05682
1159.20 0.0568
1159.30 0.05679
1159.40 0.05677
1159.50 0.05675
1159.60 0.05673
1159.70 0.05671
1159.80 0.0567
1159.90 0.05668
1160.00 0.05666
1160.10 0.05664
1160.20 0.05662
1160.30 0.0566
1160.40 0.05659
1160.50 0.05657
1160.60 0.05655
1160.70 0.05653
1160.80 0.05651
1160.90 0.0565
1161.00 0.05648
1161.10 0.05646
1161.20 0.05644
1161.30 0.05642
1161.40 0.0564
1161.50 0.05639
1161.60 0.05637
1161.70 0.05635
1161.80 0.05633
1161.90 0.05631
1162.00 0.0563
1162.10 0.05628
1162.20 0.05626
1162.30 0.05624
1162.40 0.05622
1162.50 0.05621
1162.60 0.05619
1162.70 0.05617
1162.80 0.05615
1162.90 0.05613
1163.00 0.05612
1163.10 0.0561
1163.20 0.05608
1163.30 0.05606
1163.40 0.05605
1163.50 0.05603
1163.60 0.05601
1163.70 0.05599
1163.80 0.05597
1163.90 0.05596
1164.00 0.05594
1164.10 0.05592
1164.20 0.0559
1164.30 0.05588
1164.40 0.05587
1164.50 0.05585
1164.60 0.05583
1164.70 0.05581
1164.80 0.0558
1164.90 0.05578
1165.00 0.05576
1165.10 0.05574
1165.20 0.05572
1165.30 0.05571
1165.40 0.05569
1165.50 0.05567
1165.60 0.05565
1165.70 0.05564
1165.80 0.05562
1165.90 0.0556
1166.00 0.05558
1166.10 0.05556
1166.20 0.05555
1166.30 0.05553
1166.40 0.05551
1166.50 0.05549
1166.60 0.05548
1166.70 0.05546
1166.80 0.05544
1166.90 0.05542
1167.00 0.05541
1167.10 0.05539
1167.20 0.05537
1167.30 0.05535
1167.40 0.05533
1167.50 0.05532
1167.60 0.0553
1167.70 0.05528
1167.80 0.05526
1167.90 0.05525
1168.00 0.05523
1168.10 0.05521
1168.20 0.05519
1168.30 0.05518
1168.40 0.05516
1168.50 0.05514
1168.60 0.05512
1168.70 0.05511
1168.80 0.05509
1168.90 0.05507
1169.00 0.05505
1169.10 0.05504
1169.20 0.05502
1169.30 0.055
1169.40 0.05498
1169.50 0.05497
1169.60 0.05495
1169.70 0.05493
1169.80 0.05491
1169.90 0.0549
1170.00 0.05488
1170.10 0.05486
1170.20 0.05484
1170.30 0.05483
1170.40 0.05481
1170.50 0.05479
1170.60 0.05477
1170.70 0.05476
1170.80 0.05474
1170.90 0.05472
1171.00 0.0547
1171.10 0.05469
1171.20 0.05467
1171.30 0.05465
1171.40 0.05463
1171.50 0.05462
1171.60 0.0546
1171.70 0.05458
1171.80 0.05456
1171.90 0.05455
1172.00 0.05453
1172.10 0.05451
1172.20 0.0545
1172.30 0.05448
1172.40 0.05446
1172.50 0.05444
1172.60 0.05443
1172.70 0.05441
1172.80 0.05439
1172.90 0.05437
1173.00 0.05436
1173.10 0.05434
1173.20 0.05432
1173.30 0.05431
1173.40 0.05429
1173.50 0.05427
1173.60 0.05425
1173.70 0.05424
1173.80 0.05422
1173.90 0.0542
1174.00 0.05418
1174.10 0.05417
1174.20 0.05415
1174.30 0.05413
1174.40 0.05412
1174.50 0.0541
1174.60 0.05408
1174.70 0.05406
1174.80 0.05405
1174.90 0.05403
1175.00 0.05401
1175.10 0.054
1175.20 0.05398
1175.30 0.05396
1175.40 0.05394
1175.50 0.05393
1175.60 0.05391
1175.70 0.05389
1175.80 0.05388
1175.90 0.05386
1176.00 0.05384
1176.10 0.05383
1176.20 0.05381
1176.30 0.05379
1176.40 0.05377
1176.50 0.05376
1176.60 0.05374
1176.70 0.05372
1176.80 0.05371
1176.90 0.05369
1177.00 0.05367
1177.10 0.05365
1177.20 0.05364
1177.30 0.05362
1177.40 0.0536
1177.50 0.05359
1177.60 0.05357
1177.70 0.05355
1177.80 0.05354
1177.90 0.05352
1178.00 0.0535
1178.10 0.05349
1178.20 0.05347
1178.30 0.05345
1178.40 0.05343
1178.50 0.05342
1178.60 0.0534
1178.70 0.05338
1178.80 0.05337
1178.90 0.05335
1179.00 0.05333
1179.10 0.05332
1179.20 0.0533
1179.30 0.05328
1179.40 0.05327
1179.50 0.05325
1179.60 0.05323
1179.70 0.05322
1179.80 0.0532
1179.90 0.05318
1180.00 0.05316
1180.10 0.05315
1180.20 0.05313
1180.30 0.05311
1180.40 0.0531
1180.50 0.05308
1180.60 0.05306
1180.70 0.05305
1180.80 0.05303
1180.90 0.05301
1181.00 0.053
1181.10 0.05298
1181.20 0.05296
1181.30 0.05295
1181.40 0.05293
1181.50 0.05291
1181.60 0.0529
1181.70 0.05288
1181.80 0.05286
1181.90 0.05285
1182.00 0.05283
1182.10 0.05281
1182.20 0.0528
1182.30 0.05278
1182.40 0.05276
1182.50 0.05275
1182.60 0.05273
1182.70 0.05271
1182.80 0.0527
1182.90 0.05268
1183.00 0.05266
1183.10 0.05265
1183.20 0.05263
1183.30 0.05261
1183.40 0.0526
1183.50 0.05258
1183.60 0.05256
1183.70 0.05255
1183.80 0.05253
1183.90 0.05251
1184.00 0.0525
1184.10 0.05248
1184.20 0.05246
1184.30 0.05245
1184.40 0.05243
1184.50 0.05242
1184.60 0.0524
1184.70 0.05238
1184.80 0.05237
1184.90 0.05235
1185.00 0.05233
1185.10 0.05232
1185.20 0.0523
1185.30 0.05228
1185.40 0.05227
1185.50 0.05225
1185.60 0.05223
1185.70 0.05222
1185.80 0.0522
1185.90 0.05218
1186.00 0.05217
1186.10 0.05215
1186.20 0.05214
1186.30 0.05212
1186.40 0.0521
1186.50 0.05209
1186.60 0.05207
1186.70 0.05205
1186.80 0.05204
1186.90 0.05202
1187.00 0.052
1187.10 0.05199
1187.20 0.05197
1187.30 0.05196
1187.40 0.05194
1187.50 0.05192
1187.60 0.05191
1187.70 0.05189
1187.80 0.05187
1187.90 0.05186
1188.00 0.05184
1188.10 0.05182
1188.20 0.05181
1188.30 0.05179
1188.40 0.05178
1188.50 0.05176
1188.60 0.05174
1188.70 0.05173
1188.80 0.05171
1188.90 0.05169
1189.00 0.05168
1189.10 0.05166
1189.20 0.05165
1189.30 0.05163
1189.40 0.05161
1189.50 0.0516
1189.60 0.05158
1189.70 0.05157
1189.80 0.05155
1189.90 0.05153
1190.00 0.05152
1190.10 0.0515
1190.20 0.05148
1190.30 0.05147
1190.40 0.05145
1190.50 0.05144
1190.60 0.05142
1190.70 0.0514
1190.80 0.05139
1190.90 0.05137
1191.00 0.05136
1191.10 0.05134
1191.20 0.05132
1191.30 0.05131
1191.40 0.05129
1191.50 0.05127
1191.60 0.05126
1191.70 0.05124
1191.80 0.05123
1191.90 0.05121
1192.00 0.05119
1192.10 0.05118
1192.20 0.05116
1192.30 0.05115
1192.40 0.05113
1192.50 0.05111
1192.60 0.0511
1192.70 0.05108
1192.80 0.05107
1192.90 0.05105
1193.00 0.05103
1193.10 0.05102
1193.20 0.051
1193.30 0.05099
1193.40 0.05097
1193.50 0.05095
1193.60 0.05094
1193.70 0.05092
1193.80 0.05091
1193.90 0.05089
1194.00 0.05088
1194.10 0.05086
1194.20 0.05084
1194.30 0.05083
1194.40 0.05081
1194.50 0.0508
1194.60 0.05078
1194.70 0.05076
1194.80 0.05075
1194.90 0.05073
1195.00 0.05072
1195.10 0.0507
1195.20 0.05068
1195.30 0.05067
1195.40 0.05065
1195.50 0.05064
1195.60 0.05062
1195.70 0.05061
1195.80 0.05059
1195.90 0.05057
1196.00 0.05056
1196.10 0.05054
1196.20 0.05053
1196.30 0.05051
1196.40 0.05049
1196.50 0.05048
1196.60 0.05046
1196.70 0.05045
1196.80 0.05043
1196.90 0.05042
1197.00 0.0504
1197.10 0.05038
1197.20 0.05037
1197.30 0.05035
1197.40 0.05034
1197.50 0.05032
1197.60 0.05031
1197.70 0.05029
1197.80 0.05027
1197.90 0.05026
1198.00 0.05024
1198.10 0.05023
1198.20 0.05021
1198.30 0.0502
1198.40 0.05018
1198.50 0.05017
1198.60 0.05015
1198.70 0.05013
1198.80 0.05012
1198.90 0.0501
1199.00 0.05009
1199.10 0.05007
1199.20 0.05006
1199.30 0.05004
1199.40 0.05003
1199.50 0.05001
1199.60 0.04999
1199.70 0.04998
1199.80 0.04996
1199.90 0.04995
1200.00 0
