# Version 2.1 - nm, norm@500 to 1, cut digits, bergeron_35000_95.dat_35000
# Wavelength(nm)  Flambda(ergs/cm^s/s/nm)
300.00 5.711
300.10 5.704
300.20 5.698
300.30 5.691
300.40 5.684
300.50 5.678
300.60 5.671
300.70 5.664
300.80 5.658
300.90 5.651
301.00 5.644
301.10 5.638
301.20 5.631
301.30 5.625
301.40 5.618
301.50 5.612
301.60 5.605
301.70 5.599
301.80 5.592
301.90 5.585
302.00 5.579
302.10 5.572
302.20 5.566
302.30 5.56
302.40 5.553
302.50 5.547
302.60 5.54
302.70 5.534
302.80 5.527
302.90 5.521
303.00 5.514
303.10 5.508
303.20 5.502
303.30 5.495
303.40 5.489
303.50 5.483
303.60 5.476
303.70 5.47
303.80 5.464
303.90 5.457
304.00 5.451
304.10 5.445
304.20 5.438
304.30 5.432
304.40 5.426
304.50 5.419
304.60 5.413
304.70 5.407
304.80 5.401
304.90 5.394
305.00 5.388
305.10 5.382
305.20 5.376
305.30 5.37
305.40 5.363
305.50 5.357
305.60 5.351
305.70 5.345
305.80 5.339
305.90 5.333
306.00 5.327
306.10 5.32
306.20 5.314
306.30 5.308
306.40 5.302
306.50 5.296
306.60 5.29
306.70 5.284
306.80 5.278
306.90 5.272
307.00 5.266
307.10 5.26
307.20 5.254
307.30 5.248
307.40 5.242
307.50 5.236
307.60 5.23
307.70 5.224
307.80 5.218
307.90 5.212
308.00 5.206
308.10 5.2
308.20 5.194
308.30 5.188
308.40 5.182
308.50 5.176
308.60 5.17
308.70 5.164
308.80 5.158
308.90 5.152
309.00 5.147
309.10 5.141
309.20 5.135
309.30 5.129
309.40 5.123
309.50 5.117
309.60 5.111
309.70 5.106
309.80 5.1
309.90 5.094
310.00 5.088
310.10 5.082
310.20 5.077
310.30 5.071
310.40 5.065
310.50 5.059
310.60 5.054
310.70 5.048
310.80 5.042
310.90 5.037
311.00 5.031
311.10 5.025
311.20 5.019
311.30 5.014
311.40 5.008
311.50 5.002
311.60 4.997
311.70 4.991
311.80 4.985
311.90 4.98
312.00 4.974
312.10 4.969
312.20 4.963
312.30 4.957
312.40 4.952
312.50 4.946
312.60 4.941
312.70 4.935
312.80 4.929
312.90 4.924
313.00 4.918
313.10 4.913
313.20 4.907
313.30 4.902
313.40 4.896
313.50 4.891
313.60 4.885
313.70 4.88
313.80 4.874
313.90 4.869
314.00 4.863
314.10 4.858
314.20 4.852
314.30 4.847
314.40 4.841
314.50 4.836
314.60 4.831
314.70 4.825
314.80 4.82
314.90 4.814
315.00 4.809
315.10 4.804
315.20 4.798
315.30 4.793
315.40 4.788
315.50 4.782
315.60 4.777
315.70 4.771
315.80 4.766
315.90 4.761
316.00 4.755
316.10 4.75
316.20 4.745
316.30 4.74
316.40 4.734
316.50 4.729
316.60 4.724
316.70 4.718
316.80 4.713
316.90 4.708
317.00 4.703
317.10 4.697
317.20 4.692
317.30 4.687
317.40 4.682
317.50 4.677
317.60 4.671
317.70 4.666
317.80 4.661
317.90 4.656
318.00 4.651
318.10 4.646
318.20 4.64
318.30 4.635
318.40 4.63
318.50 4.625
318.60 4.62
318.70 4.615
318.80 4.61
318.90 4.604
319.00 4.599
319.10 4.594
319.20 4.589
319.30 4.584
319.40 4.579
319.50 4.574
319.60 4.569
319.70 4.564
319.80 4.559
319.90 4.554
320.00 4.549
320.10 4.544
320.20 4.539
320.30 4.534
320.40 4.529
320.50 4.524
320.60 4.519
320.70 4.514
320.80 4.509
320.90 4.504
321.00 4.499
321.10 4.494
321.20 4.489
321.30 4.484
321.40 4.479
321.50 4.474
321.60 4.469
321.70 4.464
321.80 4.459
321.90 4.455
322.00 4.45
322.10 4.445
322.20 4.44
322.30 4.435
322.40 4.43
322.50 4.425
322.60 4.42
322.70 4.416
322.80 4.411
322.90 4.406
323.00 4.401
323.10 4.396
323.20 4.391
323.30 4.387
323.40 4.382
323.50 4.377
323.60 4.372
323.70 4.368
323.80 4.363
323.90 4.358
324.00 4.353
324.10 4.348
324.20 4.344
324.30 4.339
324.40 4.334
324.50 4.33
324.60 4.325
324.70 4.32
324.80 4.315
324.90 4.311
325.00 4.306
325.10 4.301
325.20 4.297
325.30 4.292
325.40 4.287
325.50 4.283
325.60 4.278
325.70 4.273
325.80 4.269
325.90 4.264
326.00 4.259
326.10 4.255
326.20 4.25
326.30 4.246
326.40 4.241
326.50 4.236
326.60 4.232
326.70 4.227
326.80 4.223
326.90 4.218
327.00 4.213
327.10 4.209
327.20 4.204
327.30 4.2
327.40 4.195
327.50 4.191
327.60 4.186
327.70 4.182
327.80 4.177
327.90 4.173
328.00 4.168
328.10 4.164
328.20 4.159
328.30 4.155
328.40 4.15
328.50 4.146
328.60 4.141
328.70 4.137
328.80 4.132
328.90 4.128
329.00 4.123
329.10 4.119
329.20 4.115
329.30 4.11
329.40 4.106
329.50 4.101
329.60 4.097
329.70 4.092
329.80 4.088
329.90 4.084
330.00 4.079
330.10 4.075
330.20 4.071
330.30 4.066
330.40 4.062
330.50 4.058
330.60 4.053
330.70 4.049
330.80 4.045
330.90 4.04
331.00 4.036
331.10 4.032
331.20 4.027
331.30 4.023
331.40 4.019
331.50 4.014
331.60 4.01
331.70 4.006
331.80 4.001
331.90 3.997
332.00 3.993
332.10 3.989
332.20 3.984
332.30 3.98
332.40 3.976
332.50 3.972
332.60 3.967
332.70 3.963
332.80 3.959
332.90 3.955
333.00 3.951
333.10 3.946
333.20 3.942
333.30 3.938
333.40 3.934
333.50 3.93
333.60 3.925
333.70 3.921
333.80 3.917
333.90 3.913
334.00 3.909
334.10 3.905
334.20 3.9
334.30 3.896
334.40 3.892
334.50 3.888
334.60 3.884
334.70 3.88
334.80 3.876
334.90 3.872
335.00 3.867
335.10 3.863
335.20 3.859
335.30 3.855
335.40 3.851
335.50 3.847
335.60 3.843
335.70 3.839
335.80 3.835
335.90 3.831
336.00 3.827
336.10 3.823
336.20 3.819
336.30 3.815
336.40 3.811
336.50 3.807
336.60 3.803
336.70 3.799
336.80 3.795
336.90 3.791
337.00 3.787
337.10 3.783
337.20 3.779
337.30 3.775
337.40 3.771
337.50 3.767
337.60 3.763
337.70 3.759
337.80 3.755
337.90 3.751
338.00 3.747
338.10 3.743
338.20 3.739
338.30 3.735
338.40 3.731
338.50 3.727
338.60 3.723
338.70 3.72
338.80 3.716
338.90 3.712
339.00 3.708
339.10 3.704
339.20 3.7
339.30 3.696
339.40 3.692
339.50 3.689
339.60 3.685
339.70 3.681
339.80 3.677
339.90 3.673
340.00 3.669
340.10 3.665
340.20 3.662
340.30 3.658
340.40 3.654
340.50 3.65
340.60 3.646
340.70 3.643
340.80 3.639
340.90 3.635
341.00 3.631
341.10 3.627
341.20 3.624
341.30 3.62
341.40 3.616
341.50 3.612
341.60 3.609
341.70 3.605
341.80 3.601
341.90 3.597
342.00 3.594
342.10 3.59
342.20 3.586
342.30 3.582
342.40 3.579
342.50 3.575
342.60 3.571
342.70 3.568
342.80 3.564
342.90 3.56
343.00 3.556
343.10 3.553
343.20 3.549
343.30 3.545
343.40 3.542
343.50 3.538
343.60 3.534
343.70 3.531
343.80 3.527
343.90 3.523
344.00 3.52
344.10 3.516
344.20 3.513
344.30 3.509
344.40 3.505
344.50 3.502
344.60 3.498
344.70 3.494
344.80 3.491
344.90 3.487
345.00 3.484
345.10 3.48
345.20 3.476
345.30 3.473
345.40 3.469
345.50 3.466
345.60 3.462
345.70 3.459
345.80 3.455
345.90 3.451
346.00 3.448
346.10 3.444
346.20 3.441
346.30 3.437
346.40 3.434
346.50 3.43
346.60 3.427
346.70 3.423
346.80 3.42
346.90 3.416
347.00 3.413
347.10 3.409
347.20 3.406
347.30 3.402
347.40 3.399
347.50 3.395
347.60 3.392
347.70 3.388
347.80 3.385
347.90 3.381
348.00 3.378
348.10 3.374
348.20 3.371
348.30 3.368
348.40 3.364
348.50 3.361
348.60 3.357
348.70 3.354
348.80 3.35
348.90 3.347
349.00 3.344
349.10 3.34
349.20 3.337
349.30 3.333
349.40 3.33
349.50 3.327
349.60 3.323
349.70 3.32
349.80 3.316
349.90 3.313
350.00 3.31
350.10 3.306
350.20 3.303
350.30 3.3
350.40 3.296
350.50 3.293
350.60 3.29
350.70 3.286
350.80 3.283
350.90 3.28
351.00 3.276
351.10 3.273
351.20 3.27
351.30 3.266
351.40 3.263
351.50 3.26
351.60 3.256
351.70 3.253
351.80 3.25
351.90 3.246
352.00 3.243
352.10 3.24
352.20 3.237
352.30 3.233
352.40 3.23
352.50 3.227
352.60 3.224
352.70 3.22
352.80 3.217
352.90 3.214
353.00 3.211
353.10 3.207
353.20 3.204
353.30 3.201
353.40 3.198
353.50 3.194
353.60 3.191
353.70 3.188
353.80 3.185
353.90 3.182
354.00 3.178
354.10 3.175
354.20 3.172
354.30 3.169
354.40 3.166
354.50 3.162
354.60 3.159
354.70 3.156
354.80 3.153
354.90 3.15
355.00 3.147
355.10 3.143
355.20 3.14
355.30 3.137
355.40 3.134
355.50 3.131
355.60 3.128
355.70 3.124
355.80 3.121
355.90 3.118
356.00 3.115
356.10 3.112
356.20 3.109
356.30 3.106
356.40 3.103
356.50 3.1
356.60 3.096
356.70 3.093
356.80 3.09
356.90 3.087
357.00 3.084
357.10 3.081
357.20 3.078
357.30 3.075
357.40 3.072
357.50 3.069
357.60 3.066
357.70 3.063
357.80 3.06
357.90 3.056
358.00 3.053
358.10 3.05
358.20 3.047
358.30 3.044
358.40 3.041
358.50 3.038
358.60 3.035
358.70 3.032
358.80 3.029
358.90 3.026
359.00 3.023
359.10 3.02
359.20 3.017
359.30 3.014
359.40 3.011
359.50 3.008
359.60 3.005
359.70 3.002
359.80 2.999
359.90 2.996
360.00 2.993
360.10 2.99
360.20 2.987
360.30 2.984
360.40 2.981
360.50 2.979
360.60 2.976
360.70 2.973
360.80 2.97
360.90 2.967
361.00 2.964
361.10 2.961
361.20 2.958
361.30 2.955
361.40 2.952
361.50 2.949
361.60 2.946
361.70 2.943
361.80 2.94
361.90 2.938
362.00 2.935
362.10 2.932
362.20 2.929
362.30 2.926
362.40 2.923
362.50 2.92
362.60 2.917
362.70 2.915
362.80 2.912
362.90 2.909
363.00 2.906
363.10 2.903
363.20 2.9
363.30 2.897
363.40 2.895
363.50 2.892
363.60 2.889
363.70 2.886
363.80 2.883
363.90 2.88
364.00 2.878
364.10 2.875
364.20 2.872
364.30 2.869
364.40 2.866
364.50 2.863
364.60 2.861
364.70 2.858
364.80 2.855
364.90 2.852
365.00 2.849
365.10 2.847
365.20 2.844
365.30 2.841
365.40 2.838
365.50 2.836
365.60 2.833
365.70 2.83
365.80 2.827
365.90 2.824
366.00 2.822
366.10 2.819
366.20 2.816
366.30 2.813
366.40 2.81
366.50 2.808
366.60 2.805
366.70 2.802
366.80 2.799
366.90 2.796
367.00 2.794
367.10 2.791
367.20 2.788
367.30 2.785
367.40 2.783
367.50 2.78
367.60 2.777
367.70 2.774
367.80 2.771
367.90 2.769
368.00 2.766
368.10 2.763
368.20 2.76
368.30 2.757
368.40 2.754
368.50 2.751
368.60 2.749
368.70 2.746
368.80 2.743
368.90 2.74
369.00 2.737
369.10 2.734
369.20 2.731
369.30 2.728
369.40 2.726
369.50 2.723
369.60 2.72
369.70 2.717
369.80 2.714
369.90 2.711
370.00 2.708
370.10 2.706
370.20 2.703
370.30 2.7
370.40 2.697
370.50 2.694
370.60 2.692
370.70 2.689
370.80 2.686
370.90 2.683
371.00 2.68
371.10 2.678
371.20 2.675
371.30 2.672
371.40 2.669
371.50 2.666
371.60 2.664
371.70 2.661
371.80 2.658
371.90 2.655
372.00 2.652
372.10 2.65
372.20 2.647
372.30 2.645
372.40 2.643
372.50 2.64
372.60 2.638
372.70 2.635
372.80 2.633
372.90 2.63
373.00 2.628
373.10 2.625
373.20 2.623
373.30 2.62
373.40 2.618
373.50 2.615
373.60 2.613
373.70 2.611
373.80 2.608
373.90 2.606
374.00 2.603
374.10 2.601
374.20 2.598
374.30 2.595
374.40 2.592
374.50 2.59
374.60 2.587
374.70 2.584
374.80 2.582
374.90 2.579
375.00 2.576
375.10 2.574
375.20 2.571
375.30 2.569
375.40 2.566
375.50 2.563
375.60 2.561
375.70 2.558
375.80 2.555
375.90 2.553
376.00 2.55
376.10 2.547
376.20 2.545
376.30 2.542
376.40 2.54
376.50 2.537
376.60 2.534
376.70 2.532
376.80 2.529
376.90 2.527
377.00 2.524
377.10 2.522
377.20 2.519
377.30 2.517
377.40 2.514
377.50 2.512
377.60 2.509
377.70 2.507
377.80 2.504
377.90 2.502
378.00 2.5
378.10 2.497
378.20 2.495
378.30 2.492
378.40 2.49
378.50 2.488
378.60 2.485
378.70 2.483
378.80 2.48
378.90 2.478
379.00 2.476
379.10 2.473
379.20 2.471
379.30 2.468
379.40 2.466
379.50 2.464
379.60 2.461
379.70 2.459
379.80 2.456
379.90 2.454
380.00 2.452
380.10 2.449
380.20 2.447
380.30 2.445
380.40 2.443
380.50 2.44
380.60 2.438
380.70 2.436
380.80 2.433
380.90 2.431
381.00 2.429
381.10 2.427
381.20 2.424
381.30 2.422
381.40 2.42
381.50 2.418
381.60 2.415
381.70 2.413
381.80 2.411
381.90 2.409
382.00 2.406
382.10 2.404
382.20 2.402
382.30 2.4
382.40 2.398
382.50 2.395
382.60 2.393
382.70 2.391
382.80 2.389
382.90 2.386
383.00 2.384
383.10 2.382
383.20 2.38
383.30 2.378
383.40 2.375
383.50 2.373
383.60 2.371
383.70 2.369
383.80 2.367
383.90 2.365
384.00 2.363
384.10 2.361
384.20 2.359
384.30 2.357
384.40 2.355
384.50 2.353
384.60 2.351
384.70 2.349
384.80 2.347
384.90 2.345
385.00 2.343
385.10 2.341
385.20 2.339
385.30 2.337
385.40 2.335
385.50 2.333
385.60 2.331
385.70 2.329
385.80 2.327
385.90 2.325
386.00 2.323
386.10 2.321
386.20 2.319
386.30 2.317
386.40 2.315
386.50 2.313
386.60 2.311
386.70 2.309
386.80 2.307
386.90 2.305
387.00 2.303
387.10 2.3
387.20 2.298
387.30 2.296
387.40 2.294
387.50 2.292
387.60 2.29
387.70 2.288
387.80 2.286
387.90 2.284
388.00 2.281
388.10 2.279
388.20 2.277
388.30 2.275
388.40 2.273
388.50 2.271
388.60 2.269
388.70 2.267
388.80 2.265
388.90 2.264
389.00 2.262
389.10 2.26
389.20 2.259
389.30 2.257
389.40 2.256
389.50 2.254
389.60 2.253
389.70 2.251
389.80 2.25
389.90 2.248
390.00 2.247
390.10 2.245
390.20 2.244
390.30 2.242
390.40 2.241
390.50 2.239
390.60 2.238
390.70 2.236
390.80 2.235
390.90 2.233
391.00 2.232
391.10 2.23
391.20 2.228
391.30 2.227
391.40 2.225
391.50 2.223
391.60 2.222
391.70 2.22
391.80 2.218
391.90 2.216
392.00 2.215
392.10 2.213
392.20 2.211
392.30 2.209
392.40 2.207
392.50 2.205
392.60 2.203
392.70 2.201
392.80 2.199
392.90 2.197
393.00 2.195
393.10 2.193
393.20 2.191
393.30 2.188
393.40 2.186
393.50 2.184
393.60 2.182
393.70 2.179
393.80 2.177
393.90 2.174
394.00 2.172
394.10 2.17
394.20 2.167
394.30 2.165
394.40 2.162
394.50 2.159
394.60 2.157
394.70 2.154
394.80 2.152
394.90 2.149
395.00 2.146
395.10 2.143
395.20 2.141
395.30 2.138
395.40 2.135
395.50 2.132
395.60 2.129
395.70 2.126
395.80 2.124
395.90 2.121
396.00 2.118
396.10 2.115
396.20 2.112
396.30 2.109
396.40 2.106
396.50 2.103
396.60 2.101
396.70 2.098
396.80 2.096
396.90 2.093
397.00 2.09
397.10 2.09
397.20 2.09
397.30 2.089
397.40 2.089
397.50 2.089
397.60 2.089
397.70 2.089
397.80 2.089
397.90 2.089
398.00 2.089
398.10 2.089
398.20 2.089
398.30 2.089
398.40 2.089
398.50 2.088
398.60 2.088
398.70 2.088
398.80 2.088
398.90 2.088
399.00 2.088
399.10 2.087
399.20 2.087
399.30 2.087
399.40 2.087
399.50 2.086
399.60 2.086
399.70 2.085
399.80 2.085
399.90 2.084
400.00 2.084
400.10 2.083
400.20 2.082
400.30 2.082
400.40 2.081
400.50 2.08
400.60 2.079
400.70 2.078
400.80 2.077
400.90 2.076
401.00 2.075
401.10 2.074
401.20 2.073
401.30 2.072
401.40 2.071
401.50 2.07
401.60 2.068
401.70 2.067
401.80 2.065
401.90 2.064
402.00 2.062
402.10 2.061
402.20 2.059
402.30 2.058
402.40 2.056
402.50 2.054
402.60 2.052
402.70 2.051
402.80 2.049
402.90 2.047
403.00 2.045
403.10 2.043
403.20 2.041
403.30 2.038
403.40 2.036
403.50 2.034
403.60 2.032
403.70 2.029
403.80 2.027
403.90 2.024
404.00 2.022
404.10 2.019
404.20 2.017
404.30 2.014
404.40 2.011
404.50 2.008
404.60 2.005
404.70 2.002
404.80 1.999
404.90 1.996
405.00 1.993
405.10 1.99
405.20 1.987
405.30 1.983
405.40 1.98
405.50 1.977
405.60 1.973
405.70 1.97
405.80 1.966
405.90 1.962
406.00 1.958
406.10 1.955
406.20 1.951
406.30 1.947
406.40 1.943
406.50 1.939
406.60 1.935
406.70 1.93
406.80 1.926
406.90 1.922
407.00 1.917
407.10 1.913
407.20 1.908
407.30 1.904
407.40 1.899
407.50 1.894
407.60 1.889
407.70 1.885
407.80 1.88
407.90 1.875
408.00 1.87
408.10 1.865
408.20 1.86
408.30 1.855
408.40 1.849
408.50 1.844
408.60 1.839
408.70 1.834
408.80 1.829
408.90 1.824
409.00 1.819
409.10 1.814
409.20 1.809
409.30 1.804
409.40 1.8
409.50 1.795
409.60 1.791
409.70 1.788
409.80 1.785
409.90 1.782
410.00 1.781
410.10 1.78
410.20 1.779
410.30 1.777
410.40 1.776
410.50 1.775
410.60 1.776
410.70 1.776
410.80 1.778
410.90 1.779
411.00 1.781
411.10 1.783
411.20 1.785
411.30 1.787
411.40 1.79
411.50 1.792
411.60 1.795
411.70 1.797
411.80 1.8
411.90 1.802
412.00 1.805
412.10 1.807
412.20 1.809
412.30 1.812
412.40 1.814
412.50 1.816
412.60 1.819
412.70 1.821
412.80 1.823
412.90 1.825
413.00 1.827
413.10 1.829
413.20 1.831
413.30 1.833
413.40 1.835
413.50 1.836
413.60 1.838
413.70 1.84
413.80 1.841
413.90 1.843
414.00 1.844
414.10 1.845
414.20 1.847
414.30 1.848
414.40 1.849
414.50 1.85
414.60 1.851
414.70 1.852
414.80 1.853
414.90 1.854
415.00 1.855
415.10 1.856
415.20 1.856
415.30 1.857
415.40 1.858
415.50 1.858
415.60 1.859
415.70 1.859
415.80 1.859
415.90 1.86
416.00 1.86
416.10 1.86
416.20 1.861
416.30 1.861
416.40 1.861
416.50 1.861
416.60 1.861
416.70 1.861
416.80 1.861
416.90 1.861
417.00 1.861
417.10 1.861
417.20 1.86
417.30 1.86
417.40 1.86
417.50 1.86
417.60 1.859
417.70 1.859
417.80 1.858
417.90 1.858
418.00 1.857
418.10 1.857
418.20 1.856
418.30 1.856
418.40 1.855
418.50 1.854
418.60 1.854
418.70 1.853
418.80 1.852
418.90 1.851
419.00 1.851
419.10 1.85
419.20 1.849
419.30 1.848
419.40 1.847
419.50 1.846
419.60 1.845
419.70 1.844
419.80 1.843
419.90 1.842
420.00 1.84
420.10 1.839
420.20 1.838
420.30 1.837
420.40 1.836
420.50 1.834
420.60 1.833
420.70 1.832
420.80 1.83
420.90 1.829
421.00 1.827
421.10 1.826
421.20 1.824
421.30 1.823
421.40 1.821
421.50 1.82
421.60 1.818
421.70 1.817
421.80 1.815
421.90 1.813
422.00 1.812
422.10 1.81
422.20 1.808
422.30 1.806
422.40 1.805
422.50 1.803
422.60 1.801
422.70 1.799
422.80 1.797
422.90 1.795
423.00 1.793
423.10 1.791
423.20 1.789
423.30 1.787
423.40 1.785
423.50 1.783
423.60 1.78
423.70 1.778
423.80 1.776
423.90 1.774
424.00 1.771
424.10 1.769
424.20 1.767
424.30 1.764
424.40 1.762
424.50 1.759
424.60 1.757
424.70 1.754
424.80 1.752
424.90 1.749
425.00 1.747
425.10 1.744
425.20 1.741
425.30 1.738
425.40 1.736
425.50 1.733
425.60 1.73
425.70 1.727
425.80 1.724
425.90 1.721
426.00 1.718
426.10 1.715
426.20 1.712
426.30 1.709
426.40 1.705
426.50 1.702
426.60 1.699
426.70 1.695
426.80 1.692
426.90 1.689
427.00 1.685
427.10 1.682
427.20 1.678
427.30 1.674
427.40 1.671
427.50 1.667
427.60 1.663
427.70 1.659
427.80 1.655
427.90 1.651
428.00 1.647
428.10 1.643
428.20 1.639
428.30 1.635
428.40 1.631
428.50 1.626
428.60 1.622
428.70 1.617
428.80 1.613
428.90 1.608
429.00 1.604
429.10 1.599
429.20 1.594
429.30 1.589
429.40 1.584
429.50 1.579
429.60 1.574
429.70 1.569
429.80 1.564
429.90 1.559
430.00 1.553
430.10 1.548
430.20 1.542
430.30 1.537
430.40 1.531
430.50 1.525
430.60 1.52
430.70 1.514
430.80 1.508
430.90 1.502
431.00 1.495
431.10 1.489
431.20 1.483
431.30 1.476
431.40 1.47
431.50 1.463
431.60 1.457
431.70 1.45
431.80 1.443
431.90 1.436
432.00 1.429
432.10 1.422
432.20 1.415
432.30 1.408
432.40 1.401
432.50 1.393
432.60 1.386
432.70 1.378
432.80 1.371
432.90 1.363
433.00 1.355
433.10 1.348
433.20 1.34
433.30 1.331
433.40 1.323
433.50 1.314
433.60 1.305
433.70 1.295
433.80 1.284
433.90 1.272
434.00 1.26
434.10 1.26
434.20 1.271
434.30 1.281
434.40 1.29
434.50 1.298
434.60 1.305
434.70 1.311
434.80 1.318
434.90 1.324
435.00 1.33
435.10 1.336
435.20 1.341
435.30 1.347
435.40 1.352
435.50 1.358
435.60 1.363
435.70 1.368
435.80 1.373
435.90 1.378
436.00 1.383
436.10 1.388
436.20 1.392
436.30 1.397
436.40 1.401
436.50 1.406
436.60 1.41
436.70 1.414
436.80 1.419
436.90 1.423
437.00 1.426
437.10 1.43
437.20 1.434
437.30 1.438
437.40 1.441
437.50 1.445
437.60 1.448
437.70 1.451
437.80 1.455
437.90 1.458
438.00 1.461
438.10 1.464
438.20 1.466
438.30 1.469
438.40 1.472
438.50 1.475
438.60 1.477
438.70 1.48
438.80 1.482
438.90 1.484
439.00 1.487
439.10 1.489
439.20 1.491
439.30 1.493
439.40 1.495
439.50 1.497
439.60 1.499
439.70 1.5
439.80 1.502
439.90 1.504
440.00 1.505
440.10 1.507
440.20 1.508
440.30 1.51
440.40 1.511
440.50 1.512
440.60 1.513
440.70 1.515
440.80 1.516
440.90 1.517
441.00 1.518
441.10 1.519
441.20 1.52
441.30 1.521
441.40 1.522
441.50 1.522
441.60 1.523
441.70 1.524
441.80 1.524
441.90 1.525
442.00 1.526
442.10 1.526
442.20 1.527
442.30 1.527
442.40 1.528
442.50 1.528
442.60 1.528
442.70 1.529
442.80 1.529
442.90 1.529
443.00 1.529
443.10 1.53
443.20 1.53
443.30 1.53
443.40 1.53
443.50 1.53
443.60 1.53
443.70 1.53
443.80 1.53
443.90 1.53
444.00 1.53
444.10 1.53
444.20 1.53
444.30 1.53
444.40 1.529
444.50 1.529
444.60 1.529
444.70 1.529
444.80 1.528
444.90 1.528
445.00 1.528
445.10 1.528
445.20 1.527
445.30 1.527
445.40 1.526
445.50 1.526
445.60 1.526
445.70 1.525
445.80 1.525
445.90 1.524
446.00 1.524
446.10 1.523
446.20 1.523
446.30 1.522
446.40 1.522
446.50 1.521
446.60 1.521
446.70 1.52
446.80 1.519
446.90 1.519
447.00 1.518
447.10 1.517
447.20 1.517
447.30 1.516
447.40 1.515
447.50 1.515
447.60 1.514
447.70 1.513
447.80 1.513
447.90 1.512
448.00 1.511
448.10 1.51
448.20 1.51
448.30 1.509
448.40 1.508
448.50 1.507
448.60 1.506
448.70 1.506
448.80 1.505
448.90 1.504
449.00 1.503
449.10 1.502
449.20 1.501
449.30 1.501
449.40 1.5
449.50 1.499
449.60 1.498
449.70 1.497
449.80 1.496
449.90 1.495
450.00 1.494
450.10 1.494
450.20 1.493
450.30 1.492
450.40 1.491
450.50 1.49
450.60 1.489
450.70 1.488
450.80 1.487
450.90 1.486
451.00 1.485
451.10 1.484
451.20 1.483
451.30 1.482
451.40 1.481
451.50 1.48
451.60 1.479
451.70 1.478
451.80 1.477
451.90 1.476
452.00 1.475
452.10 1.474
452.20 1.473
452.30 1.472
452.40 1.471
452.50 1.47
452.60 1.469
452.70 1.468
452.80 1.467
452.90 1.466
453.00 1.465
453.10 1.464
453.20 1.463
453.30 1.462
453.40 1.461
453.50 1.46
453.60 1.459
453.70 1.457
453.80 1.456
453.90 1.455
454.00 1.454
454.10 1.453
454.20 1.452
454.30 1.451
454.40 1.45
454.50 1.449
454.60 1.448
454.70 1.447
454.80 1.446
454.90 1.445
455.00 1.443
455.10 1.442
455.20 1.441
455.30 1.44
455.40 1.439
455.50 1.438
455.60 1.437
455.70 1.436
455.80 1.435
455.90 1.433
456.00 1.432
456.10 1.431
456.20 1.43
456.30 1.429
456.40 1.428
456.50 1.427
456.60 1.426
456.70 1.425
456.80 1.423
456.90 1.422
457.00 1.421
457.10 1.42
457.20 1.419
457.30 1.418
457.40 1.417
457.50 1.416
457.60 1.414
457.70 1.413
457.80 1.412
457.90 1.411
458.00 1.41
458.10 1.409
458.20 1.408
458.30 1.406
458.40 1.405
458.50 1.404
458.60 1.403
458.70 1.402
458.80 1.401
458.90 1.399
459.00 1.398
459.10 1.397
459.20 1.396
459.30 1.395
459.40 1.394
459.50 1.393
459.60 1.391
459.70 1.39
459.80 1.389
459.90 1.388
460.00 1.387
460.10 1.386
460.20 1.384
460.30 1.383
460.40 1.382
460.50 1.381
460.60 1.38
460.70 1.379
460.80 1.377
460.90 1.376
461.00 1.375
461.10 1.374
461.20 1.373
461.30 1.372
461.40 1.37
461.50 1.369
461.60 1.368
461.70 1.367
461.80 1.366
461.90 1.364
462.00 1.363
462.10 1.362
462.20 1.361
462.30 1.36
462.40 1.359
462.50 1.357
462.60 1.356
462.70 1.355
462.80 1.354
462.90 1.353
463.00 1.351
463.10 1.35
463.20 1.349
463.30 1.348
463.40 1.347
463.50 1.345
463.60 1.344
463.70 1.343
463.80 1.342
463.90 1.341
464.00 1.339
464.10 1.338
464.20 1.337
464.30 1.336
464.40 1.334
464.50 1.333
464.60 1.332
464.70 1.331
464.80 1.33
464.90 1.328
465.00 1.327
465.10 1.326
465.20 1.325
465.30 1.323
465.40 1.322
465.50 1.321
465.60 1.32
465.70 1.318
465.80 1.317
465.90 1.316
466.00 1.315
466.10 1.314
466.20 1.312
466.30 1.311
466.40 1.31
466.50 1.308
466.60 1.307
466.70 1.306
466.80 1.305
466.90 1.303
467.00 1.302
467.10 1.301
467.20 1.3
467.30 1.298
467.40 1.297
467.50 1.296
467.60 1.294
467.70 1.293
467.80 1.292
467.90 1.291
468.00 1.289
468.10 1.288
468.20 1.287
468.30 1.285
468.40 1.284
468.50 1.283
468.60 1.281
468.70 1.28
468.80 1.279
468.90 1.278
469.00 1.276
469.10 1.275
469.20 1.274
469.30 1.272
469.40 1.271
469.50 1.269
469.60 1.268
469.70 1.267
469.80 1.265
469.90 1.264
470.00 1.263
470.10 1.261
470.20 1.26
470.30 1.259
470.40 1.257
470.50 1.256
470.60 1.254
470.70 1.253
470.80 1.251
470.90 1.25
471.00 1.249
471.10 1.247
471.20 1.246
471.30 1.244
471.40 1.243
471.50 1.241
471.60 1.24
471.70 1.238
471.80 1.237
471.90 1.236
472.00 1.234
472.10 1.233
472.20 1.231
472.30 1.23
472.40 1.228
472.50 1.227
472.60 1.225
472.70 1.223
472.80 1.222
472.90 1.22
473.00 1.219
473.10 1.217
473.20 1.216
473.30 1.214
473.40 1.212
473.50 1.211
473.60 1.209
473.70 1.208
473.80 1.206
473.90 1.204
474.00 1.203
474.10 1.201
474.20 1.199
474.30 1.198
474.40 1.196
474.50 1.194
474.60 1.192
474.70 1.191
474.80 1.189
474.90 1.187
475.00 1.185
475.10 1.184
475.20 1.182
475.30 1.18
475.40 1.178
475.50 1.176
475.60 1.174
475.70 1.172
475.80 1.171
475.90 1.169
476.00 1.167
476.10 1.165
476.20 1.163
476.30 1.161
476.40 1.159
476.50 1.157
476.60 1.155
476.70 1.153
476.80 1.151
476.90 1.149
477.00 1.147
477.10 1.144
477.20 1.142
477.30 1.14
477.40 1.138
477.50 1.136
477.60 1.133
477.70 1.131
477.80 1.129
477.90 1.126
478.00 1.124
478.10 1.122
478.20 1.12
478.30 1.117
478.40 1.115
478.50 1.112
478.60 1.109
478.70 1.107
478.80 1.104
478.90 1.102
479.00 1.099
479.10 1.097
479.20 1.094
479.30 1.091
479.40 1.089
479.50 1.086
479.60 1.083
479.70 1.08
479.80 1.077
479.90 1.074
480.00 1.072
480.10 1.069
480.20 1.066
480.30 1.062
480.40 1.059
480.50 1.056
480.60 1.053
480.70 1.05
480.80 1.046
480.90 1.043
481.00 1.04
481.10 1.037
481.20 1.033
481.30 1.03
481.40 1.026
481.50 1.022
481.60 1.018
481.70 1.015
481.80 1.011
481.90 1.007
482.00 1.004
482.10 1
482.20 0.996
482.30 0.9917
482.40 0.9874
482.50 0.9831
482.60 0.9788
482.70 0.9745
482.80 0.9703
482.90 0.966
483.00 0.9617
483.10 0.9575
483.20 0.9527
483.30 0.9476
483.40 0.9426
483.50 0.9375
483.60 0.9325
483.70 0.9275
483.80 0.9224
483.90 0.9174
484.00 0.9124
484.10 0.9074
484.20 0.9019
484.30 0.8961
484.40 0.8904
484.50 0.8847
484.60 0.879
484.70 0.8729
484.80 0.8666
484.90 0.8603
485.00 0.8541
485.10 0.8478
485.20 0.8413
485.30 0.8346
485.40 0.8279
485.50 0.8211
485.60 0.8144
485.70 0.8078
485.80 0.8025
485.90 0.798
486.00 0.7981
486.10 0.8147
486.20 0.806
486.30 0.7949
486.40 0.7968
486.50 0.8001
486.60 0.8049
486.70 0.8104
486.80 0.816
486.90 0.8216
487.00 0.8271
487.10 0.8326
487.20 0.8377
487.30 0.8427
487.40 0.8477
487.50 0.8527
487.60 0.8577
487.70 0.8623
487.80 0.8667
487.90 0.8711
488.00 0.8755
488.10 0.8798
488.20 0.8837
488.30 0.8873
488.40 0.8909
488.50 0.8945
488.60 0.8981
488.70 0.9016
488.80 0.9052
488.90 0.9088
489.00 0.9124
489.10 0.916
489.20 0.919
489.30 0.9217
489.40 0.9245
489.50 0.9272
489.60 0.93
489.70 0.9327
489.80 0.9354
489.90 0.9382
490.00 0.9409
490.10 0.9436
490.20 0.9459
490.30 0.948
490.40 0.95
490.50 0.9521
490.60 0.9542
490.70 0.9562
490.80 0.9583
490.90 0.9604
491.00 0.9624
491.10 0.9645
491.20 0.9662
491.30 0.9677
491.40 0.9692
491.50 0.9708
491.60 0.9723
491.70 0.9738
491.80 0.9753
491.90 0.9769
492.00 0.9784
492.10 0.9799
492.20 0.9811
492.30 0.9822
492.40 0.9833
492.50 0.9844
492.60 0.9855
492.70 0.9866
492.80 0.9876
492.90 0.9887
493.00 0.9898
493.10 0.9909
493.20 0.9917
493.30 0.9925
493.40 0.9932
493.50 0.994
493.60 0.9947
493.70 0.9954
493.80 0.9962
493.90 0.9969
494.00 0.9976
494.10 0.9984
494.20 0.9989
494.30 0.9994
494.40 0.9998
494.50 1
494.60 1.001
494.70 1.001
494.80 1.002
494.90 1.002
495.00 1.003
495.10 1.003
495.20 1.003
495.30 1.004
495.40 1.004
495.50 1.004
495.60 1.004
495.70 1.004
495.80 1.005
495.90 1.005
496.00 1.005
496.10 1.005
496.20 1.005
496.30 1.005
496.40 1.006
496.50 1.006
496.60 1.006
496.70 1.006
496.80 1.006
496.90 1.006
497.00 1.006
497.10 1.006
497.20 1.006
497.30 1.006
497.40 1.006
497.50 1.005
497.60 1.005
497.70 1.005
497.80 1.005
497.90 1.005
498.00 1.005
498.10 1.005
498.20 1.005
498.30 1.004
498.40 1.004
498.50 1.004
498.60 1.004
498.70 1.004
498.80 1.003
498.90 1.003
499.00 1.003
499.10 1.003
499.20 1.002
499.30 1.002
499.40 1.002
499.50 1.002
499.60 1.001
499.70 1.001
499.80 1.001
499.90 1
500.00 1
500.10 0.9997
500.20 0.9993
500.30 0.999
500.40 0.9986
500.50 0.9982
500.60 0.9978
500.70 0.9974
500.80 0.997
500.90 0.9967
501.00 0.9963
501.10 0.9959
501.20 0.9955
501.30 0.995
501.40 0.9946
501.50 0.9942
501.60 0.9937
501.70 0.9933
501.80 0.9929
501.90 0.9924
502.00 0.992
502.10 0.9915
502.20 0.9911
502.30 0.9906
502.40 0.9901
502.50 0.9896
502.60 0.9891
502.70 0.9886
502.80 0.9882
502.90 0.9877
503.00 0.9872
503.10 0.9867
503.20 0.9862
503.30 0.9857
503.40 0.9852
503.50 0.9846
503.60 0.9841
503.70 0.9836
503.80 0.9831
503.90 0.9826
504.00 0.982
504.10 0.9815
504.20 0.981
504.30 0.9804
504.40 0.9799
504.50 0.9793
504.60 0.9788
504.70 0.9782
504.80 0.9777
504.90 0.9771
505.00 0.9766
505.10 0.976
505.20 0.9755
505.30 0.9749
505.40 0.9743
505.50 0.9738
505.60 0.9732
505.70 0.9726
505.80 0.9721
505.90 0.9715
506.00 0.9709
506.10 0.9703
506.20 0.9698
506.30 0.9692
506.40 0.9686
506.50 0.968
506.60 0.9674
506.70 0.9668
506.80 0.9662
506.90 0.9656
507.00 0.965
507.10 0.9645
507.20 0.9639
507.30 0.9633
507.40 0.9627
507.50 0.9621
507.60 0.9615
507.70 0.9608
507.80 0.9602
507.90 0.9596
508.00 0.959
508.10 0.9584
508.20 0.9578
508.30 0.9572
508.40 0.9566
508.50 0.956
508.60 0.9554
508.70 0.9548
508.80 0.9542
508.90 0.9536
509.00 0.9529
509.10 0.9523
509.20 0.9517
509.30 0.9511
509.40 0.9505
509.50 0.9499
509.60 0.9492
509.70 0.9486
509.80 0.948
509.90 0.9474
510.00 0.9468
510.10 0.9461
510.20 0.9455
510.30 0.9449
510.40 0.9443
510.50 0.9436
510.60 0.943
510.70 0.9424
510.80 0.9418
510.90 0.9411
511.00 0.9405
511.10 0.9399
511.20 0.9393
511.30 0.9386
511.40 0.938
511.50 0.9374
511.60 0.9368
511.70 0.9361
511.80 0.9355
511.90 0.9349
512.00 0.9342
512.10 0.9336
512.20 0.933
512.30 0.9324
512.40 0.9317
512.50 0.9311
512.60 0.9305
512.70 0.9298
512.80 0.9292
512.90 0.9286
513.00 0.9279
513.10 0.9273
513.20 0.9267
513.30 0.926
513.40 0.9254
513.50 0.9248
513.60 0.9241
513.70 0.9235
513.80 0.9229
513.90 0.9223
514.00 0.9216
514.10 0.921
514.20 0.9204
514.30 0.9197
514.40 0.9191
514.50 0.9185
514.60 0.9178
514.70 0.9172
514.80 0.9166
514.90 0.9159
515.00 0.9153
515.10 0.9147
515.20 0.9141
515.30 0.9134
515.40 0.9128
515.50 0.9122
515.60 0.9115
515.70 0.9109
515.80 0.9103
515.90 0.9096
516.00 0.909
516.10 0.9084
516.20 0.9078
516.30 0.9071
516.40 0.9065
516.50 0.9059
516.60 0.9052
516.70 0.9046
516.80 0.904
516.90 0.9033
517.00 0.9027
517.10 0.9021
517.20 0.9015
517.30 0.9008
517.40 0.9002
517.50 0.8996
517.60 0.899
517.70 0.8983
517.80 0.8977
517.90 0.8971
518.00 0.8964
518.10 0.8958
518.20 0.8952
518.30 0.8946
518.40 0.8939
518.50 0.8933
518.60 0.8927
518.70 0.8921
518.80 0.8914
518.90 0.8908
519.00 0.8902
519.10 0.8896
519.20 0.889
519.30 0.8883
519.40 0.8877
519.50 0.8871
519.60 0.8865
519.70 0.8858
519.80 0.8852
519.90 0.8846
520.00 0.884
520.10 0.8834
520.20 0.8827
520.30 0.8821
520.40 0.8815
520.50 0.8809
520.60 0.8803
520.70 0.8796
520.80 0.879
520.90 0.8784
521.00 0.8778
521.10 0.8772
521.20 0.8766
521.30 0.8759
521.40 0.8753
521.50 0.8747
521.60 0.8741
521.70 0.8735
521.80 0.8729
521.90 0.8723
522.00 0.8716
522.10 0.871
522.20 0.8704
522.30 0.8698
522.40 0.8692
522.50 0.8686
522.60 0.868
522.70 0.8674
522.80 0.8667
522.90 0.8661
523.00 0.8655
523.10 0.8649
523.20 0.8643
523.30 0.8637
523.40 0.8631
523.50 0.8625
523.60 0.8619
523.70 0.8613
523.80 0.8607
523.90 0.8601
524.00 0.8595
524.10 0.8588
524.20 0.8582
524.30 0.8576
524.40 0.857
524.50 0.8564
524.60 0.8558
524.70 0.8552
524.80 0.8546
524.90 0.854
525.00 0.8534
525.10 0.8528
525.20 0.8522
525.30 0.8516
525.40 0.851
525.50 0.8504
525.60 0.8498
525.70 0.8492
525.80 0.8486
525.90 0.848
526.00 0.8474
526.10 0.8468
526.20 0.8462
526.30 0.8456
526.40 0.845
526.50 0.8444
526.60 0.8438
526.70 0.8432
526.80 0.8427
526.90 0.8421
527.00 0.8415
527.10 0.8409
527.20 0.8403
527.30 0.8397
527.40 0.8391
527.50 0.8385
527.60 0.8379
527.70 0.8373
527.80 0.8367
527.90 0.8361
528.00 0.8356
528.10 0.835
528.20 0.8344
528.30 0.8338
528.40 0.8332
528.50 0.8326
528.60 0.832
528.70 0.8314
528.80 0.8309
528.90 0.8303
529.00 0.8297
529.10 0.8291
529.20 0.8285
529.30 0.8279
529.40 0.8274
529.50 0.8268
529.60 0.8262
529.70 0.8256
529.80 0.825
529.90 0.8244
530.00 0.8239
530.10 0.8233
530.20 0.8227
530.30 0.8221
530.40 0.8215
530.50 0.821
530.60 0.8204
530.70 0.8198
530.80 0.8192
530.90 0.8187
531.00 0.8181
531.10 0.8175
531.20 0.8169
531.30 0.8164
531.40 0.8158
531.50 0.8152
531.60 0.8146
531.70 0.8141
531.80 0.8135
531.90 0.8129
532.00 0.8123
532.10 0.8118
532.20 0.8112
532.30 0.8106
532.40 0.8101
532.50 0.8095
532.60 0.8089
532.70 0.8084
532.80 0.8078
532.90 0.8072
533.00 0.8067
533.10 0.8061
533.20 0.8055
533.30 0.805
533.40 0.8044
533.50 0.8038
533.60 0.8033
533.70 0.8027
533.80 0.8021
533.90 0.8016
534.00 0.801
534.10 0.8005
534.20 0.7999
534.30 0.7993
534.40 0.7988
534.50 0.7982
534.60 0.7976
534.70 0.7971
534.80 0.7965
534.90 0.796
535.00 0.7954
535.10 0.7949
535.20 0.7943
535.30 0.7937
535.40 0.7932
535.50 0.7926
535.60 0.7921
535.70 0.7915
535.80 0.791
535.90 0.7904
536.00 0.7899
536.10 0.7893
536.20 0.7888
536.30 0.7882
536.40 0.7877
536.50 0.7871
536.60 0.7865
536.70 0.786
536.80 0.7854
536.90 0.7849
537.00 0.7843
537.10 0.7838
537.20 0.7833
537.30 0.7827
537.40 0.7822
537.50 0.7816
537.60 0.7811
537.70 0.7805
537.80 0.78
537.90 0.7794
538.00 0.7789
538.10 0.7783
538.20 0.7778
538.30 0.7773
538.40 0.7767
538.50 0.7762
538.60 0.7756
538.70 0.7751
538.80 0.7745
538.90 0.774
539.00 0.7735
539.10 0.7729
539.20 0.7724
539.30 0.7718
539.40 0.7713
539.50 0.7708
539.60 0.7702
539.70 0.7697
539.80 0.7692
539.90 0.7686
540.00 0.7681
540.10 0.7676
540.20 0.767
540.30 0.7665
540.40 0.766
540.50 0.7654
540.60 0.7649
540.70 0.7644
540.80 0.7638
540.90 0.7633
541.00 0.7628
541.10 0.7622
541.20 0.7617
541.30 0.7612
541.40 0.7606
541.50 0.7601
541.60 0.7596
541.70 0.759
541.80 0.7585
541.90 0.758
542.00 0.7575
542.10 0.7569
542.20 0.7564
542.30 0.7559
542.40 0.7554
542.50 0.7548
542.60 0.7543
542.70 0.7538
542.80 0.7533
542.90 0.7527
543.00 0.7522
543.10 0.7517
543.20 0.7512
543.30 0.7507
543.40 0.7501
543.50 0.7496
543.60 0.7491
543.70 0.7486
543.80 0.7481
543.90 0.7475
544.00 0.747
544.10 0.7465
544.20 0.746
544.30 0.7455
544.40 0.745
544.50 0.7444
544.60 0.7439
544.70 0.7434
544.80 0.7429
544.90 0.7424
545.00 0.7419
545.10 0.7414
545.20 0.7408
545.30 0.7403
545.40 0.7398
545.50 0.7393
545.60 0.7388
545.70 0.7383
545.80 0.7378
545.90 0.7373
546.00 0.7367
546.10 0.7362
546.20 0.7357
546.30 0.7352
546.40 0.7347
546.50 0.7342
546.60 0.7337
546.70 0.7332
546.80 0.7327
546.90 0.7322
547.00 0.7317
547.10 0.7312
547.20 0.7307
547.30 0.7302
547.40 0.7297
547.50 0.7292
547.60 0.7287
547.70 0.7282
547.80 0.7276
547.90 0.7271
548.00 0.7266
548.10 0.7261
548.20 0.7256
548.30 0.7251
548.40 0.7246
548.50 0.7241
548.60 0.7236
548.70 0.7232
548.80 0.7227
548.90 0.7222
549.00 0.7217
549.10 0.7212
549.20 0.7207
549.30 0.7202
549.40 0.7197
549.50 0.7192
549.60 0.7187
549.70 0.7182
549.80 0.7177
549.90 0.7172
550.00 0.7167
550.10 0.7162
550.20 0.7157
550.30 0.7152
550.40 0.7147
550.50 0.7143
550.60 0.7138
550.70 0.7133
550.80 0.7128
550.90 0.7123
551.00 0.7118
551.10 0.7113
551.20 0.7108
551.30 0.7103
551.40 0.7099
551.50 0.7094
551.60 0.7089
551.70 0.7084
551.80 0.7079
551.90 0.7074
552.00 0.7069
552.10 0.7065
552.20 0.706
552.30 0.7055
552.40 0.705
552.50 0.7045
552.60 0.704
552.70 0.7036
552.80 0.7031
552.90 0.7026
553.00 0.7021
553.10 0.7016
553.20 0.7012
553.30 0.7007
553.40 0.7002
553.50 0.6997
553.60 0.6992
553.70 0.6988
553.80 0.6983
553.90 0.6978
554.00 0.6973
554.10 0.6969
554.20 0.6964
554.30 0.6959
554.40 0.6954
554.50 0.695
554.60 0.6945
554.70 0.694
554.80 0.6935
554.90 0.6931
555.00 0.6926
555.10 0.6921
555.20 0.6916
555.30 0.6912
555.40 0.6907
555.50 0.6902
555.60 0.6898
555.70 0.6893
555.80 0.6888
555.90 0.6884
556.00 0.6879
556.10 0.6874
556.20 0.6869
556.30 0.6865
556.40 0.686
556.50 0.6855
556.60 0.6851
556.70 0.6846
556.80 0.6841
556.90 0.6837
557.00 0.6832
557.10 0.6828
557.20 0.6823
557.30 0.6818
557.40 0.6814
557.50 0.6809
557.60 0.6804
557.70 0.68
557.80 0.6795
557.90 0.6791
558.00 0.6786
558.10 0.6781
558.20 0.6777
558.30 0.6772
558.40 0.6767
558.50 0.6763
558.60 0.6758
558.70 0.6754
558.80 0.6749
558.90 0.6745
559.00 0.674
559.10 0.6735
559.20 0.6731
559.30 0.6726
559.40 0.6722
559.50 0.6717
559.60 0.6713
559.70 0.6708
559.80 0.6704
559.90 0.6699
560.00 0.6695
560.10 0.669
560.20 0.6685
560.30 0.6681
560.40 0.6676
560.50 0.6672
560.60 0.6667
560.70 0.6663
560.80 0.6658
560.90 0.6654
561.00 0.6649
561.10 0.6645
561.20 0.664
561.30 0.6636
561.40 0.6631
561.50 0.6627
561.60 0.6622
561.70 0.6618
561.80 0.6614
561.90 0.6609
562.00 0.6605
562.10 0.66
562.20 0.6596
562.30 0.6591
562.40 0.6587
562.50 0.6582
562.60 0.6578
562.70 0.6574
562.80 0.6569
562.90 0.6565
563.00 0.656
563.10 0.6556
563.20 0.6551
563.30 0.6547
563.40 0.6543
563.50 0.6538
563.60 0.6534
563.70 0.6529
563.80 0.6525
563.90 0.6521
564.00 0.6516
564.10 0.6512
564.20 0.6507
564.30 0.6503
564.40 0.6499
564.50 0.6494
564.60 0.649
564.70 0.6486
564.80 0.6481
564.90 0.6477
565.00 0.6473
565.10 0.6468
565.20 0.6464
565.30 0.646
565.40 0.6455
565.50 0.6451
565.60 0.6447
565.70 0.6442
565.80 0.6438
565.90 0.6434
566.00 0.6429
566.10 0.6425
566.20 0.6421
566.30 0.6416
566.40 0.6412
566.50 0.6408
566.60 0.6403
566.70 0.6399
566.80 0.6395
566.90 0.6391
567.00 0.6386
567.10 0.6382
567.20 0.6378
567.30 0.6374
567.40 0.6369
567.50 0.6365
567.60 0.6361
567.70 0.6356
567.80 0.6352
567.90 0.6348
568.00 0.6344
568.10 0.6339
568.20 0.6335
568.30 0.6331
568.40 0.6327
568.50 0.6323
568.60 0.6318
568.70 0.6314
568.80 0.631
568.90 0.6306
569.00 0.6301
569.10 0.6297
569.20 0.6293
569.30 0.6289
569.40 0.6285
569.50 0.628
569.60 0.6276
569.70 0.6272
569.80 0.6268
569.90 0.6264
570.00 0.626
570.10 0.6255
570.20 0.6251
570.30 0.6247
570.40 0.6243
570.50 0.6239
570.60 0.6235
570.70 0.623
570.80 0.6226
570.90 0.6222
571.00 0.6218
571.10 0.6214
571.20 0.621
571.30 0.6206
571.40 0.6202
571.50 0.6197
571.60 0.6193
571.70 0.6189
571.80 0.6185
571.90 0.6181
572.00 0.6177
572.10 0.6173
572.20 0.6169
572.30 0.6165
572.40 0.616
572.50 0.6156
572.60 0.6152
572.70 0.6148
572.80 0.6144
572.90 0.614
573.00 0.6136
573.10 0.6132
573.20 0.6128
573.30 0.6124
573.40 0.612
573.50 0.6116
573.60 0.6112
573.70 0.6108
573.80 0.6103
573.90 0.6099
574.00 0.6095
574.10 0.6091
574.20 0.6087
574.30 0.6083
574.40 0.6079
574.50 0.6075
574.60 0.6071
574.70 0.6067
574.80 0.6063
574.90 0.6059
575.00 0.6055
575.10 0.6051
575.20 0.6047
575.30 0.6043
575.40 0.6039
575.50 0.6035
575.60 0.6031
575.70 0.6027
575.80 0.6023
575.90 0.6019
576.00 0.6015
576.10 0.6011
576.20 0.6007
576.30 0.6003
576.40 0.5999
576.50 0.5995
576.60 0.5991
576.70 0.5988
576.80 0.5984
576.90 0.598
577.00 0.5976
577.10 0.5972
577.20 0.5968
577.30 0.5964
577.40 0.596
577.50 0.5956
577.60 0.5952
577.70 0.5948
577.80 0.5944
577.90 0.594
578.00 0.5936
578.10 0.5933
578.20 0.5929
578.30 0.5925
578.40 0.5921
578.50 0.5917
578.60 0.5913
578.70 0.5909
578.80 0.5905
578.90 0.5901
579.00 0.5898
579.10 0.5894
579.20 0.589
579.30 0.5886
579.40 0.5882
579.50 0.5878
579.60 0.5874
579.70 0.587
579.80 0.5867
579.90 0.5863
580.00 0.5859
580.10 0.5855
580.20 0.5851
580.30 0.5847
580.40 0.5844
580.50 0.584
580.60 0.5836
580.70 0.5832
580.80 0.5828
580.90 0.5824
581.00 0.5821
581.10 0.5817
581.20 0.5813
581.30 0.5809
581.40 0.5805
581.50 0.5802
581.60 0.5798
581.70 0.5794
581.80 0.579
581.90 0.5786
582.00 0.5783
582.10 0.5779
582.20 0.5775
582.30 0.5771
582.40 0.5767
582.50 0.5764
582.60 0.576
582.70 0.5756
582.80 0.5752
582.90 0.5749
583.00 0.5745
583.10 0.5741
583.20 0.5737
583.30 0.5734
583.40 0.573
583.50 0.5726
583.60 0.5722
583.70 0.5719
583.80 0.5715
583.90 0.5711
584.00 0.5707
584.10 0.5704
584.20 0.57
584.30 0.5696
584.40 0.5693
584.50 0.5689
584.60 0.5685
584.70 0.5681
584.80 0.5678
584.90 0.5674
585.00 0.567
585.10 0.5667
585.20 0.5663
585.30 0.5659
585.40 0.5656
585.50 0.5652
585.60 0.5648
585.70 0.5645
585.80 0.5641
585.90 0.5637
586.00 0.5634
586.10 0.563
586.20 0.5626
586.30 0.5623
586.40 0.5619
586.50 0.5615
586.60 0.5612
586.70 0.5608
586.80 0.5604
586.90 0.5601
587.00 0.5597
587.10 0.5593
587.20 0.559
587.30 0.5586
587.40 0.5582
587.50 0.5579
587.60 0.5575
587.70 0.5572
587.80 0.5568
587.90 0.5564
588.00 0.5561
588.10 0.5557
588.20 0.5554
588.30 0.555
588.40 0.5546
588.50 0.5543
588.60 0.5539
588.70 0.5536
588.80 0.5532
588.90 0.5528
589.00 0.5525
589.10 0.5521
589.20 0.5518
589.30 0.5514
589.40 0.5511
589.50 0.5507
589.60 0.5503
589.70 0.55
589.80 0.5496
589.90 0.5493
590.00 0.5489
590.10 0.5486
590.20 0.5482
590.30 0.5478
590.40 0.5475
590.50 0.5471
590.60 0.5468
590.70 0.5464
590.80 0.5461
590.90 0.5457
591.00 0.5454
591.10 0.545
591.20 0.5447
591.30 0.5443
591.40 0.544
591.50 0.5436
591.60 0.5433
591.70 0.5429
591.80 0.5426
591.90 0.5422
592.00 0.5419
592.10 0.5415
592.20 0.5412
592.30 0.5408
592.40 0.5405
592.50 0.5401
592.60 0.5398
592.70 0.5394
592.80 0.5391
592.90 0.5387
593.00 0.5384
593.10 0.538
593.20 0.5377
593.30 0.5373
593.40 0.537
593.50 0.5366
593.60 0.5363
593.70 0.536
593.80 0.5356
593.90 0.5353
594.00 0.5349
594.10 0.5346
594.20 0.5342
594.30 0.5339
594.40 0.5335
594.50 0.5332
594.60 0.5329
594.70 0.5325
594.80 0.5322
594.90 0.5318
595.00 0.5315
595.10 0.5311
595.20 0.5308
595.30 0.5305
595.40 0.5301
595.50 0.5298
595.60 0.5294
595.70 0.5291
595.80 0.5288
595.90 0.5284
596.00 0.5281
596.10 0.5277
596.20 0.5274
596.30 0.5271
596.40 0.5267
596.50 0.5264
596.60 0.5261
596.70 0.5257
596.80 0.5254
596.90 0.525
597.00 0.5247
597.10 0.5244
597.20 0.524
597.30 0.5237
597.40 0.5234
597.50 0.523
597.60 0.5227
597.70 0.5224
597.80 0.522
597.90 0.5217
598.00 0.5213
598.10 0.521
598.20 0.5207
598.30 0.5203
598.40 0.52
598.50 0.5197
598.60 0.5194
598.70 0.519
598.80 0.5187
598.90 0.5184
599.00 0.518
599.10 0.5177
599.20 0.5174
599.30 0.517
599.40 0.5167
599.50 0.5164
599.60 0.516
599.70 0.5157
599.80 0.5154
599.90 0.515
600.00 0.5147
600.10 0.5144
600.20 0.5141
600.30 0.5137
600.40 0.5134
600.50 0.5131
600.60 0.5127
600.70 0.5124
600.80 0.5121
600.90 0.5118
601.00 0.5114
601.10 0.5111
601.20 0.5108
601.30 0.5105
601.40 0.5101
601.50 0.5098
601.60 0.5095
601.70 0.5092
601.80 0.5088
601.90 0.5085
602.00 0.5082
602.10 0.5079
602.20 0.5075
602.30 0.5072
602.40 0.5069
602.50 0.5066
602.60 0.5062
602.70 0.5059
602.80 0.5056
602.90 0.5053
603.00 0.505
603.10 0.5046
603.20 0.5043
603.30 0.504
603.40 0.5037
603.50 0.5033
603.60 0.503
603.70 0.5027
603.80 0.5024
603.90 0.5021
604.00 0.5017
604.10 0.5014
604.20 0.5011
604.30 0.5008
604.40 0.5005
604.50 0.5002
604.60 0.4998
604.70 0.4995
604.80 0.4992
604.90 0.4989
605.00 0.4986
605.10 0.4982
605.20 0.4979
605.30 0.4976
605.40 0.4973
605.50 0.497
605.60 0.4967
605.70 0.4964
605.80 0.496
605.90 0.4957
606.00 0.4954
606.10 0.4951
606.20 0.4948
606.30 0.4945
606.40 0.4941
606.50 0.4938
606.60 0.4935
606.70 0.4932
606.80 0.4929
606.90 0.4926
607.00 0.4923
607.10 0.492
607.20 0.4916
607.30 0.4913
607.40 0.491
607.50 0.4907
607.60 0.4904
607.70 0.4901
607.80 0.4898
607.90 0.4895
608.00 0.4891
608.10 0.4888
608.20 0.4885
608.30 0.4882
608.40 0.4879
608.50 0.4876
608.60 0.4873
608.70 0.487
608.80 0.4867
608.90 0.4864
609.00 0.4861
609.10 0.4857
609.20 0.4854
609.30 0.4851
609.40 0.4848
609.50 0.4845
609.60 0.4842
609.70 0.4839
609.80 0.4836
609.90 0.4833
610.00 0.483
610.10 0.4827
610.20 0.4824
610.30 0.4821
610.40 0.4818
610.50 0.4815
610.60 0.4811
610.70 0.4808
610.80 0.4805
610.90 0.4802
611.00 0.4799
611.10 0.4796
611.20 0.4793
611.30 0.479
611.40 0.4787
611.50 0.4784
611.60 0.4781
611.70 0.4778
611.80 0.4775
611.90 0.4772
612.00 0.4769
612.10 0.4766
612.20 0.4763
612.30 0.476
612.40 0.4757
612.50 0.4754
612.60 0.4751
612.70 0.4748
612.80 0.4745
612.90 0.4742
613.00 0.4739
613.10 0.4736
613.20 0.4733
613.30 0.473
613.40 0.4727
613.50 0.4724
613.60 0.4721
613.70 0.4718
613.80 0.4715
613.90 0.4712
614.00 0.4709
614.10 0.4706
614.20 0.4703
614.30 0.47
614.40 0.4697
614.50 0.4694
614.60 0.4691
614.70 0.4688
614.80 0.4685
614.90 0.4682
615.00 0.4679
615.10 0.4676
615.20 0.4673
615.30 0.467
615.40 0.4667
615.50 0.4664
615.60 0.4661
615.70 0.4658
615.80 0.4655
615.90 0.4653
616.00 0.465
616.10 0.4647
616.20 0.4644
616.30 0.4641
616.40 0.4638
616.50 0.4635
616.60 0.4632
616.70 0.4629
616.80 0.4626
616.90 0.4623
617.00 0.462
617.10 0.4617
617.20 0.4614
617.30 0.4611
617.40 0.4609
617.50 0.4606
617.60 0.4603
617.70 0.46
617.80 0.4597
617.90 0.4594
618.00 0.4591
618.10 0.4588
618.20 0.4585
618.30 0.4582
618.40 0.4579
618.50 0.4576
618.60 0.4574
618.70 0.4571
618.80 0.4568
618.90 0.4565
619.00 0.4562
619.10 0.4559
619.20 0.4556
619.30 0.4553
619.40 0.455
619.50 0.4547
619.60 0.4545
619.70 0.4542
619.80 0.4539
619.90 0.4536
620.00 0.4533
620.10 0.453
620.20 0.4527
620.30 0.4524
620.40 0.4522
620.50 0.4519
620.60 0.4516
620.70 0.4513
620.80 0.451
620.90 0.4507
621.00 0.4504
621.10 0.4501
621.20 0.4499
621.30 0.4496
621.40 0.4493
621.50 0.449
621.60 0.4487
621.70 0.4484
621.80 0.4481
621.90 0.4478
622.00 0.4476
622.10 0.4473
622.20 0.447
622.30 0.4467
622.40 0.4464
622.50 0.4461
622.60 0.4458
622.70 0.4456
622.80 0.4453
622.90 0.445
623.00 0.4447
623.10 0.4444
623.20 0.4441
623.30 0.4439
623.40 0.4436
623.50 0.4433
623.60 0.443
623.70 0.4427
623.80 0.4424
623.90 0.4422
624.00 0.4419
624.10 0.4416
624.20 0.4413
624.30 0.441
624.40 0.4407
624.50 0.4405
624.60 0.4402
624.70 0.4399
624.80 0.4396
624.90 0.4393
625.00 0.439
625.10 0.4388
625.20 0.4385
625.30 0.4382
625.40 0.4379
625.50 0.4376
625.60 0.4373
625.70 0.4371
625.80 0.4368
625.90 0.4365
626.00 0.4362
626.10 0.4359
626.20 0.4357
626.30 0.4354
626.40 0.4351
626.50 0.4348
626.60 0.4345
626.70 0.4342
626.80 0.434
626.90 0.4337
627.00 0.4334
627.10 0.4331
627.20 0.4328
627.30 0.4326
627.40 0.4323
627.50 0.432
627.60 0.4317
627.70 0.4314
627.80 0.4311
627.90 0.4309
628.00 0.4306
628.10 0.4303
628.20 0.43
628.30 0.4297
628.40 0.4295
628.50 0.4292
628.60 0.4289
628.70 0.4286
628.80 0.4283
628.90 0.428
629.00 0.4278
629.10 0.4275
629.20 0.4272
629.30 0.4269
629.40 0.4266
629.50 0.4264
629.60 0.4261
629.70 0.4258
629.80 0.4255
629.90 0.4252
630.00 0.425
630.10 0.4247
630.20 0.4244
630.30 0.4241
630.40 0.4238
630.50 0.4235
630.60 0.4233
630.70 0.423
630.80 0.4227
630.90 0.4224
631.00 0.4221
631.10 0.4218
631.20 0.4216
631.30 0.4213
631.40 0.421
631.50 0.4207
631.60 0.4204
631.70 0.4201
631.80 0.4199
631.90 0.4196
632.00 0.4193
632.10 0.419
632.20 0.4187
632.30 0.4184
632.40 0.4182
632.50 0.4179
632.60 0.4176
632.70 0.4173
632.80 0.417
632.90 0.4167
633.00 0.4165
633.10 0.4162
633.20 0.4159
633.30 0.4156
633.40 0.4153
633.50 0.415
633.60 0.4147
633.70 0.4144
633.80 0.4142
633.90 0.4139
634.00 0.4136
634.10 0.4133
634.20 0.413
634.30 0.4127
634.40 0.4124
634.50 0.4121
634.60 0.4119
634.70 0.4116
634.80 0.4113
634.90 0.411
635.00 0.4107
635.10 0.4104
635.20 0.4101
635.30 0.4098
635.40 0.4095
635.50 0.4092
635.60 0.4089
635.70 0.4086
635.80 0.4084
635.90 0.4081
636.00 0.4078
636.10 0.4075
636.20 0.4072
636.30 0.4069
636.40 0.4066
636.50 0.4063
636.60 0.406
636.70 0.4057
636.80 0.4054
636.90 0.4051
637.00 0.4048
637.10 0.4045
637.20 0.4042
637.30 0.4039
637.40 0.4036
637.50 0.4033
637.60 0.403
637.70 0.4027
637.80 0.4024
637.90 0.4021
638.00 0.4018
638.10 0.4015
638.20 0.4012
638.30 0.4009
638.40 0.4005
638.50 0.4002
638.60 0.3999
638.70 0.3996
638.80 0.3993
638.90 0.399
639.00 0.3987
639.10 0.3984
639.20 0.398
639.30 0.3977
639.40 0.3974
639.50 0.3971
639.60 0.3968
639.70 0.3964
639.80 0.3961
639.90 0.3958
640.00 0.3955
640.10 0.3952
640.20 0.3948
640.30 0.3945
640.40 0.3942
640.50 0.3938
640.60 0.3935
640.70 0.3932
640.80 0.3928
640.90 0.3925
641.00 0.3922
641.10 0.3919
641.20 0.3915
641.30 0.3912
641.40 0.3908
641.50 0.3905
641.60 0.3901
641.70 0.3898
641.80 0.3894
641.90 0.3891
642.00 0.3887
642.10 0.3884
642.20 0.3881
642.30 0.3877
642.40 0.3873
642.50 0.387
642.60 0.3866
642.70 0.3862
642.80 0.3859
642.90 0.3855
643.00 0.3851
643.10 0.3848
643.20 0.3844
643.30 0.384
643.40 0.3836
643.50 0.3833
643.60 0.3829
643.70 0.3825
643.80 0.3821
643.90 0.3817
644.00 0.3813
644.10 0.3809
644.20 0.3805
644.30 0.3802
644.40 0.3797
644.50 0.3793
644.60 0.3789
644.70 0.3785
644.80 0.3781
644.90 0.3777
645.00 0.3772
645.10 0.3768
645.20 0.3764
645.30 0.376
645.40 0.3755
645.50 0.3751
645.60 0.3746
645.70 0.3742
645.80 0.3737
645.90 0.3733
646.00 0.3728
646.10 0.3724
646.20 0.3719
646.30 0.3715
646.40 0.371
646.50 0.3705
646.60 0.37
646.70 0.3695
646.80 0.369
646.90 0.3685
647.00 0.368
647.10 0.3675
647.20 0.367
647.30 0.3665
647.40 0.366
647.50 0.3654
647.60 0.3649
647.70 0.3644
647.80 0.3638
647.90 0.3633
648.00 0.3627
648.10 0.3622
648.20 0.3616
648.30 0.3611
648.40 0.3605
648.50 0.3598
648.60 0.3592
648.70 0.3586
648.80 0.358
648.90 0.3574
649.00 0.3568
649.10 0.3562
649.20 0.3556
649.30 0.3549
649.40 0.3542
649.50 0.3535
649.60 0.3528
649.70 0.3521
649.80 0.3514
649.90 0.3508
650.00 0.3501
650.10 0.3494
650.20 0.3487
650.30 0.348
650.40 0.3472
650.50 0.3464
650.60 0.3456
650.70 0.3448
650.80 0.344
650.90 0.3432
651.00 0.3424
651.10 0.3416
651.20 0.3408
651.30 0.3399
651.40 0.339
651.50 0.3381
651.60 0.3371
651.70 0.3362
651.80 0.3353
651.90 0.3344
652.00 0.3334
652.10 0.3325
652.20 0.3316
652.30 0.3306
652.40 0.3295
652.50 0.3284
652.60 0.3273
652.70 0.3263
652.80 0.3252
652.90 0.3241
653.00 0.323
653.10 0.3219
653.20 0.3208
653.30 0.3197
653.40 0.3184
653.50 0.3171
653.60 0.3158
653.70 0.3145
653.80 0.3132
653.90 0.3119
654.00 0.3106
654.10 0.3093
654.20 0.308
654.30 0.3067
654.40 0.3052
654.50 0.3037
654.60 0.3022
654.70 0.3007
654.80 0.2992
654.90 0.2975
655.00 0.2959
655.10 0.2943
655.20 0.2926
655.30 0.291
655.40 0.2892
655.50 0.2874
655.60 0.2855
655.70 0.2837
655.80 0.2818
655.90 0.2798
656.00 0.2779
656.10 0.276
656.20 0.2755
656.30 0.2809
656.40 0.2748
656.50 0.276
656.60 0.2777
656.70 0.2793
656.80 0.2809
656.90 0.2825
657.00 0.2841
657.10 0.2856
657.20 0.287
657.30 0.2884
657.40 0.2898
657.50 0.2911
657.60 0.2924
657.70 0.2937
657.80 0.295
657.90 0.2961
658.00 0.2972
658.10 0.2984
658.20 0.2995
658.30 0.3006
658.40 0.3016
658.50 0.3025
658.60 0.3034
658.70 0.3044
658.80 0.3053
658.90 0.3062
659.00 0.3071
659.10 0.3081
659.20 0.309
659.30 0.3099
659.40 0.3106
659.50 0.3113
659.60 0.312
659.70 0.3127
659.80 0.3134
659.90 0.3141
660.00 0.3148
660.10 0.3155
660.20 0.3162
660.30 0.3169
660.40 0.3174
660.50 0.318
660.60 0.3185
660.70 0.319
660.80 0.3196
660.90 0.3201
661.00 0.3206
661.10 0.3211
661.20 0.3217
661.30 0.3222
661.40 0.3225
661.50 0.3229
661.60 0.3233
661.70 0.3237
661.80 0.3241
661.90 0.3245
662.00 0.3249
662.10 0.3252
662.20 0.3256
662.30 0.326
662.40 0.3263
662.50 0.3265
662.60 0.3268
662.70 0.3271
662.80 0.3274
662.90 0.3276
663.00 0.3279
663.10 0.3282
663.20 0.3285
663.30 0.3287
663.40 0.3289
663.50 0.3291
663.60 0.3293
663.70 0.3294
663.80 0.3296
663.90 0.3298
664.00 0.33
664.10 0.3302
664.20 0.3304
664.30 0.3305
664.40 0.3306
664.50 0.3308
664.60 0.3309
664.70 0.331
664.80 0.3311
664.90 0.3312
665.00 0.3313
665.10 0.3314
665.20 0.3315
665.30 0.3316
665.40 0.3317
665.50 0.3317
665.60 0.3318
665.70 0.3319
665.80 0.3319
665.90 0.332
666.00 0.332
666.10 0.3321
666.20 0.3321
666.30 0.3322
666.40 0.3322
666.50 0.3322
666.60 0.3322
666.70 0.3322
666.80 0.3322
666.90 0.3322
667.00 0.3322
667.10 0.3323
667.20 0.3323
667.30 0.3323
667.40 0.3322
667.50 0.3322
667.60 0.3322
667.70 0.3322
667.80 0.3321
667.90 0.3321
668.00 0.3321
668.10 0.3321
668.20 0.332
668.30 0.332
668.40 0.332
668.50 0.3319
668.60 0.3318
668.70 0.3318
668.80 0.3317
668.90 0.3317
669.00 0.3316
669.10 0.3316
669.20 0.3315
669.30 0.3315
669.40 0.3314
669.50 0.3313
669.60 0.3312
669.70 0.3312
669.80 0.3311
669.90 0.331
670.00 0.3309
670.10 0.3308
670.20 0.3308
670.30 0.3307
670.40 0.3306
670.50 0.3305
670.60 0.3304
670.70 0.3303
670.80 0.3302
670.90 0.3301
671.00 0.33
671.10 0.3299
671.20 0.3298
671.30 0.3297
671.40 0.3296
671.50 0.3295
671.60 0.3294
671.70 0.3293
671.80 0.3292
671.90 0.3291
672.00 0.329
672.10 0.3289
672.20 0.3287
672.30 0.3286
672.40 0.3285
672.50 0.3284
672.60 0.3283
672.70 0.3281
672.80 0.328
672.90 0.3279
673.00 0.3278
673.10 0.3277
673.20 0.3275
673.30 0.3274
673.40 0.3273
673.50 0.3272
673.60 0.327
673.70 0.3269
673.80 0.3268
673.90 0.3266
674.00 0.3265
674.10 0.3264
674.20 0.3262
674.30 0.3261
674.40 0.326
674.50 0.3258
674.60 0.3257
674.70 0.3256
674.80 0.3254
674.90 0.3253
675.00 0.3251
675.10 0.325
675.20 0.3249
675.30 0.3247
675.40 0.3246
675.50 0.3244
675.60 0.3243
675.70 0.3242
675.80 0.324
675.90 0.3239
676.00 0.3237
676.10 0.3236
676.20 0.3234
676.30 0.3233
676.40 0.3232
676.50 0.323
676.60 0.3229
676.70 0.3227
676.80 0.3226
676.90 0.3224
677.00 0.3223
677.10 0.3221
677.20 0.322
677.30 0.3218
677.40 0.3217
677.50 0.3215
677.60 0.3214
677.70 0.3212
677.80 0.3211
677.90 0.3209
678.00 0.3208
678.10 0.3206
678.20 0.3204
678.30 0.3203
678.40 0.3201
678.50 0.32
678.60 0.3198
678.70 0.3197
678.80 0.3195
678.90 0.3194
679.00 0.3192
679.10 0.3191
679.20 0.3189
679.30 0.3187
679.40 0.3186
679.50 0.3184
679.60 0.3183
679.70 0.3181
679.80 0.318
679.90 0.3178
680.00 0.3176
680.10 0.3175
680.20 0.3173
680.30 0.3172
680.40 0.317
680.50 0.3169
680.60 0.3167
680.70 0.3165
680.80 0.3164
680.90 0.3162
681.00 0.3161
681.10 0.3159
681.20 0.3157
681.30 0.3156
681.40 0.3154
681.50 0.3153
681.60 0.3151
681.70 0.315
681.80 0.3148
681.90 0.3146
682.00 0.3145
682.10 0.3143
682.20 0.3142
682.30 0.314
682.40 0.3138
682.50 0.3137
682.60 0.3135
682.70 0.3133
682.80 0.3132
682.90 0.313
683.00 0.3129
683.10 0.3127
683.20 0.3125
683.30 0.3124
683.40 0.3122
683.50 0.3121
683.60 0.3119
683.70 0.3117
683.80 0.3116
683.90 0.3114
684.00 0.3113
684.10 0.3111
684.20 0.3109
684.30 0.3108
684.40 0.3106
684.50 0.3104
684.60 0.3103
684.70 0.3101
684.80 0.31
684.90 0.3098
685.00 0.3096
685.10 0.3095
685.20 0.3093
685.30 0.3092
685.40 0.309
685.50 0.3088
685.60 0.3087
685.70 0.3085
685.80 0.3083
685.90 0.3082
686.00 0.308
686.10 0.3079
686.20 0.3077
686.30 0.3075
686.40 0.3074
686.50 0.3072
686.60 0.307
686.70 0.3069
686.80 0.3067
686.90 0.3066
687.00 0.3064
687.10 0.3062
687.20 0.3061
687.30 0.3059
687.40 0.3057
687.50 0.3056
687.60 0.3054
687.70 0.3053
687.80 0.3051
687.90 0.3049
688.00 0.3048
688.10 0.3046
688.20 0.3045
688.30 0.3043
688.40 0.3041
688.50 0.304
688.60 0.3038
688.70 0.3036
688.80 0.3035
688.90 0.3033
689.00 0.3032
689.10 0.303
689.20 0.3028
689.30 0.3027
689.40 0.3025
689.50 0.3024
689.60 0.3022
689.70 0.302
689.80 0.3019
689.90 0.3017
690.00 0.3015
690.10 0.3014
690.20 0.3012
690.30 0.3011
690.40 0.3009
690.50 0.3007
690.60 0.3006
690.70 0.3004
690.80 0.3003
690.90 0.3001
691.00 0.2999
691.10 0.2998
691.20 0.2996
691.30 0.2995
691.40 0.2993
691.50 0.2991
691.60 0.299
691.70 0.2988
691.80 0.2987
691.90 0.2985
692.00 0.2983
692.10 0.2982
692.20 0.298
692.30 0.2979
692.40 0.2977
692.50 0.2975
692.60 0.2974
692.70 0.2972
692.80 0.2971
692.90 0.2969
693.00 0.2967
693.10 0.2966
693.20 0.2964
693.30 0.2963
693.40 0.2961
693.50 0.2959
693.60 0.2958
693.70 0.2956
693.80 0.2955
693.90 0.2953
694.00 0.2952
694.10 0.295
694.20 0.2948
694.30 0.2947
694.40 0.2945
694.50 0.2944
694.60 0.2942
694.70 0.294
694.80 0.2939
694.90 0.2937
695.00 0.2936
695.10 0.2934
695.20 0.2933
695.30 0.2931
695.40 0.2929
695.50 0.2928
695.60 0.2926
695.70 0.2925
695.80 0.2923
695.90 0.2922
696.00 0.292
696.10 0.2918
696.20 0.2917
696.30 0.2915
696.40 0.2914
696.50 0.2912
696.60 0.2911
696.70 0.2909
696.80 0.2907
696.90 0.2906
697.00 0.2904
697.10 0.2903
697.20 0.2901
697.30 0.29
697.40 0.2898
697.50 0.2896
697.60 0.2895
697.70 0.2893
697.80 0.2892
697.90 0.289
698.00 0.2889
698.10 0.2887
698.20 0.2886
698.30 0.2884
698.40 0.2882
698.50 0.2881
698.60 0.2879
698.70 0.2878
698.80 0.2876
698.90 0.2875
699.00 0.2873
699.10 0.2872
699.20 0.287
699.30 0.2869
699.40 0.2867
699.50 0.2865
699.60 0.2864
699.70 0.2862
699.80 0.2861
699.90 0.2859
700.00 0.2858
700.10 0.2856
700.20 0.2855
700.30 0.2853
700.40 0.2852
700.50 0.285
700.60 0.2849
700.70 0.2847
700.80 0.2845
700.90 0.2844
701.00 0.2842
701.10 0.2841
701.20 0.2839
701.30 0.2838
701.40 0.2836
701.50 0.2835
701.60 0.2833
701.70 0.2832
701.80 0.283
701.90 0.2829
702.00 0.2827
702.10 0.2826
702.20 0.2824
702.30 0.2823
702.40 0.2821
702.50 0.282
702.60 0.2818
702.70 0.2816
702.80 0.2815
702.90 0.2813
703.00 0.2812
703.10 0.281
703.20 0.2809
703.30 0.2807
703.40 0.2806
703.50 0.2804
703.60 0.2803
703.70 0.2801
703.80 0.28
703.90 0.2798
704.00 0.2797
704.10 0.2795
704.20 0.2794
704.30 0.2792
704.40 0.2791
704.50 0.2789
704.60 0.2788
704.70 0.2786
704.80 0.2785
704.90 0.2783
705.00 0.2782
705.10 0.278
705.20 0.2779
705.30 0.2777
705.40 0.2776
705.50 0.2774
705.60 0.2773
705.70 0.2771
705.80 0.277
705.90 0.2768
706.00 0.2767
706.10 0.2765
706.20 0.2764
706.30 0.2762
706.40 0.2761
706.50 0.276
706.60 0.2758
706.70 0.2757
706.80 0.2755
706.90 0.2754
707.00 0.2752
707.10 0.2751
707.20 0.2749
707.30 0.2748
707.40 0.2746
707.50 0.2745
707.60 0.2743
707.70 0.2742
707.80 0.274
707.90 0.2739
708.00 0.2737
708.10 0.2736
708.20 0.2734
708.30 0.2733
708.40 0.2732
708.50 0.273
708.60 0.2729
708.70 0.2727
708.80 0.2726
708.90 0.2724
709.00 0.2723
709.10 0.2721
709.20 0.272
709.30 0.2718
709.40 0.2717
709.50 0.2715
709.60 0.2714
709.70 0.2712
709.80 0.2711
709.90 0.271
710.00 0.2708
710.10 0.2707
710.20 0.2705
710.30 0.2704
710.40 0.2702
710.50 0.2701
710.60 0.2699
710.70 0.2698
710.80 0.2697
710.90 0.2695
711.00 0.2694
711.10 0.2692
711.20 0.2691
711.30 0.2689
711.40 0.2688
711.50 0.2687
711.60 0.2685
711.70 0.2684
711.80 0.2682
711.90 0.2681
712.00 0.2679
712.10 0.2678
712.20 0.2676
712.30 0.2675
712.40 0.2674
712.50 0.2672
712.60 0.2671
712.70 0.2669
712.80 0.2668
712.90 0.2666
713.00 0.2665
713.10 0.2664
713.20 0.2662
713.30 0.2661
713.40 0.2659
713.50 0.2658
713.60 0.2657
713.70 0.2655
713.80 0.2654
713.90 0.2652
714.00 0.2651
714.10 0.2649
714.20 0.2648
714.30 0.2647
714.40 0.2645
714.50 0.2644
714.60 0.2642
714.70 0.2641
714.80 0.264
714.90 0.2638
715.00 0.2637
715.10 0.2635
715.20 0.2634
715.30 0.2632
715.40 0.2631
715.50 0.263
715.60 0.2628
715.70 0.2627
715.80 0.2625
715.90 0.2624
716.00 0.2623
716.10 0.2621
716.20 0.262
716.30 0.2619
716.40 0.2617
716.50 0.2616
716.60 0.2614
716.70 0.2613
716.80 0.2612
716.90 0.261
717.00 0.2609
717.10 0.2607
717.20 0.2606
717.30 0.2605
717.40 0.2603
717.50 0.2602
717.60 0.26
717.70 0.2599
717.80 0.2598
717.90 0.2596
718.00 0.2595
718.10 0.2594
718.20 0.2592
718.30 0.2591
718.40 0.2589
718.50 0.2588
718.60 0.2587
718.70 0.2585
718.80 0.2584
718.90 0.2583
719.00 0.2581
719.10 0.258
719.20 0.2578
719.30 0.2577
719.40 0.2576
719.50 0.2574
719.60 0.2573
719.70 0.2572
719.80 0.257
719.90 0.2569
720.00 0.2567
720.10 0.2566
720.20 0.2565
720.30 0.2563
720.40 0.2562
720.50 0.2561
720.60 0.2559
720.70 0.2558
720.80 0.2557
720.90 0.2555
721.00 0.2554
721.10 0.2553
721.20 0.2551
721.30 0.255
721.40 0.2549
721.50 0.2547
721.60 0.2546
721.70 0.2544
721.80 0.2543
721.90 0.2542
722.00 0.254
722.10 0.2539
722.20 0.2538
722.30 0.2536
722.40 0.2535
722.50 0.2534
722.60 0.2532
722.70 0.2531
722.80 0.253
722.90 0.2528
723.00 0.2527
723.10 0.2526
723.20 0.2524
723.30 0.2523
723.40 0.2522
723.50 0.252
723.60 0.2519
723.70 0.2518
723.80 0.2516
723.90 0.2515
724.00 0.2514
724.10 0.2512
724.20 0.2511
724.30 0.251
724.40 0.2508
724.50 0.2507
724.60 0.2506
724.70 0.2504
724.80 0.2503
724.90 0.2502
725.00 0.25
725.10 0.2499
725.20 0.2498
725.30 0.2497
725.40 0.2495
725.50 0.2494
725.60 0.2493
725.70 0.2491
725.80 0.249
725.90 0.2489
726.00 0.2487
726.10 0.2486
726.20 0.2485
726.30 0.2483
726.40 0.2482
726.50 0.2481
726.60 0.248
726.70 0.2478
726.80 0.2477
726.90 0.2476
727.00 0.2474
727.10 0.2473
727.20 0.2472
727.30 0.247
727.40 0.2469
727.50 0.2468
727.60 0.2466
727.70 0.2465
727.80 0.2464
727.90 0.2463
728.00 0.2461
728.10 0.246
728.20 0.2459
728.30 0.2457
728.40 0.2456
728.50 0.2455
728.60 0.2454
728.70 0.2452
728.80 0.2451
728.90 0.245
729.00 0.2448
729.10 0.2447
729.20 0.2446
729.30 0.2445
729.40 0.2443
729.50 0.2442
729.60 0.2441
729.70 0.2439
729.80 0.2438
729.90 0.2437
730.00 0.2436
730.10 0.2434
730.20 0.2433
730.30 0.2432
730.40 0.243
730.50 0.2429
730.60 0.2428
730.70 0.2427
730.80 0.2425
730.90 0.2424
731.00 0.2423
731.10 0.2422
731.20 0.242
731.30 0.2419
731.40 0.2418
731.50 0.2417
731.60 0.2415
731.70 0.2414
731.80 0.2413
731.90 0.2412
732.00 0.241
732.10 0.2409
732.20 0.2408
732.30 0.2407
732.40 0.2405
732.50 0.2404
732.60 0.2403
732.70 0.2402
732.80 0.24
732.90 0.2399
733.00 0.2398
733.10 0.2397
733.20 0.2395
733.30 0.2394
733.40 0.2393
733.50 0.2392
733.60 0.239
733.70 0.2389
733.80 0.2388
733.90 0.2387
734.00 0.2385
734.10 0.2384
734.20 0.2383
734.30 0.2382
734.40 0.238
734.50 0.2379
734.60 0.2378
734.70 0.2377
734.80 0.2375
734.90 0.2374
735.00 0.2373
735.10 0.2372
735.20 0.237
735.30 0.2369
735.40 0.2368
735.50 0.2367
735.60 0.2366
735.70 0.2364
735.80 0.2363
735.90 0.2362
736.00 0.2361
736.10 0.2359
736.20 0.2358
736.30 0.2357
736.40 0.2356
736.50 0.2354
736.60 0.2353
736.70 0.2352
736.80 0.2351
736.90 0.235
737.00 0.2348
737.10 0.2347
737.20 0.2346
737.30 0.2345
737.40 0.2343
737.50 0.2342
737.60 0.2341
737.70 0.234
737.80 0.2339
737.90 0.2337
738.00 0.2336
738.10 0.2335
738.20 0.2334
738.30 0.2332
738.40 0.2331
738.50 0.233
738.60 0.2329
738.70 0.2328
738.80 0.2326
738.90 0.2325
739.00 0.2324
739.10 0.2323
739.20 0.2322
739.30 0.232
739.40 0.2319
739.50 0.2318
739.60 0.2317
739.70 0.2315
739.80 0.2314
739.90 0.2313
740.00 0.2312
740.10 0.2311
740.20 0.2309
740.30 0.2308
740.40 0.2307
740.50 0.2306
740.60 0.2305
740.70 0.2304
740.80 0.2302
740.90 0.2301
741.00 0.23
741.10 0.2299
741.20 0.2298
741.30 0.2296
741.40 0.2295
741.50 0.2294
741.60 0.2293
741.70 0.2292
741.80 0.2291
741.90 0.2289
742.00 0.2288
742.10 0.2287
742.20 0.2286
742.30 0.2285
742.40 0.2283
742.50 0.2282
742.60 0.2281
742.70 0.228
742.80 0.2279
742.90 0.2278
743.00 0.2276
743.10 0.2275
743.20 0.2274
743.30 0.2273
743.40 0.2272
743.50 0.2271
743.60 0.2269
743.70 0.2268
743.80 0.2267
743.90 0.2266
744.00 0.2265
744.10 0.2264
744.20 0.2262
744.30 0.2261
744.40 0.226
744.50 0.2259
744.60 0.2258
744.70 0.2257
744.80 0.2255
744.90 0.2254
745.00 0.2253
745.10 0.2252
745.20 0.2251
745.30 0.225
745.40 0.2248
745.50 0.2247
745.60 0.2246
745.70 0.2245
745.80 0.2244
745.90 0.2243
746.00 0.2242
746.10 0.224
746.20 0.2239
746.30 0.2238
746.40 0.2237
746.50 0.2236
746.60 0.2235
746.70 0.2233
746.80 0.2232
746.90 0.2231
747.00 0.223
747.10 0.2229
747.20 0.2228
747.30 0.2227
747.40 0.2225
747.50 0.2224
747.60 0.2223
747.70 0.2222
747.80 0.2221
747.90 0.222
748.00 0.2219
748.10 0.2217
748.20 0.2216
748.30 0.2215
748.40 0.2214
748.50 0.2213
748.60 0.2212
748.70 0.2211
748.80 0.2209
748.90 0.2208
749.00 0.2207
749.10 0.2206
749.20 0.2205
749.30 0.2204
749.40 0.2203
749.50 0.2201
749.60 0.22
749.70 0.2199
749.80 0.2198
749.90 0.2197
750.00 0.2196
750.10 0.2195
750.20 0.2194
750.30 0.2192
750.40 0.2191
750.50 0.219
750.60 0.2189
750.70 0.2188
750.80 0.2187
750.90 0.2186
751.00 0.2185
751.10 0.2184
751.20 0.2182
751.30 0.2181
751.40 0.218
751.50 0.2179
751.60 0.2178
751.70 0.2177
751.80 0.2176
751.90 0.2175
752.00 0.2174
752.10 0.2173
752.20 0.2171
752.30 0.217
752.40 0.2169
752.50 0.2168
752.60 0.2167
752.70 0.2166
752.80 0.2165
752.90 0.2164
753.00 0.2163
753.10 0.2161
753.20 0.216
753.30 0.2159
753.40 0.2158
753.50 0.2157
753.60 0.2156
753.70 0.2155
753.80 0.2154
753.90 0.2153
754.00 0.2152
754.10 0.2151
754.20 0.2149
754.30 0.2148
754.40 0.2147
754.50 0.2146
754.60 0.2145
754.70 0.2144
754.80 0.2143
754.90 0.2142
755.00 0.2141
755.10 0.214
755.20 0.2139
755.30 0.2137
755.40 0.2136
755.50 0.2135
755.60 0.2134
755.70 0.2133
755.80 0.2132
755.90 0.2131
756.00 0.213
756.10 0.2129
756.20 0.2128
756.30 0.2127
756.40 0.2126
756.50 0.2124
756.60 0.2123
756.70 0.2122
756.80 0.2121
756.90 0.212
757.00 0.2119
757.10 0.2118
757.20 0.2117
757.30 0.2116
757.40 0.2115
757.50 0.2114
757.60 0.2113
757.70 0.2112
757.80 0.211
757.90 0.2109
758.00 0.2108
758.10 0.2107
758.20 0.2106
758.30 0.2105
758.40 0.2104
758.50 0.2103
758.60 0.2102
758.70 0.2101
758.80 0.21
758.90 0.2099
759.00 0.2098
759.10 0.2097
759.20 0.2095
759.30 0.2094
759.40 0.2093
759.50 0.2092
759.60 0.2091
759.70 0.209
759.80 0.2089
759.90 0.2088
760.00 0.2087
760.10 0.2086
760.20 0.2085
760.30 0.2084
760.40 0.2083
760.50 0.2082
760.60 0.2081
760.70 0.208
760.80 0.2079
760.90 0.2078
761.00 0.2076
761.10 0.2075
761.20 0.2074
761.30 0.2073
761.40 0.2072
761.50 0.2071
761.60 0.207
761.70 0.2069
761.80 0.2068
761.90 0.2067
762.00 0.2066
762.10 0.2065
762.20 0.2064
762.30 0.2063
762.40 0.2062
762.50 0.2061
762.60 0.206
762.70 0.2059
762.80 0.2058
762.90 0.2057
763.00 0.2056
763.10 0.2055
763.20 0.2054
763.30 0.2053
763.40 0.2052
763.50 0.2051
763.60 0.205
763.70 0.2049
763.80 0.2048
763.90 0.2046
764.00 0.2045
764.10 0.2044
764.20 0.2043
764.30 0.2042
764.40 0.2041
764.50 0.204
764.60 0.2039
764.70 0.2038
764.80 0.2037
764.90 0.2036
765.00 0.2035
765.10 0.2034
765.20 0.2033
765.30 0.2032
765.40 0.2031
765.50 0.203
765.60 0.2029
765.70 0.2028
765.80 0.2027
765.90 0.2026
766.00 0.2025
766.10 0.2024
766.20 0.2023
766.30 0.2022
766.40 0.2021
766.50 0.202
766.60 0.2019
766.70 0.2018
766.80 0.2017
766.90 0.2016
767.00 0.2015
767.10 0.2014
767.20 0.2013
767.30 0.2012
767.40 0.2011
767.50 0.201
767.60 0.2009
767.70 0.2008
767.80 0.2007
767.90 0.2006
768.00 0.2005
768.10 0.2004
768.20 0.2003
768.30 0.2002
768.40 0.2001
768.50 0.2
768.60 0.1999
768.70 0.1998
768.80 0.1997
768.90 0.1996
769.00 0.1995
769.10 0.1994
769.20 0.1993
769.30 0.1992
769.40 0.1991
769.50 0.199
769.60 0.1989
769.70 0.1988
769.80 0.1987
769.90 0.1986
770.00 0.1985
770.10 0.1984
770.20 0.1983
770.30 0.1982
770.40 0.1981
770.50 0.198
770.60 0.1979
770.70 0.1978
770.80 0.1977
770.90 0.1976
771.00 0.1975
771.10 0.1974
771.20 0.1973
771.30 0.1972
771.40 0.1971
771.50 0.197
771.60 0.1969
771.70 0.1968
771.80 0.1967
771.90 0.1966
772.00 0.1965
772.10 0.1964
772.20 0.1963
772.30 0.1962
772.40 0.1961
772.50 0.196
772.60 0.1959
772.70 0.1958
772.80 0.1957
772.90 0.1956
773.00 0.1955
773.10 0.1954
773.20 0.1953
773.30 0.1952
773.40 0.1952
773.50 0.1951
773.60 0.195
773.70 0.1949
773.80 0.1948
773.90 0.1947
774.00 0.1946
774.10 0.1945
774.20 0.1944
774.30 0.1943
774.40 0.1942
774.50 0.1941
774.60 0.194
774.70 0.1939
774.80 0.1938
774.90 0.1937
775.00 0.1936
775.10 0.1935
775.20 0.1934
775.30 0.1933
775.40 0.1932
775.50 0.1931
775.60 0.193
775.70 0.1929
775.80 0.1928
775.90 0.1927
776.00 0.1927
776.10 0.1926
776.20 0.1925
776.30 0.1924
776.40 0.1923
776.50 0.1922
776.60 0.1921
776.70 0.192
776.80 0.1919
776.90 0.1918
777.00 0.1917
777.10 0.1916
777.20 0.1915
777.30 0.1914
777.40 0.1913
777.50 0.1912
777.60 0.1911
777.70 0.191
777.80 0.1909
777.90 0.1908
778.00 0.1907
778.10 0.1907
778.20 0.1906
778.30 0.1905
778.40 0.1904
778.50 0.1903
778.60 0.1902
778.70 0.1901
778.80 0.19
778.90 0.1899
779.00 0.1898
779.10 0.1897
779.20 0.1896
779.30 0.1895
779.40 0.1894
779.50 0.1893
779.60 0.1892
779.70 0.1891
779.80 0.189
779.90 0.189
780.00 0.1889
780.10 0.1888
780.20 0.1887
780.30 0.1886
780.40 0.1885
780.50 0.1884
780.60 0.1883
780.70 0.1882
780.80 0.1881
780.90 0.188
781.00 0.1879
781.10 0.1878
781.20 0.1878
781.30 0.1877
781.40 0.1876
781.50 0.1875
781.60 0.1874
781.70 0.1873
781.80 0.1872
781.90 0.1871
782.00 0.187
782.10 0.1869
782.20 0.1868
782.30 0.1867
782.40 0.1867
782.50 0.1866
782.60 0.1865
782.70 0.1864
782.80 0.1863
782.90 0.1862
783.00 0.1861
783.10 0.186
783.20 0.1859
783.30 0.1858
783.40 0.1857
783.50 0.1857
783.60 0.1856
783.70 0.1855
783.80 0.1854
783.90 0.1853
784.00 0.1852
784.10 0.1851
784.20 0.185
784.30 0.1849
784.40 0.1848
784.50 0.1847
784.60 0.1847
784.70 0.1846
784.80 0.1845
784.90 0.1844
785.00 0.1843
785.10 0.1842
785.20 0.1841
785.30 0.184
785.40 0.1839
785.50 0.1838
785.60 0.1838
785.70 0.1837
785.80 0.1836
785.90 0.1835
786.00 0.1834
786.10 0.1833
786.20 0.1832
786.30 0.1831
786.40 0.183
786.50 0.1829
786.60 0.1829
786.70 0.1828
786.80 0.1827
786.90 0.1826
787.00 0.1825
787.10 0.1824
787.20 0.1823
787.30 0.1822
787.40 0.1821
787.50 0.182
787.60 0.182
787.70 0.1819
787.80 0.1818
787.90 0.1817
788.00 0.1816
788.10 0.1815
788.20 0.1814
788.30 0.1813
788.40 0.1812
788.50 0.1812
788.60 0.1811
788.70 0.181
788.80 0.1809
788.90 0.1808
789.00 0.1807
789.10 0.1806
789.20 0.1805
789.30 0.1804
789.40 0.1804
789.50 0.1803
789.60 0.1802
789.70 0.1801
789.80 0.18
789.90 0.1799
790.00 0.1798
790.10 0.1797
790.20 0.1797
790.30 0.1796
790.40 0.1795
790.50 0.1794
790.60 0.1793
790.70 0.1792
790.80 0.1791
790.90 0.179
791.00 0.179
791.10 0.1789
791.20 0.1788
791.30 0.1787
791.40 0.1786
791.50 0.1785
791.60 0.1784
791.70 0.1784
791.80 0.1783
791.90 0.1782
792.00 0.1781
792.10 0.178
792.20 0.1779
792.30 0.1778
792.40 0.1778
792.50 0.1777
792.60 0.1776
792.70 0.1775
792.80 0.1774
792.90 0.1773
793.00 0.1772
793.10 0.1771
793.20 0.1771
793.30 0.177
793.40 0.1769
793.50 0.1768
793.60 0.1767
793.70 0.1766
793.80 0.1766
793.90 0.1765
794.00 0.1764
794.10 0.1763
794.20 0.1762
794.30 0.1761
794.40 0.176
794.50 0.176
794.60 0.1759
794.70 0.1758
794.80 0.1757
794.90 0.1756
795.00 0.1755
795.10 0.1754
795.20 0.1754
795.30 0.1753
795.40 0.1752
795.50 0.1751
795.60 0.175
795.70 0.1749
795.80 0.1748
795.90 0.1748
796.00 0.1747
796.10 0.1746
796.20 0.1745
796.30 0.1744
796.40 0.1743
796.50 0.1743
796.60 0.1742
796.70 0.1741
796.80 0.174
796.90 0.1739
797.00 0.1738
797.10 0.1738
797.20 0.1737
797.30 0.1736
797.40 0.1735
797.50 0.1734
797.60 0.1733
797.70 0.1732
797.80 0.1732
797.90 0.1731
798.00 0.173
798.10 0.1729
798.20 0.1728
798.30 0.1727
798.40 0.1727
798.50 0.1726
798.60 0.1725
798.70 0.1724
798.80 0.1723
798.90 0.1722
799.00 0.1722
799.10 0.1721
799.20 0.172
799.30 0.1719
799.40 0.1718
799.50 0.1717
799.60 0.1717
799.70 0.1716
799.80 0.1715
799.90 0.1714
800.00 0.1713
800.10 0.1712
800.20 0.1712
800.30 0.1711
800.40 0.171
800.50 0.1709
800.60 0.1708
800.70 0.1708
800.80 0.1707
800.90 0.1706
801.00 0.1705
801.10 0.1704
801.20 0.1703
801.30 0.1703
801.40 0.1702
801.50 0.1701
801.60 0.17
801.70 0.1699
801.80 0.1699
801.90 0.1698
802.00 0.1697
802.10 0.1696
802.20 0.1695
802.30 0.1695
802.40 0.1694
802.50 0.1693
802.60 0.1692
802.70 0.1691
802.80 0.169
802.90 0.169
803.00 0.1689
803.10 0.1688
803.20 0.1687
803.30 0.1686
803.40 0.1686
803.50 0.1685
803.60 0.1684
803.70 0.1683
803.80 0.1682
803.90 0.1682
804.00 0.1681
804.10 0.168
804.20 0.1679
804.30 0.1678
804.40 0.1678
804.50 0.1677
804.60 0.1676
804.70 0.1675
804.80 0.1674
804.90 0.1674
805.00 0.1673
805.10 0.1672
805.20 0.1671
805.30 0.167
805.40 0.167
805.50 0.1669
805.60 0.1668
805.70 0.1667
805.80 0.1666
805.90 0.1666
806.00 0.1665
806.10 0.1664
806.20 0.1663
806.30 0.1662
806.40 0.1662
806.50 0.1661
806.60 0.166
806.70 0.1659
806.80 0.1658
806.90 0.1658
807.00 0.1657
807.10 0.1656
807.20 0.1655
807.30 0.1654
807.40 0.1654
807.50 0.1653
807.60 0.1652
807.70 0.1651
807.80 0.1651
807.90 0.165
808.00 0.1649
808.10 0.1648
808.20 0.1647
808.30 0.1647
808.40 0.1646
808.50 0.1645
808.60 0.1644
808.70 0.1643
808.80 0.1643
808.90 0.1642
809.00 0.1641
809.10 0.164
809.20 0.1639
809.30 0.1639
809.40 0.1638
809.50 0.1637
809.60 0.1636
809.70 0.1636
809.80 0.1635
809.90 0.1634
810.00 0.1633
810.10 0.1632
810.20 0.1632
810.30 0.1631
810.40 0.163
810.50 0.1629
810.60 0.1629
810.70 0.1628
810.80 0.1627
810.90 0.1626
811.00 0.1626
811.10 0.1625
811.20 0.1624
811.30 0.1623
811.40 0.1622
811.50 0.1622
811.60 0.1621
811.70 0.162
811.80 0.1619
811.90 0.1619
812.00 0.1618
812.10 0.1617
812.20 0.1616
812.30 0.1616
812.40 0.1615
812.50 0.1614
812.60 0.1613
812.70 0.1613
812.80 0.1612
812.90 0.1611
813.00 0.161
813.10 0.1609
813.20 0.1609
813.30 0.1608
813.40 0.1607
813.50 0.1606
813.60 0.1606
813.70 0.1605
813.80 0.1604
813.90 0.1603
814.00 0.1603
814.10 0.1602
814.20 0.1601
814.30 0.16
814.40 0.16
814.50 0.1599
814.60 0.1598
814.70 0.1597
814.80 0.1597
814.90 0.1596
815.00 0.1595
815.10 0.1594
815.20 0.1594
815.30 0.1593
815.40 0.1592
815.50 0.1591
815.60 0.1591
815.70 0.159
815.80 0.1589
815.90 0.1588
816.00 0.1588
816.10 0.1587
816.20 0.1586
816.30 0.1585
816.40 0.1585
816.50 0.1584
816.60 0.1583
816.70 0.1582
816.80 0.1582
816.90 0.1581
817.00 0.158
817.10 0.1579
817.20 0.1579
817.30 0.1578
817.40 0.1577
817.50 0.1576
817.60 0.1576
817.70 0.1575
817.80 0.1574
817.90 0.1573
818.00 0.1573
818.10 0.1572
818.20 0.1571
818.30 0.157
818.40 0.157
818.50 0.1569
818.60 0.1568
818.70 0.1567
818.80 0.1567
818.90 0.1566
819.00 0.1565
819.10 0.1564
819.20 0.1564
819.30 0.1563
819.40 0.1562
819.50 0.1561
819.60 0.1561
819.70 0.156
819.80 0.1559
819.90 0.1559
820.00 0.1558
820.10 0.1557
820.20 0.1556
820.30 0.1556
820.40 0.1555
820.50 0.1554
820.60 0.1553
820.70 0.1553
820.80 0.1552
820.90 0.1551
821.00 0.1551
821.10 0.155
821.20 0.1549
821.30 0.1548
821.40 0.1548
821.50 0.1547
821.60 0.1546
821.70 0.1545
821.80 0.1545
821.90 0.1544
822.00 0.1543
822.10 0.1543
822.20 0.1542
822.30 0.1541
822.40 0.154
822.50 0.154
822.60 0.1539
822.70 0.1538
822.80 0.1537
822.90 0.1537
823.00 0.1536
823.10 0.1535
823.20 0.1535
823.30 0.1534
823.40 0.1533
823.50 0.1532
823.60 0.1532
823.70 0.1531
823.80 0.153
823.90 0.153
824.00 0.1529
824.10 0.1528
824.20 0.1527
824.30 0.1527
824.40 0.1526
824.50 0.1525
824.60 0.1525
824.70 0.1524
824.80 0.1523
824.90 0.1522
825.00 0.1522
825.10 0.1521
825.20 0.152
825.30 0.152
825.40 0.1519
825.50 0.1518
825.60 0.1517
825.70 0.1517
825.80 0.1516
825.90 0.1515
826.00 0.1515
826.10 0.1514
826.20 0.1513
826.30 0.1513
826.40 0.1512
826.50 0.1511
826.60 0.151
826.70 0.151
826.80 0.1509
826.90 0.1508
827.00 0.1508
827.10 0.1507
827.20 0.1506
827.30 0.1505
827.40 0.1505
827.50 0.1504
827.60 0.1503
827.70 0.1503
827.80 0.1502
827.90 0.1501
828.00 0.1501
828.10 0.15
828.20 0.1499
828.30 0.1498
828.40 0.1498
828.50 0.1497
828.60 0.1496
828.70 0.1496
828.80 0.1495
828.90 0.1494
829.00 0.1494
829.10 0.1493
829.20 0.1492
829.30 0.1492
829.40 0.1491
829.50 0.149
829.60 0.1489
829.70 0.1489
829.80 0.1488
829.90 0.1487
830.00 0.1487
830.10 0.1486
830.20 0.1485
830.30 0.1485
830.40 0.1484
830.50 0.1483
830.60 0.1483
830.70 0.1482
830.80 0.1481
830.90 0.148
831.00 0.148
831.10 0.1479
831.20 0.1478
831.30 0.1478
831.40 0.1477
831.50 0.1476
831.60 0.1476
831.70 0.1475
831.80 0.1474
831.90 0.1474
832.00 0.1473
832.10 0.1472
832.20 0.1472
832.30 0.1471
832.40 0.147
832.50 0.147
832.60 0.1469
832.70 0.1468
832.80 0.1467
832.90 0.1467
833.00 0.1466
833.10 0.1465
833.20 0.1465
833.30 0.1464
833.40 0.1463
833.50 0.1463
833.60 0.1462
833.70 0.1461
833.80 0.1461
833.90 0.146
834.00 0.1459
834.10 0.1459
834.20 0.1458
834.30 0.1457
834.40 0.1457
834.50 0.1456
834.60 0.1455
834.70 0.1455
834.80 0.1454
834.90 0.1453
835.00 0.1453
835.10 0.1452
835.20 0.1451
835.30 0.1451
835.40 0.145
835.50 0.1449
835.60 0.1449
835.70 0.1448
835.80 0.1447
835.90 0.1447
836.00 0.1446
836.10 0.1445
836.20 0.1445
836.30 0.1444
836.40 0.1443
836.50 0.1442
836.60 0.1442
836.70 0.1441
836.80 0.144
836.90 0.144
837.00 0.1439
837.10 0.1438
837.20 0.1438
837.30 0.1437
837.40 0.1436
837.50 0.1436
837.60 0.1435
837.70 0.1435
837.80 0.1434
837.90 0.1433
838.00 0.1433
838.10 0.1432
838.20 0.1431
838.30 0.1431
838.40 0.143
838.50 0.1429
838.60 0.1429
838.70 0.1428
838.80 0.1427
838.90 0.1427
839.00 0.1426
839.10 0.1425
839.20 0.1425
839.30 0.1424
839.40 0.1423
839.50 0.1423
839.60 0.1422
839.70 0.1421
839.80 0.1421
839.90 0.142
840.00 0.1419
840.10 0.1419
840.20 0.1418
840.30 0.1417
840.40 0.1417
840.50 0.1416
840.60 0.1415
840.70 0.1415
840.80 0.1414
840.90 0.1413
841.00 0.1413
841.10 0.1412
841.20 0.1411
841.30 0.1411
841.40 0.141
841.50 0.141
841.60 0.1409
841.70 0.1408
841.80 0.1408
841.90 0.1407
842.00 0.1406
842.10 0.1406
842.20 0.1405
842.30 0.1404
842.40 0.1404
842.50 0.1403
842.60 0.1402
842.70 0.1402
842.80 0.1401
842.90 0.14
843.00 0.14
843.10 0.1399
843.20 0.1398
843.30 0.1398
843.40 0.1397
843.50 0.1397
843.60 0.1396
843.70 0.1395
843.80 0.1395
843.90 0.1394
844.00 0.1393
844.10 0.1393
844.20 0.1392
844.30 0.1391
844.40 0.1391
844.50 0.139
844.60 0.1389
844.70 0.1389
844.80 0.1388
844.90 0.1388
845.00 0.1387
845.10 0.1386
845.20 0.1386
845.30 0.1385
845.40 0.1384
845.50 0.1384
845.60 0.1383
845.70 0.1382
845.80 0.1382
845.90 0.1381
846.00 0.138
846.10 0.138
846.20 0.1379
846.30 0.1379
846.40 0.1378
846.50 0.1377
846.60 0.1377
846.70 0.1376
846.80 0.1375
846.90 0.1375
847.00 0.1374
847.10 0.1373
847.20 0.1373
847.30 0.1372
847.40 0.1372
847.50 0.1371
847.60 0.137
847.70 0.137
847.80 0.1369
847.90 0.1368
848.00 0.1368
848.10 0.1367
848.20 0.1367
848.30 0.1366
848.40 0.1365
848.50 0.1365
848.60 0.1364
848.70 0.1363
848.80 0.1363
848.90 0.1362
849.00 0.1362
849.10 0.1361
849.20 0.136
849.30 0.136
849.40 0.1359
849.50 0.1358
849.60 0.1358
849.70 0.1357
849.80 0.1357
849.90 0.1356
850.00 0.1355
850.10 0.1355
850.20 0.1354
850.30 0.1353
850.40 0.1353
850.50 0.1352
850.60 0.1352
850.70 0.1351
850.80 0.135
850.90 0.135
851.00 0.1349
851.10 0.1348
851.20 0.1348
851.30 0.1347
851.40 0.1347
851.50 0.1346
851.60 0.1345
851.70 0.1345
851.80 0.1344
851.90 0.1343
852.00 0.1343
852.10 0.1342
852.20 0.1342
852.30 0.1341
852.40 0.134
852.50 0.134
852.60 0.1339
852.70 0.1339
852.80 0.1338
852.90 0.1337
853.00 0.1337
853.10 0.1336
853.20 0.1335
853.30 0.1335
853.40 0.1334
853.50 0.1334
853.60 0.1333
853.70 0.1332
853.80 0.1332
853.90 0.1331
854.00 0.1331
854.10 0.133
854.20 0.1329
854.30 0.1329
854.40 0.1328
854.50 0.1328
854.60 0.1327
854.70 0.1326
854.80 0.1326
854.90 0.1325
855.00 0.1325
855.10 0.1324
855.20 0.1323
855.30 0.1323
855.40 0.1322
855.50 0.1322
855.60 0.1321
855.70 0.132
855.80 0.132
855.90 0.1319
856.00 0.1318
856.10 0.1318
856.20 0.1317
856.30 0.1317
856.40 0.1316
856.50 0.1315
856.60 0.1315
856.70 0.1314
856.80 0.1314
856.90 0.1313
857.00 0.1312
857.10 0.1312
857.20 0.1311
857.30 0.1311
857.40 0.131
857.50 0.131
857.60 0.1309
857.70 0.1308
857.80 0.1308
857.90 0.1307
858.00 0.1307
858.10 0.1306
858.20 0.1306
858.30 0.1305
858.40 0.1304
858.50 0.1304
858.60 0.1303
858.70 0.1303
858.80 0.1302
858.90 0.1302
859.00 0.1301
859.10 0.13
859.20 0.13
859.30 0.1299
859.40 0.1299
859.50 0.1298
859.60 0.1297
859.70 0.1297
859.80 0.1296
859.90 0.1296
860.00 0.1295
860.10 0.1295
860.20 0.1294
860.30 0.1293
860.40 0.1293
860.50 0.1292
860.60 0.1292
860.70 0.1291
860.80 0.1291
860.90 0.129
861.00 0.129
861.10 0.1289
861.20 0.1288
861.30 0.1288
861.40 0.1287
861.50 0.1287
861.60 0.1286
861.70 0.1286
861.80 0.1285
861.90 0.1284
862.00 0.1284
862.10 0.1283
862.20 0.1283
862.30 0.1282
862.40 0.1281
862.50 0.1281
862.60 0.128
862.70 0.128
862.80 0.1279
862.90 0.1279
863.00 0.1278
863.10 0.1277
863.20 0.1277
863.30 0.1276
863.40 0.1276
863.50 0.1275
863.60 0.1275
863.70 0.1274
863.80 0.1273
863.90 0.1273
864.00 0.1272
864.10 0.1272
864.20 0.1271
864.30 0.127
864.40 0.127
864.50 0.1269
864.60 0.1269
864.70 0.1268
864.80 0.1268
864.90 0.1267
865.00 0.1266
865.10 0.1266
865.20 0.1265
865.30 0.1265
865.40 0.1264
865.50 0.1264
865.60 0.1263
865.70 0.1262
865.80 0.1262
865.90 0.1261
866.00 0.1261
866.10 0.126
866.20 0.126
866.30 0.1259
866.40 0.1258
866.50 0.1258
866.60 0.1257
866.70 0.1257
866.80 0.1256
866.90 0.1256
867.00 0.1255
867.10 0.1254
867.20 0.1254
867.30 0.1253
867.40 0.1253
867.50 0.1252
867.60 0.1252
867.70 0.1251
867.80 0.1251
867.90 0.125
868.00 0.1249
868.10 0.1249
868.20 0.1248
868.30 0.1248
868.40 0.1247
868.50 0.1247
868.60 0.1246
868.70 0.1245
868.80 0.1245
868.90 0.1244
869.00 0.1244
869.10 0.1243
869.20 0.1243
869.30 0.1242
869.40 0.1242
869.50 0.1241
869.60 0.1241
869.70 0.124
869.80 0.1239
869.90 0.1239
870.00 0.1238
870.10 0.1238
870.20 0.1237
870.30 0.1237
870.40 0.1236
870.50 0.1236
870.60 0.1235
870.70 0.1234
870.80 0.1234
870.90 0.1233
871.00 0.1233
871.10 0.1232
871.20 0.1232
871.30 0.1231
871.40 0.1231
871.50 0.123
871.60 0.1229
871.70 0.1229
871.80 0.1228
871.90 0.1228
872.00 0.1227
872.10 0.1227
872.20 0.1226
872.30 0.1226
872.40 0.1225
872.50 0.1225
872.60 0.1224
872.70 0.1223
872.80 0.1223
872.90 0.1222
873.00 0.1222
873.10 0.1221
873.20 0.1221
873.30 0.122
873.40 0.122
873.50 0.1219
873.60 0.1219
873.70 0.1218
873.80 0.1217
873.90 0.1217
874.00 0.1216
874.10 0.1216
874.20 0.1215
874.30 0.1215
874.40 0.1214
874.50 0.1214
874.60 0.1213
874.70 0.1213
874.80 0.1212
874.90 0.1211
875.00 0.1211
875.10 0.121
875.20 0.121
875.30 0.1209
875.40 0.1209
875.50 0.1208
875.60 0.1208
875.70 0.1207
875.80 0.1207
875.90 0.1206
876.00 0.1206
876.10 0.1205
876.20 0.1204
876.30 0.1204
876.40 0.1203
876.50 0.1203
876.60 0.1202
876.70 0.1202
876.80 0.1201
876.90 0.1201
877.00 0.12
877.10 0.12
877.20 0.1199
877.30 0.1199
877.40 0.1198
877.50 0.1197
877.60 0.1197
877.70 0.1196
877.80 0.1196
877.90 0.1195
878.00 0.1195
878.10 0.1194
878.20 0.1194
878.30 0.1193
878.40 0.1193
878.50 0.1192
878.60 0.1192
878.70 0.1191
878.80 0.1191
878.90 0.119
879.00 0.119
879.10 0.1189
879.20 0.1189
879.30 0.1188
879.40 0.1187
879.50 0.1187
879.60 0.1186
879.70 0.1186
879.80 0.1185
879.90 0.1185
880.00 0.1184
880.10 0.1184
880.20 0.1183
880.30 0.1183
880.40 0.1182
880.50 0.1182
880.60 0.1181
880.70 0.1181
880.80 0.118
880.90 0.118
881.00 0.1179
881.10 0.1179
881.20 0.1178
881.30 0.1178
881.40 0.1177
881.50 0.1177
881.60 0.1176
881.70 0.1176
881.80 0.1175
881.90 0.1174
882.00 0.1174
882.10 0.1173
882.20 0.1173
882.30 0.1172
882.40 0.1172
882.50 0.1171
882.60 0.1171
882.70 0.117
882.80 0.117
882.90 0.1169
883.00 0.1169
883.10 0.1168
883.20 0.1168
883.30 0.1167
883.40 0.1167
883.50 0.1166
883.60 0.1166
883.70 0.1165
883.80 0.1165
883.90 0.1164
884.00 0.1164
884.10 0.1163
884.20 0.1163
884.30 0.1162
884.40 0.1162
884.50 0.1161
884.60 0.1161
884.70 0.116
884.80 0.116
884.90 0.1159
885.00 0.1159
885.10 0.1158
885.20 0.1158
885.30 0.1157
885.40 0.1156
885.50 0.1156
885.60 0.1155
885.70 0.1155
885.80 0.1154
885.90 0.1154
886.00 0.1153
886.10 0.1153
886.20 0.1152
886.30 0.1152
886.40 0.1151
886.50 0.1151
886.60 0.115
886.70 0.115
886.80 0.1149
886.90 0.1149
887.00 0.1148
887.10 0.1148
887.20 0.1147
887.30 0.1147
887.40 0.1146
887.50 0.1146
887.60 0.1145
887.70 0.1145
887.80 0.1144
887.90 0.1144
888.00 0.1143
888.10 0.1143
888.20 0.1142
888.30 0.1142
888.40 0.1141
888.50 0.1141
888.60 0.114
888.70 0.114
888.80 0.1139
888.90 0.1139
889.00 0.1138
889.10 0.1138
889.20 0.1137
889.30 0.1137
889.40 0.1136
889.50 0.1136
889.60 0.1135
889.70 0.1135
889.80 0.1134
889.90 0.1134
890.00 0.1133
890.10 0.1133
890.20 0.1132
890.30 0.1132
890.40 0.1132
890.50 0.1131
890.60 0.1131
890.70 0.113
890.80 0.113
890.90 0.1129
891.00 0.1129
891.10 0.1128
891.20 0.1128
891.30 0.1127
891.40 0.1127
891.50 0.1126
891.60 0.1126
891.70 0.1125
891.80 0.1125
891.90 0.1124
892.00 0.1124
892.10 0.1123
892.20 0.1123
892.30 0.1122
892.40 0.1122
892.50 0.1121
892.60 0.1121
892.70 0.112
892.80 0.112
892.90 0.1119
893.00 0.1119
893.10 0.1118
893.20 0.1118
893.30 0.1117
893.40 0.1117
893.50 0.1116
893.60 0.1116
893.70 0.1115
893.80 0.1115
893.90 0.1114
894.00 0.1114
894.10 0.1113
894.20 0.1113
894.30 0.1113
894.40 0.1112
894.50 0.1112
894.60 0.1111
894.70 0.1111
894.80 0.111
894.90 0.111
895.00 0.1109
895.10 0.1109
895.20 0.1108
895.30 0.1108
895.40 0.1107
895.50 0.1107
895.60 0.1106
895.70 0.1106
895.80 0.1105
895.90 0.1105
896.00 0.1104
896.10 0.1104
896.20 0.1103
896.30 0.1103
896.40 0.1102
896.50 0.1102
896.60 0.1102
896.70 0.1101
896.80 0.1101
896.90 0.11
897.00 0.11
897.10 0.1099
897.20 0.1099
897.30 0.1098
897.40 0.1098
897.50 0.1097
897.60 0.1097
897.70 0.1096
897.80 0.1096
897.90 0.1095
898.00 0.1095
898.10 0.1094
898.20 0.1094
898.30 0.1093
898.40 0.1093
898.50 0.1093
898.60 0.1092
898.70 0.1092
898.80 0.1091
898.90 0.1091
899.00 0.109
899.10 0.109
899.20 0.1089
899.30 0.1089
899.40 0.1088
899.50 0.1088
899.60 0.1087
899.70 0.1087
899.80 0.1086
899.90 0.1086
900.00 0.1085
900.10 0.1085
900.20 0.1085
900.30 0.1084
900.40 0.1084
900.50 0.1083
900.60 0.1083
900.70 0.1082
900.80 0.1082
900.90 0.1081
901.00 0.1081
901.10 0.108
901.20 0.108
901.30 0.1079
901.40 0.1079
901.50 0.1079
901.60 0.1078
901.70 0.1078
901.80 0.1077
901.90 0.1077
902.00 0.1076
902.10 0.1076
902.20 0.1075
902.30 0.1075
902.40 0.1074
902.50 0.1074
902.60 0.1073
902.70 0.1073
902.80 0.1073
902.90 0.1072
903.00 0.1072
903.10 0.1071
903.20 0.1071
903.30 0.107
903.40 0.107
903.50 0.1069
903.60 0.1069
903.70 0.1068
903.80 0.1068
903.90 0.1068
904.00 0.1067
904.10 0.1067
904.20 0.1066
904.30 0.1066
904.40 0.1065
904.50 0.1065
904.60 0.1064
904.70 0.1064
904.80 0.1063
904.90 0.1063
905.00 0.1063
905.10 0.1062
905.20 0.1062
905.30 0.1061
905.40 0.1061
905.50 0.106
905.60 0.106
905.70 0.1059
905.80 0.1059
905.90 0.1058
906.00 0.1058
906.10 0.1058
906.20 0.1057
906.30 0.1057
906.40 0.1056
906.50 0.1056
906.60 0.1055
906.70 0.1055
906.80 0.1054
906.90 0.1054
907.00 0.1054
907.10 0.1053
907.20 0.1053
907.30 0.1052
907.40 0.1052
907.50 0.1051
907.60 0.1051
907.70 0.105
907.80 0.105
907.90 0.105
908.00 0.1049
908.10 0.1049
908.20 0.1048
908.30 0.1048
908.40 0.1047
908.50 0.1047
908.60 0.1046
908.70 0.1046
908.80 0.1046
908.90 0.1045
909.00 0.1045
909.10 0.1044
909.20 0.1044
909.30 0.1043
909.40 0.1043
909.50 0.1042
909.60 0.1042
909.70 0.1042
909.80 0.1041
909.90 0.1041
910.00 0.104
910.10 0.104
910.20 0.1039
910.30 0.1039
910.40 0.1038
910.50 0.1038
910.60 0.1038
910.70 0.1037
910.80 0.1037
910.90 0.1036
911.00 0.1036
911.10 0.1035
911.20 0.1035
911.30 0.1035
911.40 0.1034
911.50 0.1034
911.60 0.1033
911.70 0.1033
911.80 0.1032
911.90 0.1032
912.00 0.1031
912.10 0.1031
912.20 0.1031
912.30 0.103
912.40 0.103
912.50 0.1029
912.60 0.1029
912.70 0.1028
912.80 0.1028
912.90 0.1028
913.00 0.1027
913.10 0.1027
913.20 0.1026
913.30 0.1026
913.40 0.1025
913.50 0.1025
913.60 0.1025
913.70 0.1024
913.80 0.1024
913.90 0.1023
914.00 0.1023
914.10 0.1022
914.20 0.1022
914.30 0.1022
914.40 0.1021
914.50 0.1021
914.60 0.102
914.70 0.102
914.80 0.1019
914.90 0.1019
915.00 0.1019
915.10 0.1018
915.20 0.1018
915.30 0.1017
915.40 0.1017
915.50 0.1016
915.60 0.1016
915.70 0.1016
915.80 0.1015
915.90 0.1015
916.00 0.1014
916.10 0.1014
916.20 0.1013
916.30 0.1013
916.40 0.1013
916.50 0.1012
916.60 0.1012
916.70 0.1011
916.80 0.1011
916.90 0.101
917.00 0.101
917.10 0.101
917.20 0.1009
917.30 0.1009
917.40 0.1008
917.50 0.1008
917.60 0.1007
917.70 0.1007
917.80 0.1007
917.90 0.1006
918.00 0.1006
918.10 0.1005
918.20 0.1005
918.30 0.1004
918.40 0.1004
918.50 0.1004
918.60 0.1003
918.70 0.1003
918.80 0.1002
918.90 0.1002
919.00 0.1002
919.10 0.1001
919.20 0.1001
919.30 0.1
919.40 0.09999
919.50 0.09994
919.60 0.0999
919.70 0.09986
919.80 0.09982
919.90 0.09978
920.00 0.09974
920.10 0.09969
920.20 0.09965
920.30 0.09961
920.40 0.09957
920.50 0.09953
920.60 0.09949
920.70 0.09944
920.80 0.0994
920.90 0.09936
921.00 0.09932
921.10 0.09928
921.20 0.09924
921.30 0.09919
921.40 0.09915
921.50 0.09911
921.60 0.09907
921.70 0.09903
921.80 0.09899
921.90 0.09895
922.00 0.0989
922.10 0.09886
922.20 0.09882
922.30 0.09878
922.40 0.09874
922.50 0.0987
922.60 0.09866
922.70 0.09862
922.80 0.09858
922.90 0.09854
923.00 0.0985
923.10 0.09846
923.20 0.09842
923.30 0.09838
923.40 0.09834
923.50 0.09829
923.60 0.09825
923.70 0.09821
923.80 0.09817
923.90 0.09813
924.00 0.09809
924.10 0.09805
924.20 0.09801
924.30 0.09797
924.40 0.09793
924.50 0.09789
924.60 0.09785
924.70 0.09781
924.80 0.09777
924.90 0.09773
925.00 0.09769
925.10 0.09765
925.20 0.09761
925.30 0.09757
925.40 0.09753
925.50 0.09749
925.60 0.09745
925.70 0.09741
925.80 0.09737
925.90 0.09733
926.00 0.09729
926.10 0.09725
926.20 0.09721
926.30 0.09717
926.40 0.09713
926.50 0.09709
926.60 0.09705
926.70 0.09701
926.80 0.09697
926.90 0.09693
927.00 0.09689
927.10 0.09685
927.20 0.09681
927.30 0.09677
927.40 0.09673
927.50 0.09669
927.60 0.09665
927.70 0.09661
927.80 0.09657
927.90 0.09653
928.00 0.09649
928.10 0.09645
928.20 0.09641
928.30 0.09637
928.40 0.09633
928.50 0.09629
928.60 0.09625
928.70 0.09622
928.80 0.09618
928.90 0.09614
929.00 0.0961
929.10 0.09606
929.20 0.09602
929.30 0.09598
929.40 0.09594
929.50 0.0959
929.60 0.09586
929.70 0.09582
929.80 0.09578
929.90 0.09574
930.00 0.09571
930.10 0.09567
930.20 0.09563
930.30 0.09559
930.40 0.09555
930.50 0.09551
930.60 0.09547
930.70 0.09543
930.80 0.09539
930.90 0.09535
931.00 0.09531
931.10 0.09528
931.20 0.09524
931.30 0.0952
931.40 0.09516
931.50 0.09512
931.60 0.09508
931.70 0.09504
931.80 0.095
931.90 0.09496
932.00 0.09492
932.10 0.09489
932.20 0.09485
932.30 0.09481
932.40 0.09477
932.50 0.09473
932.60 0.09469
932.70 0.09465
932.80 0.09461
932.90 0.09458
933.00 0.09454
933.10 0.0945
933.20 0.09446
933.30 0.09442
933.40 0.09438
933.50 0.09434
933.60 0.09431
933.70 0.09427
933.80 0.09423
933.90 0.09419
934.00 0.09415
934.10 0.09411
934.20 0.09407
934.30 0.09404
934.40 0.094
934.50 0.09396
934.60 0.09392
934.70 0.09388
934.80 0.09384
934.90 0.0938
935.00 0.09377
935.10 0.09373
935.20 0.09369
935.30 0.09365
935.40 0.09361
935.50 0.09357
935.60 0.09354
935.70 0.0935
935.80 0.09346
935.90 0.09342
936.00 0.09338
936.10 0.09334
936.20 0.09331
936.30 0.09327
936.40 0.09323
936.50 0.09319
936.60 0.09315
936.70 0.09311
936.80 0.09308
936.90 0.09304
937.00 0.093
937.10 0.09296
937.20 0.09292
937.30 0.09289
937.40 0.09285
937.50 0.09281
937.60 0.09277
937.70 0.09273
937.80 0.09269
937.90 0.09266
938.00 0.09262
938.10 0.09258
938.20 0.09254
938.30 0.0925
938.40 0.09247
938.50 0.09243
938.60 0.09239
938.70 0.09235
938.80 0.09231
938.90 0.09228
939.00 0.09224
939.10 0.0922
939.20 0.09216
939.30 0.09212
939.40 0.09209
939.50 0.09205
939.60 0.09201
939.70 0.09197
939.80 0.09193
939.90 0.0919
940.00 0.09186
940.10 0.09182
940.20 0.09178
940.30 0.09175
940.40 0.09171
940.50 0.09167
940.60 0.09163
940.70 0.09159
940.80 0.09156
940.90 0.09152
941.00 0.09148
941.10 0.09144
941.20 0.09141
941.30 0.09137
941.40 0.09133
941.50 0.09129
941.60 0.09126
941.70 0.09122
941.80 0.09118
941.90 0.09114
942.00 0.0911
942.10 0.09107
942.20 0.09103
942.30 0.09099
942.40 0.09095
942.50 0.09092
942.60 0.09088
942.70 0.09084
942.80 0.0908
942.90 0.09077
943.00 0.09073
943.10 0.09069
943.20 0.09065
943.30 0.09062
943.40 0.09058
943.50 0.09054
943.60 0.0905
943.70 0.09047
943.80 0.09043
943.90 0.09039
944.00 0.09035
944.10 0.09032
944.20 0.09028
944.30 0.09024
944.40 0.0902
944.50 0.09017
944.60 0.09013
944.70 0.09009
944.80 0.09006
944.90 0.09002
945.00 0.08998
945.10 0.08994
945.20 0.08991
945.30 0.08987
945.40 0.08983
945.50 0.0898
945.60 0.08976
945.70 0.08972
945.80 0.08968
945.90 0.08965
946.00 0.08961
946.10 0.08957
946.20 0.08954
946.30 0.0895
946.40 0.08946
946.50 0.08942
946.60 0.08939
946.70 0.08935
946.80 0.08931
946.90 0.08928
947.00 0.08924
947.10 0.0892
947.20 0.08916
947.30 0.08913
947.40 0.08909
947.50 0.08905
947.60 0.08902
947.70 0.08898
947.80 0.08894
947.90 0.08891
948.00 0.08887
948.10 0.08883
948.20 0.0888
948.30 0.08876
948.40 0.08872
948.50 0.08869
948.60 0.08865
948.70 0.08861
948.80 0.08858
948.90 0.08854
949.00 0.0885
949.10 0.08847
949.20 0.08843
949.30 0.08839
949.40 0.08836
949.50 0.08832
949.60 0.08828
949.70 0.08825
949.80 0.08821
949.90 0.08817
950.00 0.08814
950.10 0.0881
950.20 0.08806
950.30 0.08803
950.40 0.08799
950.50 0.08796
950.60 0.08792
950.70 0.08788
950.80 0.08785
950.90 0.08781
951.00 0.08777
951.10 0.08774
951.20 0.0877
951.30 0.08766
951.40 0.08763
951.50 0.08759
951.60 0.08756
951.70 0.08752
951.80 0.08748
951.90 0.08745
952.00 0.08741
952.10 0.08738
952.20 0.08734
952.30 0.0873
952.40 0.08727
952.50 0.08723
952.60 0.0872
952.70 0.08716
952.80 0.08713
952.90 0.08709
953.00 0.08706
953.10 0.08702
953.20 0.08698
953.30 0.08695
953.40 0.08691
953.50 0.08688
953.60 0.08684
953.70 0.08681
953.80 0.08677
953.90 0.08674
954.00 0.0867
954.10 0.08667
954.20 0.08663
954.30 0.0866
954.40 0.08657
954.50 0.08653
954.60 0.0865
954.70 0.08646
954.80 0.08643
954.90 0.08639
955.00 0.08636
955.10 0.08633
955.20 0.08629
955.30 0.08626
955.40 0.08623
955.50 0.08619
955.60 0.08616
955.70 0.08613
955.80 0.08609
955.90 0.08606
956.00 0.08603
956.10 0.08599
956.20 0.08596
956.30 0.08593
956.40 0.08589
956.50 0.08586
956.60 0.08583
956.70 0.08579
956.80 0.08576
956.90 0.08573
957.00 0.08569
957.10 0.08566
957.20 0.08563
957.30 0.0856
957.40 0.08556
957.50 0.08553
957.60 0.0855
957.70 0.08547
957.80 0.08543
957.90 0.0854
958.00 0.08537
958.10 0.08534
958.20 0.0853
958.30 0.08527
958.40 0.08524
958.50 0.08521
958.60 0.08517
958.70 0.08514
958.80 0.08511
958.90 0.08508
959.00 0.08504
959.10 0.08501
959.20 0.08498
959.30 0.08495
959.40 0.08492
959.50 0.08488
959.60 0.08485
959.70 0.08482
959.80 0.08479
959.90 0.08475
960.00 0.08472
960.10 0.08469
960.20 0.08466
960.30 0.08463
960.40 0.08459
960.50 0.08456
960.60 0.08453
960.70 0.0845
960.80 0.08447
960.90 0.08443
961.00 0.0844
961.10 0.08437
961.20 0.08434
961.30 0.0843
961.40 0.08427
961.50 0.08424
961.60 0.08421
961.70 0.08418
961.80 0.08414
961.90 0.08411
962.00 0.08408
962.10 0.08405
962.20 0.08402
962.30 0.08398
962.40 0.08395
962.50 0.08392
962.60 0.08389
962.70 0.08386
962.80 0.08382
962.90 0.08379
963.00 0.08376
963.10 0.08373
963.20 0.0837
963.30 0.08367
963.40 0.08363
963.50 0.0836
963.60 0.08357
963.70 0.08354
963.80 0.08351
963.90 0.08347
964.00 0.08344
964.10 0.08341
964.20 0.08338
964.30 0.08335
964.40 0.08331
964.50 0.08328
964.60 0.08325
964.70 0.08322
964.80 0.08319
964.90 0.08316
965.00 0.08312
965.10 0.08309
965.20 0.08306
965.30 0.08303
965.40 0.083
965.50 0.08296
965.60 0.08293
965.70 0.0829
965.80 0.08287
965.90 0.08284
966.00 0.08281
966.10 0.08277
966.20 0.08274
966.30 0.08271
966.40 0.08268
966.50 0.08265
966.60 0.08262
966.70 0.08258
966.80 0.08255
966.90 0.08252
967.00 0.08249
967.10 0.08246
967.20 0.08243
967.30 0.08239
967.40 0.08236
967.50 0.08233
967.60 0.0823
967.70 0.08227
967.80 0.08223
967.90 0.0822
968.00 0.08217
968.10 0.08214
968.20 0.08211
968.30 0.08208
968.40 0.08204
968.50 0.08201
968.60 0.08198
968.70 0.08195
968.80 0.08192
968.90 0.08189
969.00 0.08185
969.10 0.08182
969.20 0.08179
969.30 0.08176
969.40 0.08173
969.50 0.08169
969.60 0.08166
969.70 0.08163
969.80 0.0816
969.90 0.08157
970.00 0.08154
970.10 0.0815
970.20 0.08147
970.30 0.08144
970.40 0.08141
970.50 0.08138
970.60 0.08135
970.70 0.08131
970.80 0.08128
970.90 0.08125
971.00 0.08122
971.10 0.08119
971.20 0.08116
971.30 0.08112
971.40 0.08109
971.50 0.08106
971.60 0.08103
971.70 0.081
971.80 0.08096
971.90 0.08093
972.00 0.0809
972.10 0.08087
972.20 0.08084
972.30 0.08081
972.40 0.08077
972.50 0.08074
972.60 0.08071
972.70 0.08068
972.80 0.08065
972.90 0.08062
973.00 0.08058
973.10 0.08055
973.20 0.08052
973.30 0.08049
973.40 0.08046
973.50 0.08043
973.60 0.08039
973.70 0.08036
973.80 0.08033
973.90 0.0803
974.00 0.08027
974.10 0.08024
974.20 0.0802
974.30 0.08017
974.40 0.08014
974.50 0.08011
974.60 0.08008
974.70 0.08004
974.80 0.08001
974.90 0.07998
975.00 0.07995
975.10 0.07992
975.20 0.07989
975.30 0.07985
975.40 0.07982
975.50 0.07979
975.60 0.07976
975.70 0.07973
975.80 0.07969
975.90 0.07966
976.00 0.07963
976.10 0.0796
976.20 0.07957
976.30 0.07954
976.40 0.0795
976.50 0.07947
976.60 0.07944
976.70 0.07941
976.80 0.07938
976.90 0.07935
977.00 0.07931
977.10 0.07928
977.20 0.07925
977.30 0.07922
977.40 0.07919
977.50 0.07915
977.60 0.07912
977.70 0.07909
977.80 0.07906
977.90 0.07903
978.00 0.07899
978.10 0.07896
978.20 0.07893
978.30 0.0789
978.40 0.07887
978.50 0.07883
978.60 0.0788
978.70 0.07877
978.80 0.07874
978.90 0.07871
979.00 0.07867
979.10 0.07864
979.20 0.07861
979.30 0.07858
979.40 0.07855
979.50 0.07851
979.60 0.07848
979.70 0.07845
979.80 0.07842
979.90 0.07839
980.00 0.07836
980.10 0.07832
980.20 0.07829
980.30 0.07826
980.40 0.07823
980.50 0.0782
980.60 0.07816
980.70 0.07813
980.80 0.0781
980.90 0.07807
981.00 0.07804
981.10 0.07801
981.20 0.07797
981.30 0.07794
981.40 0.07791
981.50 0.07788
981.60 0.07785
981.70 0.07782
981.80 0.07778
981.90 0.07775
982.00 0.07772
982.10 0.07769
982.20 0.07766
982.30 0.07762
982.40 0.07759
982.50 0.07756
982.60 0.07753
982.70 0.0775
982.80 0.07746
982.90 0.07743
983.00 0.0774
983.10 0.07737
983.20 0.07734
983.30 0.0773
983.40 0.07727
983.50 0.07724
983.60 0.07721
983.70 0.07718
983.80 0.07714
983.90 0.07711
984.00 0.07708
984.10 0.07705
984.20 0.07702
984.30 0.07698
984.40 0.07695
984.50 0.07692
984.60 0.07689
984.70 0.07686
984.80 0.07682
984.90 0.07679
985.00 0.07676
985.10 0.07673
985.20 0.0767
985.30 0.07666
985.40 0.07663
985.50 0.0766
985.60 0.07657
985.70 0.07653
985.80 0.0765
985.90 0.07647
986.00 0.07644
986.10 0.07641
986.20 0.07637
986.30 0.07634
986.40 0.07631
986.50 0.07628
986.60 0.07625
986.70 0.07621
986.80 0.07618
986.90 0.07615
987.00 0.07612
987.10 0.07608
987.20 0.07605
987.30 0.07602
987.40 0.07599
987.50 0.07596
987.60 0.07592
987.70 0.07589
987.80 0.07586
987.90 0.07583
988.00 0.07579
988.10 0.07576
988.20 0.07573
988.30 0.0757
988.40 0.07567
988.50 0.07563
988.60 0.0756
988.70 0.07557
988.80 0.07554
988.90 0.0755
989.00 0.07547
989.10 0.07544
989.20 0.07541
989.30 0.07537
989.40 0.07534
989.50 0.07531
989.60 0.07528
989.70 0.07525
989.80 0.07521
989.90 0.07518
990.00 0.07515
990.10 0.07512
990.20 0.07508
990.30 0.07505
990.40 0.07502
990.50 0.07499
990.60 0.07496
990.70 0.07492
990.80 0.07489
990.90 0.07486
991.00 0.07483
991.10 0.07479
991.20 0.07476
991.30 0.07473
991.40 0.0747
991.50 0.07466
991.60 0.07463
991.70 0.0746
991.80 0.07457
991.90 0.07453
992.00 0.0745
992.10 0.07447
992.20 0.07444
992.30 0.0744
992.40 0.07437
992.50 0.07434
992.60 0.07431
992.70 0.07428
992.80 0.07424
992.90 0.07421
993.00 0.07418
993.10 0.07414
993.20 0.07411
993.30 0.07408
993.40 0.07405
993.50 0.07401
993.60 0.07398
993.70 0.07395
993.80 0.07392
993.90 0.07389
994.00 0.07385
994.10 0.07382
994.20 0.07379
994.30 0.07376
994.40 0.07372
994.50 0.07369
994.60 0.07366
994.70 0.07363
994.80 0.07359
994.90 0.07356
995.00 0.07353
995.10 0.0735
995.20 0.07346
995.30 0.07343
995.40 0.0734
995.50 0.07337
995.60 0.07333
995.70 0.0733
995.80 0.07327
995.90 0.07324
996.00 0.0732
996.10 0.07317
996.20 0.07314
996.30 0.07311
996.40 0.07308
996.50 0.07304
996.60 0.07301
996.70 0.07298
996.80 0.07295
996.90 0.07291
997.00 0.07288
997.10 0.07285
997.20 0.07282
997.30 0.07279
997.40 0.07275
997.50 0.07272
997.60 0.07269
997.70 0.07266
997.80 0.07262
997.90 0.07259
998.00 0.07256
998.10 0.07253
998.20 0.0725
998.30 0.07247
998.40 0.07243
998.50 0.0724
998.60 0.07237
998.70 0.07234
998.80 0.07231
998.90 0.07227
999.00 0.07224
999.10 0.07221
999.20 0.07218
999.30 0.07215
999.40 0.07212
999.50 0.07208
999.60 0.07205
999.70 0.07202
999.80 0.07199
999.90 0.07196
1000.00 0.07193
1000.10 0.07189
1000.20 0.07186
1000.30 0.07183
1000.40 0.0718
1000.50 0.07177
1000.60 0.07174
1000.70 0.0717
1000.80 0.07167
1000.90 0.07164
1001.00 0.07161
1001.10 0.07158
1001.20 0.07155
1001.30 0.07152
1001.40 0.07148
1001.50 0.07145
1001.60 0.07142
1001.70 0.07139
1001.80 0.07136
1001.90 0.07133
1002.00 0.0713
1002.10 0.07127
1002.20 0.07124
1002.30 0.07122
1002.40 0.07119
1002.50 0.07116
1002.60 0.07113
1002.70 0.0711
1002.80 0.07107
1002.90 0.07104
1003.00 0.07101
1003.10 0.07098
1003.20 0.07096
1003.30 0.07093
1003.40 0.0709
1003.50 0.07088
1003.60 0.07085
1003.70 0.07082
1003.80 0.0708
1003.90 0.07077
1004.00 0.07074
1004.10 0.07072
1004.20 0.07069
1004.30 0.07067
1004.40 0.07064
1004.50 0.07062
1004.60 0.07059
1004.70 0.07057
1004.80 0.07054
1004.90 0.07052
1005.00 0.07049
1005.10 0.07047
1005.20 0.07044
1005.30 0.07041
1005.40 0.07038
1005.50 0.07035
1005.60 0.07033
1005.70 0.0703
1005.80 0.07027
1005.90 0.07024
1006.00 0.07022
1006.10 0.07019
1006.20 0.07016
1006.30 0.07014
1006.40 0.07011
1006.50 0.07009
1006.60 0.07006
1006.70 0.07004
1006.80 0.07001
1006.90 0.06999
1007.00 0.06996
1007.10 0.06994
1007.20 0.06991
1007.30 0.06989
1007.40 0.06987
1007.50 0.06984
1007.60 0.06982
1007.70 0.06979
1007.80 0.06977
1007.90 0.06975
1008.00 0.06973
1008.10 0.0697
1008.20 0.06968
1008.30 0.06966
1008.40 0.06964
1008.50 0.06961
1008.60 0.06959
1008.70 0.06957
1008.80 0.06955
1008.90 0.06952
1009.00 0.0695
1009.10 0.06948
1009.20 0.06946
1009.30 0.06943
1009.40 0.06941
1009.50 0.06939
1009.60 0.06937
1009.70 0.06934
1009.80 0.06932
1009.90 0.0693
1010.00 0.06928
1010.10 0.06926
1010.20 0.06924
1010.30 0.06922
1010.40 0.06919
1010.50 0.06917
1010.60 0.06915
1010.70 0.06913
1010.80 0.06911
1010.90 0.06909
1011.00 0.06906
1011.10 0.06904
1011.20 0.06902
1011.30 0.069
1011.40 0.06898
1011.50 0.06896
1011.60 0.06894
1011.70 0.06891
1011.80 0.06889
1011.90 0.06887
1012.00 0.06885
1012.10 0.06883
1012.20 0.06881
1012.30 0.06879
1012.40 0.06877
1012.50 0.06874
1012.60 0.06872
1012.70 0.0687
1012.80 0.06868
1012.90 0.06866
1013.00 0.06864
1013.10 0.06862
1013.20 0.0686
1013.30 0.06858
1013.40 0.06855
1013.50 0.06853
1013.60 0.06851
1013.70 0.06849
1013.80 0.06847
1013.90 0.06845
1014.00 0.06843
1014.10 0.06841
1014.20 0.06839
1014.30 0.06836
1014.40 0.06834
1014.50 0.06832
1014.60 0.0683
1014.70 0.06828
1014.80 0.06826
1014.90 0.06824
1015.00 0.06822
1015.10 0.06819
1015.20 0.06817
1015.30 0.06815
1015.40 0.06813
1015.50 0.06811
1015.60 0.06809
1015.70 0.06807
1015.80 0.06805
1015.90 0.06802
1016.00 0.068
1016.10 0.06798
1016.20 0.06796
1016.30 0.06794
1016.40 0.06792
1016.50 0.0679
1016.60 0.06788
1016.70 0.06786
1016.80 0.06783
1016.90 0.06781
1017.00 0.06779
1017.10 0.06777
1017.20 0.06775
1017.30 0.06773
1017.40 0.06771
1017.50 0.06768
1017.60 0.06766
1017.70 0.06764
1017.80 0.06762
1017.90 0.0676
1018.00 0.06758
1018.10 0.06756
1018.20 0.06753
1018.30 0.06751
1018.40 0.06749
1018.50 0.06747
1018.60 0.06745
1018.70 0.06743
1018.80 0.06741
1018.90 0.06738
1019.00 0.06736
1019.10 0.06734
1019.20 0.06732
1019.30 0.0673
1019.40 0.06728
1019.50 0.06725
1019.60 0.06723
1019.70 0.06721
1019.80 0.06719
1019.90 0.06717
1020.00 0.06715
1020.10 0.06712
1020.20 0.0671
1020.30 0.06708
1020.40 0.06706
1020.50 0.06704
1020.60 0.06702
1020.70 0.067
1020.80 0.06697
1020.90 0.06695
1021.00 0.06693
1021.10 0.06691
1021.20 0.06689
1021.30 0.06686
1021.40 0.06684
1021.50 0.06682
1021.60 0.0668
1021.70 0.06678
1021.80 0.06676
1021.90 0.06673
1022.00 0.06671
1022.10 0.06669
1022.20 0.06667
1022.30 0.06665
1022.40 0.06662
1022.50 0.0666
1022.60 0.06658
1022.70 0.06656
1022.80 0.06654
1022.90 0.06651
1023.00 0.06649
1023.10 0.06647
1023.20 0.06645
1023.30 0.06643
1023.40 0.0664
1023.50 0.06638
1023.60 0.06636
1023.70 0.06634
1023.80 0.06632
1023.90 0.06629
1024.00 0.06627
1024.10 0.06625
1024.20 0.06623
1024.30 0.06621
1024.40 0.06618
1024.50 0.06616
1024.60 0.06614
1024.70 0.06612
1024.80 0.0661
1024.90 0.06607
1025.00 0.06605
1025.10 0.06603
1025.20 0.06601
1025.30 0.06598
1025.40 0.06596
1025.50 0.06594
1025.60 0.06592
1025.70 0.0659
1025.80 0.06587
1025.90 0.06585
1026.00 0.06583
1026.10 0.06581
1026.20 0.06579
1026.30 0.06576
1026.40 0.06574
1026.50 0.06572
1026.60 0.0657
1026.70 0.06567
1026.80 0.06565
1026.90 0.06563
1027.00 0.06561
1027.10 0.06559
1027.20 0.06556
1027.30 0.06554
1027.40 0.06552
1027.50 0.06549
1027.60 0.06547
1027.70 0.06545
1027.80 0.06543
1027.90 0.0654
1028.00 0.06538
1028.10 0.06536
1028.20 0.06534
1028.30 0.06531
1028.40 0.06529
1028.50 0.06527
1028.60 0.06525
1028.70 0.06522
1028.80 0.0652
1028.90 0.06518
1029.00 0.06516
1029.10 0.06513
1029.20 0.06511
1029.30 0.06509
1029.40 0.06507
1029.50 0.06504
1029.60 0.06502
1029.70 0.065
1029.80 0.06498
1029.90 0.06495
1030.00 0.06493
1030.10 0.06491
1030.20 0.06489
1030.30 0.06486
1030.40 0.06484
1030.50 0.06482
1030.60 0.0648
1030.70 0.06478
1030.80 0.06475
1030.90 0.06473
1031.00 0.06471
1031.10 0.06469
1031.20 0.06466
1031.30 0.06464
1031.40 0.06462
1031.50 0.0646
1031.60 0.06457
1031.70 0.06455
1031.80 0.06453
1031.90 0.06451
1032.00 0.06448
1032.10 0.06446
1032.20 0.06444
1032.30 0.06442
1032.40 0.06439
1032.50 0.06437
1032.60 0.06435
1032.70 0.06432
1032.80 0.0643
1032.90 0.06428
1033.00 0.06426
1033.10 0.06423
1033.20 0.06421
1033.30 0.06419
1033.40 0.06417
1033.50 0.06414
1033.60 0.06412
1033.70 0.0641
1033.80 0.06407
1033.90 0.06405
1034.00 0.06403
1034.10 0.06401
1034.20 0.06398
1034.30 0.06396
1034.40 0.06394
1034.50 0.06392
1034.60 0.06389
1034.70 0.06387
1034.80 0.06385
1034.90 0.06382
1035.00 0.0638
1035.10 0.06378
1035.20 0.06376
1035.30 0.06373
1035.40 0.06371
1035.50 0.06369
1035.60 0.06367
1035.70 0.06364
1035.80 0.06362
1035.90 0.0636
1036.00 0.06358
1036.10 0.06355
1036.20 0.06353
1036.30 0.06351
1036.40 0.06349
1036.50 0.06346
1036.60 0.06344
1036.70 0.06342
1036.80 0.0634
1036.90 0.06337
1037.00 0.06335
1037.10 0.06333
1037.20 0.0633
1037.30 0.06328
1037.40 0.06326
1037.50 0.06324
1037.60 0.06321
1037.70 0.06319
1037.80 0.06317
1037.90 0.06314
1038.00 0.06312
1038.10 0.0631
1038.20 0.06307
1038.30 0.06305
1038.40 0.06303
1038.50 0.06301
1038.60 0.06298
1038.70 0.06296
1038.80 0.06294
1038.90 0.06291
1039.00 0.06289
1039.10 0.06287
1039.20 0.06285
1039.30 0.06282
1039.40 0.0628
1039.50 0.06278
1039.60 0.06275
1039.70 0.06273
1039.80 0.06271
1039.90 0.06269
1040.00 0.06266
1040.10 0.06264
1040.20 0.06262
1040.30 0.06259
1040.40 0.06257
1040.50 0.06255
1040.60 0.06253
1040.70 0.0625
1040.80 0.06248
1040.90 0.06246
1041.00 0.06243
1041.10 0.06241
1041.20 0.06239
1041.30 0.06237
1041.40 0.06234
1041.50 0.06232
1041.60 0.0623
1041.70 0.06228
1041.80 0.06225
1041.90 0.06223
1042.00 0.06221
1042.10 0.06218
1042.20 0.06216
1042.30 0.06214
1042.40 0.06212
1042.50 0.06209
1042.60 0.06207
1042.70 0.06205
1042.80 0.06202
1042.90 0.062
1043.00 0.06198
1043.10 0.06195
1043.20 0.06193
1043.30 0.06191
1043.40 0.06189
1043.50 0.06186
1043.60 0.06184
1043.70 0.06182
1043.80 0.06179
1043.90 0.06177
1044.00 0.06175
1044.10 0.06172
1044.20 0.0617
1044.30 0.06168
1044.40 0.06166
1044.50 0.06163
1044.60 0.06161
1044.70 0.06159
1044.80 0.06156
1044.90 0.06154
1045.00 0.06152
1045.10 0.0615
1045.20 0.06147
1045.30 0.06145
1045.40 0.06143
1045.50 0.0614
1045.60 0.06138
1045.70 0.06136
1045.80 0.06134
1045.90 0.06131
1046.00 0.06129
1046.10 0.06127
1046.20 0.06124
1046.30 0.06122
1046.40 0.0612
1046.50 0.06118
1046.60 0.06115
1046.70 0.06113
1046.80 0.06111
1046.90 0.06108
1047.00 0.06106
1047.10 0.06104
1047.20 0.06102
1047.30 0.06099
1047.40 0.06097
1047.50 0.06095
1047.60 0.06092
1047.70 0.0609
1047.80 0.06088
1047.90 0.06085
1048.00 0.06083
1048.10 0.06081
1048.20 0.06078
1048.30 0.06076
1048.40 0.06074
1048.50 0.06071
1048.60 0.06069
1048.70 0.06067
1048.80 0.06065
1048.90 0.06062
1049.00 0.0606
1049.10 0.06058
1049.20 0.06055
1049.30 0.06053
1049.40 0.06051
1049.50 0.06048
1049.60 0.06046
1049.70 0.06044
1049.80 0.06041
1049.90 0.06039
1050.00 0.06037
1050.10 0.06035
1050.20 0.06032
1050.30 0.0603
1050.40 0.06028
1050.50 0.06025
1050.60 0.06023
1050.70 0.06021
1050.80 0.06019
1050.90 0.06016
1051.00 0.06014
1051.10 0.06012
1051.20 0.06009
1051.30 0.06007
1051.40 0.06005
1051.50 0.06003
1051.60 0.06
1051.70 0.05998
1051.80 0.05996
1051.90 0.05993
1052.00 0.05991
1052.10 0.05989
1052.20 0.05986
1052.30 0.05984
1052.40 0.05982
1052.50 0.05979
1052.60 0.05977
1052.70 0.05975
1052.80 0.05972
1052.90 0.0597
1053.00 0.05968
1053.10 0.05965
1053.20 0.05963
1053.30 0.05961
1053.40 0.05958
1053.50 0.05956
1053.60 0.05954
1053.70 0.05952
1053.80 0.05949
1053.90 0.05947
1054.00 0.05945
1054.10 0.05942
1054.20 0.0594
1054.30 0.05938
1054.40 0.05935
1054.50 0.05933
1054.60 0.05931
1054.70 0.05928
1054.80 0.05926
1054.90 0.05924
1055.00 0.05921
1055.10 0.05919
1055.20 0.05917
1055.30 0.05914
1055.40 0.05912
1055.50 0.0591
1055.60 0.05908
1055.70 0.05905
1055.80 0.05903
1055.90 0.05901
1056.00 0.05898
1056.10 0.05896
1056.20 0.05894
1056.30 0.05891
1056.40 0.05889
1056.50 0.05887
1056.60 0.05885
1056.70 0.05882
1056.80 0.0588
1056.90 0.05878
1057.00 0.05875
1057.10 0.05873
1057.20 0.05871
1057.30 0.05868
1057.40 0.05866
1057.50 0.05864
1057.60 0.05861
1057.70 0.05859
1057.80 0.05857
1057.90 0.05854
1058.00 0.05852
1058.10 0.05849
1058.20 0.05847
1058.30 0.05845
1058.40 0.05842
1058.50 0.0584
1058.60 0.05838
1058.70 0.05835
1058.80 0.05833
1058.90 0.05831
1059.00 0.05828
1059.10 0.05826
1059.20 0.05824
1059.30 0.05821
1059.40 0.05819
1059.50 0.05817
1059.60 0.05814
1059.70 0.05812
1059.80 0.0581
1059.90 0.05807
1060.00 0.05805
1060.10 0.05803
1060.20 0.058
1060.30 0.05798
1060.40 0.05796
1060.50 0.05793
1060.60 0.05791
1060.70 0.05789
1060.80 0.05786
1060.90 0.05784
1061.00 0.05782
1061.10 0.05779
1061.20 0.05777
1061.30 0.05775
1061.40 0.05772
1061.50 0.0577
1061.60 0.05768
1061.70 0.05765
1061.80 0.05763
1061.90 0.05761
1062.00 0.05758
1062.10 0.05756
1062.20 0.05754
1062.30 0.05751
1062.40 0.05749
1062.50 0.05746
1062.60 0.05744
1062.70 0.05742
1062.80 0.05739
1062.90 0.05737
1063.00 0.05734
1063.10 0.05732
1063.20 0.0573
1063.30 0.05727
1063.40 0.05725
1063.50 0.05722
1063.60 0.0572
1063.70 0.05718
1063.80 0.05715
1063.90 0.05713
1064.00 0.05711
1064.10 0.05708
1064.20 0.05706
1064.30 0.05703
1064.40 0.05701
1064.50 0.05699
1064.60 0.05696
1064.70 0.05694
1064.80 0.05692
1064.90 0.05689
1065.00 0.05687
1065.10 0.05684
1065.20 0.05682
1065.30 0.0568
1065.40 0.05677
1065.50 0.05675
1065.60 0.05673
1065.70 0.0567
1065.80 0.05668
1065.90 0.05665
1066.00 0.05663
1066.10 0.05661
1066.20 0.05658
1066.30 0.05656
1066.40 0.05654
1066.50 0.05651
1066.60 0.05649
1066.70 0.05647
1066.80 0.05644
1066.90 0.05642
1067.00 0.05639
1067.10 0.05637
1067.20 0.05635
1067.30 0.05632
1067.40 0.0563
1067.50 0.05627
1067.60 0.05625
1067.70 0.05622
1067.80 0.0562
1067.90 0.05617
1068.00 0.05615
1068.10 0.05612
1068.20 0.0561
1068.30 0.05608
1068.40 0.05605
1068.50 0.05603
1068.60 0.056
1068.70 0.05598
1068.80 0.05595
1068.90 0.05593
1069.00 0.0559
1069.10 0.05588
1069.20 0.05585
1069.30 0.05583
1069.40 0.05581
1069.50 0.05578
1069.60 0.05576
1069.70 0.05573
1069.80 0.05571
1069.90 0.05568
1070.00 0.05566
1070.10 0.05564
1070.20 0.05561
1070.30 0.05559
1070.40 0.05556
1070.50 0.05554
1070.60 0.05551
1070.70 0.05549
1070.80 0.05547
1070.90 0.05544
1071.00 0.05542
1071.10 0.05539
1071.20 0.05537
1071.30 0.05534
1071.40 0.05532
1071.50 0.0553
1071.60 0.05527
1071.70 0.05525
1071.80 0.05522
1071.90 0.0552
1072.00 0.05517
1072.10 0.05515
1072.20 0.05512
1072.30 0.0551
1072.40 0.05507
1072.50 0.05505
1072.60 0.05502
1072.70 0.055
1072.80 0.05497
1072.90 0.05495
1073.00 0.05492
1073.10 0.0549
1073.20 0.05487
1073.30 0.05485
1073.40 0.05482
1073.50 0.0548
1073.60 0.05477
1073.70 0.05475
1073.80 0.05472
1073.90 0.0547
1074.00 0.05467
1074.10 0.05465
1074.20 0.05462
1074.30 0.0546
1074.40 0.05457
1074.50 0.05454
1074.60 0.05452
1074.70 0.05449
1074.80 0.05447
1074.90 0.05444
1075.00 0.05442
1075.10 0.05439
1075.20 0.05437
1075.30 0.05434
1075.40 0.05432
1075.50 0.05429
1075.60 0.05426
1075.70 0.05424
1075.80 0.05421
1075.90 0.05419
1076.00 0.05416
1076.10 0.05414
1076.20 0.05411
1076.30 0.05409
1076.40 0.05406
1076.50 0.05404
1076.60 0.05401
1076.70 0.05399
1076.80 0.05396
1076.90 0.05393
1077.00 0.05391
1077.10 0.05388
1077.20 0.05386
1077.30 0.05383
1077.40 0.05381
1077.50 0.05378
1077.60 0.05375
1077.70 0.05373
1077.80 0.0537
1077.90 0.05368
1078.00 0.05365
1078.10 0.05362
1078.20 0.0536
1078.30 0.05357
1078.40 0.05354
1078.50 0.05352
1078.60 0.05349
1078.70 0.05347
1078.80 0.05344
1078.90 0.05341
1079.00 0.05339
1079.10 0.05336
1079.20 0.05334
1079.30 0.05331
1079.40 0.05328
1079.50 0.05326
1079.60 0.05323
1079.70 0.0532
1079.80 0.05318
1079.90 0.05315
1080.00 0.05312
1080.10 0.0531
1080.20 0.05307
1080.30 0.05304
1080.40 0.05302
1080.50 0.05299
1080.60 0.05296
1080.70 0.05294
1080.80 0.05291
1080.90 0.05288
1081.00 0.05286
1081.10 0.05283
1081.20 0.0528
1081.30 0.05278
1081.40 0.05275
1081.50 0.05272
1081.60 0.0527
1081.70 0.05267
1081.80 0.05264
1081.90 0.05262
1082.00 0.05259
1082.10 0.05256
1082.20 0.05254
1082.30 0.05251
1082.40 0.05248
1082.50 0.05245
1082.60 0.05243
1082.70 0.0524
1082.80 0.05237
1082.90 0.05234
1083.00 0.05232
1083.10 0.05229
1083.20 0.05226
1083.30 0.05224
1083.40 0.05221
1083.50 0.05218
1083.60 0.05215
1083.70 0.05213
1083.80 0.0521
1083.90 0.05207
1084.00 0.05204
1084.10 0.05202
1084.20 0.05199
1084.30 0.05196
1084.40 0.05193
1084.50 0.05191
1084.60 0.05188
1084.70 0.05185
1084.80 0.05182
1084.90 0.05179
1085.00 0.05177
1085.10 0.05174
1085.20 0.05171
1085.30 0.05168
1085.40 0.05165
1085.50 0.05163
1085.60 0.0516
1085.70 0.05157
1085.80 0.05154
1085.90 0.05151
1086.00 0.05149
1086.10 0.05146
1086.20 0.05143
1086.30 0.0514
1086.40 0.05138
1086.50 0.05135
1086.60 0.05132
1086.70 0.05129
1086.80 0.05126
1086.90 0.05123
1087.00 0.05121
1087.10 0.05118
1087.20 0.05115
1087.30 0.05112
1087.40 0.05109
1087.50 0.05106
1087.60 0.05103
1087.70 0.051
1087.80 0.05098
1087.90 0.05095
1088.00 0.05092
1088.10 0.05089
1088.20 0.05086
1088.30 0.05083
1088.40 0.0508
1088.50 0.05077
1088.60 0.05074
1088.70 0.05071
1088.80 0.05068
1088.90 0.05065
1089.00 0.05062
1089.10 0.0506
1089.20 0.05057
1089.30 0.05054
1089.40 0.05051
1089.50 0.05048
1089.60 0.05045
1089.70 0.05042
1089.80 0.05039
1089.90 0.05036
1090.00 0.05033
1090.10 0.0503
1090.20 0.05027
1090.30 0.05024
1090.40 0.05021
1090.50 0.05018
1090.60 0.05015
1090.70 0.05011
1090.80 0.05008
1090.90 0.05005
1091.00 0.05002
1091.10 0.04999
1091.20 0.04996
1091.30 0.04992
1091.40 0.04989
1091.50 0.04986
1091.60 0.04983
1091.70 0.0498
1091.80 0.04977
1091.90 0.04973
1092.00 0.0497
1092.10 0.04967
1092.20 0.04963
1092.30 0.0496
1092.40 0.04957
1092.50 0.04953
1092.60 0.0495
1092.70 0.04947
1092.80 0.04943
1092.90 0.0494
1093.00 0.04936
1093.10 0.04933
1093.20 0.04929
1093.30 0.04926
1093.40 0.04923
1093.50 0.04919
1093.60 0.04916
1093.70 0.04914
1093.80 0.04912
1093.90 0.04911
1094.00 0.04912
1094.10 0.04912
1094.20 0.04913
1094.30 0.04913
1094.40 0.04913
1094.50 0.04913
1094.60 0.04913
1094.70 0.04913
1094.80 0.04913
1094.90 0.04913
1095.00 0.04913
1095.10 0.04913
1095.20 0.04913
1095.30 0.04913
1095.40 0.04913
1095.50 0.04913
1095.60 0.04913
1095.70 0.04913
1095.80 0.04912
1095.90 0.04912
1096.00 0.04912
1096.10 0.04912
1096.20 0.04912
1096.30 0.04912
1096.40 0.04912
1096.50 0.04912
1096.60 0.04911
1096.70 0.04911
1096.80 0.04911
1096.90 0.0491
1097.00 0.0491
1097.10 0.04909
1097.20 0.04909
1097.30 0.04909
1097.40 0.04908
1097.50 0.04908
1097.60 0.04907
1097.70 0.04907
1097.80 0.04906
1097.90 0.04906
1098.00 0.04905
1098.10 0.04905
1098.20 0.04905
1098.30 0.04904
1098.40 0.04904
1098.50 0.04903
1098.60 0.04903
1098.70 0.04902
1098.80 0.04901
1098.90 0.04901
1099.00 0.049
1099.10 0.049
1099.20 0.04899
1099.30 0.04898
1099.40 0.04898
1099.50 0.04897
1099.60 0.04897
1099.70 0.04896
1099.80 0.04895
1099.90 0.04895
1100.00 0.04894
1100.10 0.04894
1100.20 0.04893
1100.30 0.04892
1100.40 0.04892
1100.50 0.04891
1100.60 0.0489
1100.70 0.0489
1100.80 0.04889
1100.90 0.04888
1101.00 0.04888
1101.10 0.04887
1101.20 0.04886
1101.30 0.04885
1101.40 0.04885
1101.50 0.04884
1101.60 0.04883
1101.70 0.04883
1101.80 0.04882
1101.90 0.04881
1102.00 0.0488
1102.10 0.0488
1102.20 0.04879
1102.30 0.04878
1102.40 0.04877
1102.50 0.04877
1102.60 0.04876
1102.70 0.04875
1102.80 0.04874
1102.90 0.04874
1103.00 0.04873
1103.10 0.04872
1103.20 0.04871
1103.30 0.0487
1103.40 0.0487
1103.50 0.04869
1103.60 0.04868
1103.70 0.04867
1103.80 0.04866
1103.90 0.04865
1104.00 0.04865
1104.10 0.04864
1104.20 0.04863
1104.30 0.04862
1104.40 0.04861
1104.50 0.0486
1104.60 0.0486
1104.70 0.04859
1104.80 0.04858
1104.90 0.04857
1105.00 0.04856
1105.10 0.04855
1105.20 0.04854
1105.30 0.04854
1105.40 0.04853
1105.50 0.04852
1105.60 0.04851
1105.70 0.0485
1105.80 0.04849
1105.90 0.04848
1106.00 0.04847
1106.10 0.04846
1106.20 0.04845
1106.30 0.04845
1106.40 0.04844
1106.50 0.04843
1106.60 0.04842
1106.70 0.04841
1106.80 0.0484
1106.90 0.04839
1107.00 0.04838
1107.10 0.04837
1107.20 0.04836
1107.30 0.04835
1107.40 0.04834
1107.50 0.04833
1107.60 0.04832
1107.70 0.04831
1107.80 0.0483
1107.90 0.04829
1108.00 0.04828
1108.10 0.04827
1108.20 0.04826
1108.30 0.04825
1108.40 0.04824
1108.50 0.04823
1108.60 0.04822
1108.70 0.04821
1108.80 0.0482
1108.90 0.04819
1109.00 0.04818
1109.10 0.04817
1109.20 0.04816
1109.30 0.04815
1109.40 0.04814
1109.50 0.04813
1109.60 0.04812
1109.70 0.04811
1109.80 0.0481
1109.90 0.04809
1110.00 0.04808
1110.10 0.04807
1110.20 0.04806
1110.30 0.04805
1110.40 0.04804
1110.50 0.04803
1110.60 0.04802
1110.70 0.048
1110.80 0.04799
1110.90 0.04798
1111.00 0.04797
1111.10 0.04796
1111.20 0.04795
1111.30 0.04794
1111.40 0.04793
1111.50 0.04792
1111.60 0.04791
1111.70 0.0479
1111.80 0.04789
1111.90 0.04788
1112.00 0.04787
1112.10 0.04785
1112.20 0.04784
1112.30 0.04783
1112.40 0.04782
1112.50 0.04781
1112.60 0.0478
1112.70 0.04779
1112.80 0.04777
1112.90 0.04776
1113.00 0.04775
1113.10 0.04774
1113.20 0.04773
1113.30 0.04772
1113.40 0.04771
1113.50 0.0477
1113.60 0.04768
1113.70 0.04767
1113.80 0.04766
1113.90 0.04765
1114.00 0.04764
1114.10 0.04762
1114.20 0.04761
1114.30 0.0476
1114.40 0.04759
1114.50 0.04758
1114.60 0.04756
1114.70 0.04755
1114.80 0.04754
1114.90 0.04753
1115.00 0.04752
1115.10 0.0475
1115.20 0.04749
1115.30 0.04748
1115.40 0.04747
1115.50 0.04746
1115.60 0.04744
1115.70 0.04743
1115.80 0.04742
1115.90 0.04741
1116.00 0.0474
1116.10 0.04738
1116.20 0.04737
1116.30 0.04736
1116.40 0.04735
1116.50 0.04734
1116.60 0.04732
1116.70 0.04731
1116.80 0.0473
1116.90 0.04729
1117.00 0.04728
1117.10 0.04726
1117.20 0.04725
1117.30 0.04724
1117.40 0.04723
1117.50 0.04721
1117.60 0.0472
1117.70 0.04719
1117.80 0.04717
1117.90 0.04716
1118.00 0.04715
1118.10 0.04713
1118.20 0.04712
1118.30 0.04711
1118.40 0.0471
1118.50 0.04708
1118.60 0.04707
1118.70 0.04706
1118.80 0.04704
1118.90 0.04703
1119.00 0.04702
1119.10 0.04701
1119.20 0.04699
1119.30 0.04698
1119.40 0.04697
1119.50 0.04695
1119.60 0.04694
1119.70 0.04693
1119.80 0.04692
1119.90 0.0469
1120.00 0.04689
1120.10 0.04688
1120.20 0.04687
1120.30 0.04685
1120.40 0.04684
1120.50 0.04683
1120.60 0.04681
1120.70 0.0468
1120.80 0.04679
1120.90 0.04678
1121.00 0.04676
1121.10 0.04675
1121.20 0.04674
1121.30 0.04672
1121.40 0.04671
1121.50 0.0467
1121.60 0.04669
1121.70 0.04667
1121.80 0.04666
1121.90 0.04665
1122.00 0.04664
1122.10 0.04662
1122.20 0.04661
1122.30 0.04659
1122.40 0.04658
1122.50 0.04657
1122.60 0.04655
1122.70 0.04654
1122.80 0.04653
1122.90 0.04651
1123.00 0.0465
1123.10 0.04649
1123.20 0.04647
1123.30 0.04646
1123.40 0.04645
1123.50 0.04643
1123.60 0.04642
1123.70 0.0464
1123.80 0.04639
1123.90 0.04638
1124.00 0.04636
1124.10 0.04635
1124.20 0.04634
1124.30 0.04632
1124.40 0.04631
1124.50 0.0463
1124.60 0.04628
1124.70 0.04627
1124.80 0.04626
1124.90 0.04624
1125.00 0.04623
1125.10 0.04622
1125.20 0.0462
1125.30 0.04619
1125.40 0.04617
1125.50 0.04616
1125.60 0.04615
1125.70 0.04613
1125.80 0.04612
1125.90 0.04611
1126.00 0.04609
1126.10 0.04608
1126.20 0.04607
1126.30 0.04605
1126.40 0.04604
1126.50 0.04603
1126.60 0.04601
1126.70 0.046
1126.80 0.04599
1126.90 0.04597
1127.00 0.04596
1127.10 0.04595
1127.20 0.04593
1127.30 0.04592
1127.40 0.0459
1127.50 0.04589
1127.60 0.04588
1127.70 0.04586
1127.80 0.04585
1127.90 0.04583
1128.00 0.04582
1128.10 0.04581
1128.20 0.04579
1128.30 0.04578
1128.40 0.04576
1128.50 0.04575
1128.60 0.04574
1128.70 0.04572
1128.80 0.04571
1128.90 0.04569
1129.00 0.04568
1129.10 0.04567
1129.20 0.04565
1129.30 0.04564
1129.40 0.04562
1129.50 0.04561
1129.60 0.0456
1129.70 0.04558
1129.80 0.04557
1129.90 0.04555
1130.00 0.04554
1130.10 0.04553
1130.20 0.04551
1130.30 0.0455
1130.40 0.04549
1130.50 0.04547
1130.60 0.04546
1130.70 0.04544
1130.80 0.04543
1130.90 0.04542
1131.00 0.0454
1131.10 0.04539
1131.20 0.04537
1131.30 0.04536
1131.40 0.04535
1131.50 0.04533
1131.60 0.04532
1131.70 0.04531
1131.80 0.04529
1131.90 0.04528
1132.00 0.04526
1132.10 0.04525
1132.20 0.04524
1132.30 0.04522
1132.40 0.04521
1132.50 0.04519
1132.60 0.04518
1132.70 0.04516
1132.80 0.04515
1132.90 0.04514
1133.00 0.04512
1133.10 0.04511
1133.20 0.04509
1133.30 0.04508
1133.40 0.04506
1133.50 0.04505
1133.60 0.04504
1133.70 0.04502
1133.80 0.04501
1133.90 0.04499
1134.00 0.04498
1134.10 0.04497
1134.20 0.04495
1134.30 0.04494
1134.40 0.04492
1134.50 0.04491
1134.60 0.04489
1134.70 0.04488
1134.80 0.04487
1134.90 0.04485
1135.00 0.04484
1135.10 0.04482
1135.20 0.04481
1135.30 0.0448
1135.40 0.04478
1135.50 0.04477
1135.60 0.04475
1135.70 0.04474
1135.80 0.04473
1135.90 0.04471
1136.00 0.0447
1136.10 0.04468
1136.20 0.04467
1136.30 0.04465
1136.40 0.04464
1136.50 0.04463
1136.60 0.04461
1136.70 0.0446
1136.80 0.04458
1136.90 0.04457
1137.00 0.04456
1137.10 0.04454
1137.20 0.04453
1137.30 0.04451
1137.40 0.0445
1137.50 0.04449
1137.60 0.04447
1137.70 0.04446
1137.80 0.04444
1137.90 0.04443
1138.00 0.04441
1138.10 0.0444
1138.20 0.04439
1138.30 0.04437
1138.40 0.04436
1138.50 0.04434
1138.60 0.04433
1138.70 0.04431
1138.80 0.0443
1138.90 0.04429
1139.00 0.04427
1139.10 0.04426
1139.20 0.04424
1139.30 0.04423
1139.40 0.04421
1139.50 0.0442
1139.60 0.04419
1139.70 0.04417
1139.80 0.04416
1139.90 0.04414
1140.00 0.04413
1140.10 0.04412
1140.20 0.0441
1140.30 0.04409
1140.40 0.04407
1140.50 0.04406
1140.60 0.04404
1140.70 0.04403
1140.80 0.04402
1140.90 0.044
1141.00 0.04399
1141.10 0.04397
1141.20 0.04396
1141.30 0.04395
1141.40 0.04393
1141.50 0.04392
1141.60 0.0439
1141.70 0.04389
1141.80 0.04388
1141.90 0.04386
1142.00 0.04385
1142.10 0.04383
1142.20 0.04382
1142.30 0.0438
1142.40 0.04379
1142.50 0.04378
1142.60 0.04376
1142.70 0.04375
1142.80 0.04373
1142.90 0.04372
1143.00 0.0437
1143.10 0.04369
1143.20 0.04368
1143.30 0.04366
1143.40 0.04365
1143.50 0.04363
1143.60 0.04362
1143.70 0.04361
1143.80 0.04359
1143.90 0.04358
1144.00 0.04356
1144.10 0.04355
1144.20 0.04353
1144.30 0.04352
1144.40 0.04351
1144.50 0.04349
1144.60 0.04348
1144.70 0.04346
1144.80 0.04345
1144.90 0.04344
1145.00 0.04342
1145.10 0.04341
1145.20 0.04339
1145.30 0.04338
1145.40 0.04336
1145.50 0.04335
1145.60 0.04334
1145.70 0.04332
1145.80 0.04331
1145.90 0.04329
1146.00 0.04328
1146.10 0.04327
1146.20 0.04325
1146.30 0.04324
1146.40 0.04322
1146.50 0.04321
1146.60 0.0432
1146.70 0.04318
1146.80 0.04317
1146.90 0.04315
1147.00 0.04314
1147.10 0.04313
1147.20 0.04311
1147.30 0.0431
1147.40 0.04308
1147.50 0.04307
1147.60 0.04305
1147.70 0.04304
1147.80 0.04303
1147.90 0.04301
1148.00 0.043
1148.10 0.04298
1148.20 0.04297
1148.30 0.04296
1148.40 0.04294
1148.50 0.04293
1148.60 0.04291
1148.70 0.0429
1148.80 0.04289
1148.90 0.04287
1149.00 0.04286
1149.10 0.04284
1149.20 0.04283
1149.30 0.04281
1149.40 0.0428
1149.50 0.04279
1149.60 0.04277
1149.70 0.04276
1149.80 0.04274
1149.90 0.04273
1150.00 0.04272
1150.10 0.0427
1150.20 0.04269
1150.30 0.04267
1150.40 0.04266
1150.50 0.04265
1150.60 0.04263
1150.70 0.04262
1150.80 0.0426
1150.90 0.04259
1151.00 0.04258
1151.10 0.04256
1151.20 0.04255
1151.30 0.04253
1151.40 0.04252
1151.50 0.04251
1151.60 0.04249
1151.70 0.04248
1151.80 0.04246
1151.90 0.04245
1152.00 0.04244
1152.10 0.04242
1152.20 0.04241
1152.30 0.04239
1152.40 0.04238
1152.50 0.04237
1152.60 0.04235
1152.70 0.04234
1152.80 0.04232
1152.90 0.04231
1153.00 0.0423
1153.10 0.04228
1153.20 0.04227
1153.30 0.04225
1153.40 0.04224
1153.50 0.04223
1153.60 0.04221
1153.70 0.0422
1153.80 0.04218
1153.90 0.04217
1154.00 0.04216
1154.10 0.04214
1154.20 0.04213
1154.30 0.04212
1154.40 0.0421
1154.50 0.04209
1154.60 0.04207
1154.70 0.04206
1154.80 0.04205
1154.90 0.04203
1155.00 0.04202
1155.10 0.042
1155.20 0.04199
1155.30 0.04198
1155.40 0.04196
1155.50 0.04195
1155.60 0.04193
1155.70 0.04192
1155.80 0.04191
1155.90 0.04189
1156.00 0.04188
1156.10 0.04187
1156.20 0.04185
1156.30 0.04184
1156.40 0.04182
1156.50 0.04181
1156.60 0.0418
1156.70 0.04178
1156.80 0.04177
1156.90 0.04176
1157.00 0.04174
1157.10 0.04173
1157.20 0.04171
1157.30 0.0417
1157.40 0.04169
1157.50 0.04167
1157.60 0.04166
1157.70 0.04164
1157.80 0.04163
1157.90 0.04162
1158.00 0.0416
1158.10 0.04159
1158.20 0.04158
1158.30 0.04156
1158.40 0.04155
1158.50 0.04153
1158.60 0.04152
1158.70 0.04151
1158.80 0.04149
1158.90 0.04148
1159.00 0.04147
1159.10 0.04145
1159.20 0.04144
1159.30 0.04142
1159.40 0.04141
1159.50 0.0414
1159.60 0.04138
1159.70 0.04137
1159.80 0.04136
1159.90 0.04134
1160.00 0.04133
1160.10 0.04131
1160.20 0.0413
1160.30 0.04129
1160.40 0.04127
1160.50 0.04126
1160.60 0.04125
1160.70 0.04123
1160.80 0.04122
1160.90 0.04121
1161.00 0.04119
1161.10 0.04118
1161.20 0.04116
1161.30 0.04115
1161.40 0.04114
1161.50 0.04112
1161.60 0.04111
1161.70 0.0411
1161.80 0.04108
1161.90 0.04107
1162.00 0.04106
1162.10 0.04104
1162.20 0.04103
1162.30 0.04101
1162.40 0.041
1162.50 0.04099
1162.60 0.04097
1162.70 0.04096
1162.80 0.04095
1162.90 0.04093
1163.00 0.04092
1163.10 0.04091
1163.20 0.04089
1163.30 0.04088
1163.40 0.04087
1163.50 0.04085
1163.60 0.04084
1163.70 0.04082
1163.80 0.04081
1163.90 0.0408
1164.00 0.04078
1164.10 0.04077
1164.20 0.04076
1164.30 0.04074
1164.40 0.04073
1164.50 0.04072
1164.60 0.0407
1164.70 0.04069
1164.80 0.04068
1164.90 0.04066
1165.00 0.04065
1165.10 0.04064
1165.20 0.04062
1165.30 0.04061
1165.40 0.0406
1165.50 0.04058
1165.60 0.04057
1165.70 0.04055
1165.80 0.04054
1165.90 0.04053
1166.00 0.04051
1166.10 0.0405
1166.20 0.04049
1166.30 0.04047
1166.40 0.04046
1166.50 0.04045
1166.60 0.04043
1166.70 0.04042
1166.80 0.04041
1166.90 0.04039
1167.00 0.04038
1167.10 0.04037
1167.20 0.04035
1167.30 0.04034
1167.40 0.04033
1167.50 0.04031
1167.60 0.0403
1167.70 0.04029
1167.80 0.04027
1167.90 0.04026
1168.00 0.04025
1168.10 0.04023
1168.20 0.04022
1168.30 0.04021
1168.40 0.04019
1168.50 0.04018
1168.60 0.04017
1168.70 0.04015
1168.80 0.04014
1168.90 0.04013
1169.00 0.04011
1169.10 0.0401
1169.20 0.04009
1169.30 0.04007
1169.40 0.04006
1169.50 0.04005
1169.60 0.04003
1169.70 0.04002
1169.80 0.04001
1169.90 0.03999
1170.00 0.03998
1170.10 0.03997
1170.20 0.03995
1170.30 0.03994
1170.40 0.03993
1170.50 0.03991
1170.60 0.0399
1170.70 0.03989
1170.80 0.03987
1170.90 0.03986
1171.00 0.03985
1171.10 0.03983
1171.20 0.03982
1171.30 0.03981
1171.40 0.03979
1171.50 0.03978
1171.60 0.03977
1171.70 0.03975
1171.80 0.03974
1171.90 0.03973
1172.00 0.03972
1172.10 0.0397
1172.20 0.03969
1172.30 0.03968
1172.40 0.03966
1172.50 0.03965
1172.60 0.03964
1172.70 0.03962
1172.80 0.03961
1172.90 0.0396
1173.00 0.03958
1173.10 0.03957
1173.20 0.03956
1173.30 0.03954
1173.40 0.03953
1173.50 0.03952
1173.60 0.0395
1173.70 0.03949
1173.80 0.03948
1173.90 0.03947
1174.00 0.03945
1174.10 0.03944
1174.20 0.03943
1174.30 0.03941
1174.40 0.0394
1174.50 0.03939
1174.60 0.03937
1174.70 0.03936
1174.80 0.03935
1174.90 0.03933
1175.00 0.03932
1175.10 0.03931
1175.20 0.0393
1175.30 0.03928
1175.40 0.03927
1175.50 0.03926
1175.60 0.03924
1175.70 0.03923
1175.80 0.03922
1175.90 0.0392
1176.00 0.03919
1176.10 0.03918
1176.20 0.03916
1176.30 0.03915
1176.40 0.03914
1176.50 0.03913
1176.60 0.03911
1176.70 0.0391
1176.80 0.03909
1176.90 0.03907
1177.00 0.03906
1177.10 0.03905
1177.20 0.03903
1177.30 0.03902
1177.40 0.03901
1177.50 0.039
1177.60 0.03898
1177.70 0.03897
1177.80 0.03896
1177.90 0.03894
1178.00 0.03893
1178.10 0.03892
1178.20 0.03891
1178.30 0.03889
1178.40 0.03888
1178.50 0.03887
1178.60 0.03885
1178.70 0.03884
1178.80 0.03883
1178.90 0.03882
1179.00 0.0388
1179.10 0.03879
1179.20 0.03878
1179.30 0.03876
1179.40 0.03875
1179.50 0.03874
1179.60 0.03873
1179.70 0.03871
1179.80 0.0387
1179.90 0.03869
1180.00 0.03867
1180.10 0.03866
1180.20 0.03865
1180.30 0.03864
1180.40 0.03862
1180.50 0.03861
1180.60 0.0386
1180.70 0.03858
1180.80 0.03857
1180.90 0.03856
1181.00 0.03855
1181.10 0.03853
1181.20 0.03852
1181.30 0.03851
1181.40 0.03849
1181.50 0.03848
1181.60 0.03847
1181.70 0.03846
1181.80 0.03844
1181.90 0.03843
1182.00 0.03842
1182.10 0.0384
1182.20 0.03839
1182.30 0.03838
1182.40 0.03837
1182.50 0.03835
1182.60 0.03834
1182.70 0.03833
1182.80 0.03832
1182.90 0.0383
1183.00 0.03829
1183.10 0.03828
1183.20 0.03826
1183.30 0.03825
1183.40 0.03824
1183.50 0.03823
1183.60 0.03821
1183.70 0.0382
1183.80 0.03819
1183.90 0.03818
1184.00 0.03816
1184.10 0.03815
1184.20 0.03814
1184.30 0.03813
1184.40 0.03811
1184.50 0.0381
1184.60 0.03809
1184.70 0.03807
1184.80 0.03806
1184.90 0.03805
1185.00 0.03804
1185.10 0.03802
1185.20 0.03801
1185.30 0.038
1185.40 0.03799
1185.50 0.03797
1185.60 0.03796
1185.70 0.03795
1185.80 0.03794
1185.90 0.03792
1186.00 0.03791
1186.10 0.0379
1186.20 0.03789
1186.30 0.03787
1186.40 0.03786
1186.50 0.03785
1186.60 0.03784
1186.70 0.03782
1186.80 0.03781
1186.90 0.0378
1187.00 0.03779
1187.10 0.03777
1187.20 0.03776
1187.30 0.03775
1187.40 0.03774
1187.50 0.03772
1187.60 0.03771
1187.70 0.0377
1187.80 0.03769
1187.90 0.03767
1188.00 0.03766
1188.10 0.03765
1188.20 0.03764
1188.30 0.03762
1188.40 0.03761
1188.50 0.0376
1188.60 0.03759
1188.70 0.03757
1188.80 0.03756
1188.90 0.03755
1189.00 0.03754
1189.10 0.03752
1189.20 0.03751
1189.30 0.0375
1189.40 0.03749
1189.50 0.03747
1189.60 0.03746
1189.70 0.03745
1189.80 0.03744
1189.90 0.03742
1190.00 0.03741
1190.10 0.0374
1190.20 0.03739
1190.30 0.03737
1190.40 0.03736
1190.50 0.03735
1190.60 0.03734
1190.70 0.03732
1190.80 0.03731
1190.90 0.0373
1191.00 0.03729
1191.10 0.03728
1191.20 0.03726
1191.30 0.03725
1191.40 0.03724
1191.50 0.03723
1191.60 0.03721
1191.70 0.0372
1191.80 0.03719
1191.90 0.03718
1192.00 0.03716
1192.10 0.03715
1192.20 0.03714
1192.30 0.03713
1192.40 0.03711
1192.50 0.0371
1192.60 0.03709
1192.70 0.03708
1192.80 0.03707
1192.90 0.03705
1193.00 0.03704
1193.10 0.03703
1193.20 0.03702
1193.30 0.037
1193.40 0.03699
1193.50 0.03698
1193.60 0.03697
1193.70 0.03696
1193.80 0.03694
1193.90 0.03693
1194.00 0.03692
1194.10 0.03691
1194.20 0.03689
1194.30 0.03688
1194.40 0.03687
1194.50 0.03686
1194.60 0.03685
1194.70 0.03683
1194.80 0.03682
1194.90 0.03681
1195.00 0.0368
1195.10 0.03678
1195.20 0.03677
1195.30 0.03676
1195.40 0.03675
1195.50 0.03674
1195.60 0.03672
1195.70 0.03671
1195.80 0.0367
1195.90 0.03669
1196.00 0.03667
1196.10 0.03666
1196.20 0.03665
1196.30 0.03664
1196.40 0.03663
1196.50 0.03661
1196.60 0.0366
1196.70 0.03659
1196.80 0.03658
1196.90 0.03656
1197.00 0.03655
1197.10 0.03654
1197.20 0.03653
1197.30 0.03652
1197.40 0.0365
1197.50 0.03649
1197.60 0.03648
1197.70 0.03647
1197.80 0.03646
1197.90 0.03644
1198.00 0.03643
1198.10 0.03642
1198.20 0.03641
1198.30 0.0364
1198.40 0.03638
1198.50 0.03637
1198.60 0.03636
1198.70 0.03635
1198.80 0.03634
1198.90 0.03632
1199.00 0.03631
1199.10 0.0363
1199.20 0.03629
1199.30 0.03627
1199.40 0.03626
1199.50 0.03625
1199.60 0.03624
1199.70 0.03623
1199.80 0.03621
1199.90 0.0362
1200.00 0
