# Version 2.1 - nm, norm@500 to 1, cut digits, bergeron_3750_90.dat_3750
# Wavelength(nm)  Flambda(ergs/cm^s/s/nm)
300.00 0.1858
300.10 0.1861
300.20 0.1865
300.30 0.1868
300.40 0.1872
300.50 0.1875
300.60 0.1878
300.70 0.1882
300.80 0.1885
300.90 0.1889
301.00 0.1892
301.10 0.1895
301.20 0.1899
301.30 0.1902
301.40 0.1905
301.50 0.1909
301.60 0.1912
301.70 0.1916
301.80 0.1919
301.90 0.1922
302.00 0.1926
302.10 0.1929
302.20 0.1933
302.30 0.1936
302.40 0.1939
302.50 0.1943
302.60 0.1946
302.70 0.195
302.80 0.1953
302.90 0.1957
303.00 0.196
303.10 0.1964
303.20 0.1967
303.30 0.197
303.40 0.1974
303.50 0.1977
303.60 0.1981
303.70 0.1984
303.80 0.1988
303.90 0.1991
304.00 0.1994
304.10 0.1998
304.20 0.2001
304.30 0.2005
304.40 0.2008
304.50 0.2012
304.60 0.2015
304.70 0.2019
304.80 0.2023
304.90 0.2026
305.00 0.203
305.10 0.2033
305.20 0.2036
305.30 0.204
305.40 0.2043
305.50 0.2047
305.60 0.205
305.70 0.2054
305.80 0.2057
305.90 0.2061
306.00 0.2064
306.10 0.2068
306.20 0.2071
306.30 0.2075
306.40 0.2079
306.50 0.2082
306.60 0.2086
306.70 0.2089
306.80 0.2093
306.90 0.2096
307.00 0.21
307.10 0.2103
307.20 0.2107
307.30 0.2111
307.40 0.2114
307.50 0.2118
307.60 0.2121
307.70 0.2125
307.80 0.2128
307.90 0.2132
308.00 0.2135
308.10 0.2139
308.20 0.2142
308.30 0.2146
308.40 0.215
308.50 0.2153
308.60 0.2157
308.70 0.2161
308.80 0.2164
308.90 0.2168
309.00 0.2171
309.10 0.2175
309.20 0.2179
309.30 0.2182
309.40 0.2186
309.50 0.2189
309.60 0.2193
309.70 0.2197
309.80 0.22
309.90 0.2204
310.00 0.2207
310.10 0.2211
310.20 0.2215
310.30 0.2218
310.40 0.2222
310.50 0.2226
310.60 0.2229
310.70 0.2233
310.80 0.2237
310.90 0.224
311.00 0.2244
311.10 0.2248
311.20 0.2251
311.30 0.2255
311.40 0.2259
311.50 0.2262
311.60 0.2266
311.70 0.227
311.80 0.2273
311.90 0.2277
312.00 0.228
312.10 0.2284
312.20 0.2288
312.30 0.2291
312.40 0.2295
312.50 0.2299
312.60 0.2303
312.70 0.2306
312.80 0.231
312.90 0.2314
313.00 0.2318
313.10 0.2321
313.20 0.2325
313.30 0.2329
313.40 0.2332
313.50 0.2336
313.60 0.234
313.70 0.2343
313.80 0.2347
313.90 0.2351
314.00 0.2355
314.10 0.2358
314.20 0.2362
314.30 0.2366
314.40 0.237
314.50 0.2373
314.60 0.2377
314.70 0.2381
314.80 0.2385
314.90 0.2389
315.00 0.2392
315.10 0.2396
315.20 0.24
315.30 0.2404
315.40 0.2407
315.50 0.2411
315.60 0.2415
315.70 0.2418
315.80 0.2422
315.90 0.2426
316.00 0.243
316.10 0.2433
316.20 0.2437
316.30 0.2441
316.40 0.2445
316.50 0.2449
316.60 0.2453
316.70 0.2456
316.80 0.246
316.90 0.2464
317.00 0.2468
317.10 0.2472
317.20 0.2475
317.30 0.2479
317.40 0.2483
317.50 0.2487
317.60 0.2491
317.70 0.2494
317.80 0.2498
317.90 0.2502
318.00 0.2506
318.10 0.251
318.20 0.2513
318.30 0.2517
318.40 0.2521
318.50 0.2525
318.60 0.2529
318.70 0.2533
318.80 0.2537
318.90 0.2541
319.00 0.2544
319.10 0.2548
319.20 0.2552
319.30 0.2556
319.40 0.256
319.50 0.2564
319.60 0.2567
319.70 0.2571
319.80 0.2575
319.90 0.2579
320.00 0.2583
320.10 0.2587
320.20 0.2591
320.30 0.2595
320.40 0.2598
320.50 0.2602
320.60 0.2606
320.70 0.261
320.80 0.2614
320.90 0.2618
321.00 0.2622
321.10 0.2626
321.20 0.263
321.30 0.2634
321.40 0.2637
321.50 0.2641
321.60 0.2645
321.70 0.2649
321.80 0.2653
321.90 0.2657
322.00 0.2661
322.10 0.2665
322.20 0.2669
322.30 0.2673
322.40 0.2677
322.50 0.2681
322.60 0.2685
322.70 0.2688
322.80 0.2692
322.90 0.2696
323.00 0.27
323.10 0.2704
323.20 0.2708
323.30 0.2712
323.40 0.2716
323.50 0.272
323.60 0.2724
323.70 0.2728
323.80 0.2732
323.90 0.2736
324.00 0.274
324.10 0.2744
324.20 0.2748
324.30 0.2752
324.40 0.2756
324.50 0.276
324.60 0.2764
324.70 0.2768
324.80 0.2772
324.90 0.2776
325.00 0.278
325.10 0.2784
325.20 0.2788
325.30 0.2792
325.40 0.2796
325.50 0.2799
325.60 0.2803
325.70 0.2807
325.80 0.2811
325.90 0.2815
326.00 0.2819
326.10 0.2823
326.20 0.2827
326.30 0.2831
326.40 0.2835
326.50 0.284
326.60 0.2844
326.70 0.2848
326.80 0.2852
326.90 0.2856
327.00 0.286
327.10 0.2864
327.20 0.2868
327.30 0.2872
327.40 0.2876
327.50 0.288
327.60 0.2884
327.70 0.2888
327.80 0.2892
327.90 0.2896
328.00 0.29
328.10 0.2904
328.20 0.2908
328.30 0.2912
328.40 0.2916
328.50 0.292
328.60 0.2924
328.70 0.2928
328.80 0.2932
328.90 0.2937
329.00 0.2941
329.10 0.2945
329.20 0.2949
329.30 0.2953
329.40 0.2957
329.50 0.2961
329.60 0.2965
329.70 0.2969
329.80 0.2973
329.90 0.2977
330.00 0.2981
330.10 0.2985
330.20 0.2989
330.30 0.2994
330.40 0.2998
330.50 0.3002
330.60 0.3006
330.70 0.301
330.80 0.3014
330.90 0.3018
331.00 0.3022
331.10 0.3026
331.20 0.3031
331.30 0.3035
331.40 0.3039
331.50 0.3043
331.60 0.3047
331.70 0.3051
331.80 0.3055
331.90 0.3059
332.00 0.3063
332.10 0.3067
332.20 0.3071
332.30 0.3076
332.40 0.308
332.50 0.3084
332.60 0.3088
332.70 0.3092
332.80 0.3097
332.90 0.3101
333.00 0.3105
333.10 0.3109
333.20 0.3113
333.30 0.3117
333.40 0.3121
333.50 0.3126
333.60 0.313
333.70 0.3134
333.80 0.3138
333.90 0.3142
334.00 0.3146
334.10 0.315
334.20 0.3155
334.30 0.3159
334.40 0.3163
334.50 0.3167
334.60 0.3171
334.70 0.3176
334.80 0.318
334.90 0.3184
335.00 0.3188
335.10 0.3192
335.20 0.3197
335.30 0.3201
335.40 0.3205
335.50 0.3209
335.60 0.3213
335.70 0.3217
335.80 0.3221
335.90 0.3226
336.00 0.323
336.10 0.3234
336.20 0.3238
336.30 0.3242
336.40 0.3247
336.50 0.3251
336.60 0.3255
336.70 0.3259
336.80 0.3264
336.90 0.3268
337.00 0.3272
337.10 0.3276
337.20 0.328
337.30 0.3285
337.40 0.3289
337.50 0.3293
337.60 0.3297
337.70 0.3301
337.80 0.3306
337.90 0.331
338.00 0.3314
338.10 0.3318
338.20 0.3323
338.30 0.3327
338.40 0.3331
338.50 0.3335
338.60 0.334
338.70 0.3344
338.80 0.3348
338.90 0.3352
339.00 0.3357
339.10 0.3361
339.20 0.3365
339.30 0.3369
339.40 0.3374
339.50 0.3378
339.60 0.3382
339.70 0.3386
339.80 0.339
339.90 0.3395
340.00 0.3399
340.10 0.3403
340.20 0.3408
340.30 0.3412
340.40 0.3416
340.50 0.342
340.60 0.3425
340.70 0.3429
340.80 0.3433
340.90 0.3438
341.00 0.3442
341.10 0.3446
341.20 0.345
341.30 0.3455
341.40 0.3459
341.50 0.3463
341.60 0.3467
341.70 0.3472
341.80 0.3476
341.90 0.348
342.00 0.3484
342.10 0.3489
342.20 0.3493
342.30 0.3497
342.40 0.3502
342.50 0.3506
342.60 0.351
342.70 0.3515
342.80 0.3519
342.90 0.3523
343.00 0.3528
343.10 0.3532
343.20 0.3536
343.30 0.3541
343.40 0.3545
343.50 0.3549
343.60 0.3554
343.70 0.3558
343.80 0.3562
343.90 0.3566
344.00 0.3571
344.10 0.3575
344.20 0.3579
344.30 0.3584
344.40 0.3588
344.50 0.3592
344.60 0.3597
344.70 0.3601
344.80 0.3606
344.90 0.361
345.00 0.3614
345.10 0.3619
345.20 0.3623
345.30 0.3627
345.40 0.3632
345.50 0.3636
345.60 0.364
345.70 0.3644
345.80 0.3649
345.90 0.3653
346.00 0.3657
346.10 0.3662
346.20 0.3666
346.30 0.3671
346.40 0.3675
346.50 0.3679
346.60 0.3684
346.70 0.3688
346.80 0.3692
346.90 0.3697
347.00 0.3701
347.10 0.3706
347.20 0.371
347.30 0.3714
347.40 0.3719
347.50 0.3723
347.60 0.3727
347.70 0.3732
347.80 0.3736
347.90 0.374
348.00 0.3745
348.10 0.3749
348.20 0.3753
348.30 0.3758
348.40 0.3762
348.50 0.3767
348.60 0.3771
348.70 0.3775
348.80 0.378
348.90 0.3784
349.00 0.3789
349.10 0.3793
349.20 0.3797
349.30 0.3802
349.40 0.3806
349.50 0.3811
349.60 0.3815
349.70 0.3819
349.80 0.3824
349.90 0.3828
350.00 0.3832
350.10 0.3837
350.20 0.3841
350.30 0.3846
350.40 0.385
350.50 0.3854
350.60 0.3859
350.70 0.3863
350.80 0.3868
350.90 0.3872
351.00 0.3877
351.10 0.3881
351.20 0.3885
351.30 0.389
351.40 0.3894
351.50 0.3899
351.60 0.3903
351.70 0.3907
351.80 0.3912
351.90 0.3916
352.00 0.392
352.10 0.3925
352.20 0.3929
352.30 0.3934
352.40 0.3938
352.50 0.3943
352.60 0.3947
352.70 0.3952
352.80 0.3956
352.90 0.3961
353.00 0.3965
353.10 0.397
353.20 0.3974
353.30 0.3978
353.40 0.3983
353.50 0.3987
353.60 0.3992
353.70 0.3996
353.80 0.4
353.90 0.4005
354.00 0.4009
354.10 0.4014
354.20 0.4018
354.30 0.4023
354.40 0.4027
354.50 0.4032
354.60 0.4036
354.70 0.4041
354.80 0.4045
354.90 0.405
355.00 0.4054
355.10 0.4058
355.20 0.4063
355.30 0.4067
355.40 0.4072
355.50 0.4076
355.60 0.4081
355.70 0.4085
355.80 0.4089
355.90 0.4094
356.00 0.4098
356.10 0.4103
356.20 0.4107
356.30 0.4112
356.40 0.4116
356.50 0.4121
356.60 0.4125
356.70 0.413
356.80 0.4134
356.90 0.4139
357.00 0.4143
357.10 0.4148
357.20 0.4152
357.30 0.4157
357.40 0.4161
357.50 0.4166
357.60 0.417
357.70 0.4174
357.80 0.4179
357.90 0.4183
358.00 0.4188
358.10 0.4192
358.20 0.4197
358.30 0.4201
358.40 0.4206
358.50 0.421
358.60 0.4215
358.70 0.4219
358.80 0.4224
358.90 0.4228
359.00 0.4233
359.10 0.4237
359.20 0.4242
359.30 0.4246
359.40 0.4251
359.50 0.4255
359.60 0.426
359.70 0.4264
359.80 0.4269
359.90 0.4273
360.00 0.4277
360.10 0.4282
360.20 0.4287
360.30 0.4291
360.40 0.4296
360.50 0.43
360.60 0.4305
360.70 0.4309
360.80 0.4314
360.90 0.4318
361.00 0.4323
361.10 0.4327
361.20 0.4332
361.30 0.4336
361.40 0.4341
361.50 0.4345
361.60 0.435
361.70 0.4354
361.80 0.4359
361.90 0.4363
362.00 0.4368
362.10 0.4372
362.20 0.4377
362.30 0.4381
362.40 0.4386
362.50 0.439
362.60 0.4395
362.70 0.4399
362.80 0.4404
362.90 0.4408
363.00 0.4413
363.10 0.4417
363.20 0.4422
363.30 0.4426
363.40 0.4431
363.50 0.4436
363.60 0.444
363.70 0.4445
363.80 0.4449
363.90 0.4454
364.00 0.4458
364.10 0.4463
364.20 0.4467
364.30 0.4472
364.40 0.4476
364.50 0.4481
364.60 0.4485
364.70 0.449
364.80 0.4494
364.90 0.4499
365.00 0.4504
365.10 0.4508
365.20 0.4513
365.30 0.4517
365.40 0.4522
365.50 0.4526
365.60 0.4531
365.70 0.4535
365.80 0.454
365.90 0.4544
366.00 0.4549
366.10 0.4553
366.20 0.4558
366.30 0.4563
366.40 0.4567
366.50 0.4572
366.60 0.4576
366.70 0.4581
366.80 0.4585
366.90 0.459
367.00 0.4595
367.10 0.4599
367.20 0.4604
367.30 0.4608
367.40 0.4613
367.50 0.4617
367.60 0.4622
367.70 0.4626
367.80 0.4631
367.90 0.4635
368.00 0.464
368.10 0.4644
368.20 0.4649
368.30 0.4654
368.40 0.4658
368.50 0.4663
368.60 0.4667
368.70 0.4672
368.80 0.4676
368.90 0.4681
369.00 0.4686
369.10 0.469
369.20 0.4695
369.30 0.4699
369.40 0.4704
369.50 0.4708
369.60 0.4713
369.70 0.4717
369.80 0.4722
369.90 0.4726
370.00 0.4731
370.10 0.4735
370.20 0.474
370.30 0.4745
370.40 0.4749
370.50 0.4754
370.60 0.4758
370.70 0.4763
370.80 0.4768
370.90 0.4772
371.00 0.4777
371.10 0.4781
371.20 0.4786
371.30 0.479
371.40 0.4795
371.50 0.48
371.60 0.4804
371.70 0.4809
371.80 0.4813
371.90 0.4818
372.00 0.4822
372.10 0.4827
372.20 0.4831
372.30 0.4836
372.40 0.4841
372.50 0.4845
372.60 0.485
372.70 0.4854
372.80 0.4859
372.90 0.4864
373.00 0.4868
373.10 0.4873
373.20 0.4877
373.30 0.4882
373.40 0.4886
373.50 0.4891
373.60 0.4895
373.70 0.49
373.80 0.4905
373.90 0.4909
374.00 0.4914
374.10 0.4918
374.20 0.4923
374.30 0.4927
374.40 0.4932
374.50 0.4937
374.60 0.4941
374.70 0.4946
374.80 0.495
374.90 0.4955
375.00 0.496
375.10 0.4964
375.20 0.4969
375.30 0.4973
375.40 0.4978
375.50 0.4982
375.60 0.4987
375.70 0.4992
375.80 0.4996
375.90 0.5001
376.00 0.5005
376.10 0.501
376.20 0.5014
376.30 0.5019
376.40 0.5024
376.50 0.5028
376.60 0.5033
376.70 0.5037
376.80 0.5042
376.90 0.5046
377.00 0.5051
377.10 0.5056
377.20 0.506
377.30 0.5065
377.40 0.5069
377.50 0.5074
377.60 0.5079
377.70 0.5083
377.80 0.5088
377.90 0.5092
378.00 0.5097
378.10 0.5102
378.20 0.5106
378.30 0.5111
378.40 0.5115
378.50 0.512
378.60 0.5124
378.70 0.5129
378.80 0.5134
378.90 0.5138
379.00 0.5143
379.10 0.5147
379.20 0.5152
379.30 0.5157
379.40 0.5161
379.50 0.5166
379.60 0.517
379.70 0.5175
379.80 0.5179
379.90 0.5184
380.00 0.5189
380.10 0.5193
380.20 0.5198
380.30 0.5202
380.40 0.5207
380.50 0.5212
380.60 0.5216
380.70 0.5221
380.80 0.5225
380.90 0.523
381.00 0.5235
381.10 0.5239
381.20 0.5244
381.30 0.5248
381.40 0.5253
381.50 0.5257
381.60 0.5262
381.70 0.5267
381.80 0.5271
381.90 0.5276
382.00 0.528
382.10 0.5285
382.20 0.529
382.30 0.5294
382.40 0.5299
382.50 0.5303
382.60 0.5308
382.70 0.5313
382.80 0.5317
382.90 0.5322
383.00 0.5326
383.10 0.5331
383.20 0.5335
383.30 0.534
383.40 0.5345
383.50 0.5349
383.60 0.5354
383.70 0.5358
383.80 0.5363
383.90 0.5368
384.00 0.5372
384.10 0.5377
384.20 0.5381
384.30 0.5386
384.40 0.539
384.50 0.5395
384.60 0.54
384.70 0.5404
384.80 0.5409
384.90 0.5413
385.00 0.5418
385.10 0.5423
385.20 0.5427
385.30 0.5432
385.40 0.5436
385.50 0.5441
385.60 0.5445
385.70 0.545
385.80 0.5455
385.90 0.5459
386.00 0.5464
386.10 0.5468
386.20 0.5473
386.30 0.5478
386.40 0.5482
386.50 0.5487
386.60 0.5491
386.70 0.5496
386.80 0.55
386.90 0.5505
387.00 0.551
387.10 0.5514
387.20 0.5519
387.30 0.5523
387.40 0.5528
387.50 0.5533
387.60 0.5537
387.70 0.5542
387.80 0.5546
387.90 0.5551
388.00 0.5556
388.10 0.556
388.20 0.5565
388.30 0.5569
388.40 0.5574
388.50 0.5578
388.60 0.5583
388.70 0.5588
388.80 0.5592
388.90 0.5597
389.00 0.5601
389.10 0.5606
389.20 0.561
389.30 0.5615
389.40 0.562
389.50 0.5624
389.60 0.5629
389.70 0.5633
389.80 0.5638
389.90 0.5643
390.00 0.5647
390.10 0.5652
390.20 0.5656
390.30 0.5661
390.40 0.5665
390.50 0.567
390.60 0.5675
390.70 0.5679
390.80 0.5684
390.90 0.5688
391.00 0.5693
391.10 0.5697
391.20 0.5702
391.30 0.5707
391.40 0.5711
391.50 0.5716
391.60 0.572
391.70 0.5725
391.80 0.5729
391.90 0.5734
392.00 0.5739
392.10 0.5743
392.20 0.5748
392.30 0.5752
392.40 0.5757
392.50 0.5762
392.60 0.5766
392.70 0.5771
392.80 0.5775
392.90 0.578
393.00 0.5784
393.10 0.5789
393.20 0.5793
393.30 0.5798
393.40 0.5803
393.50 0.5807
393.60 0.5812
393.70 0.5816
393.80 0.5821
393.90 0.5825
394.00 0.583
394.10 0.5835
394.20 0.5839
394.30 0.5844
394.40 0.5848
394.50 0.5853
394.60 0.5857
394.70 0.5862
394.80 0.5867
394.90 0.5871
395.00 0.5876
395.10 0.588
395.20 0.5885
395.30 0.5889
395.40 0.5894
395.50 0.5899
395.60 0.5903
395.70 0.5908
395.80 0.5912
395.90 0.5917
396.00 0.5921
396.10 0.5926
396.20 0.593
396.30 0.5935
396.40 0.5939
396.50 0.5944
396.60 0.5949
396.70 0.5953
396.80 0.5958
396.90 0.5962
397.00 0.5967
397.10 0.5971
397.20 0.5976
397.30 0.598
397.40 0.5985
397.50 0.599
397.60 0.5994
397.70 0.5999
397.80 0.6003
397.90 0.6008
398.00 0.6012
398.10 0.6017
398.20 0.6021
398.30 0.6026
398.40 0.6031
398.50 0.6035
398.60 0.604
398.70 0.6044
398.80 0.6049
398.90 0.6053
399.00 0.6058
399.10 0.6062
399.20 0.6067
399.30 0.6071
399.40 0.6076
399.50 0.608
399.60 0.6085
399.70 0.609
399.80 0.6094
399.90 0.6099
400.00 0.6103
400.10 0.6108
400.20 0.6112
400.30 0.6117
400.40 0.6121
400.50 0.6126
400.60 0.613
400.70 0.6135
400.80 0.6139
400.90 0.6144
401.00 0.6148
401.10 0.6153
401.20 0.6158
401.30 0.6162
401.40 0.6167
401.50 0.6171
401.60 0.6176
401.70 0.618
401.80 0.6185
401.90 0.6189
402.00 0.6194
402.10 0.6198
402.20 0.6203
402.30 0.6207
402.40 0.6212
402.50 0.6217
402.60 0.6221
402.70 0.6226
402.80 0.623
402.90 0.6235
403.00 0.6239
403.10 0.6244
403.20 0.6248
403.30 0.6253
403.40 0.6257
403.50 0.6262
403.60 0.6266
403.70 0.6271
403.80 0.6275
403.90 0.628
404.00 0.6284
404.10 0.6289
404.20 0.6293
404.30 0.6298
404.40 0.6302
404.50 0.6307
404.60 0.6311
404.70 0.6316
404.80 0.632
404.90 0.6325
405.00 0.6329
405.10 0.6334
405.20 0.6338
405.30 0.6343
405.40 0.6347
405.50 0.6352
405.60 0.6356
405.70 0.6361
405.80 0.6365
405.90 0.637
406.00 0.6374
406.10 0.6379
406.20 0.6383
406.30 0.6388
406.40 0.6392
406.50 0.6397
406.60 0.6401
406.70 0.6406
406.80 0.641
406.90 0.6415
407.00 0.6419
407.10 0.6424
407.20 0.6428
407.30 0.6433
407.40 0.6437
407.50 0.6442
407.60 0.6446
407.70 0.6451
407.80 0.6455
407.90 0.646
408.00 0.6464
408.10 0.6469
408.20 0.6473
408.30 0.6478
408.40 0.6482
408.50 0.6487
408.60 0.6491
408.70 0.6496
408.80 0.65
408.90 0.6505
409.00 0.6509
409.10 0.6514
409.20 0.6518
409.30 0.6522
409.40 0.6527
409.50 0.6531
409.60 0.6536
409.70 0.654
409.80 0.6545
409.90 0.6549
410.00 0.6554
410.10 0.6558
410.20 0.6563
410.30 0.6567
410.40 0.6572
410.50 0.6576
410.60 0.658
410.70 0.6585
410.80 0.659
410.90 0.6594
411.00 0.6598
411.10 0.6603
411.20 0.6607
411.30 0.6612
411.40 0.6616
411.50 0.6621
411.60 0.6625
411.70 0.663
411.80 0.6634
411.90 0.6638
412.00 0.6643
412.10 0.6647
412.20 0.6652
412.30 0.6656
412.40 0.6661
412.50 0.6665
412.60 0.667
412.70 0.6674
412.80 0.6678
412.90 0.6683
413.00 0.6687
413.10 0.6692
413.20 0.6696
413.30 0.6701
413.40 0.6705
413.50 0.671
413.60 0.6714
413.70 0.6719
413.80 0.6723
413.90 0.6727
414.00 0.6732
414.10 0.6736
414.20 0.6741
414.30 0.6745
414.40 0.6749
414.50 0.6754
414.60 0.6758
414.70 0.6763
414.80 0.6767
414.90 0.6772
415.00 0.6776
415.10 0.6781
415.20 0.6785
415.30 0.6789
415.40 0.6794
415.50 0.6798
415.60 0.6803
415.70 0.6807
415.80 0.6811
415.90 0.6816
416.00 0.682
416.10 0.6825
416.20 0.6829
416.30 0.6833
416.40 0.6838
416.50 0.6842
416.60 0.6847
416.70 0.6851
416.80 0.6855
416.90 0.686
417.00 0.6864
417.10 0.6869
417.20 0.6873
417.30 0.6878
417.40 0.6882
417.50 0.6886
417.60 0.6891
417.70 0.6895
417.80 0.69
417.90 0.6904
418.00 0.6908
418.10 0.6913
418.20 0.6917
418.30 0.6922
418.40 0.6926
418.50 0.693
418.60 0.6935
418.70 0.6939
418.80 0.6943
418.90 0.6948
419.00 0.6952
419.10 0.6957
419.20 0.6961
419.30 0.6965
419.40 0.697
419.50 0.6974
419.60 0.6979
419.70 0.6983
419.80 0.6987
419.90 0.6992
420.00 0.6996
420.10 0.7
420.20 0.7005
420.30 0.7009
420.40 0.7013
420.50 0.7018
420.60 0.7022
420.70 0.7027
420.80 0.7031
420.90 0.7035
421.00 0.704
421.10 0.7044
421.20 0.7048
421.30 0.7053
421.40 0.7057
421.50 0.7061
421.60 0.7066
421.70 0.707
421.80 0.7075
421.90 0.7079
422.00 0.7083
422.10 0.7088
422.20 0.7092
422.30 0.7096
422.40 0.7101
422.50 0.7105
422.60 0.7109
422.70 0.7114
422.80 0.7118
422.90 0.7122
423.00 0.7127
423.10 0.7131
423.20 0.7135
423.30 0.714
423.40 0.7144
423.50 0.7148
423.60 0.7153
423.70 0.7157
423.80 0.7161
423.90 0.7166
424.00 0.717
424.10 0.7174
424.20 0.7179
424.30 0.7183
424.40 0.7187
424.50 0.7192
424.60 0.7196
424.70 0.72
424.80 0.7205
424.90 0.7209
425.00 0.7213
425.10 0.7218
425.20 0.7222
425.30 0.7226
425.40 0.7231
425.50 0.7235
425.60 0.7239
425.70 0.7243
425.80 0.7248
425.90 0.7252
426.00 0.7256
426.10 0.7261
426.20 0.7265
426.30 0.7269
426.40 0.7274
426.50 0.7278
426.60 0.7282
426.70 0.7286
426.80 0.7291
426.90 0.7295
427.00 0.7299
427.10 0.7304
427.20 0.7308
427.30 0.7312
427.40 0.7316
427.50 0.7321
427.60 0.7325
427.70 0.7329
427.80 0.7334
427.90 0.7338
428.00 0.7342
428.10 0.7347
428.20 0.7351
428.30 0.7355
428.40 0.7359
428.50 0.7364
428.60 0.7368
428.70 0.7372
428.80 0.7376
428.90 0.7381
429.00 0.7385
429.10 0.7389
429.20 0.7393
429.30 0.7398
429.40 0.7402
429.50 0.7406
429.60 0.7411
429.70 0.7415
429.80 0.7419
429.90 0.7423
430.00 0.7428
430.10 0.7432
430.20 0.7436
430.30 0.744
430.40 0.7445
430.50 0.7449
430.60 0.7453
430.70 0.7457
430.80 0.7462
430.90 0.7466
431.00 0.747
431.10 0.7474
431.20 0.7478
431.30 0.7483
431.40 0.7487
431.50 0.7491
431.60 0.7495
431.70 0.75
431.80 0.7504
431.90 0.7508
432.00 0.7512
432.10 0.7517
432.20 0.7521
432.30 0.7525
432.40 0.7529
432.50 0.7534
432.60 0.7538
432.70 0.7542
432.80 0.7546
432.90 0.755
433.00 0.7555
433.10 0.7559
433.20 0.7563
433.30 0.7567
433.40 0.7571
433.50 0.7576
433.60 0.758
433.70 0.7584
433.80 0.7588
433.90 0.7592
434.00 0.7597
434.10 0.7601
434.20 0.7605
434.30 0.7609
434.40 0.7614
434.50 0.7618
434.60 0.7622
434.70 0.7626
434.80 0.763
434.90 0.7634
435.00 0.7639
435.10 0.7643
435.20 0.7647
435.30 0.7651
435.40 0.7655
435.50 0.7659
435.60 0.7664
435.70 0.7668
435.80 0.7672
435.90 0.7676
436.00 0.768
436.10 0.7685
436.20 0.7689
436.30 0.7693
436.40 0.7697
436.50 0.7701
436.60 0.7705
436.70 0.771
436.80 0.7714
436.90 0.7718
437.00 0.7722
437.10 0.7726
437.20 0.773
437.30 0.7734
437.40 0.7739
437.50 0.7743
437.60 0.7747
437.70 0.7751
437.80 0.7755
437.90 0.7759
438.00 0.7764
438.10 0.7768
438.20 0.7772
438.30 0.7776
438.40 0.778
438.50 0.7784
438.60 0.7788
438.70 0.7793
438.80 0.7797
438.90 0.7801
439.00 0.7805
439.10 0.7809
439.20 0.7813
439.30 0.7817
439.40 0.7821
439.50 0.7826
439.60 0.783
439.70 0.7834
439.80 0.7838
439.90 0.7842
440.00 0.7846
440.10 0.785
440.20 0.7854
440.30 0.7858
440.40 0.7863
440.50 0.7867
440.60 0.7871
440.70 0.7875
440.80 0.7879
440.90 0.7883
441.00 0.7887
441.10 0.7891
441.20 0.7895
441.30 0.79
441.40 0.7904
441.50 0.7908
441.60 0.7912
441.70 0.7916
441.80 0.792
441.90 0.7924
442.00 0.7928
442.10 0.7932
442.20 0.7936
442.30 0.794
442.40 0.7944
442.50 0.7949
442.60 0.7953
442.70 0.7957
442.80 0.7961
442.90 0.7965
443.00 0.7969
443.10 0.7973
443.20 0.7977
443.30 0.7981
443.40 0.7985
443.50 0.7989
443.60 0.7993
443.70 0.7997
443.80 0.8001
443.90 0.8005
444.00 0.801
444.10 0.8014
444.20 0.8018
444.30 0.8022
444.40 0.8026
444.50 0.803
444.60 0.8034
444.70 0.8038
444.80 0.8042
444.90 0.8046
445.00 0.805
445.10 0.8054
445.20 0.8058
445.30 0.8062
445.40 0.8066
445.50 0.807
445.60 0.8074
445.70 0.8078
445.80 0.8082
445.90 0.8086
446.00 0.809
446.10 0.8094
446.20 0.8098
446.30 0.8102
446.40 0.8106
446.50 0.811
446.60 0.8114
446.70 0.8118
446.80 0.8122
446.90 0.8126
447.00 0.813
447.10 0.8134
447.20 0.8138
447.30 0.8142
447.40 0.8146
447.50 0.815
447.60 0.8154
447.70 0.8158
447.80 0.8162
447.90 0.8166
448.00 0.817
448.10 0.8174
448.20 0.8178
448.30 0.8182
448.40 0.8186
448.50 0.819
448.60 0.8194
448.70 0.8198
448.80 0.8202
448.90 0.8206
449.00 0.821
449.10 0.8214
449.20 0.8218
449.30 0.8222
449.40 0.8226
449.50 0.823
449.60 0.8234
449.70 0.8238
449.80 0.8242
449.90 0.8246
450.00 0.825
450.10 0.8254
450.20 0.8258
450.30 0.8262
450.40 0.8266
450.50 0.827
450.60 0.8274
450.70 0.8278
450.80 0.8282
450.90 0.8286
451.00 0.8289
451.10 0.8293
451.20 0.8297
451.30 0.8301
451.40 0.8305
451.50 0.8309
451.60 0.8313
451.70 0.8317
451.80 0.8321
451.90 0.8325
452.00 0.8329
452.10 0.8333
452.20 0.8337
452.30 0.8341
452.40 0.8344
452.50 0.8348
452.60 0.8352
452.70 0.8356
452.80 0.836
452.90 0.8364
453.00 0.8368
453.10 0.8372
453.20 0.8376
453.30 0.838
453.40 0.8384
453.50 0.8387
453.60 0.8391
453.70 0.8395
453.80 0.8399
453.90 0.8403
454.00 0.8407
454.10 0.8411
454.20 0.8415
454.30 0.8419
454.40 0.8423
454.50 0.8426
454.60 0.843
454.70 0.8434
454.80 0.8438
454.90 0.8442
455.00 0.8446
455.10 0.845
455.20 0.8454
455.30 0.8457
455.40 0.8461
455.50 0.8465
455.60 0.8469
455.70 0.8473
455.80 0.8477
455.90 0.8481
456.00 0.8484
456.10 0.8488
456.20 0.8492
456.30 0.8496
456.40 0.85
456.50 0.8504
456.60 0.8508
456.70 0.8511
456.80 0.8515
456.90 0.8519
457.00 0.8523
457.10 0.8527
457.20 0.8531
457.30 0.8534
457.40 0.8538
457.50 0.8542
457.60 0.8546
457.70 0.855
457.80 0.8554
457.90 0.8557
458.00 0.8561
458.10 0.8565
458.20 0.8569
458.30 0.8573
458.40 0.8577
458.50 0.858
458.60 0.8584
458.70 0.8588
458.80 0.8592
458.90 0.8596
459.00 0.8599
459.10 0.8603
459.20 0.8607
459.30 0.8611
459.40 0.8615
459.50 0.8618
459.60 0.8622
459.70 0.8626
459.80 0.863
459.90 0.8633
460.00 0.8637
460.10 0.8641
460.20 0.8645
460.30 0.8649
460.40 0.8652
460.50 0.8656
460.60 0.866
460.70 0.8664
460.80 0.8668
460.90 0.8671
461.00 0.8675
461.10 0.8679
461.20 0.8683
461.30 0.8686
461.40 0.869
461.50 0.8694
461.60 0.8698
461.70 0.8701
461.80 0.8705
461.90 0.8709
462.00 0.8713
462.10 0.8716
462.20 0.872
462.30 0.8724
462.40 0.8728
462.50 0.8731
462.60 0.8735
462.70 0.8739
462.80 0.8743
462.90 0.8746
463.00 0.875
463.10 0.8754
463.20 0.8758
463.30 0.8761
463.40 0.8765
463.50 0.8769
463.60 0.8772
463.70 0.8776
463.80 0.878
463.90 0.8784
464.00 0.8787
464.10 0.8791
464.20 0.8795
464.30 0.8798
464.40 0.8802
464.50 0.8806
464.60 0.881
464.70 0.8813
464.80 0.8817
464.90 0.8821
465.00 0.8824
465.10 0.8828
465.20 0.8832
465.30 0.8835
465.40 0.8839
465.50 0.8843
465.60 0.8847
465.70 0.885
465.80 0.8854
465.90 0.8858
466.00 0.8861
466.10 0.8865
466.20 0.8869
466.30 0.8872
466.40 0.8876
466.50 0.888
466.60 0.8883
466.70 0.8887
466.80 0.8891
466.90 0.8894
467.00 0.8898
467.10 0.8902
467.20 0.8905
467.30 0.8909
467.40 0.8913
467.50 0.8916
467.60 0.892
467.70 0.8924
467.80 0.8927
467.90 0.8931
468.00 0.8934
468.10 0.8938
468.20 0.8942
468.30 0.8945
468.40 0.8949
468.50 0.8953
468.60 0.8956
468.70 0.896
468.80 0.8964
468.90 0.8967
469.00 0.8971
469.10 0.8974
469.20 0.8978
469.30 0.8982
469.40 0.8985
469.50 0.8989
469.60 0.8993
469.70 0.8996
469.80 0.9
469.90 0.9003
470.00 0.9007
470.10 0.9011
470.20 0.9014
470.30 0.9018
470.40 0.9021
470.50 0.9025
470.60 0.9029
470.70 0.9032
470.80 0.9036
470.90 0.9039
471.00 0.9043
471.10 0.9046
471.20 0.905
471.30 0.9054
471.40 0.9057
471.50 0.9061
471.60 0.9064
471.70 0.9068
471.80 0.9071
471.90 0.9075
472.00 0.9079
472.10 0.9082
472.20 0.9086
472.30 0.9089
472.40 0.9093
472.50 0.9096
472.60 0.91
472.70 0.9104
472.80 0.9107
472.90 0.9111
473.00 0.9114
473.10 0.9118
473.20 0.9121
473.30 0.9125
473.40 0.9128
473.50 0.9132
473.60 0.9135
473.70 0.9139
473.80 0.9143
473.90 0.9146
474.00 0.915
474.10 0.9153
474.20 0.9157
474.30 0.916
474.40 0.9164
474.50 0.9167
474.60 0.9171
474.70 0.9174
474.80 0.9178
474.90 0.9181
475.00 0.9185
475.10 0.9188
475.20 0.9192
475.30 0.9195
475.40 0.9199
475.50 0.9202
475.60 0.9206
475.70 0.9209
475.80 0.9213
475.90 0.9216
476.00 0.922
476.10 0.9223
476.20 0.9227
476.30 0.923
476.40 0.9234
476.50 0.9237
476.60 0.9241
476.70 0.9244
476.80 0.9248
476.90 0.9251
477.00 0.9255
477.10 0.9258
477.20 0.9262
477.30 0.9265
477.40 0.9268
477.50 0.9272
477.60 0.9275
477.70 0.9279
477.80 0.9282
477.90 0.9286
478.00 0.9289
478.10 0.9293
478.20 0.9296
478.30 0.9299
478.40 0.9303
478.50 0.9306
478.60 0.931
478.70 0.9313
478.80 0.9317
478.90 0.932
479.00 0.9324
479.10 0.9327
479.20 0.933
479.30 0.9334
479.40 0.9337
479.50 0.9341
479.60 0.9344
479.70 0.9348
479.80 0.9351
479.90 0.9354
480.00 0.9358
480.10 0.9361
480.20 0.9365
480.30 0.9368
480.40 0.9371
480.50 0.9375
480.60 0.9378
480.70 0.9382
480.80 0.9385
480.90 0.9388
481.00 0.9392
481.10 0.9395
481.20 0.9399
481.30 0.9402
481.40 0.9405
481.50 0.9409
481.60 0.9412
481.70 0.9415
481.80 0.9419
481.90 0.9422
482.00 0.9426
482.10 0.9429
482.20 0.9432
482.30 0.9436
482.40 0.9439
482.50 0.9442
482.60 0.9446
482.70 0.9449
482.80 0.9453
482.90 0.9456
483.00 0.9459
483.10 0.9463
483.20 0.9466
483.30 0.9469
483.40 0.9473
483.50 0.9476
483.60 0.9479
483.70 0.9483
483.80 0.9486
483.90 0.9489
484.00 0.9493
484.10 0.9496
484.20 0.9499
484.30 0.9503
484.40 0.9506
484.50 0.9509
484.60 0.9513
484.70 0.9516
484.80 0.9519
484.90 0.9523
485.00 0.9526
485.10 0.9529
485.20 0.9533
485.30 0.9536
485.40 0.9539
485.50 0.9542
485.60 0.9546
485.70 0.9549
485.80 0.9552
485.90 0.9556
486.00 0.9559
486.10 0.9562
486.20 0.9565
486.30 0.9569
486.40 0.9572
486.50 0.9575
486.60 0.9579
486.70 0.9582
486.80 0.9585
486.90 0.9588
487.00 0.9592
487.10 0.9595
487.20 0.9598
487.30 0.9602
487.40 0.9605
487.50 0.9608
487.60 0.9611
487.70 0.9615
487.80 0.9618
487.90 0.9621
488.00 0.9624
488.10 0.9628
488.20 0.9631
488.30 0.9634
488.40 0.9637
488.50 0.9641
488.60 0.9644
488.70 0.9647
488.80 0.965
488.90 0.9654
489.00 0.9657
489.10 0.966
489.20 0.9663
489.30 0.9666
489.40 0.967
489.50 0.9673
489.60 0.9676
489.70 0.9679
489.80 0.9683
489.90 0.9686
490.00 0.9689
490.10 0.9692
490.20 0.9695
490.30 0.9699
490.40 0.9702
490.50 0.9705
490.60 0.9708
490.70 0.9711
490.80 0.9715
490.90 0.9718
491.00 0.9721
491.10 0.9724
491.20 0.9727
491.30 0.9731
491.40 0.9734
491.50 0.9737
491.60 0.974
491.70 0.9743
491.80 0.9746
491.90 0.975
492.00 0.9753
492.10 0.9756
492.20 0.9759
492.30 0.9762
492.40 0.9766
492.50 0.9769
492.60 0.9772
492.70 0.9775
492.80 0.9778
492.90 0.9781
493.00 0.9784
493.10 0.9788
493.20 0.9791
493.30 0.9794
493.40 0.9797
493.50 0.98
493.60 0.9803
493.70 0.9806
493.80 0.981
493.90 0.9813
494.00 0.9816
494.10 0.9819
494.20 0.9822
494.30 0.9825
494.40 0.9828
494.50 0.9831
494.60 0.9835
494.70 0.9838
494.80 0.9841
494.90 0.9844
495.00 0.9847
495.10 0.985
495.20 0.9853
495.30 0.9856
495.40 0.9859
495.50 0.9863
495.60 0.9866
495.70 0.9869
495.80 0.9872
495.90 0.9875
496.00 0.9878
496.10 0.9881
496.20 0.9884
496.30 0.9887
496.40 0.989
496.50 0.9893
496.60 0.9897
496.70 0.99
496.80 0.9903
496.90 0.9906
497.00 0.9909
497.10 0.9912
497.20 0.9915
497.30 0.9918
497.40 0.9921
497.50 0.9924
497.60 0.9927
497.70 0.993
497.80 0.9933
497.90 0.9936
498.00 0.9939
498.10 0.9942
498.20 0.9946
498.30 0.9949
498.40 0.9952
498.50 0.9955
498.60 0.9958
498.70 0.9961
498.80 0.9964
498.90 0.9967
499.00 0.997
499.10 0.9973
499.20 0.9976
499.30 0.9979
499.40 0.9982
499.50 0.9985
499.60 0.9988
499.70 0.9991
499.80 0.9994
499.90 0.9997
500.00 1
500.10 1
500.20 1.001
500.30 1.001
500.40 1.001
500.50 1.001
500.60 1.002
500.70 1.002
500.80 1.002
500.90 1.003
501.00 1.003
501.10 1.003
501.20 1.004
501.30 1.004
501.40 1.004
501.50 1.004
501.60 1.005
501.70 1.005
501.80 1.005
501.90 1.006
502.00 1.006
502.10 1.006
502.20 1.007
502.30 1.007
502.40 1.007
502.50 1.007
502.60 1.008
502.70 1.008
502.80 1.008
502.90 1.009
503.00 1.009
503.10 1.009
503.20 1.01
503.30 1.01
503.40 1.01
503.50 1.01
503.60 1.011
503.70 1.011
503.80 1.011
503.90 1.012
504.00 1.012
504.10 1.012
504.20 1.012
504.30 1.013
504.40 1.013
504.50 1.013
504.60 1.014
504.70 1.014
504.80 1.014
504.90 1.014
505.00 1.015
505.10 1.015
505.20 1.015
505.30 1.016
505.40 1.016
505.50 1.016
505.60 1.017
505.70 1.017
505.80 1.017
505.90 1.017
506.00 1.018
506.10 1.018
506.20 1.018
506.30 1.019
506.40 1.019
506.50 1.019
506.60 1.019
506.70 1.02
506.80 1.02
506.90 1.02
507.00 1.021
507.10 1.021
507.20 1.021
507.30 1.021
507.40 1.022
507.50 1.022
507.60 1.022
507.70 1.023
507.80 1.023
507.90 1.023
508.00 1.023
508.10 1.024
508.20 1.024
508.30 1.024
508.40 1.025
508.50 1.025
508.60 1.025
508.70 1.025
508.80 1.026
508.90 1.026
509.00 1.026
509.10 1.026
509.20 1.027
509.30 1.027
509.40 1.027
509.50 1.028
509.60 1.028
509.70 1.028
509.80 1.028
509.90 1.029
510.00 1.029
510.10 1.029
510.20 1.03
510.30 1.03
510.40 1.03
510.50 1.03
510.60 1.031
510.70 1.031
510.80 1.031
510.90 1.032
511.00 1.032
511.10 1.032
511.20 1.032
511.30 1.033
511.40 1.033
511.50 1.033
511.60 1.033
511.70 1.034
511.80 1.034
511.90 1.034
512.00 1.035
512.10 1.035
512.20 1.035
512.30 1.035
512.40 1.036
512.50 1.036
512.60 1.036
512.70 1.037
512.80 1.037
512.90 1.037
513.00 1.037
513.10 1.038
513.20 1.038
513.30 1.038
513.40 1.038
513.50 1.039
513.60 1.039
513.70 1.039
513.80 1.04
513.90 1.04
514.00 1.04
514.10 1.04
514.20 1.041
514.30 1.041
514.40 1.041
514.50 1.041
514.60 1.042
514.70 1.042
514.80 1.042
514.90 1.042
515.00 1.043
515.10 1.043
515.20 1.043
515.30 1.044
515.40 1.044
515.50 1.044
515.60 1.044
515.70 1.045
515.80 1.045
515.90 1.045
516.00 1.045
516.10 1.046
516.20 1.046
516.30 1.046
516.40 1.047
516.50 1.047
516.60 1.047
516.70 1.047
516.80 1.048
516.90 1.048
517.00 1.048
517.10 1.048
517.20 1.049
517.30 1.049
517.40 1.049
517.50 1.049
517.60 1.05
517.70 1.05
517.80 1.05
517.90 1.05
518.00 1.051
518.10 1.051
518.20 1.051
518.30 1.052
518.40 1.052
518.50 1.052
518.60 1.052
518.70 1.053
518.80 1.053
518.90 1.053
519.00 1.053
519.10 1.054
519.20 1.054
519.30 1.054
519.40 1.054
519.50 1.055
519.60 1.055
519.70 1.055
519.80 1.055
519.90 1.056
520.00 1.056
520.10 1.056
520.20 1.056
520.30 1.057
520.40 1.057
520.50 1.057
520.60 1.058
520.70 1.058
520.80 1.058
520.90 1.058
521.00 1.059
521.10 1.059
521.20 1.059
521.30 1.059
521.40 1.06
521.50 1.06
521.60 1.06
521.70 1.06
521.80 1.061
521.90 1.061
522.00 1.061
522.10 1.061
522.20 1.062
522.30 1.062
522.40 1.062
522.50 1.062
522.60 1.063
522.70 1.063
522.80 1.063
522.90 1.063
523.00 1.064
523.10 1.064
523.20 1.064
523.30 1.064
523.40 1.065
523.50 1.065
523.60 1.065
523.70 1.065
523.80 1.066
523.90 1.066
524.00 1.066
524.10 1.066
524.20 1.067
524.30 1.067
524.40 1.067
524.50 1.067
524.60 1.068
524.70 1.068
524.80 1.068
524.90 1.068
525.00 1.069
525.10 1.069
525.20 1.069
525.30 1.069
525.40 1.07
525.50 1.07
525.60 1.07
525.70 1.07
525.80 1.071
525.90 1.071
526.00 1.071
526.10 1.071
526.20 1.072
526.30 1.072
526.40 1.072
526.50 1.072
526.60 1.073
526.70 1.073
526.80 1.073
526.90 1.073
527.00 1.074
527.10 1.074
527.20 1.074
527.30 1.074
527.40 1.075
527.50 1.075
527.60 1.075
527.70 1.075
527.80 1.076
527.90 1.076
528.00 1.076
528.10 1.076
528.20 1.077
528.30 1.077
528.40 1.077
528.50 1.077
528.60 1.077
528.70 1.078
528.80 1.078
528.90 1.078
529.00 1.078
529.10 1.079
529.20 1.079
529.30 1.079
529.40 1.079
529.50 1.08
529.60 1.08
529.70 1.08
529.80 1.08
529.90 1.081
530.00 1.081
530.10 1.081
530.20 1.081
530.30 1.082
530.40 1.082
530.50 1.082
530.60 1.082
530.70 1.082
530.80 1.083
530.90 1.083
531.00 1.083
531.10 1.083
531.20 1.084
531.30 1.084
531.40 1.084
531.50 1.084
531.60 1.085
531.70 1.085
531.80 1.085
531.90 1.085
532.00 1.086
532.10 1.086
532.20 1.086
532.30 1.086
532.40 1.086
532.50 1.087
532.60 1.087
532.70 1.087
532.80 1.087
532.90 1.088
533.00 1.088
533.10 1.088
533.20 1.088
533.30 1.089
533.40 1.089
533.50 1.089
533.60 1.089
533.70 1.09
533.80 1.09
533.90 1.09
534.00 1.09
534.10 1.09
534.20 1.091
534.30 1.091
534.40 1.091
534.50 1.091
534.60 1.092
534.70 1.092
534.80 1.092
534.90 1.092
535.00 1.092
535.10 1.093
535.20 1.093
535.30 1.093
535.40 1.093
535.50 1.094
535.60 1.094
535.70 1.094
535.80 1.094
535.90 1.095
536.00 1.095
536.10 1.095
536.20 1.095
536.30 1.095
536.40 1.096
536.50 1.096
536.60 1.096
536.70 1.096
536.80 1.097
536.90 1.097
537.00 1.097
537.10 1.097
537.20 1.097
537.30 1.098
537.40 1.098
537.50 1.098
537.60 1.098
537.70 1.099
537.80 1.099
537.90 1.099
538.00 1.099
538.10 1.099
538.20 1.1
538.30 1.1
538.40 1.1
538.50 1.1
538.60 1.101
538.70 1.101
538.80 1.101
538.90 1.101
539.00 1.101
539.10 1.102
539.20 1.102
539.30 1.102
539.40 1.102
539.50 1.103
539.60 1.103
539.70 1.103
539.80 1.103
539.90 1.103
540.00 1.104
540.10 1.104
540.20 1.104
540.30 1.104
540.40 1.104
540.50 1.105
540.60 1.105
540.70 1.105
540.80 1.105
540.90 1.106
541.00 1.106
541.10 1.106
541.20 1.106
541.30 1.106
541.40 1.107
541.50 1.107
541.60 1.107
541.70 1.107
541.80 1.107
541.90 1.108
542.00 1.108
542.10 1.108
542.20 1.108
542.30 1.109
542.40 1.109
542.50 1.109
542.60 1.109
542.70 1.109
542.80 1.11
542.90 1.11
543.00 1.11
543.10 1.11
543.20 1.11
543.30 1.111
543.40 1.111
543.50 1.111
543.60 1.111
543.70 1.111
543.80 1.112
543.90 1.112
544.00 1.112
544.10 1.112
544.20 1.113
544.30 1.113
544.40 1.113
544.50 1.113
544.60 1.113
544.70 1.114
544.80 1.114
544.90 1.114
545.00 1.114
545.10 1.114
545.20 1.115
545.30 1.115
545.40 1.115
545.50 1.115
545.60 1.115
545.70 1.116
545.80 1.116
545.90 1.116
546.00 1.116
546.10 1.117
546.20 1.117
546.30 1.117
546.40 1.117
546.50 1.117
546.60 1.118
546.70 1.118
546.80 1.118
546.90 1.118
547.00 1.118
547.10 1.118
547.20 1.119
547.30 1.119
547.40 1.119
547.50 1.119
547.60 1.12
547.70 1.12
547.80 1.12
547.90 1.12
548.00 1.12
548.10 1.121
548.20 1.121
548.30 1.121
548.40 1.121
548.50 1.121
548.60 1.122
548.70 1.122
548.80 1.122
548.90 1.122
549.00 1.122
549.10 1.122
549.20 1.123
549.30 1.123
549.40 1.123
549.50 1.123
549.60 1.123
549.70 1.124
549.80 1.124
549.90 1.124
550.00 1.124
550.10 1.124
550.20 1.125
550.30 1.125
550.40 1.125
550.50 1.125
550.60 1.125
550.70 1.126
550.80 1.126
550.90 1.126
551.00 1.126
551.10 1.126
551.20 1.127
551.30 1.127
551.40 1.127
551.50 1.127
551.60 1.127
551.70 1.128
551.80 1.128
551.90 1.128
552.00 1.128
552.10 1.128
552.20 1.129
552.30 1.129
552.40 1.129
552.50 1.129
552.60 1.129
552.70 1.13
552.80 1.13
552.90 1.13
553.00 1.13
553.10 1.13
553.20 1.13
553.30 1.131
553.40 1.131
553.50 1.131
553.60 1.131
553.70 1.131
553.80 1.132
553.90 1.132
554.00 1.132
554.10 1.132
554.20 1.132
554.30 1.133
554.40 1.133
554.50 1.133
554.60 1.133
554.70 1.133
554.80 1.134
554.90 1.134
555.00 1.134
555.10 1.134
555.20 1.134
555.30 1.134
555.40 1.135
555.50 1.135
555.60 1.135
555.70 1.135
555.80 1.135
555.90 1.136
556.00 1.136
556.10 1.136
556.20 1.136
556.30 1.136
556.40 1.136
556.50 1.137
556.60 1.137
556.70 1.137
556.80 1.137
556.90 1.137
557.00 1.138
557.10 1.138
557.20 1.138
557.30 1.138
557.40 1.138
557.50 1.138
557.60 1.139
557.70 1.139
557.80 1.139
557.90 1.139
558.00 1.139
558.10 1.14
558.20 1.14
558.30 1.14
558.40 1.14
558.50 1.14
558.60 1.141
558.70 1.141
558.80 1.141
558.90 1.141
559.00 1.141
559.10 1.141
559.20 1.142
559.30 1.142
559.40 1.142
559.50 1.142
559.60 1.142
559.70 1.142
559.80 1.143
559.90 1.143
560.00 1.143
560.10 1.143
560.20 1.143
560.30 1.143
560.40 1.144
560.50 1.144
560.60 1.144
560.70 1.144
560.80 1.144
560.90 1.145
561.00 1.145
561.10 1.145
561.20 1.145
561.30 1.145
561.40 1.145
561.50 1.146
561.60 1.146
561.70 1.146
561.80 1.146
561.90 1.146
562.00 1.146
562.10 1.147
562.20 1.147
562.30 1.147
562.40 1.147
562.50 1.147
562.60 1.147
562.70 1.148
562.80 1.148
562.90 1.148
563.00 1.148
563.10 1.148
563.20 1.148
563.30 1.149
563.40 1.149
563.50 1.149
563.60 1.149
563.70 1.149
563.80 1.15
563.90 1.15
564.00 1.15
564.10 1.15
564.20 1.15
564.30 1.15
564.40 1.151
564.50 1.151
564.60 1.151
564.70 1.151
564.80 1.151
564.90 1.151
565.00 1.152
565.10 1.152
565.20 1.152
565.30 1.152
565.40 1.152
565.50 1.152
565.60 1.153
565.70 1.153
565.80 1.153
565.90 1.153
566.00 1.153
566.10 1.153
566.20 1.154
566.30 1.154
566.40 1.154
566.50 1.154
566.60 1.154
566.70 1.154
566.80 1.155
566.90 1.155
567.00 1.155
567.10 1.155
567.20 1.155
567.30 1.155
567.40 1.155
567.50 1.156
567.60 1.156
567.70 1.156
567.80 1.156
567.90 1.156
568.00 1.156
568.10 1.157
568.20 1.157
568.30 1.157
568.40 1.157
568.50 1.157
568.60 1.157
568.70 1.158
568.80 1.158
568.90 1.158
569.00 1.158
569.10 1.158
569.20 1.158
569.30 1.159
569.40 1.159
569.50 1.159
569.60 1.159
569.70 1.159
569.80 1.159
569.90 1.159
570.00 1.16
570.10 1.16
570.20 1.16
570.30 1.16
570.40 1.16
570.50 1.16
570.60 1.161
570.70 1.161
570.80 1.161
570.90 1.161
571.00 1.161
571.10 1.161
571.20 1.161
571.30 1.162
571.40 1.162
571.50 1.162
571.60 1.162
571.70 1.162
571.80 1.162
571.90 1.163
572.00 1.163
572.10 1.163
572.20 1.163
572.30 1.163
572.40 1.163
572.50 1.163
572.60 1.164
572.70 1.164
572.80 1.164
572.90 1.164
573.00 1.164
573.10 1.164
573.20 1.165
573.30 1.165
573.40 1.165
573.50 1.165
573.60 1.165
573.70 1.165
573.80 1.165
573.90 1.166
574.00 1.166
574.10 1.166
574.20 1.166
574.30 1.166
574.40 1.166
574.50 1.166
574.60 1.167
574.70 1.167
574.80 1.167
574.90 1.167
575.00 1.167
575.10 1.167
575.20 1.167
575.30 1.168
575.40 1.168
575.50 1.168
575.60 1.168
575.70 1.168
575.80 1.168
575.90 1.169
576.00 1.169
576.10 1.169
576.20 1.169
576.30 1.169
576.40 1.169
576.50 1.169
576.60 1.17
576.70 1.17
576.80 1.17
576.90 1.17
577.00 1.17
577.10 1.17
577.20 1.17
577.30 1.171
577.40 1.171
577.50 1.171
577.60 1.171
577.70 1.171
577.80 1.171
577.90 1.171
578.00 1.172
578.10 1.172
578.20 1.172
578.30 1.172
578.40 1.172
578.50 1.172
578.60 1.172
578.70 1.173
578.80 1.173
578.90 1.173
579.00 1.173
579.10 1.173
579.20 1.173
579.30 1.173
579.40 1.173
579.50 1.174
579.60 1.174
579.70 1.174
579.80 1.174
579.90 1.174
580.00 1.174
580.10 1.174
580.20 1.175
580.30 1.175
580.40 1.175
580.50 1.175
580.60 1.175
580.70 1.175
580.80 1.175
580.90 1.176
581.00 1.176
581.10 1.176
581.20 1.176
581.30 1.176
581.40 1.176
581.50 1.176
581.60 1.176
581.70 1.177
581.80 1.177
581.90 1.177
582.00 1.177
582.10 1.177
582.20 1.177
582.30 1.177
582.40 1.178
582.50 1.178
582.60 1.178
582.70 1.178
582.80 1.178
582.90 1.178
583.00 1.178
583.10 1.179
583.20 1.179
583.30 1.179
583.40 1.179
583.50 1.179
583.60 1.179
583.70 1.179
583.80 1.179
583.90 1.18
584.00 1.18
584.10 1.18
584.20 1.18
584.30 1.18
584.40 1.18
584.50 1.18
584.60 1.18
584.70 1.181
584.80 1.181
584.90 1.181
585.00 1.181
585.10 1.181
585.20 1.181
585.30 1.181
585.40 1.181
585.50 1.182
585.60 1.182
585.70 1.182
585.80 1.182
585.90 1.182
586.00 1.182
586.10 1.182
586.20 1.183
586.30 1.183
586.40 1.183
586.50 1.183
586.60 1.183
586.70 1.183
586.80 1.183
586.90 1.183
587.00 1.183
587.10 1.184
587.20 1.184
587.30 1.184
587.40 1.184
587.50 1.184
587.60 1.184
587.70 1.184
587.80 1.184
587.90 1.185
588.00 1.185
588.10 1.185
588.20 1.185
588.30 1.185
588.40 1.185
588.50 1.185
588.60 1.185
588.70 1.186
588.80 1.186
588.90 1.186
589.00 1.186
589.10 1.186
589.20 1.186
589.30 1.186
589.40 1.186
589.50 1.187
589.60 1.187
589.70 1.187
589.80 1.187
589.90 1.187
590.00 1.187
590.10 1.187
590.20 1.187
590.30 1.187
590.40 1.188
590.50 1.188
590.60 1.188
590.70 1.188
590.80 1.188
590.90 1.188
591.00 1.188
591.10 1.188
591.20 1.189
591.30 1.189
591.40 1.189
591.50 1.189
591.60 1.189
591.70 1.189
591.80 1.189
591.90 1.189
592.00 1.189
592.10 1.19
592.20 1.19
592.30 1.19
592.40 1.19
592.50 1.19
592.60 1.19
592.70 1.19
592.80 1.19
592.90 1.19
593.00 1.191
593.10 1.191
593.20 1.191
593.30 1.191
593.40 1.191
593.50 1.191
593.60 1.191
593.70 1.191
593.80 1.191
593.90 1.192
594.00 1.192
594.10 1.192
594.20 1.192
594.30 1.192
594.40 1.192
594.50 1.192
594.60 1.192
594.70 1.192
594.80 1.193
594.90 1.193
595.00 1.193
595.10 1.193
595.20 1.193
595.30 1.193
595.40 1.193
595.50 1.193
595.60 1.193
595.70 1.194
595.80 1.194
595.90 1.194
596.00 1.194
596.10 1.194
596.20 1.194
596.30 1.194
596.40 1.194
596.50 1.194
596.60 1.194
596.70 1.195
596.80 1.195
596.90 1.195
597.00 1.195
597.10 1.195
597.20 1.195
597.30 1.195
597.40 1.195
597.50 1.195
597.60 1.196
597.70 1.196
597.80 1.196
597.90 1.196
598.00 1.196
598.10 1.196
598.20 1.196
598.30 1.196
598.40 1.196
598.50 1.196
598.60 1.197
598.70 1.197
598.80 1.197
598.90 1.197
599.00 1.197
599.10 1.197
599.20 1.197
599.30 1.197
599.40 1.197
599.50 1.197
599.60 1.198
599.70 1.198
599.80 1.198
599.90 1.198
600.00 1.198
600.10 1.198
600.20 1.198
600.30 1.198
600.40 1.198
600.50 1.199
600.60 1.199
600.70 1.199
600.80 1.199
600.90 1.199
601.00 1.199
601.10 1.199
601.20 1.199
601.30 1.199
601.40 1.199
601.50 1.199
601.60 1.2
601.70 1.2
601.80 1.2
601.90 1.2
602.00 1.2
602.10 1.2
602.20 1.2
602.30 1.2
602.40 1.2
602.50 1.2
602.60 1.201
602.70 1.201
602.80 1.201
602.90 1.201
603.00 1.201
603.10 1.201
603.20 1.201
603.30 1.201
603.40 1.201
603.50 1.201
603.60 1.201
603.70 1.202
603.80 1.202
603.90 1.202
604.00 1.202
604.10 1.202
604.20 1.202
604.30 1.202
604.40 1.202
604.50 1.202
604.60 1.202
604.70 1.203
604.80 1.203
604.90 1.203
605.00 1.203
605.10 1.203
605.20 1.203
605.30 1.203
605.40 1.203
605.50 1.203
605.60 1.203
605.70 1.203
605.80 1.204
605.90 1.204
606.00 1.204
606.10 1.204
606.20 1.204
606.30 1.204
606.40 1.204
606.50 1.204
606.60 1.204
606.70 1.204
606.80 1.204
606.90 1.204
607.00 1.205
607.10 1.205
607.20 1.205
607.30 1.205
607.40 1.205
607.50 1.205
607.60 1.205
607.70 1.205
607.80 1.205
607.90 1.205
608.00 1.205
608.10 1.206
608.20 1.206
608.30 1.206
608.40 1.206
608.50 1.206
608.60 1.206
608.70 1.206
608.80 1.206
608.90 1.206
609.00 1.206
609.10 1.206
609.20 1.206
609.30 1.207
609.40 1.207
609.50 1.207
609.60 1.207
609.70 1.207
609.80 1.207
609.90 1.207
610.00 1.207
610.10 1.207
610.20 1.207
610.30 1.207
610.40 1.207
610.50 1.207
610.60 1.208
610.70 1.208
610.80 1.208
610.90 1.208
611.00 1.208
611.10 1.208
611.20 1.208
611.30 1.208
611.40 1.208
611.50 1.208
611.60 1.208
611.70 1.208
611.80 1.209
611.90 1.209
612.00 1.209
612.10 1.209
612.20 1.209
612.30 1.209
612.40 1.209
612.50 1.209
612.60 1.209
612.70 1.209
612.80 1.209
612.90 1.209
613.00 1.209
613.10 1.21
613.20 1.21
613.30 1.21
613.40 1.21
613.50 1.21
613.60 1.21
613.70 1.21
613.80 1.21
613.90 1.21
614.00 1.21
614.10 1.21
614.20 1.21
614.30 1.21
614.40 1.21
614.50 1.211
614.60 1.211
614.70 1.211
614.80 1.211
614.90 1.211
615.00 1.211
615.10 1.211
615.20 1.211
615.30 1.211
615.40 1.211
615.50 1.211
615.60 1.211
615.70 1.211
615.80 1.212
615.90 1.212
616.00 1.212
616.10 1.212
616.20 1.212
616.30 1.212
616.40 1.212
616.50 1.212
616.60 1.212
616.70 1.212
616.80 1.212
616.90 1.212
617.00 1.212
617.10 1.212
617.20 1.213
617.30 1.213
617.40 1.213
617.50 1.213
617.60 1.213
617.70 1.213
617.80 1.213
617.90 1.213
618.00 1.213
618.10 1.213
618.20 1.213
618.30 1.213
618.40 1.213
618.50 1.213
618.60 1.213
618.70 1.214
618.80 1.214
618.90 1.214
619.00 1.214
619.10 1.214
619.20 1.214
619.30 1.214
619.40 1.214
619.50 1.214
619.60 1.214
619.70 1.214
619.80 1.214
619.90 1.214
620.00 1.214
620.10 1.214
620.20 1.214
620.30 1.215
620.40 1.215
620.50 1.215
620.60 1.215
620.70 1.215
620.80 1.215
620.90 1.215
621.00 1.215
621.10 1.215
621.20 1.215
621.30 1.215
621.40 1.215
621.50 1.215
621.60 1.215
621.70 1.215
621.80 1.216
621.90 1.216
622.00 1.216
622.10 1.216
622.20 1.216
622.30 1.216
622.40 1.216
622.50 1.216
622.60 1.216
622.70 1.216
622.80 1.216
622.90 1.216
623.00 1.216
623.10 1.216
623.20 1.216
623.30 1.216
623.40 1.216
623.50 1.217
623.60 1.217
623.70 1.217
623.80 1.217
623.90 1.217
624.00 1.217
624.10 1.217
624.20 1.217
624.30 1.217
624.40 1.217
624.50 1.217
624.60 1.217
624.70 1.217
624.80 1.217
624.90 1.217
625.00 1.217
625.10 1.217
625.20 1.217
625.30 1.218
625.40 1.218
625.50 1.218
625.60 1.218
625.70 1.218
625.80 1.218
625.90 1.218
626.00 1.218
626.10 1.218
626.20 1.218
626.30 1.218
626.40 1.218
626.50 1.218
626.60 1.218
626.70 1.218
626.80 1.218
626.90 1.218
627.00 1.218
627.10 1.218
627.20 1.219
627.30 1.219
627.40 1.219
627.50 1.219
627.60 1.219
627.70 1.219
627.80 1.219
627.90 1.219
628.00 1.219
628.10 1.219
628.20 1.219
628.30 1.219
628.40 1.219
628.50 1.219
628.60 1.219
628.70 1.219
628.80 1.219
628.90 1.219
629.00 1.219
629.10 1.219
629.20 1.22
629.30 1.22
629.40 1.22
629.50 1.22
629.60 1.22
629.70 1.22
629.80 1.22
629.90 1.22
630.00 1.22
630.10 1.22
630.20 1.22
630.30 1.22
630.40 1.22
630.50 1.22
630.60 1.22
630.70 1.22
630.80 1.22
630.90 1.22
631.00 1.22
631.10 1.22
631.20 1.22
631.30 1.221
631.40 1.221
631.50 1.221
631.60 1.221
631.70 1.221
631.80 1.221
631.90 1.221
632.00 1.221
632.10 1.221
632.20 1.221
632.30 1.221
632.40 1.221
632.50 1.221
632.60 1.221
632.70 1.221
632.80 1.221
632.90 1.221
633.00 1.221
633.10 1.221
633.20 1.221
633.30 1.221
633.40 1.221
633.50 1.221
633.60 1.221
633.70 1.222
633.80 1.222
633.90 1.222
634.00 1.222
634.10 1.222
634.20 1.222
634.30 1.222
634.40 1.222
634.50 1.222
634.60 1.222
634.70 1.222
634.80 1.222
634.90 1.222
635.00 1.222
635.10 1.222
635.20 1.222
635.30 1.222
635.40 1.222
635.50 1.222
635.60 1.222
635.70 1.222
635.80 1.222
635.90 1.222
636.00 1.222
636.10 1.222
636.20 1.222
636.30 1.223
636.40 1.223
636.50 1.223
636.60 1.223
636.70 1.223
636.80 1.223
636.90 1.223
637.00 1.223
637.10 1.223
637.20 1.223
637.30 1.223
637.40 1.223
637.50 1.223
637.60 1.223
637.70 1.223
637.80 1.223
637.90 1.223
638.00 1.223
638.10 1.223
638.20 1.223
638.30 1.223
638.40 1.223
638.50 1.223
638.60 1.223
638.70 1.223
638.80 1.223
638.90 1.223
639.00 1.223
639.10 1.223
639.20 1.224
639.30 1.224
639.40 1.224
639.50 1.224
639.60 1.224
639.70 1.224
639.80 1.224
639.90 1.224
640.00 1.224
640.10 1.224
640.20 1.224
640.30 1.224
640.40 1.224
640.50 1.224
640.60 1.224
640.70 1.224
640.80 1.224
640.90 1.224
641.00 1.224
641.10 1.224
641.20 1.224
641.30 1.224
641.40 1.224
641.50 1.224
641.60 1.224
641.70 1.224
641.80 1.224
641.90 1.224
642.00 1.224
642.10 1.224
642.20 1.224
642.30 1.224
642.40 1.224
642.50 1.224
642.60 1.224
642.70 1.224
642.80 1.225
642.90 1.225
643.00 1.225
643.10 1.225
643.20 1.225
643.30 1.225
643.40 1.225
643.50 1.225
643.60 1.225
643.70 1.225
643.80 1.225
643.90 1.225
644.00 1.225
644.10 1.225
644.20 1.225
644.30 1.225
644.40 1.225
644.50 1.225
644.60 1.225
644.70 1.225
644.80 1.225
644.90 1.225
645.00 1.225
645.10 1.225
645.20 1.225
645.30 1.225
645.40 1.225
645.50 1.225
645.60 1.225
645.70 1.225
645.80 1.225
645.90 1.225
646.00 1.225
646.10 1.225
646.20 1.225
646.30 1.225
646.40 1.225
646.50 1.225
646.60 1.225
646.70 1.225
646.80 1.225
646.90 1.225
647.00 1.225
647.10 1.225
647.20 1.225
647.30 1.225
647.40 1.225
647.50 1.225
647.60 1.225
647.70 1.225
647.80 1.225
647.90 1.226
648.00 1.226
648.10 1.226
648.20 1.226
648.30 1.226
648.40 1.226
648.50 1.226
648.60 1.226
648.70 1.226
648.80 1.226
648.90 1.226
649.00 1.226
649.10 1.226
649.20 1.226
649.30 1.226
649.40 1.226
649.50 1.226
649.60 1.226
649.70 1.226
649.80 1.226
649.90 1.226
650.00 1.226
650.10 1.226
650.20 1.226
650.30 1.226
650.40 1.226
650.50 1.226
650.60 1.226
650.70 1.226
650.80 1.226
650.90 1.226
651.00 1.226
651.10 1.226
651.20 1.226
651.30 1.226
651.40 1.226
651.50 1.226
651.60 1.226
651.70 1.226
651.80 1.226
651.90 1.226
652.00 1.226
652.10 1.226
652.20 1.226
652.30 1.226
652.40 1.226
652.50 1.226
652.60 1.226
652.70 1.226
652.80 1.226
652.90 1.226
653.00 1.226
653.10 1.226
653.20 1.226
653.30 1.226
653.40 1.226
653.50 1.226
653.60 1.226
653.70 1.226
653.80 1.226
653.90 1.226
654.00 1.226
654.10 1.226
654.20 1.226
654.30 1.226
654.40 1.226
654.50 1.226
654.60 1.226
654.70 1.226
654.80 1.226
654.90 1.226
655.00 1.226
655.10 1.226
655.20 1.226
655.30 1.226
655.40 1.226
655.50 1.226
655.60 1.226
655.70 1.226
655.80 1.226
655.90 1.226
656.00 1.226
656.10 1.226
656.20 1.226
656.30 1.226
656.40 1.226
656.50 1.226
656.60 1.226
656.70 1.226
656.80 1.226
656.90 1.226
657.00 1.226
657.10 1.226
657.20 1.226
657.30 1.226
657.40 1.226
657.50 1.226
657.60 1.226
657.70 1.226
657.80 1.226
657.90 1.226
658.00 1.226
658.10 1.226
658.20 1.226
658.30 1.226
658.40 1.226
658.50 1.226
658.60 1.226
658.70 1.226
658.80 1.226
658.90 1.226
659.00 1.226
659.10 1.226
659.20 1.226
659.30 1.226
659.40 1.226
659.50 1.226
659.60 1.226
659.70 1.226
659.80 1.226
659.90 1.226
660.00 1.226
660.10 1.226
660.20 1.226
660.30 1.226
660.40 1.226
660.50 1.226
660.60 1.226
660.70 1.226
660.80 1.226
660.90 1.226
661.00 1.226
661.10 1.226
661.20 1.226
661.30 1.226
661.40 1.226
661.50 1.226
661.60 1.226
661.70 1.226
661.80 1.226
661.90 1.226
662.00 1.226
662.10 1.226
662.20 1.226
662.30 1.226
662.40 1.226
662.50 1.226
662.60 1.226
662.70 1.226
662.80 1.226
662.90 1.226
663.00 1.226
663.10 1.226
663.20 1.226
663.30 1.226
663.40 1.226
663.50 1.226
663.60 1.226
663.70 1.226
663.80 1.226
663.90 1.226
664.00 1.226
664.10 1.226
664.20 1.226
664.30 1.226
664.40 1.226
664.50 1.226
664.60 1.226
664.70 1.226
664.80 1.226
664.90 1.226
665.00 1.226
665.10 1.226
665.20 1.226
665.30 1.226
665.40 1.226
665.50 1.226
665.60 1.226
665.70 1.226
665.80 1.226
665.90 1.225
666.00 1.225
666.10 1.225
666.20 1.225
666.30 1.225
666.40 1.225
666.50 1.225
666.60 1.225
666.70 1.225
666.80 1.225
666.90 1.225
667.00 1.225
667.10 1.225
667.20 1.225
667.30 1.225
667.40 1.225
667.50 1.225
667.60 1.225
667.70 1.225
667.80 1.225
667.90 1.225
668.00 1.225
668.10 1.225
668.20 1.225
668.30 1.225
668.40 1.225
668.50 1.225
668.60 1.225
668.70 1.225
668.80 1.225
668.90 1.225
669.00 1.225
669.10 1.225
669.20 1.225
669.30 1.225
669.40 1.225
669.50 1.225
669.60 1.225
669.70 1.225
669.80 1.225
669.90 1.225
670.00 1.225
670.10 1.225
670.20 1.225
670.30 1.225
670.40 1.225
670.50 1.225
670.60 1.225
670.70 1.224
670.80 1.224
670.90 1.224
671.00 1.224
671.10 1.224
671.20 1.224
671.30 1.224
671.40 1.224
671.50 1.224
671.60 1.224
671.70 1.224
671.80 1.224
671.90 1.224
672.00 1.224
672.10 1.224
672.20 1.224
672.30 1.224
672.40 1.224
672.50 1.224
672.60 1.224
672.70 1.224
672.80 1.224
672.90 1.224
673.00 1.224
673.10 1.224
673.20 1.224
673.30 1.224
673.40 1.224
673.50 1.224
673.60 1.224
673.70 1.224
673.80 1.224
673.90 1.224
674.00 1.224
674.10 1.224
674.20 1.223
674.30 1.223
674.40 1.223
674.50 1.223
674.60 1.223
674.70 1.223
674.80 1.223
674.90 1.223
675.00 1.223
675.10 1.223
675.20 1.223
675.30 1.223
675.40 1.223
675.50 1.223
675.60 1.223
675.70 1.223
675.80 1.223
675.90 1.223
676.00 1.223
676.10 1.223
676.20 1.223
676.30 1.223
676.40 1.223
676.50 1.223
676.60 1.223
676.70 1.223
676.80 1.223
676.90 1.222
677.00 1.222
677.10 1.222
677.20 1.222
677.30 1.222
677.40 1.222
677.50 1.222
677.60 1.222
677.70 1.222
677.80 1.222
677.90 1.222
678.00 1.222
678.10 1.222
678.20 1.222
678.30 1.222
678.40 1.222
678.50 1.222
678.60 1.222
678.70 1.222
678.80 1.222
678.90 1.222
679.00 1.222
679.10 1.222
679.20 1.222
679.30 1.222
679.40 1.221
679.50 1.221
679.60 1.221
679.70 1.221
679.80 1.221
679.90 1.221
680.00 1.221
680.10 1.221
680.20 1.221
680.30 1.221
680.40 1.221
680.50 1.221
680.60 1.221
680.70 1.221
680.80 1.221
680.90 1.221
681.00 1.221
681.10 1.221
681.20 1.221
681.30 1.221
681.40 1.221
681.50 1.221
681.60 1.22
681.70 1.22
681.80 1.22
681.90 1.22
682.00 1.22
682.10 1.22
682.20 1.22
682.30 1.22
682.40 1.22
682.50 1.22
682.60 1.22
682.70 1.22
682.80 1.22
682.90 1.22
683.00 1.22
683.10 1.22
683.20 1.22
683.30 1.22
683.40 1.22
683.50 1.22
683.60 1.219
683.70 1.219
683.80 1.219
683.90 1.219
684.00 1.219
684.10 1.219
684.20 1.219
684.30 1.219
684.40 1.219
684.50 1.219
684.60 1.219
684.70 1.219
684.80 1.219
684.90 1.219
685.00 1.219
685.10 1.219
685.20 1.219
685.30 1.219
685.40 1.219
685.50 1.218
685.60 1.218
685.70 1.218
685.80 1.218
685.90 1.218
686.00 1.218
686.10 1.218
686.20 1.218
686.30 1.218
686.40 1.218
686.50 1.218
686.60 1.218
686.70 1.218
686.80 1.218
686.90 1.218
687.00 1.218
687.10 1.217
687.20 1.217
687.30 1.217
687.40 1.217
687.50 1.217
687.60 1.217
687.70 1.217
687.80 1.217
687.90 1.217
688.00 1.217
688.10 1.217
688.20 1.217
688.30 1.217
688.40 1.217
688.50 1.217
688.60 1.217
688.70 1.216
688.80 1.216
688.90 1.216
689.00 1.216
689.10 1.216
689.20 1.216
689.30 1.216
689.40 1.216
689.50 1.216
689.60 1.216
689.70 1.216
689.80 1.216
689.90 1.216
690.00 1.216
690.10 1.216
690.20 1.215
690.30 1.215
690.40 1.215
690.50 1.215
690.60 1.215
690.70 1.215
690.80 1.215
690.90 1.215
691.00 1.215
691.10 1.215
691.20 1.215
691.30 1.215
691.40 1.215
691.50 1.214
691.60 1.214
691.70 1.214
691.80 1.214
691.90 1.214
692.00 1.214
692.10 1.214
692.20 1.214
692.30 1.214
692.40 1.214
692.50 1.214
692.60 1.214
692.70 1.214
692.80 1.214
692.90 1.213
693.00 1.213
693.10 1.213
693.20 1.213
693.30 1.213
693.40 1.213
693.50 1.213
693.60 1.213
693.70 1.213
693.80 1.213
693.90 1.213
694.00 1.213
694.10 1.213
694.20 1.213
694.30 1.212
694.40 1.212
694.50 1.212
694.60 1.212
694.70 1.212
694.80 1.212
694.90 1.212
695.00 1.212
695.10 1.212
695.20 1.212
695.30 1.212
695.40 1.212
695.50 1.212
695.60 1.211
695.70 1.211
695.80 1.211
695.90 1.211
696.00 1.211
696.10 1.211
696.20 1.211
696.30 1.211
696.40 1.211
696.50 1.211
696.60 1.211
696.70 1.21
696.80 1.21
696.90 1.21
697.00 1.21
697.10 1.21
697.20 1.21
697.30 1.21
697.40 1.21
697.50 1.21
697.60 1.21
697.70 1.21
697.80 1.21
697.90 1.209
698.00 1.209
698.10 1.209
698.20 1.209
698.30 1.209
698.40 1.209
698.50 1.209
698.60 1.209
698.70 1.209
698.80 1.209
698.90 1.209
699.00 1.209
699.10 1.208
699.20 1.208
699.30 1.208
699.40 1.208
699.50 1.208
699.60 1.208
699.70 1.208
699.80 1.208
699.90 1.208
700.00 1.208
700.10 1.208
700.20 1.207
700.30 1.207
700.40 1.207
700.50 1.207
700.60 1.207
700.70 1.207
700.80 1.207
700.90 1.207
701.00 1.207
701.10 1.207
701.20 1.207
701.30 1.206
701.40 1.206
701.50 1.206
701.60 1.206
701.70 1.206
701.80 1.206
701.90 1.206
702.00 1.206
702.10 1.206
702.20 1.206
702.30 1.205
702.40 1.205
702.50 1.205
702.60 1.205
702.70 1.205
702.80 1.205
702.90 1.205
703.00 1.205
703.10 1.205
703.20 1.205
703.30 1.204
703.40 1.204
703.50 1.204
703.60 1.204
703.70 1.204
703.80 1.204
703.90 1.204
704.00 1.204
704.10 1.204
704.20 1.204
704.30 1.203
704.40 1.203
704.50 1.203
704.60 1.203
704.70 1.203
704.80 1.203
704.90 1.203
705.00 1.203
705.10 1.203
705.20 1.203
705.30 1.202
705.40 1.202
705.50 1.202
705.60 1.202
705.70 1.202
705.80 1.202
705.90 1.202
706.00 1.202
706.10 1.202
706.20 1.202
706.30 1.201
706.40 1.201
706.50 1.201
706.60 1.201
706.70 1.201
706.80 1.201
706.90 1.201
707.00 1.201
707.10 1.201
707.20 1.2
707.30 1.2
707.40 1.2
707.50 1.2
707.60 1.2
707.70 1.2
707.80 1.2
707.90 1.2
708.00 1.2
708.10 1.199
708.20 1.199
708.30 1.199
708.40 1.199
708.50 1.199
708.60 1.199
708.70 1.199
708.80 1.199
708.90 1.199
709.00 1.198
709.10 1.198
709.20 1.198
709.30 1.198
709.40 1.198
709.50 1.198
709.60 1.198
709.70 1.198
709.80 1.198
709.90 1.197
710.00 1.197
710.10 1.197
710.20 1.197
710.30 1.197
710.40 1.197
710.50 1.197
710.60 1.197
710.70 1.197
710.80 1.196
710.90 1.196
711.00 1.196
711.10 1.196
711.20 1.196
711.30 1.196
711.40 1.196
711.50 1.196
711.60 1.195
711.70 1.195
711.80 1.195
711.90 1.195
712.00 1.195
712.10 1.195
712.20 1.195
712.30 1.195
712.40 1.194
712.50 1.194
712.60 1.194
712.70 1.194
712.80 1.194
712.90 1.194
713.00 1.194
713.10 1.194
713.20 1.194
713.30 1.193
713.40 1.193
713.50 1.193
713.60 1.193
713.70 1.193
713.80 1.193
713.90 1.193
714.00 1.193
714.10 1.192
714.20 1.192
714.30 1.192
714.40 1.192
714.50 1.192
714.60 1.192
714.70 1.192
714.80 1.192
714.90 1.191
715.00 1.191
715.10 1.191
715.20 1.191
715.30 1.191
715.40 1.191
715.50 1.191
715.60 1.191
715.70 1.19
715.80 1.19
715.90 1.19
716.00 1.19
716.10 1.19
716.20 1.19
716.30 1.19
716.40 1.19
716.50 1.189
716.60 1.189
716.70 1.189
716.80 1.189
716.90 1.189
717.00 1.189
717.10 1.189
717.20 1.188
717.30 1.188
717.40 1.188
717.50 1.188
717.60 1.188
717.70 1.188
717.80 1.188
717.90 1.188
718.00 1.187
718.10 1.187
718.20 1.187
718.30 1.187
718.40 1.187
718.50 1.187
718.60 1.187
718.70 1.187
718.80 1.186
718.90 1.186
719.00 1.186
719.10 1.186
719.20 1.186
719.30 1.186
719.40 1.186
719.50 1.185
719.60 1.185
719.70 1.185
719.80 1.185
719.90 1.185
720.00 1.185
720.10 1.185
720.20 1.185
720.30 1.184
720.40 1.184
720.50 1.184
720.60 1.184
720.70 1.184
720.80 1.184
720.90 1.184
721.00 1.183
721.10 1.183
721.20 1.183
721.30 1.183
721.40 1.183
721.50 1.183
721.60 1.183
721.70 1.183
721.80 1.182
721.90 1.182
722.00 1.182
722.10 1.182
722.20 1.182
722.30 1.182
722.40 1.182
722.50 1.181
722.60 1.181
722.70 1.181
722.80 1.181
722.90 1.181
723.00 1.181
723.10 1.181
723.20 1.18
723.30 1.18
723.40 1.18
723.50 1.18
723.60 1.18
723.70 1.18
723.80 1.18
723.90 1.18
724.00 1.179
724.10 1.179
724.20 1.179
724.30 1.179
724.40 1.179
724.50 1.179
724.60 1.179
724.70 1.178
724.80 1.178
724.90 1.178
725.00 1.178
725.10 1.178
725.20 1.178
725.30 1.178
725.40 1.177
725.50 1.177
725.60 1.177
725.70 1.177
725.80 1.177
725.90 1.177
726.00 1.177
726.10 1.176
726.20 1.176
726.30 1.176
726.40 1.176
726.50 1.176
726.60 1.176
726.70 1.176
726.80 1.175
726.90 1.175
727.00 1.175
727.10 1.175
727.20 1.175
727.30 1.175
727.40 1.175
727.50 1.174
727.60 1.174
727.70 1.174
727.80 1.174
727.90 1.174
728.00 1.174
728.10 1.174
728.20 1.174
728.30 1.173
728.40 1.173
728.50 1.173
728.60 1.173
728.70 1.173
728.80 1.173
728.90 1.173
729.00 1.172
729.10 1.172
729.20 1.172
729.30 1.172
729.40 1.172
729.50 1.172
729.60 1.172
729.70 1.171
729.80 1.171
729.90 1.171
730.00 1.171
730.10 1.171
730.20 1.171
730.30 1.171
730.40 1.17
730.50 1.17
730.60 1.17
730.70 1.17
730.80 1.17
730.90 1.17
731.00 1.17
731.10 1.169
731.20 1.169
731.30 1.169
731.40 1.169
731.50 1.169
731.60 1.169
731.70 1.169
731.80 1.168
731.90 1.168
732.00 1.168
732.10 1.168
732.20 1.168
732.30 1.168
732.40 1.168
732.50 1.167
732.60 1.167
732.70 1.167
732.80 1.167
732.90 1.167
733.00 1.167
733.10 1.167
733.20 1.166
733.30 1.166
733.40 1.166
733.50 1.166
733.60 1.166
733.70 1.166
733.80 1.166
733.90 1.165
734.00 1.165
734.10 1.165
734.20 1.165
734.30 1.165
734.40 1.165
734.50 1.165
734.60 1.164
734.70 1.164
734.80 1.164
734.90 1.164
735.00 1.164
735.10 1.164
735.20 1.164
735.30 1.163
735.40 1.163
735.50 1.163
735.60 1.163
735.70 1.163
735.80 1.163
735.90 1.163
736.00 1.162
736.10 1.162
736.20 1.162
736.30 1.162
736.40 1.162
736.50 1.162
736.60 1.162
736.70 1.161
736.80 1.161
736.90 1.161
737.00 1.161
737.10 1.161
737.20 1.161
737.30 1.161
737.40 1.16
737.50 1.16
737.60 1.16
737.70 1.16
737.80 1.16
737.90 1.16
738.00 1.16
738.10 1.16
738.20 1.159
738.30 1.159
738.40 1.159
738.50 1.159
738.60 1.159
738.70 1.159
738.80 1.159
738.90 1.158
739.00 1.158
739.10 1.158
739.20 1.158
739.30 1.158
739.40 1.158
739.50 1.158
739.60 1.157
739.70 1.157
739.80 1.157
739.90 1.157
740.00 1.157
740.10 1.157
740.20 1.157
740.30 1.156
740.40 1.156
740.50 1.156
740.60 1.156
740.70 1.156
740.80 1.156
740.90 1.156
741.00 1.155
741.10 1.155
741.20 1.155
741.30 1.155
741.40 1.155
741.50 1.155
741.60 1.155
741.70 1.154
741.80 1.154
741.90 1.154
742.00 1.154
742.10 1.154
742.20 1.154
742.30 1.154
742.40 1.154
742.50 1.153
742.60 1.153
742.70 1.153
742.80 1.153
742.90 1.153
743.00 1.153
743.10 1.153
743.20 1.152
743.30 1.152
743.40 1.152
743.50 1.152
743.60 1.152
743.70 1.152
743.80 1.152
743.90 1.151
744.00 1.151
744.10 1.151
744.20 1.151
744.30 1.151
744.40 1.151
744.50 1.151
744.60 1.151
744.70 1.15
744.80 1.15
744.90 1.15
745.00 1.15
745.10 1.15
745.20 1.15
745.30 1.15
745.40 1.149
745.50 1.149
745.60 1.149
745.70 1.149
745.80 1.149
745.90 1.149
746.00 1.149
746.10 1.148
746.20 1.148
746.30 1.148
746.40 1.148
746.50 1.148
746.60 1.148
746.70 1.148
746.80 1.148
746.90 1.147
747.00 1.147
747.10 1.147
747.20 1.147
747.30 1.147
747.40 1.147
747.50 1.147
747.60 1.146
747.70 1.146
747.80 1.146
747.90 1.146
748.00 1.146
748.10 1.146
748.20 1.146
748.30 1.145
748.40 1.145
748.50 1.145
748.60 1.145
748.70 1.145
748.80 1.145
748.90 1.145
749.00 1.145
749.10 1.144
749.20 1.144
749.30 1.144
749.40 1.144
749.50 1.144
749.60 1.144
749.70 1.144
749.80 1.143
749.90 1.143
750.00 1.143
750.10 1.143
750.20 1.143
750.30 1.143
750.40 1.143
750.50 1.142
750.60 1.142
750.70 1.142
750.80 1.142
750.90 1.142
751.00 1.142
751.10 1.142
751.20 1.142
751.30 1.141
751.40 1.141
751.50 1.141
751.60 1.141
751.70 1.141
751.80 1.141
751.90 1.141
752.00 1.14
752.10 1.14
752.20 1.14
752.30 1.14
752.40 1.14
752.50 1.14
752.60 1.14
752.70 1.14
752.80 1.139
752.90 1.139
753.00 1.139
753.10 1.139
753.20 1.139
753.30 1.139
753.40 1.139
753.50 1.138
753.60 1.138
753.70 1.138
753.80 1.138
753.90 1.138
754.00 1.138
754.10 1.138
754.20 1.138
754.30 1.137
754.40 1.137
754.50 1.137
754.60 1.137
754.70 1.137
754.80 1.137
754.90 1.137
755.00 1.136
755.10 1.136
755.20 1.136
755.30 1.136
755.40 1.136
755.50 1.136
755.60 1.136
755.70 1.136
755.80 1.135
755.90 1.135
756.00 1.135
756.10 1.135
756.20 1.135
756.30 1.135
756.40 1.135
756.50 1.135
756.60 1.134
756.70 1.134
756.80 1.134
756.90 1.134
757.00 1.134
757.10 1.134
757.20 1.134
757.30 1.133
757.40 1.133
757.50 1.133
757.60 1.133
757.70 1.133
757.80 1.133
757.90 1.133
758.00 1.133
758.10 1.132
758.20 1.132
758.30 1.132
758.40 1.132
758.50 1.132
758.60 1.132
758.70 1.132
758.80 1.131
758.90 1.131
759.00 1.131
759.10 1.131
759.20 1.131
759.30 1.131
759.40 1.131
759.50 1.131
759.60 1.13
759.70 1.13
759.80 1.13
759.90 1.13
760.00 1.13
760.10 1.13
760.20 1.13
760.30 1.13
760.40 1.129
760.50 1.129
760.60 1.129
760.70 1.129
760.80 1.129
760.90 1.129
761.00 1.129
761.10 1.128
761.20 1.128
761.30 1.128
761.40 1.128
761.50 1.128
761.60 1.128
761.70 1.128
761.80 1.128
761.90 1.127
762.00 1.127
762.10 1.127
762.20 1.127
762.30 1.127
762.40 1.127
762.50 1.127
762.60 1.126
762.70 1.126
762.80 1.126
762.90 1.126
763.00 1.126
763.10 1.126
763.20 1.126
763.30 1.126
763.40 1.125
763.50 1.125
763.60 1.125
763.70 1.125
763.80 1.125
763.90 1.125
764.00 1.125
764.10 1.125
764.20 1.124
764.30 1.124
764.40 1.124
764.50 1.124
764.60 1.124
764.70 1.124
764.80 1.124
764.90 1.123
765.00 1.123
765.10 1.123
765.20 1.123
765.30 1.123
765.40 1.123
765.50 1.123
765.60 1.123
765.70 1.122
765.80 1.122
765.90 1.122
766.00 1.122
766.10 1.122
766.20 1.122
766.30 1.122
766.40 1.122
766.50 1.121
766.60 1.121
766.70 1.121
766.80 1.121
766.90 1.121
767.00 1.121
767.10 1.121
767.20 1.12
767.30 1.12
767.40 1.12
767.50 1.12
767.60 1.12
767.70 1.12
767.80 1.12
767.90 1.12
768.00 1.119
768.10 1.119
768.20 1.119
768.30 1.119
768.40 1.119
768.50 1.119
768.60 1.119
768.70 1.119
768.80 1.118
768.90 1.118
769.00 1.118
769.10 1.118
769.20 1.118
769.30 1.118
769.40 1.118
769.50 1.117
769.60 1.117
769.70 1.117
769.80 1.117
769.90 1.117
770.00 1.117
770.10 1.117
770.20 1.117
770.30 1.116
770.40 1.116
770.50 1.116
770.60 1.116
770.70 1.116
770.80 1.116
770.90 1.116
771.00 1.116
771.10 1.115
771.20 1.115
771.30 1.115
771.40 1.115
771.50 1.115
771.60 1.115
771.70 1.115
771.80 1.115
771.90 1.114
772.00 1.114
772.10 1.114
772.20 1.114
772.30 1.114
772.40 1.114
772.50 1.114
772.60 1.114
772.70 1.113
772.80 1.113
772.90 1.113
773.00 1.113
773.10 1.113
773.20 1.113
773.30 1.113
773.40 1.113
773.50 1.112
773.60 1.112
773.70 1.112
773.80 1.112
773.90 1.112
774.00 1.112
774.10 1.112
774.20 1.112
774.30 1.111
774.40 1.111
774.50 1.111
774.60 1.111
774.70 1.111
774.80 1.111
774.90 1.111
775.00 1.111
775.10 1.11
775.20 1.11
775.30 1.11
775.40 1.11
775.50 1.11
775.60 1.11
775.70 1.11
775.80 1.11
775.90 1.109
776.00 1.109
776.10 1.109
776.20 1.109
776.30 1.109
776.40 1.109
776.50 1.109
776.60 1.109
776.70 1.108
776.80 1.108
776.90 1.108
777.00 1.108
777.10 1.108
777.20 1.108
777.30 1.108
777.40 1.108
777.50 1.107
777.60 1.107
777.70 1.107
777.80 1.107
777.90 1.107
778.00 1.107
778.10 1.107
778.20 1.107
778.30 1.106
778.40 1.106
778.50 1.106
778.60 1.106
778.70 1.106
778.80 1.106
778.90 1.106
779.00 1.106
779.10 1.105
779.20 1.105
779.30 1.105
779.40 1.105
779.50 1.105
779.60 1.105
779.70 1.105
779.80 1.105
779.90 1.104
780.00 1.104
780.10 1.104
780.20 1.104
780.30 1.104
780.40 1.104
780.50 1.104
780.60 1.104
780.70 1.103
780.80 1.103
780.90 1.103
781.00 1.103
781.10 1.103
781.20 1.103
781.30 1.103
781.40 1.103
781.50 1.102
781.60 1.102
781.70 1.102
781.80 1.102
781.90 1.102
782.00 1.102
782.10 1.102
782.20 1.102
782.30 1.101
782.40 1.101
782.50 1.101
782.60 1.101
782.70 1.101
782.80 1.101
782.90 1.101
783.00 1.101
783.10 1.101
783.20 1.1
783.30 1.1
783.40 1.1
783.50 1.1
783.60 1.1
783.70 1.1
783.80 1.1
783.90 1.1
784.00 1.099
784.10 1.099
784.20 1.099
784.30 1.099
784.40 1.099
784.50 1.099
784.60 1.099
784.70 1.099
784.80 1.098
784.90 1.098
785.00 1.098
785.10 1.098
785.20 1.098
785.30 1.098
785.40 1.098
785.50 1.098
785.60 1.098
785.70 1.097
785.80 1.097
785.90 1.097
786.00 1.097
786.10 1.097
786.20 1.097
786.30 1.097
786.40 1.097
786.50 1.096
786.60 1.096
786.70 1.096
786.80 1.096
786.90 1.096
787.00 1.096
787.10 1.096
787.20 1.096
787.30 1.095
787.40 1.095
787.50 1.095
787.60 1.095
787.70 1.095
787.80 1.095
787.90 1.095
788.00 1.095
788.10 1.095
788.20 1.094
788.30 1.094
788.40 1.094
788.50 1.094
788.60 1.094
788.70 1.094
788.80 1.094
788.90 1.094
789.00 1.093
789.10 1.093
789.20 1.093
789.30 1.093
789.40 1.093
789.50 1.093
789.60 1.093
789.70 1.093
789.80 1.092
789.90 1.092
790.00 1.092
790.10 1.092
790.20 1.092
790.30 1.092
790.40 1.092
790.50 1.092
790.60 1.092
790.70 1.091
790.80 1.091
790.90 1.091
791.00 1.091
791.10 1.091
791.20 1.091
791.30 1.091
791.40 1.091
791.50 1.09
791.60 1.09
791.70 1.09
791.80 1.09
791.90 1.09
792.00 1.09
792.10 1.09
792.20 1.09
792.30 1.089
792.40 1.089
792.50 1.089
792.60 1.089
792.70 1.089
792.80 1.089
792.90 1.089
793.00 1.089
793.10 1.088
793.20 1.088
793.30 1.088
793.40 1.088
793.50 1.088
793.60 1.088
793.70 1.088
793.80 1.088
793.90 1.087
794.00 1.087
794.10 1.087
794.20 1.087
794.30 1.087
794.40 1.087
794.50 1.087
794.60 1.087
794.70 1.086
794.80 1.086
794.90 1.086
795.00 1.086
795.10 1.086
795.20 1.086
795.30 1.086
795.40 1.086
795.50 1.085
795.60 1.085
795.70 1.085
795.80 1.085
795.90 1.085
796.00 1.085
796.10 1.085
796.20 1.085
796.30 1.084
796.40 1.084
796.50 1.084
796.60 1.084
796.70 1.084
796.80 1.084
796.90 1.084
797.00 1.084
797.10 1.084
797.20 1.083
797.30 1.083
797.40 1.083
797.50 1.083
797.60 1.083
797.70 1.083
797.80 1.083
797.90 1.083
798.00 1.082
798.10 1.082
798.20 1.082
798.30 1.082
798.40 1.082
798.50 1.082
798.60 1.082
798.70 1.082
798.80 1.081
798.90 1.081
799.00 1.081
799.10 1.081
799.20 1.081
799.30 1.081
799.40 1.081
799.50 1.081
799.60 1.08
799.70 1.08
799.80 1.08
799.90 1.08
800.00 1.08
800.10 1.08
800.20 1.08
800.30 1.08
800.40 1.079
800.50 1.079
800.60 1.079
800.70 1.079
800.80 1.079
800.90 1.079
801.00 1.079
801.10 1.078
801.20 1.078
801.30 1.078
801.40 1.078
801.50 1.078
801.60 1.078
801.70 1.078
801.80 1.078
801.90 1.077
802.00 1.077
802.10 1.077
802.20 1.077
802.30 1.077
802.40 1.077
802.50 1.077
802.60 1.076
802.70 1.076
802.80 1.076
802.90 1.076
803.00 1.076
803.10 1.076
803.20 1.076
803.30 1.075
803.40 1.075
803.50 1.075
803.60 1.075
803.70 1.075
803.80 1.075
803.90 1.075
804.00 1.075
804.10 1.074
804.20 1.074
804.30 1.074
804.40 1.074
804.50 1.074
804.60 1.074
804.70 1.074
804.80 1.073
804.90 1.073
805.00 1.073
805.10 1.073
805.20 1.073
805.30 1.073
805.40 1.073
805.50 1.072
805.60 1.072
805.70 1.072
805.80 1.072
805.90 1.072
806.00 1.072
806.10 1.072
806.20 1.072
806.30 1.071
806.40 1.071
806.50 1.071
806.60 1.071
806.70 1.071
806.80 1.071
806.90 1.071
807.00 1.07
807.10 1.07
807.20 1.07
807.30 1.07
807.40 1.07
807.50 1.07
807.60 1.07
807.70 1.07
807.80 1.069
807.90 1.069
808.00 1.069
808.10 1.069
808.20 1.069
808.30 1.069
808.40 1.069
808.50 1.068
808.60 1.068
808.70 1.068
808.80 1.068
808.90 1.068
809.00 1.068
809.10 1.068
809.20 1.067
809.30 1.067
809.40 1.067
809.50 1.067
809.60 1.067
809.70 1.067
809.80 1.067
809.90 1.067
810.00 1.066
810.10 1.066
810.20 1.066
810.30 1.066
810.40 1.066
810.50 1.066
810.60 1.065
810.70 1.065
810.80 1.065
810.90 1.065
811.00 1.065
811.10 1.065
811.20 1.065
811.30 1.064
811.40 1.064
811.50 1.064
811.60 1.064
811.70 1.064
811.80 1.064
811.90 1.063
812.00 1.063
812.10 1.063
812.20 1.063
812.30 1.063
812.40 1.063
812.50 1.063
812.60 1.062
812.70 1.062
812.80 1.062
812.90 1.062
813.00 1.062
813.10 1.062
813.20 1.061
813.30 1.061
813.40 1.061
813.50 1.061
813.60 1.061
813.70 1.061
813.80 1.061
813.90 1.06
814.00 1.06
814.10 1.06
814.20 1.06
814.30 1.06
814.40 1.06
814.50 1.06
814.60 1.059
814.70 1.059
814.80 1.059
814.90 1.059
815.00 1.059
815.10 1.059
815.20 1.058
815.30 1.058
815.40 1.058
815.50 1.058
815.60 1.058
815.70 1.058
815.80 1.058
815.90 1.057
816.00 1.057
816.10 1.057
816.20 1.057
816.30 1.057
816.40 1.057
816.50 1.056
816.60 1.056
816.70 1.056
816.80 1.056
816.90 1.056
817.00 1.056
817.10 1.056
817.20 1.055
817.30 1.055
817.40 1.055
817.50 1.055
817.60 1.055
817.70 1.055
817.80 1.055
817.90 1.054
818.00 1.054
818.10 1.054
818.20 1.054
818.30 1.054
818.40 1.054
818.50 1.053
818.60 1.053
818.70 1.053
818.80 1.053
818.90 1.053
819.00 1.053
819.10 1.053
819.20 1.052
819.30 1.052
819.40 1.052
819.50 1.052
819.60 1.052
819.70 1.052
819.80 1.051
819.90 1.051
820.00 1.051
820.10 1.051
820.20 1.051
820.30 1.051
820.40 1.051
820.50 1.05
820.60 1.05
820.70 1.05
820.80 1.05
820.90 1.05
821.00 1.05
821.10 1.049
821.20 1.049
821.30 1.049
821.40 1.049
821.50 1.049
821.60 1.049
821.70 1.048
821.80 1.048
821.90 1.048
822.00 1.048
822.10 1.048
822.20 1.048
822.30 1.048
822.40 1.047
822.50 1.047
822.60 1.047
822.70 1.047
822.80 1.047
822.90 1.047
823.00 1.046
823.10 1.046
823.20 1.046
823.30 1.046
823.40 1.046
823.50 1.046
823.60 1.045
823.70 1.045
823.80 1.045
823.90 1.045
824.00 1.045
824.10 1.045
824.20 1.044
824.30 1.044
824.40 1.044
824.50 1.044
824.60 1.044
824.70 1.044
824.80 1.043
824.90 1.043
825.00 1.043
825.10 1.043
825.20 1.043
825.30 1.043
825.40 1.042
825.50 1.042
825.60 1.042
825.70 1.042
825.80 1.042
825.90 1.042
826.00 1.041
826.10 1.041
826.20 1.041
826.30 1.041
826.40 1.041
826.50 1.041
826.60 1.04
826.70 1.04
826.80 1.04
826.90 1.04
827.00 1.04
827.10 1.04
827.20 1.039
827.30 1.039
827.40 1.039
827.50 1.039
827.60 1.039
827.70 1.039
827.80 1.038
827.90 1.038
828.00 1.038
828.10 1.038
828.20 1.038
828.30 1.038
828.40 1.037
828.50 1.037
828.60 1.037
828.70 1.037
828.80 1.037
828.90 1.036
829.00 1.036
829.10 1.036
829.20 1.036
829.30 1.036
829.40 1.036
829.50 1.035
829.60 1.035
829.70 1.035
829.80 1.035
829.90 1.035
830.00 1.035
830.10 1.034
830.20 1.034
830.30 1.034
830.40 1.034
830.50 1.034
830.60 1.034
830.70 1.033
830.80 1.033
830.90 1.033
831.00 1.033
831.10 1.033
831.20 1.033
831.30 1.032
831.40 1.032
831.50 1.032
831.60 1.032
831.70 1.032
831.80 1.032
831.90 1.031
832.00 1.031
832.10 1.031
832.20 1.031
832.30 1.031
832.40 1.031
832.50 1.03
832.60 1.03
832.70 1.03
832.80 1.03
832.90 1.03
833.00 1.029
833.10 1.029
833.20 1.029
833.30 1.029
833.40 1.029
833.50 1.029
833.60 1.028
833.70 1.028
833.80 1.028
833.90 1.028
834.00 1.028
834.10 1.028
834.20 1.027
834.30 1.027
834.40 1.027
834.50 1.027
834.60 1.027
834.70 1.026
834.80 1.026
834.90 1.026
835.00 1.026
835.10 1.026
835.20 1.026
835.30 1.025
835.40 1.025
835.50 1.025
835.60 1.025
835.70 1.025
835.80 1.025
835.90 1.024
836.00 1.024
836.10 1.024
836.20 1.024
836.30 1.024
836.40 1.023
836.50 1.023
836.60 1.023
836.70 1.023
836.80 1.023
836.90 1.023
837.00 1.022
837.10 1.022
837.20 1.022
837.30 1.022
837.40 1.022
837.50 1.022
837.60 1.021
837.70 1.021
837.80 1.021
837.90 1.021
838.00 1.021
838.10 1.02
838.20 1.02
838.30 1.02
838.40 1.02
838.50 1.02
838.60 1.02
838.70 1.019
838.80 1.019
838.90 1.019
839.00 1.019
839.10 1.019
839.20 1.018
839.30 1.018
839.40 1.018
839.50 1.018
839.60 1.018
839.70 1.018
839.80 1.017
839.90 1.017
840.00 1.017
840.10 1.017
840.20 1.017
840.30 1.016
840.40 1.016
840.50 1.016
840.60 1.016
840.70 1.016
840.80 1.016
840.90 1.015
841.00 1.015
841.10 1.015
841.20 1.015
841.30 1.015
841.40 1.014
841.50 1.014
841.60 1.014
841.70 1.014
841.80 1.014
841.90 1.014
842.00 1.013
842.10 1.013
842.20 1.013
842.30 1.013
842.40 1.013
842.50 1.012
842.60 1.012
842.70 1.012
842.80 1.012
842.90 1.012
843.00 1.012
843.10 1.011
843.20 1.011
843.30 1.011
843.40 1.011
843.50 1.011
843.60 1.01
843.70 1.01
843.80 1.01
843.90 1.01
844.00 1.01
844.10 1.009
844.20 1.009
844.30 1.009
844.40 1.009
844.50 1.009
844.60 1.009
844.70 1.008
844.80 1.008
844.90 1.008
845.00 1.008
845.10 1.008
845.20 1.007
845.30 1.007
845.40 1.007
845.50 1.007
845.60 1.007
845.70 1.007
845.80 1.006
845.90 1.006
846.00 1.006
846.10 1.006
846.20 1.006
846.30 1.005
846.40 1.005
846.50 1.005
846.60 1.005
846.70 1.005
846.80 1.004
846.90 1.004
847.00 1.004
847.10 1.004
847.20 1.004
847.30 1.004
847.40 1.003
847.50 1.003
847.60 1.003
847.70 1.003
847.80 1.003
847.90 1.002
848.00 1.002
848.10 1.002
848.20 1.002
848.30 1.002
848.40 1.001
848.50 1.001
848.60 1.001
848.70 1.001
848.80 1.001
848.90 1
849.00 1
849.10 1
849.20 0.9999
849.30 0.9997
849.40 0.9995
849.50 0.9994
849.60 0.9992
849.70 0.999
849.80 0.9988
849.90 0.9986
850.00 0.9984
850.10 0.9982
850.20 0.998
850.30 0.9978
850.40 0.9977
850.50 0.9975
850.60 0.9973
850.70 0.9971
850.80 0.9969
850.90 0.9967
851.00 0.9965
851.10 0.9963
851.20 0.9961
851.30 0.996
851.40 0.9958
851.50 0.9956
851.60 0.9954
851.70 0.9952
851.80 0.995
851.90 0.9948
852.00 0.9946
852.10 0.9944
852.20 0.9942
852.30 0.9941
852.40 0.9939
852.50 0.9937
852.60 0.9935
852.70 0.9933
852.80 0.9931
852.90 0.9929
853.00 0.9927
853.10 0.9925
853.20 0.9923
853.30 0.9921
853.40 0.9919
853.50 0.9917
853.60 0.9915
853.70 0.9913
853.80 0.9911
853.90 0.9909
854.00 0.9907
854.10 0.9905
854.20 0.9903
854.30 0.9901
854.40 0.9899
854.50 0.9897
854.60 0.9895
854.70 0.9894
854.80 0.9892
854.90 0.989
855.00 0.9888
855.10 0.9886
855.20 0.9884
855.30 0.9882
855.40 0.988
855.50 0.9878
855.60 0.9876
855.70 0.9874
855.80 0.9872
855.90 0.987
856.00 0.9868
856.10 0.9866
856.20 0.9864
856.30 0.9862
856.40 0.986
856.50 0.9858
856.60 0.9857
856.70 0.9855
856.80 0.9853
856.90 0.9851
857.00 0.9849
857.10 0.9847
857.20 0.9845
857.30 0.9843
857.40 0.9841
857.50 0.9839
857.60 0.9837
857.70 0.9835
857.80 0.9833
857.90 0.9831
858.00 0.9829
858.10 0.9827
858.20 0.9825
858.30 0.9823
858.40 0.9821
858.50 0.9819
858.60 0.9817
858.70 0.9815
858.80 0.9813
858.90 0.9811
859.00 0.9809
859.10 0.9807
859.20 0.9805
859.30 0.9803
859.40 0.9801
859.50 0.9799
859.60 0.9797
859.70 0.9795
859.80 0.9793
859.90 0.9791
860.00 0.9789
860.10 0.9787
860.20 0.9785
860.30 0.9783
860.40 0.9781
860.50 0.9779
860.60 0.9777
860.70 0.9775
860.80 0.9773
860.90 0.9771
861.00 0.9769
861.10 0.9767
861.20 0.9765
861.30 0.9763
861.40 0.9761
861.50 0.9759
861.60 0.9757
861.70 0.9755
861.80 0.9753
861.90 0.9751
862.00 0.9749
862.10 0.9747
862.20 0.9745
862.30 0.9743
862.40 0.9741
862.50 0.9739
862.60 0.9737
862.70 0.9735
862.80 0.9733
862.90 0.9731
863.00 0.9728
863.10 0.9726
863.20 0.9724
863.30 0.9722
863.40 0.972
863.50 0.9718
863.60 0.9716
863.70 0.9714
863.80 0.9712
863.90 0.971
864.00 0.9708
864.10 0.9706
864.20 0.9704
864.30 0.9702
864.40 0.97
864.50 0.9698
864.60 0.9696
864.70 0.9694
864.80 0.9691
864.90 0.9689
865.00 0.9687
865.10 0.9685
865.20 0.9683
865.30 0.9681
865.40 0.9679
865.50 0.9677
865.60 0.9675
865.70 0.9673
865.80 0.9671
865.90 0.9669
866.00 0.9667
866.10 0.9665
866.20 0.9663
866.30 0.9661
866.40 0.9659
866.50 0.9657
866.60 0.9655
866.70 0.9653
866.80 0.9651
866.90 0.9649
867.00 0.9647
867.10 0.9644
867.20 0.9642
867.30 0.964
867.40 0.9638
867.50 0.9636
867.60 0.9634
867.70 0.9632
867.80 0.963
867.90 0.9627
868.00 0.9625
868.10 0.9623
868.20 0.9621
868.30 0.9619
868.40 0.9617
868.50 0.9615
868.60 0.9613
868.70 0.9611
868.80 0.9608
868.90 0.9606
869.00 0.9604
869.10 0.9602
869.20 0.96
869.30 0.9598
869.40 0.9596
869.50 0.9594
869.60 0.9592
869.70 0.9589
869.80 0.9587
869.90 0.9585
870.00 0.9583
870.10 0.9581
870.20 0.9579
870.30 0.9577
870.40 0.9575
870.50 0.9573
870.60 0.957
870.70 0.9568
870.80 0.9566
870.90 0.9564
871.00 0.9562
871.10 0.956
871.20 0.9558
871.30 0.9556
871.40 0.9554
871.50 0.9552
871.60 0.9549
871.70 0.9547
871.80 0.9545
871.90 0.9543
872.00 0.9541
872.10 0.9539
872.20 0.9537
872.30 0.9534
872.40 0.9532
872.50 0.953
872.60 0.9528
872.70 0.9526
872.80 0.9524
872.90 0.9521
873.00 0.9519
873.10 0.9517
873.20 0.9515
873.30 0.9513
873.40 0.951
873.50 0.9508
873.60 0.9506
873.70 0.9504
873.80 0.9502
873.90 0.9499
874.00 0.9497
874.10 0.9495
874.20 0.9493
874.30 0.9491
874.40 0.9489
874.50 0.9486
874.60 0.9484
874.70 0.9482
874.80 0.948
874.90 0.9478
875.00 0.9476
875.10 0.9473
875.20 0.9471
875.30 0.9469
875.40 0.9467
875.50 0.9465
875.60 0.9462
875.70 0.946
875.80 0.9458
875.90 0.9456
876.00 0.9454
876.10 0.9452
876.20 0.9449
876.30 0.9447
876.40 0.9445
876.50 0.9443
876.60 0.9441
876.70 0.9439
876.80 0.9437
876.90 0.9434
877.00 0.9432
877.10 0.943
877.20 0.9428
877.30 0.9425
877.40 0.9423
877.50 0.9421
877.60 0.9418
877.70 0.9416
877.80 0.9414
877.90 0.9412
878.00 0.9409
878.10 0.9407
878.20 0.9405
878.30 0.9402
878.40 0.94
878.50 0.9398
878.60 0.9396
878.70 0.9393
878.80 0.9391
878.90 0.9389
879.00 0.9387
879.10 0.9384
879.20 0.9382
879.30 0.938
879.40 0.9377
879.50 0.9375
879.60 0.9373
879.70 0.9371
879.80 0.9368
879.90 0.9366
880.00 0.9364
880.10 0.9362
880.20 0.9359
880.30 0.9357
880.40 0.9355
880.50 0.9352
880.60 0.935
880.70 0.9348
880.80 0.9346
880.90 0.9343
881.00 0.9341
881.10 0.9339
881.20 0.9337
881.30 0.9334
881.40 0.9332
881.50 0.933
881.60 0.9328
881.70 0.9325
881.80 0.9323
881.90 0.9321
882.00 0.9319
882.10 0.9316
882.20 0.9314
882.30 0.9311
882.40 0.9309
882.50 0.9307
882.60 0.9304
882.70 0.9302
882.80 0.9299
882.90 0.9297
883.00 0.9295
883.10 0.9292
883.20 0.929
883.30 0.9288
883.40 0.9285
883.50 0.9283
883.60 0.928
883.70 0.9278
883.80 0.9276
883.90 0.9273
884.00 0.9271
884.10 0.9269
884.20 0.9266
884.30 0.9264
884.40 0.9261
884.50 0.9259
884.60 0.9257
884.70 0.9254
884.80 0.9252
884.90 0.925
885.00 0.9247
885.10 0.9245
885.20 0.9242
885.30 0.924
885.40 0.9238
885.50 0.9235
885.60 0.9233
885.70 0.9231
885.80 0.9228
885.90 0.9226
886.00 0.9224
886.10 0.9221
886.20 0.9219
886.30 0.9216
886.40 0.9214
886.50 0.9212
886.60 0.9209
886.70 0.9207
886.80 0.9205
886.90 0.9202
887.00 0.92
887.10 0.9197
887.20 0.9195
887.30 0.9192
887.40 0.919
887.50 0.9187
887.60 0.9185
887.70 0.9182
887.80 0.918
887.90 0.9177
888.00 0.9175
888.10 0.9172
888.20 0.917
888.30 0.9167
888.40 0.9165
888.50 0.9162
888.60 0.916
888.70 0.9157
888.80 0.9155
888.90 0.9152
889.00 0.915
889.10 0.9147
889.20 0.9145
889.30 0.9142
889.40 0.914
889.50 0.9137
889.60 0.9135
889.70 0.9133
889.80 0.913
889.90 0.9128
890.00 0.9125
890.10 0.9123
890.20 0.912
890.30 0.9118
890.40 0.9115
890.50 0.9113
890.60 0.911
890.70 0.9108
890.80 0.9105
890.90 0.9103
891.00 0.91
891.10 0.9098
891.20 0.9095
891.30 0.9093
891.40 0.909
891.50 0.9088
891.60 0.9085
891.70 0.9083
891.80 0.908
891.90 0.9078
892.00 0.9076
892.10 0.9073
892.20 0.9071
892.30 0.9069
892.40 0.9066
892.50 0.9064
892.60 0.9062
892.70 0.9059
892.80 0.9057
892.90 0.9055
893.00 0.9053
893.10 0.905
893.20 0.9048
893.30 0.9046
893.40 0.9043
893.50 0.9041
893.60 0.9039
893.70 0.9037
893.80 0.9034
893.90 0.9032
894.00 0.903
894.10 0.9027
894.20 0.9025
894.30 0.9023
894.40 0.9021
894.50 0.9018
894.60 0.9016
894.70 0.9014
894.80 0.9011
894.90 0.9009
895.00 0.9007
895.10 0.9005
895.20 0.9002
895.30 0.9
895.40 0.8998
895.50 0.8995
895.60 0.8993
895.70 0.8991
895.80 0.8989
895.90 0.8986
896.00 0.8984
896.10 0.8982
896.20 0.898
896.30 0.8977
896.40 0.8975
896.50 0.8973
896.60 0.8971
896.70 0.8968
896.80 0.8966
896.90 0.8964
897.00 0.8961
897.10 0.8959
897.20 0.8956
897.30 0.8953
897.40 0.895
897.50 0.8947
897.60 0.8945
897.70 0.8942
897.80 0.8939
897.90 0.8936
898.00 0.8934
898.10 0.8931
898.20 0.8928
898.30 0.8925
898.40 0.8922
898.50 0.892
898.60 0.8917
898.70 0.8914
898.80 0.8911
898.90 0.8908
899.00 0.8906
899.10 0.8903
899.20 0.89
899.30 0.8897
899.40 0.8895
899.50 0.8892
899.60 0.8889
899.70 0.8886
899.80 0.8883
899.90 0.8881
900.00 0.8878
900.10 0.8875
900.20 0.8872
900.30 0.887
900.40 0.8867
900.50 0.8864
900.60 0.8861
900.70 0.8859
900.80 0.8856
900.90 0.8853
901.00 0.885
901.10 0.8848
901.20 0.8845
901.30 0.8842
901.40 0.8839
901.50 0.8836
901.60 0.8834
901.70 0.8831
901.80 0.8828
901.90 0.8825
902.00 0.8823
902.10 0.8819
902.20 0.8815
902.30 0.8812
902.40 0.8808
902.50 0.8804
902.60 0.8801
902.70 0.8797
902.80 0.8793
902.90 0.8789
903.00 0.8786
903.10 0.8782
903.20 0.8778
903.30 0.8775
903.40 0.8771
903.50 0.8767
903.60 0.8764
903.70 0.876
903.80 0.8756
903.90 0.8753
904.00 0.8749
904.10 0.8745
904.20 0.8742
904.30 0.8738
904.40 0.8734
904.50 0.8731
904.60 0.8727
904.70 0.8723
904.80 0.872
904.90 0.8716
905.00 0.8712
905.10 0.8709
905.20 0.8705
905.30 0.8701
905.40 0.8698
905.50 0.8694
905.60 0.869
905.70 0.8687
905.80 0.8683
905.90 0.8679
906.00 0.8676
906.10 0.8672
906.20 0.8669
906.30 0.8665
906.40 0.8661
906.50 0.8658
906.60 0.8654
906.70 0.865
906.80 0.8647
906.90 0.8643
907.00 0.8639
907.10 0.8636
907.20 0.8633
907.30 0.863
907.40 0.8627
907.50 0.8624
907.60 0.862
907.70 0.8617
907.80 0.8614
907.90 0.8611
908.00 0.8608
908.10 0.8605
908.20 0.8601
908.30 0.8598
908.40 0.8595
908.50 0.8592
908.60 0.8589
908.70 0.8586
908.80 0.8582
908.90 0.8579
909.00 0.8576
909.10 0.8573
909.20 0.857
909.30 0.8567
909.40 0.8563
909.50 0.856
909.60 0.8557
909.70 0.8554
909.80 0.8551
909.90 0.8548
910.00 0.8545
910.10 0.8541
910.20 0.8538
910.30 0.8535
910.40 0.8532
910.50 0.8529
910.60 0.8526
910.70 0.8523
910.80 0.8519
910.90 0.8516
911.00 0.8513
911.10 0.851
911.20 0.8507
911.30 0.8504
911.40 0.8501
911.50 0.8497
911.60 0.8494
911.70 0.8491
911.80 0.8488
911.90 0.8485
912.00 0.8482
912.10 0.8479
912.20 0.8476
912.30 0.8474
912.40 0.8471
912.50 0.8468
912.60 0.8465
912.70 0.8463
912.80 0.846
912.90 0.8457
913.00 0.8454
913.10 0.8452
913.20 0.8449
913.30 0.8446
913.40 0.8443
913.50 0.8441
913.60 0.8438
913.70 0.8435
913.80 0.8432
913.90 0.843
914.00 0.8427
914.10 0.8424
914.20 0.8421
914.30 0.8419
914.40 0.8416
914.50 0.8413
914.60 0.841
914.70 0.8408
914.80 0.8405
914.90 0.8402
915.00 0.8399
915.10 0.8397
915.20 0.8394
915.30 0.8391
915.40 0.8389
915.50 0.8386
915.60 0.8383
915.70 0.838
915.80 0.8378
915.90 0.8375
916.00 0.8372
916.10 0.8369
916.20 0.8367
916.30 0.8364
916.40 0.8361
916.50 0.8359
916.60 0.8356
916.70 0.8353
916.80 0.835
916.90 0.8348
917.00 0.8345
917.10 0.8342
917.20 0.8339
917.30 0.8336
917.40 0.8333
917.50 0.833
917.60 0.8327
917.70 0.8323
917.80 0.832
917.90 0.8317
918.00 0.8314
918.10 0.8311
918.20 0.8308
918.30 0.8305
918.40 0.8302
918.50 0.8299
918.60 0.8296
918.70 0.8293
918.80 0.829
918.90 0.8287
919.00 0.8283
919.10 0.828
919.20 0.8277
919.30 0.8274
919.40 0.8271
919.50 0.8268
919.60 0.8265
919.70 0.8262
919.80 0.8259
919.90 0.8256
920.00 0.8253
920.10 0.825
920.20 0.8247
920.30 0.8244
920.40 0.8241
920.50 0.8238
920.60 0.8235
920.70 0.8231
920.80 0.8228
920.90 0.8225
921.00 0.8222
921.10 0.8219
921.20 0.8216
921.30 0.8213
921.40 0.821
921.50 0.8207
921.60 0.8204
921.70 0.8201
921.80 0.8198
921.90 0.8195
922.00 0.8192
922.10 0.8189
922.20 0.8186
922.30 0.8182
922.40 0.8179
922.50 0.8176
922.60 0.8173
922.70 0.817
922.80 0.8167
922.90 0.8164
923.00 0.816
923.10 0.8157
923.20 0.8154
923.30 0.8151
923.40 0.8148
923.50 0.8145
923.60 0.8142
923.70 0.8138
923.80 0.8135
923.90 0.8132
924.00 0.8129
924.10 0.8126
924.20 0.8123
924.30 0.812
924.40 0.8117
924.50 0.8113
924.60 0.811
924.70 0.8107
924.80 0.8104
924.90 0.8101
925.00 0.8098
925.10 0.8095
925.20 0.8092
925.30 0.8088
925.40 0.8085
925.50 0.8082
925.60 0.8079
925.70 0.8076
925.80 0.8073
925.90 0.807
926.00 0.8067
926.10 0.8064
926.20 0.806
926.30 0.8057
926.40 0.8054
926.50 0.8051
926.60 0.8048
926.70 0.8045
926.80 0.8042
926.90 0.8039
927.00 0.8036
927.10 0.8032
927.20 0.8029
927.30 0.8026
927.40 0.8023
927.50 0.802
927.60 0.8016
927.70 0.8013
927.80 0.801
927.90 0.8007
928.00 0.8004
928.10 0.8001
928.20 0.7997
928.30 0.7994
928.40 0.7991
928.50 0.7988
928.60 0.7985
928.70 0.7981
928.80 0.7978
928.90 0.7975
929.00 0.7972
929.10 0.7969
929.20 0.7966
929.30 0.7962
929.40 0.7959
929.50 0.7956
929.60 0.7953
929.70 0.795
929.80 0.7947
929.90 0.7943
930.00 0.794
930.10 0.7937
930.20 0.7934
930.30 0.7931
930.40 0.7928
930.50 0.7925
930.60 0.7921
930.70 0.7918
930.80 0.7915
930.90 0.7912
931.00 0.7909
931.10 0.7906
931.20 0.7902
931.30 0.7899
931.40 0.7896
931.50 0.7893
931.60 0.789
931.70 0.7887
931.80 0.7884
931.90 0.788
932.00 0.7877
932.10 0.7874
932.20 0.7871
932.30 0.7868
932.40 0.7864
932.50 0.7861
932.60 0.7858
932.70 0.7855
932.80 0.7852
932.90 0.7848
933.00 0.7845
933.10 0.7842
933.20 0.7839
933.30 0.7835
933.40 0.7832
933.50 0.7829
933.60 0.7826
933.70 0.7823
933.80 0.7819
933.90 0.7816
934.00 0.7813
934.10 0.781
934.20 0.7807
934.30 0.7803
934.40 0.78
934.50 0.7797
934.60 0.7793
934.70 0.779
934.80 0.7787
934.90 0.7784
935.00 0.778
935.10 0.7777
935.20 0.7774
935.30 0.7771
935.40 0.7767
935.50 0.7764
935.60 0.7761
935.70 0.7758
935.80 0.7754
935.90 0.7751
936.00 0.7748
936.10 0.7745
936.20 0.7741
936.30 0.7738
936.40 0.7735
936.50 0.7732
936.60 0.7728
936.70 0.7725
936.80 0.7722
936.90 0.7719
937.00 0.7715
937.10 0.7712
937.20 0.7709
937.30 0.7706
937.40 0.7702
937.50 0.7699
937.60 0.7696
937.70 0.7692
937.80 0.7689
937.90 0.7686
938.00 0.7683
938.10 0.7679
938.20 0.7676
938.30 0.7673
938.40 0.7669
938.50 0.7666
938.60 0.7663
938.70 0.7659
938.80 0.7656
938.90 0.7653
939.00 0.7649
939.10 0.7646
939.20 0.7643
939.30 0.7639
939.40 0.7636
939.50 0.7633
939.60 0.7629
939.70 0.7626
939.80 0.7623
939.90 0.7619
940.00 0.7616
940.10 0.7613
940.20 0.7609
940.30 0.7606
940.40 0.7603
940.50 0.7599
940.60 0.7596
940.70 0.7593
940.80 0.7589
940.90 0.7586
941.00 0.7583
941.10 0.7579
941.20 0.7576
941.30 0.7573
941.40 0.757
941.50 0.7566
941.60 0.7563
941.70 0.756
941.80 0.7556
941.90 0.7553
942.00 0.755
942.10 0.7546
942.20 0.7543
942.30 0.754
942.40 0.7536
942.50 0.7533
942.60 0.753
942.70 0.7526
942.80 0.7523
942.90 0.752
943.00 0.7516
943.10 0.7513
943.20 0.751
943.30 0.7506
943.40 0.7503
943.50 0.75
943.60 0.7497
943.70 0.7493
943.80 0.749
943.90 0.7487
944.00 0.7483
944.10 0.748
944.20 0.7477
944.30 0.7473
944.40 0.747
944.50 0.7467
944.60 0.7463
944.70 0.746
944.80 0.7457
944.90 0.7453
945.00 0.745
945.10 0.7447
945.20 0.7443
945.30 0.744
945.40 0.7437
945.50 0.7433
945.60 0.743
945.70 0.7427
945.80 0.7423
945.90 0.742
946.00 0.7416
946.10 0.7413
946.20 0.741
946.30 0.7406
946.40 0.7403
946.50 0.74
946.60 0.7396
946.70 0.7393
946.80 0.739
946.90 0.7386
947.00 0.7383
947.10 0.738
947.20 0.7376
947.30 0.7373
947.40 0.7369
947.50 0.7366
947.60 0.7363
947.70 0.7359
947.80 0.7356
947.90 0.7352
948.00 0.7349
948.10 0.7346
948.20 0.7342
948.30 0.7339
948.40 0.7335
948.50 0.7332
948.60 0.7329
948.70 0.7325
948.80 0.7322
948.90 0.7319
949.00 0.7315
949.10 0.7312
949.20 0.7308
949.30 0.7305
949.40 0.7302
949.50 0.7298
949.60 0.7295
949.70 0.7292
949.80 0.7288
949.90 0.7285
950.00 0.7281
950.10 0.7278
950.20 0.7275
950.30 0.7271
950.40 0.7268
950.50 0.7265
950.60 0.7261
950.70 0.7258
950.80 0.7255
950.90 0.7251
951.00 0.7248
951.10 0.7245
951.20 0.7241
951.30 0.7238
951.40 0.7235
951.50 0.7231
951.60 0.7228
951.70 0.7224
951.80 0.7221
951.90 0.7218
952.00 0.7214
952.10 0.7211
952.20 0.7208
952.30 0.7204
952.40 0.7201
952.50 0.7197
952.60 0.7194
952.70 0.7191
952.80 0.7187
952.90 0.7184
953.00 0.7181
953.10 0.7177
953.20 0.7174
953.30 0.717
953.40 0.7167
953.50 0.7164
953.60 0.716
953.70 0.7157
953.80 0.7154
953.90 0.715
954.00 0.7147
954.10 0.7144
954.20 0.714
954.30 0.7137
954.40 0.7133
954.50 0.713
954.60 0.7127
954.70 0.7123
954.80 0.712
954.90 0.7117
955.00 0.7113
955.10 0.711
955.20 0.7107
955.30 0.7103
955.40 0.71
955.50 0.7096
955.60 0.7093
955.70 0.709
955.80 0.7086
955.90 0.7083
956.00 0.708
956.10 0.7076
956.20 0.7073
956.30 0.7069
956.40 0.7066
956.50 0.7063
956.60 0.7059
956.70 0.7056
956.80 0.7052
956.90 0.7049
957.00 0.7046
957.10 0.7042
957.20 0.7039
957.30 0.7035
957.40 0.7032
957.50 0.7028
957.60 0.7025
957.70 0.7022
957.80 0.7018
957.90 0.7015
958.00 0.7012
958.10 0.7008
958.20 0.7005
958.30 0.7002
958.40 0.6998
958.50 0.6995
958.60 0.6992
958.70 0.6988
958.80 0.6985
958.90 0.6981
959.00 0.6978
959.10 0.6975
959.20 0.6971
959.30 0.6968
959.40 0.6965
959.50 0.6961
959.60 0.6958
959.70 0.6955
959.80 0.6951
959.90 0.6948
960.00 0.6945
960.10 0.6941
960.20 0.6938
960.30 0.6935
960.40 0.6931
960.50 0.6928
960.60 0.6925
960.70 0.6921
960.80 0.6918
960.90 0.6915
961.00 0.6911
961.10 0.6908
961.20 0.6905
961.30 0.6901
961.40 0.6898
961.50 0.6895
961.60 0.6891
961.70 0.6888
961.80 0.6885
961.90 0.6881
962.00 0.6878
962.10 0.6875
962.20 0.6871
962.30 0.6868
962.40 0.6864
962.50 0.6861
962.60 0.6858
962.70 0.6854
962.80 0.6851
962.90 0.6848
963.00 0.6844
963.10 0.6841
963.20 0.6838
963.30 0.6834
963.40 0.6831
963.50 0.6828
963.60 0.6824
963.70 0.6821
963.80 0.6818
963.90 0.6814
964.00 0.6811
964.10 0.6808
964.20 0.6805
964.30 0.6801
964.40 0.6798
964.50 0.6795
964.60 0.6791
964.70 0.6788
964.80 0.6784
964.90 0.6781
965.00 0.6778
965.10 0.6774
965.20 0.6771
965.30 0.6768
965.40 0.6764
965.50 0.6761
965.60 0.6758
965.70 0.6754
965.80 0.6751
965.90 0.6748
966.00 0.6744
966.10 0.6741
966.20 0.6738
966.30 0.6734
966.40 0.6731
966.50 0.6728
966.60 0.6724
966.70 0.6721
966.80 0.6718
966.90 0.6714
967.00 0.6711
967.10 0.6708
967.20 0.6704
967.30 0.6701
967.40 0.6698
967.50 0.6695
967.60 0.6691
967.70 0.6688
967.80 0.6685
967.90 0.6681
968.00 0.6678
968.10 0.6675
968.20 0.6671
968.30 0.6668
968.40 0.6665
968.50 0.6662
968.60 0.6658
968.70 0.6655
968.80 0.6652
968.90 0.6649
969.00 0.6645
969.10 0.6642
969.20 0.6639
969.30 0.6635
969.40 0.6632
969.50 0.6629
969.60 0.6626
969.70 0.6622
969.80 0.6619
969.90 0.6616
970.00 0.6613
970.10 0.6609
970.20 0.6606
970.30 0.6603
970.40 0.66
970.50 0.6596
970.60 0.6593
970.70 0.659
970.80 0.6587
970.90 0.6583
971.00 0.658
971.10 0.6577
971.20 0.6574
971.30 0.657
971.40 0.6567
971.50 0.6564
971.60 0.6561
971.70 0.6558
971.80 0.6554
971.90 0.6551
972.00 0.6548
972.10 0.6545
972.20 0.6541
972.30 0.6538
972.40 0.6535
972.50 0.6532
972.60 0.6529
972.70 0.6525
972.80 0.6522
972.90 0.6519
973.00 0.6516
973.10 0.6512
973.20 0.6509
973.30 0.6506
973.40 0.6503
973.50 0.65
973.60 0.6496
973.70 0.6493
973.80 0.649
973.90 0.6487
974.00 0.6484
974.10 0.648
974.20 0.6477
974.30 0.6474
974.40 0.6471
974.50 0.6468
974.60 0.6464
974.70 0.6461
974.80 0.6458
974.90 0.6455
975.00 0.6452
975.10 0.6448
975.20 0.6445
975.30 0.6442
975.40 0.6439
975.50 0.6436
975.60 0.6432
975.70 0.6429
975.80 0.6426
975.90 0.6423
976.00 0.642
976.10 0.6416
976.20 0.6413
976.30 0.641
976.40 0.6407
976.50 0.6404
976.60 0.64
976.70 0.6397
976.80 0.6394
976.90 0.6391
977.00 0.6388
977.10 0.6385
977.20 0.6381
977.30 0.6378
977.40 0.6375
977.50 0.6372
977.60 0.6369
977.70 0.6366
977.80 0.6363
977.90 0.636
978.00 0.6356
978.10 0.6353
978.20 0.635
978.30 0.6347
978.40 0.6344
978.50 0.6341
978.60 0.6338
978.70 0.6335
978.80 0.6331
978.90 0.6328
979.00 0.6325
979.10 0.6322
979.20 0.6319
979.30 0.6316
979.40 0.6313
979.50 0.631
979.60 0.6307
979.70 0.6303
979.80 0.63
979.90 0.6297
980.00 0.6294
980.10 0.6291
980.20 0.6288
980.30 0.6285
980.40 0.6282
980.50 0.6279
980.60 0.6276
980.70 0.6272
980.80 0.6269
980.90 0.6266
981.00 0.6263
981.10 0.626
981.20 0.6257
981.30 0.6254
981.40 0.6251
981.50 0.6248
981.60 0.6245
981.70 0.6242
981.80 0.6239
981.90 0.6235
982.00 0.6232
982.10 0.6229
982.20 0.6226
982.30 0.6223
982.40 0.622
982.50 0.6217
982.60 0.6214
982.70 0.6211
982.80 0.6208
982.90 0.6205
983.00 0.6202
983.10 0.6199
983.20 0.6196
983.30 0.6193
983.40 0.619
983.50 0.6187
983.60 0.6184
983.70 0.6181
983.80 0.6178
983.90 0.6175
984.00 0.6172
984.10 0.6169
984.20 0.6166
984.30 0.6163
984.40 0.616
984.50 0.6157
984.60 0.6153
984.70 0.6151
984.80 0.6148
984.90 0.6145
985.00 0.6142
985.10 0.6139
985.20 0.6136
985.30 0.6133
985.40 0.613
985.50 0.6127
985.60 0.6124
985.70 0.6121
985.80 0.6118
985.90 0.6115
986.00 0.6112
986.10 0.6109
986.20 0.6106
986.30 0.6103
986.40 0.61
986.50 0.6098
986.60 0.6095
986.70 0.6092
986.80 0.6089
986.90 0.6086
987.00 0.6083
987.10 0.608
987.20 0.6077
987.30 0.6074
987.40 0.6071
987.50 0.6068
987.60 0.6065
987.70 0.6062
987.80 0.6059
987.90 0.6056
988.00 0.6053
988.10 0.605
988.20 0.6047
988.30 0.6044
988.40 0.6041
988.50 0.6038
988.60 0.6036
988.70 0.6033
988.80 0.603
988.90 0.6027
989.00 0.6024
989.10 0.6021
989.20 0.6018
989.30 0.6015
989.40 0.6012
989.50 0.6009
989.60 0.6006
989.70 0.6003
989.80 0.6
989.90 0.5997
990.00 0.5994
990.10 0.5991
990.20 0.5988
990.30 0.5985
990.40 0.5982
990.50 0.5979
990.60 0.5976
990.70 0.5973
990.80 0.5971
990.90 0.5968
991.00 0.5965
991.10 0.5962
991.20 0.5959
991.30 0.5956
991.40 0.5953
991.50 0.595
991.60 0.5947
991.70 0.5944
991.80 0.5941
991.90 0.5938
992.00 0.5935
992.10 0.5932
992.20 0.5929
992.30 0.5926
992.40 0.5924
992.50 0.5921
992.60 0.5918
992.70 0.5915
992.80 0.5912
992.90 0.5909
993.00 0.5906
993.10 0.5903
993.20 0.59
993.30 0.5897
993.40 0.5894
993.50 0.5891
993.60 0.5889
993.70 0.5886
993.80 0.5883
993.90 0.588
994.00 0.5877
994.10 0.5874
994.20 0.5871
994.30 0.5868
994.40 0.5865
994.50 0.5862
994.60 0.5859
994.70 0.5856
994.80 0.5853
994.90 0.585
995.00 0.5847
995.10 0.5844
995.20 0.5841
995.30 0.5837
995.40 0.5834
995.50 0.5831
995.60 0.5828
995.70 0.5825
995.80 0.5822
995.90 0.5819
996.00 0.5816
996.10 0.5814
996.20 0.5811
996.30 0.5808
996.40 0.5805
996.50 0.5802
996.60 0.5799
996.70 0.5796
996.80 0.5793
996.90 0.5791
997.00 0.5788
997.10 0.5785
997.20 0.5782
997.30 0.5779
997.40 0.5776
997.50 0.5773
997.60 0.5771
997.70 0.5768
997.80 0.5765
997.90 0.5762
998.00 0.5759
998.10 0.5757
998.20 0.5754
998.30 0.5751
998.40 0.5748
998.50 0.5745
998.60 0.5743
998.70 0.574
998.80 0.5737
998.90 0.5734
999.00 0.5732
999.10 0.5729
999.20 0.5726
999.30 0.5723
999.40 0.572
999.50 0.5718
999.60 0.5715
999.70 0.5712
999.80 0.5709
999.90 0.5707
1000.00 0.5704
1000.10 0.5701
1000.20 0.5698
1000.30 0.5696
1000.40 0.5693
1000.50 0.569
1000.60 0.5688
1000.70 0.5685
1000.80 0.5682
1000.90 0.5679
1001.00 0.5677
1001.10 0.5674
1001.20 0.5671
1001.30 0.5669
1001.40 0.5666
1001.50 0.5663
1001.60 0.566
1001.70 0.5658
1001.80 0.5655
1001.90 0.5652
1002.00 0.565
1002.10 0.5647
1002.20 0.5644
1002.30 0.5641
1002.40 0.5639
1002.50 0.5636
1002.60 0.5633
1002.70 0.5631
1002.80 0.5628
1002.90 0.5625
1003.00 0.5623
1003.10 0.562
1003.20 0.5617
1003.30 0.5615
1003.40 0.5612
1003.50 0.561
1003.60 0.5607
1003.70 0.5604
1003.80 0.5602
1003.90 0.5599
1004.00 0.5597
1004.10 0.5594
1004.20 0.5591
1004.30 0.5589
1004.40 0.5586
1004.50 0.5583
1004.60 0.5581
1004.70 0.5578
1004.80 0.5576
1004.90 0.5573
1005.00 0.557
1005.10 0.5568
1005.20 0.5565
1005.30 0.5562
1005.40 0.556
1005.50 0.5557
1005.60 0.5555
1005.70 0.5552
1005.80 0.555
1005.90 0.5547
1006.00 0.5544
1006.10 0.5542
1006.20 0.5539
1006.30 0.5537
1006.40 0.5534
1006.50 0.5532
1006.60 0.5529
1006.70 0.5527
1006.80 0.5524
1006.90 0.5522
1007.00 0.5519
1007.10 0.5517
1007.20 0.5514
1007.30 0.5512
1007.40 0.5509
1007.50 0.5506
1007.60 0.5504
1007.70 0.5501
1007.80 0.5499
1007.90 0.5497
1008.00 0.5494
1008.10 0.5492
1008.20 0.5489
1008.30 0.5487
1008.40 0.5484
1008.50 0.5482
1008.60 0.5479
1008.70 0.5477
1008.80 0.5474
1008.90 0.5472
1009.00 0.5469
1009.10 0.5467
1009.20 0.5464
1009.30 0.5462
1009.40 0.546
1009.50 0.5457
1009.60 0.5455
1009.70 0.5452
1009.80 0.545
1009.90 0.5447
1010.00 0.5445
1010.10 0.5443
1010.20 0.544
1010.30 0.5438
1010.40 0.5436
1010.50 0.5433
1010.60 0.5431
1010.70 0.5428
1010.80 0.5426
1010.90 0.5424
1011.00 0.5421
1011.10 0.5419
1011.20 0.5417
1011.30 0.5414
1011.40 0.5412
1011.50 0.5409
1011.60 0.5407
1011.70 0.5405
1011.80 0.5402
1011.90 0.54
1012.00 0.5397
1012.10 0.5395
1012.20 0.5393
1012.30 0.5391
1012.40 0.5388
1012.50 0.5386
1012.60 0.5384
1012.70 0.5381
1012.80 0.5379
1012.90 0.5377
1013.00 0.5375
1013.10 0.5372
1013.20 0.537
1013.30 0.5368
1013.40 0.5365
1013.50 0.5363
1013.60 0.5361
1013.70 0.5359
1013.80 0.5356
1013.90 0.5354
1014.00 0.5352
1014.10 0.5349
1014.20 0.5347
1014.30 0.5345
1014.40 0.5343
1014.50 0.534
1014.60 0.5338
1014.70 0.5336
1014.80 0.5334
1014.90 0.5332
1015.00 0.533
1015.10 0.5327
1015.20 0.5325
1015.30 0.5323
1015.40 0.5321
1015.50 0.5319
1015.60 0.5317
1015.70 0.5315
1015.80 0.5313
1015.90 0.531
1016.00 0.5308
1016.10 0.5306
1016.20 0.5304
1016.30 0.5302
1016.40 0.53
1016.50 0.5298
1016.60 0.5296
1016.70 0.5293
1016.80 0.5291
1016.90 0.5289
1017.00 0.5287
1017.10 0.5285
1017.20 0.5282
1017.30 0.528
1017.40 0.5278
1017.50 0.5276
1017.60 0.5274
1017.70 0.5272
1017.80 0.527
1017.90 0.5267
1018.00 0.5265
1018.10 0.5263
1018.20 0.5261
1018.30 0.5259
1018.40 0.5257
1018.50 0.5255
1018.60 0.5252
1018.70 0.525
1018.80 0.5248
1018.90 0.5246
1019.00 0.5244
1019.10 0.5242
1019.20 0.524
1019.30 0.5237
1019.40 0.5235
1019.50 0.5233
1019.60 0.5231
1019.70 0.5229
1019.80 0.5227
1019.90 0.5225
1020.00 0.5223
1020.10 0.522
1020.20 0.5218
1020.30 0.5216
1020.40 0.5214
1020.50 0.5212
1020.60 0.521
1020.70 0.5208
1020.80 0.5206
1020.90 0.5204
1021.00 0.5201
1021.10 0.5199
1021.20 0.5197
1021.30 0.5195
1021.40 0.5193
1021.50 0.5191
1021.60 0.5189
1021.70 0.5187
1021.80 0.5185
1021.90 0.5183
1022.00 0.5181
1022.10 0.5179
1022.20 0.5177
1022.30 0.5175
1022.40 0.5173
1022.50 0.5171
1022.60 0.5169
1022.70 0.5167
1022.80 0.5165
1022.90 0.5162
1023.00 0.516
1023.10 0.5158
1023.20 0.5156
1023.30 0.5154
1023.40 0.5152
1023.50 0.515
1023.60 0.5148
1023.70 0.5146
1023.80 0.5144
1023.90 0.5142
1024.00 0.514
1024.10 0.5138
1024.20 0.5136
1024.30 0.5134
1024.40 0.5132
1024.50 0.513
1024.60 0.5128
1024.70 0.5126
1024.80 0.5124
1024.90 0.5122
1025.00 0.512
1025.10 0.5118
1025.20 0.5116
1025.30 0.5114
1025.40 0.5112
1025.50 0.511
1025.60 0.5108
1025.70 0.5106
1025.80 0.5104
1025.90 0.5102
1026.00 0.51
1026.10 0.5098
1026.20 0.5096
1026.30 0.5094
1026.40 0.5092
1026.50 0.509
1026.60 0.5088
1026.70 0.5086
1026.80 0.5084
1026.90 0.5082
1027.00 0.508
1027.10 0.5078
1027.20 0.5076
1027.30 0.5074
1027.40 0.5073
1027.50 0.5071
1027.60 0.5069
1027.70 0.5067
1027.80 0.5065
1027.90 0.5063
1028.00 0.5061
1028.10 0.5059
1028.20 0.5057
1028.30 0.5055
1028.40 0.5054
1028.50 0.5052
1028.60 0.505
1028.70 0.5048
1028.80 0.5046
1028.90 0.5044
1029.00 0.5042
1029.10 0.504
1029.20 0.5038
1029.30 0.5037
1029.40 0.5035
1029.50 0.5033
1029.60 0.5031
1029.70 0.5029
1029.80 0.5027
1029.90 0.5025
1030.00 0.5023
1030.10 0.5022
1030.20 0.502
1030.30 0.5018
1030.40 0.5016
1030.50 0.5014
1030.60 0.5012
1030.70 0.501
1030.80 0.5008
1030.90 0.5007
1031.00 0.5005
1031.10 0.5003
1031.20 0.5001
1031.30 0.4999
1031.40 0.4997
1031.50 0.4995
1031.60 0.4993
1031.70 0.4992
1031.80 0.499
1031.90 0.4988
1032.00 0.4986
1032.10 0.4984
1032.20 0.4982
1032.30 0.4981
1032.40 0.4979
1032.50 0.4977
1032.60 0.4975
1032.70 0.4973
1032.80 0.4972
1032.90 0.497
1033.00 0.4968
1033.10 0.4966
1033.20 0.4965
1033.30 0.4963
1033.40 0.4961
1033.50 0.4959
1033.60 0.4957
1033.70 0.4956
1033.80 0.4954
1033.90 0.4952
1034.00 0.495
1034.10 0.4949
1034.20 0.4947
1034.30 0.4945
1034.40 0.4943
1034.50 0.4942
1034.60 0.494
1034.70 0.4938
1034.80 0.4936
1034.90 0.4934
1035.00 0.4933
1035.10 0.4931
1035.20 0.4929
1035.30 0.4927
1035.40 0.4926
1035.50 0.4924
1035.60 0.4922
1035.70 0.492
1035.80 0.4919
1035.90 0.4917
1036.00 0.4915
1036.10 0.4913
1036.20 0.4912
1036.30 0.491
1036.40 0.4908
1036.50 0.4906
1036.60 0.4905
1036.70 0.4903
1036.80 0.4901
1036.90 0.4899
1037.00 0.4898
1037.10 0.4896
1037.20 0.4894
1037.30 0.4893
1037.40 0.4891
1037.50 0.4889
1037.60 0.4888
1037.70 0.4886
1037.80 0.4884
1037.90 0.4883
1038.00 0.4881
1038.10 0.4879
1038.20 0.4878
1038.30 0.4876
1038.40 0.4874
1038.50 0.4873
1038.60 0.4871
1038.70 0.4869
1038.80 0.4868
1038.90 0.4866
1039.00 0.4864
1039.10 0.4863
1039.20 0.4861
1039.30 0.486
1039.40 0.4858
1039.50 0.4856
1039.60 0.4855
1039.70 0.4853
1039.80 0.4851
1039.90 0.485
1040.00 0.4848
1040.10 0.4846
1040.20 0.4845
1040.30 0.4843
1040.40 0.4841
1040.50 0.484
1040.60 0.4838
1040.70 0.4837
1040.80 0.4835
1040.90 0.4833
1041.00 0.4832
1041.10 0.483
1041.20 0.4828
1041.30 0.4827
1041.40 0.4825
1041.50 0.4823
1041.60 0.4822
1041.70 0.482
1041.80 0.4819
1041.90 0.4817
1042.00 0.4815
1042.10 0.4814
1042.20 0.4812
1042.30 0.4811
1042.40 0.4809
1042.50 0.4808
1042.60 0.4806
1042.70 0.4805
1042.80 0.4803
1042.90 0.4802
1043.00 0.48
1043.10 0.4798
1043.20 0.4797
1043.30 0.4795
1043.40 0.4794
1043.50 0.4792
1043.60 0.4791
1043.70 0.4789
1043.80 0.4788
1043.90 0.4786
1044.00 0.4785
1044.10 0.4783
1044.20 0.4782
1044.30 0.478
1044.40 0.4779
1044.50 0.4777
1044.60 0.4776
1044.70 0.4774
1044.80 0.4773
1044.90 0.4771
1045.00 0.4769
1045.10 0.4768
1045.20 0.4766
1045.30 0.4765
1045.40 0.4763
1045.50 0.4762
1045.60 0.476
1045.70 0.4759
1045.80 0.4757
1045.90 0.4756
1046.00 0.4754
1046.10 0.4753
1046.20 0.4751
1046.30 0.475
1046.40 0.4748
1046.50 0.4747
1046.60 0.4745
1046.70 0.4744
1046.80 0.4742
1046.90 0.4741
1047.00 0.4739
1047.10 0.4738
1047.20 0.4736
1047.30 0.4735
1047.40 0.4733
1047.50 0.4732
1047.60 0.4731
1047.70 0.4729
1047.80 0.4728
1047.90 0.4726
1048.00 0.4725
1048.10 0.4724
1048.20 0.4722
1048.30 0.4721
1048.40 0.4719
1048.50 0.4718
1048.60 0.4717
1048.70 0.4715
1048.80 0.4714
1048.90 0.4712
1049.00 0.4711
1049.10 0.4709
1049.20 0.4708
1049.30 0.4707
1049.40 0.4705
1049.50 0.4704
1049.60 0.4702
1049.70 0.4701
1049.80 0.47
1049.90 0.4698
1050.00 0.4697
1050.10 0.4695
1050.20 0.4694
1050.30 0.4693
1050.40 0.4691
1050.50 0.469
1050.60 0.4688
1050.70 0.4687
1050.80 0.4686
1050.90 0.4684
1051.00 0.4683
1051.10 0.4681
1051.20 0.468
1051.30 0.4679
1051.40 0.4677
1051.50 0.4676
1051.60 0.4674
1051.70 0.4673
1051.80 0.4672
1051.90 0.467
1052.00 0.4669
1052.10 0.4668
1052.20 0.4666
1052.30 0.4665
1052.40 0.4664
1052.50 0.4662
1052.60 0.4661
1052.70 0.466
1052.80 0.4658
1052.90 0.4657
1053.00 0.4656
1053.10 0.4654
1053.20 0.4653
1053.30 0.4652
1053.40 0.465
1053.50 0.4649
1053.60 0.4648
1053.70 0.4647
1053.80 0.4645
1053.90 0.4644
1054.00 0.4643
1054.10 0.4641
1054.20 0.464
1054.30 0.4639
1054.40 0.4637
1054.50 0.4636
1054.60 0.4635
1054.70 0.4634
1054.80 0.4632
1054.90 0.4631
1055.00 0.463
1055.10 0.4628
1055.20 0.4627
1055.30 0.4626
1055.40 0.4624
1055.50 0.4623
1055.60 0.4622
1055.70 0.4621
1055.80 0.4619
1055.90 0.4618
1056.00 0.4617
1056.10 0.4615
1056.20 0.4614
1056.30 0.4613
1056.40 0.4611
1056.50 0.461
1056.60 0.4609
1056.70 0.4608
1056.80 0.4606
1056.90 0.4605
1057.00 0.4604
1057.10 0.4602
1057.20 0.4601
1057.30 0.46
1057.40 0.4599
1057.50 0.4598
1057.60 0.4596
1057.70 0.4595
1057.80 0.4594
1057.90 0.4593
1058.00 0.4592
1058.10 0.459
1058.20 0.4589
1058.30 0.4588
1058.40 0.4587
1058.50 0.4586
1058.60 0.4585
1058.70 0.4583
1058.80 0.4582
1058.90 0.4581
1059.00 0.458
1059.10 0.4579
1059.20 0.4577
1059.30 0.4576
1059.40 0.4575
1059.50 0.4574
1059.60 0.4573
1059.70 0.4571
1059.80 0.457
1059.90 0.4569
1060.00 0.4568
1060.10 0.4567
1060.20 0.4565
1060.30 0.4564
1060.40 0.4563
1060.50 0.4562
1060.60 0.4561
1060.70 0.456
1060.80 0.4558
1060.90 0.4557
1061.00 0.4556
1061.10 0.4555
1061.20 0.4554
1061.30 0.4552
1061.40 0.4551
1061.50 0.455
1061.60 0.4549
1061.70 0.4548
1061.80 0.4546
1061.90 0.4545
1062.00 0.4544
1062.10 0.4543
1062.20 0.4542
1062.30 0.4541
1062.40 0.454
1062.50 0.4539
1062.60 0.4537
1062.70 0.4536
1062.80 0.4535
1062.90 0.4534
1063.00 0.4533
1063.10 0.4532
1063.20 0.4531
1063.30 0.453
1063.40 0.4529
1063.50 0.4528
1063.60 0.4527
1063.70 0.4525
1063.80 0.4524
1063.90 0.4523
1064.00 0.4522
1064.10 0.4521
1064.20 0.452
1064.30 0.4519
1064.40 0.4518
1064.50 0.4517
1064.60 0.4516
1064.70 0.4514
1064.80 0.4513
1064.90 0.4512
1065.00 0.4511
1065.10 0.451
1065.20 0.4509
1065.30 0.4508
1065.40 0.4507
1065.50 0.4506
1065.60 0.4505
1065.70 0.4504
1065.80 0.4502
1065.90 0.4501
1066.00 0.45
1066.10 0.4499
1066.20 0.4498
1066.30 0.4497
1066.40 0.4496
1066.50 0.4495
1066.60 0.4494
1066.70 0.4493
1066.80 0.4492
1066.90 0.449
1067.00 0.4489
1067.10 0.4488
1067.20 0.4487
1067.30 0.4486
1067.40 0.4485
1067.50 0.4484
1067.60 0.4483
1067.70 0.4482
1067.80 0.4481
1067.90 0.448
1068.00 0.4479
1068.10 0.4478
1068.20 0.4477
1068.30 0.4476
1068.40 0.4475
1068.50 0.4474
1068.60 0.4473
1068.70 0.4472
1068.80 0.4471
1068.90 0.447
1069.00 0.4469
1069.10 0.4468
1069.20 0.4467
1069.30 0.4466
1069.40 0.4465
1069.50 0.4464
1069.60 0.4463
1069.70 0.4463
1069.80 0.4462
1069.90 0.4461
1070.00 0.446
1070.10 0.4459
1070.20 0.4458
1070.30 0.4457
1070.40 0.4456
1070.50 0.4455
1070.60 0.4454
1070.70 0.4453
1070.80 0.4452
1070.90 0.4451
1071.00 0.445
1071.10 0.4449
1071.20 0.4448
1071.30 0.4447
1071.40 0.4446
1071.50 0.4445
1071.60 0.4444
1071.70 0.4443
1071.80 0.4442
1071.90 0.4441
1072.00 0.444
1072.10 0.4439
1072.20 0.4438
1072.30 0.4437
1072.40 0.4436
1072.50 0.4435
1072.60 0.4434
1072.70 0.4433
1072.80 0.4432
1072.90 0.4431
1073.00 0.443
1073.10 0.4429
1073.20 0.4428
1073.30 0.4427
1073.40 0.4426
1073.50 0.4425
1073.60 0.4425
1073.70 0.4424
1073.80 0.4423
1073.90 0.4422
1074.00 0.4421
1074.10 0.442
1074.20 0.4419
1074.30 0.4418
1074.40 0.4417
1074.50 0.4416
1074.60 0.4415
1074.70 0.4414
1074.80 0.4413
1074.90 0.4413
1075.00 0.4412
1075.10 0.4411
1075.20 0.441
1075.30 0.4409
1075.40 0.4408
1075.50 0.4407
1075.60 0.4406
1075.70 0.4405
1075.80 0.4404
1075.90 0.4403
1076.00 0.4402
1076.10 0.4401
1076.20 0.4401
1076.30 0.44
1076.40 0.4399
1076.50 0.4398
1076.60 0.4397
1076.70 0.4396
1076.80 0.4395
1076.90 0.4394
1077.00 0.4393
1077.10 0.4392
1077.20 0.4391
1077.30 0.439
1077.40 0.4389
1077.50 0.4389
1077.60 0.4388
1077.70 0.4387
1077.80 0.4386
1077.90 0.4385
1078.00 0.4384
1078.10 0.4383
1078.20 0.4382
1078.30 0.4382
1078.40 0.4381
1078.50 0.438
1078.60 0.4379
1078.70 0.4378
1078.80 0.4377
1078.90 0.4376
1079.00 0.4375
1079.10 0.4374
1079.20 0.4374
1079.30 0.4373
1079.40 0.4372
1079.50 0.4371
1079.60 0.437
1079.70 0.4369
1079.80 0.4368
1079.90 0.4368
1080.00 0.4367
1080.10 0.4366
1080.20 0.4365
1080.30 0.4364
1080.40 0.4363
1080.50 0.4363
1080.60 0.4362
1080.70 0.4361
1080.80 0.436
1080.90 0.4359
1081.00 0.4358
1081.10 0.4357
1081.20 0.4357
1081.30 0.4356
1081.40 0.4355
1081.50 0.4354
1081.60 0.4353
1081.70 0.4352
1081.80 0.4352
1081.90 0.4351
1082.00 0.435
1082.10 0.4349
1082.20 0.4348
1082.30 0.4347
1082.40 0.4347
1082.50 0.4346
1082.60 0.4345
1082.70 0.4344
1082.80 0.4343
1082.90 0.4342
1083.00 0.4342
1083.10 0.4341
1083.20 0.434
1083.30 0.4339
1083.40 0.4338
1083.50 0.4338
1083.60 0.4337
1083.70 0.4336
1083.80 0.4335
1083.90 0.4334
1084.00 0.4333
1084.10 0.4333
1084.20 0.4332
1084.30 0.4331
1084.40 0.433
1084.50 0.4329
1084.60 0.4328
1084.70 0.4328
1084.80 0.4327
1084.90 0.4326
1085.00 0.4325
1085.10 0.4324
1085.20 0.4324
1085.30 0.4323
1085.40 0.4322
1085.50 0.4321
1085.60 0.432
1085.70 0.432
1085.80 0.4319
1085.90 0.4318
1086.00 0.4317
1086.10 0.4316
1086.20 0.4316
1086.30 0.4315
1086.40 0.4314
1086.50 0.4313
1086.60 0.4312
1086.70 0.4311
1086.80 0.4311
1086.90 0.431
1087.00 0.4309
1087.10 0.4308
1087.20 0.4308
1087.30 0.4307
1087.40 0.4306
1087.50 0.4305
1087.60 0.4304
1087.70 0.4304
1087.80 0.4303
1087.90 0.4302
1088.00 0.4301
1088.10 0.4301
1088.20 0.43
1088.30 0.4299
1088.40 0.4298
1088.50 0.4298
1088.60 0.4297
1088.70 0.4296
1088.80 0.4295
1088.90 0.4294
1089.00 0.4294
1089.10 0.4293
1089.20 0.4292
1089.30 0.4291
1089.40 0.4291
1089.50 0.429
1089.60 0.4289
1089.70 0.4288
1089.80 0.4288
1089.90 0.4287
1090.00 0.4286
1090.10 0.4285
1090.20 0.4285
1090.30 0.4284
1090.40 0.4283
1090.50 0.4282
1090.60 0.4282
1090.70 0.4281
1090.80 0.428
1090.90 0.4279
1091.00 0.4279
1091.10 0.4278
1091.20 0.4277
1091.30 0.4276
1091.40 0.4276
1091.50 0.4275
1091.60 0.4274
1091.70 0.4273
1091.80 0.4273
1091.90 0.4272
1092.00 0.4271
1092.10 0.427
1092.20 0.427
1092.30 0.4269
1092.40 0.4268
1092.50 0.4267
1092.60 0.4267
1092.70 0.4266
1092.80 0.4265
1092.90 0.4265
1093.00 0.4264
1093.10 0.4264
1093.20 0.4263
1093.30 0.4262
1093.40 0.4261
1093.50 0.4261
1093.60 0.426
1093.70 0.4259
1093.80 0.4258
1093.90 0.4258
1094.00 0.4257
1094.10 0.4256
1094.20 0.4256
1094.30 0.4255
1094.40 0.4254
1094.50 0.4253
1094.60 0.4253
1094.70 0.4252
1094.80 0.4251
1094.90 0.4251
1095.00 0.425
1095.10 0.4249
1095.20 0.4248
1095.30 0.4248
1095.40 0.4247
1095.50 0.4246
1095.60 0.4246
1095.70 0.4245
1095.80 0.4244
1095.90 0.4243
1096.00 0.4243
1096.10 0.4242
1096.20 0.4241
1096.30 0.4241
1096.40 0.424
1096.50 0.4239
1096.60 0.4238
1096.70 0.4238
1096.80 0.4237
1096.90 0.4236
1097.00 0.4236
1097.10 0.4235
1097.20 0.4234
1097.30 0.4234
1097.40 0.4233
1097.50 0.4232
1097.60 0.4231
1097.70 0.4231
1097.80 0.423
1097.90 0.4229
1098.00 0.4228
1098.10 0.4228
1098.20 0.4227
1098.30 0.4226
1098.40 0.4226
1098.50 0.4225
1098.60 0.4224
1098.70 0.4224
1098.80 0.4223
1098.90 0.4222
1099.00 0.4221
1099.10 0.4221
1099.20 0.422
1099.30 0.4219
1099.40 0.4219
1099.50 0.4218
1099.60 0.4217
1099.70 0.4217
1099.80 0.4216
1099.90 0.4215
1100.00 0.4215
1100.10 0.4214
1100.20 0.4213
1100.30 0.4212
1100.40 0.4212
1100.50 0.4211
1100.60 0.421
1100.70 0.421
1100.80 0.4209
1100.90 0.4208
1101.00 0.4208
1101.10 0.4207
1101.20 0.4206
1101.30 0.4206
1101.40 0.4205
1101.50 0.4204
1101.60 0.4204
1101.70 0.4203
1101.80 0.4202
1101.90 0.4201
1102.00 0.4201
1102.10 0.42
1102.20 0.42
1102.30 0.4199
1102.40 0.4198
1102.50 0.4198
1102.60 0.4197
1102.70 0.4196
1102.80 0.4195
1102.90 0.4195
1103.00 0.4194
1103.10 0.4193
1103.20 0.4193
1103.30 0.4192
1103.40 0.4191
1103.50 0.4191
1103.60 0.419
1103.70 0.4189
1103.80 0.4189
1103.90 0.4188
1104.00 0.4187
1104.10 0.4187
1104.20 0.4186
1104.30 0.4185
1104.40 0.4185
1104.50 0.4184
1104.60 0.4183
1104.70 0.4183
1104.80 0.4182
1104.90 0.4181
1105.00 0.4181
1105.10 0.418
1105.20 0.4179
1105.30 0.4179
1105.40 0.4178
1105.50 0.4177
1105.60 0.4177
1105.70 0.4176
1105.80 0.4176
1105.90 0.4175
1106.00 0.4174
1106.10 0.4174
1106.20 0.4173
1106.30 0.4172
1106.40 0.4172
1106.50 0.4171
1106.60 0.417
1106.70 0.417
1106.80 0.4169
1106.90 0.4168
1107.00 0.4168
1107.10 0.4167
1107.20 0.4166
1107.30 0.4166
1107.40 0.4165
1107.50 0.4164
1107.60 0.4163
1107.70 0.4163
1107.80 0.4162
1107.90 0.4162
1108.00 0.4161
1108.10 0.416
1108.20 0.416
1108.30 0.4159
1108.40 0.4158
1108.50 0.4158
1108.60 0.4157
1108.70 0.4156
1108.80 0.4156
1108.90 0.4155
1109.00 0.4154
1109.10 0.4154
1109.20 0.4153
1109.30 0.4152
1109.40 0.4152
1109.50 0.4151
1109.60 0.415
1109.70 0.415
1109.80 0.4149
1109.90 0.4149
1110.00 0.4148
1110.10 0.4147
1110.20 0.4147
1110.30 0.4146
1110.40 0.4145
1110.50 0.4145
1110.60 0.4144
1110.70 0.4143
1110.80 0.4143
1110.90 0.4142
1111.00 0.4142
1111.10 0.4141
1111.20 0.414
1111.30 0.414
1111.40 0.4139
1111.50 0.4138
1111.60 0.4138
1111.70 0.4137
1111.80 0.4136
1111.90 0.4136
1112.00 0.4135
1112.10 0.4134
1112.20 0.4134
1112.30 0.4133
1112.40 0.4133
1112.50 0.4132
1112.60 0.4131
1112.70 0.4131
1112.80 0.413
1112.90 0.4129
1113.00 0.4129
1113.10 0.4128
1113.20 0.4127
1113.30 0.4127
1113.40 0.4126
1113.50 0.4125
1113.60 0.4125
1113.70 0.4124
1113.80 0.4124
1113.90 0.4123
1114.00 0.4122
1114.10 0.4122
1114.20 0.4121
1114.30 0.412
1114.40 0.412
1114.50 0.4119
1114.60 0.4119
1114.70 0.4118
1114.80 0.4117
1114.90 0.4117
1115.00 0.4116
1115.10 0.4115
1115.20 0.4115
1115.30 0.4114
1115.40 0.4114
1115.50 0.4113
1115.60 0.4112
1115.70 0.4112
1115.80 0.4111
1115.90 0.411
1116.00 0.411
1116.10 0.4109
1116.20 0.4109
1116.30 0.4108
1116.40 0.4107
1116.50 0.4107
1116.60 0.4106
1116.70 0.4105
1116.80 0.4105
1116.90 0.4104
1117.00 0.4104
1117.10 0.4103
1117.20 0.4102
1117.30 0.4102
1117.40 0.4101
1117.50 0.41
1117.60 0.41
1117.70 0.4099
1117.80 0.4099
1117.90 0.4098
1118.00 0.4097
1118.10 0.4097
1118.20 0.4096
1118.30 0.4096
1118.40 0.4095
1118.50 0.4094
1118.60 0.4094
1118.70 0.4093
1118.80 0.4092
1118.90 0.4092
1119.00 0.4091
1119.10 0.4091
1119.20 0.409
1119.30 0.4089
1119.40 0.4089
1119.50 0.4088
1119.60 0.4088
1119.70 0.4087
1119.80 0.4086
1119.90 0.4086
1120.00 0.4085
1120.10 0.4085
1120.20 0.4084
1120.30 0.4083
1120.40 0.4083
1120.50 0.4082
1120.60 0.4082
1120.70 0.4081
1120.80 0.408
1120.90 0.408
1121.00 0.4079
1121.10 0.4078
1121.20 0.4078
1121.30 0.4077
1121.40 0.4077
1121.50 0.4076
1121.60 0.4075
1121.70 0.4075
1121.80 0.4074
1121.90 0.4074
1122.00 0.4073
1122.10 0.4072
1122.20 0.4072
1122.30 0.4071
1122.40 0.4071
1122.50 0.407
1122.60 0.4069
1122.70 0.4069
1122.80 0.4068
1122.90 0.4067
1123.00 0.4067
1123.10 0.4066
1123.20 0.4066
1123.30 0.4065
1123.40 0.4064
1123.50 0.4064
1123.60 0.4063
1123.70 0.4063
1123.80 0.4062
1123.90 0.4061
1124.00 0.4061
1124.10 0.406
1124.20 0.406
1124.30 0.4059
1124.40 0.4058
1124.50 0.4058
1124.60 0.4057
1124.70 0.4056
1124.80 0.4056
1124.90 0.4055
1125.00 0.4055
1125.10 0.4054
1125.20 0.4053
1125.30 0.4053
1125.40 0.4052
1125.50 0.4052
1125.60 0.4051
1125.70 0.405
1125.80 0.405
1125.90 0.4049
1126.00 0.4049
1126.10 0.4048
1126.20 0.4047
1126.30 0.4047
1126.40 0.4046
1126.50 0.4045
1126.60 0.4045
1126.70 0.4044
1126.80 0.4044
1126.90 0.4043
1127.00 0.4042
1127.10 0.4042
1127.20 0.4041
1127.30 0.4041
1127.40 0.404
1127.50 0.4039
1127.60 0.4039
1127.70 0.4038
1127.80 0.4038
1127.90 0.4037
1128.00 0.4036
1128.10 0.4036
1128.20 0.4035
1128.30 0.4035
1128.40 0.4034
1128.50 0.4033
1128.60 0.4033
1128.70 0.4032
1128.80 0.4032
1128.90 0.4031
1129.00 0.403
1129.10 0.403
1129.20 0.4029
1129.30 0.4029
1129.40 0.4028
1129.50 0.4027
1129.60 0.4027
1129.70 0.4026
1129.80 0.4026
1129.90 0.4025
1130.00 0.4024
1130.10 0.4024
1130.20 0.4023
1130.30 0.4023
1130.40 0.4022
1130.50 0.4021
1130.60 0.4021
1130.70 0.402
1130.80 0.402
1130.90 0.4019
1131.00 0.4018
1131.10 0.4018
1131.20 0.4017
1131.30 0.4017
1131.40 0.4016
1131.50 0.4015
1131.60 0.4015
1131.70 0.4014
1131.80 0.4014
1131.90 0.4013
1132.00 0.4012
1132.10 0.4012
1132.20 0.4011
1132.30 0.4011
1132.40 0.401
1132.50 0.4009
1132.60 0.4009
1132.70 0.4008
1132.80 0.4007
1132.90 0.4007
1133.00 0.4006
1133.10 0.4006
1133.20 0.4005
1133.30 0.4004
1133.40 0.4004
1133.50 0.4003
1133.60 0.4002
1133.70 0.4002
1133.80 0.4001
1133.90 0.4001
1134.00 0.4
1134.10 0.3999
1134.20 0.3999
1134.30 0.3998
1134.40 0.3998
1134.50 0.3997
1134.60 0.3996
1134.70 0.3996
1134.80 0.3995
1134.90 0.3994
1135.00 0.3994
1135.10 0.3993
1135.20 0.3993
1135.30 0.3992
1135.40 0.3991
1135.50 0.3991
1135.60 0.399
1135.70 0.3989
1135.80 0.3989
1135.90 0.3988
1136.00 0.3988
1136.10 0.3987
1136.20 0.3986
1136.30 0.3986
1136.40 0.3985
1136.50 0.3985
1136.60 0.3984
1136.70 0.3983
1136.80 0.3983
1136.90 0.3982
1137.00 0.3981
1137.10 0.3981
1137.20 0.398
1137.30 0.398
1137.40 0.3979
1137.50 0.3978
1137.60 0.3978
1137.70 0.3977
1137.80 0.3976
1137.90 0.3976
1138.00 0.3975
1138.10 0.3974
1138.20 0.3974
1138.30 0.3973
1138.40 0.3972
1138.50 0.3972
1138.60 0.3971
1138.70 0.3971
1138.80 0.397
1138.90 0.3969
1139.00 0.3969
1139.10 0.3968
1139.20 0.3967
1139.30 0.3967
1139.40 0.3966
1139.50 0.3965
1139.60 0.3965
1139.70 0.3964
1139.80 0.3964
1139.90 0.3963
1140.00 0.3962
1140.10 0.3962
1140.20 0.3961
1140.30 0.396
1140.40 0.396
1140.50 0.3959
1140.60 0.3959
1140.70 0.3958
1140.80 0.3957
1140.90 0.3957
1141.00 0.3956
1141.10 0.3955
1141.20 0.3955
1141.30 0.3954
1141.40 0.3953
1141.50 0.3953
1141.60 0.3952
1141.70 0.3952
1141.80 0.3951
1141.90 0.395
1142.00 0.395
1142.10 0.3949
1142.20 0.3948
1142.30 0.3948
1142.40 0.3947
1142.50 0.3946
1142.60 0.3946
1142.70 0.3945
1142.80 0.3944
1142.90 0.3944
1143.00 0.3943
1143.10 0.3943
1143.20 0.3942
1143.30 0.3941
1143.40 0.3941
1143.50 0.394
1143.60 0.3939
1143.70 0.3939
1143.80 0.3938
1143.90 0.3937
1144.00 0.3937
1144.10 0.3936
1144.20 0.3935
1144.30 0.3935
1144.40 0.3934
1144.50 0.3934
1144.60 0.3933
1144.70 0.3932
1144.80 0.3932
1144.90 0.3931
1145.00 0.393
1145.10 0.393
1145.20 0.3929
1145.30 0.3928
1145.40 0.3928
1145.50 0.3927
1145.60 0.3927
1145.70 0.3926
1145.80 0.3925
1145.90 0.3925
1146.00 0.3924
1146.10 0.3923
1146.20 0.3923
1146.30 0.3922
1146.40 0.3921
1146.50 0.3921
1146.60 0.392
1146.70 0.392
1146.80 0.3919
1146.90 0.3918
1147.00 0.3918
1147.10 0.3917
1147.20 0.3916
1147.30 0.3916
1147.40 0.3915
1147.50 0.3914
1147.60 0.3914
1147.70 0.3913
1147.80 0.3912
1147.90 0.3912
1148.00 0.3911
1148.10 0.391
1148.20 0.391
1148.30 0.3909
1148.40 0.3908
1148.50 0.3908
1148.60 0.3907
1148.70 0.3906
1148.80 0.3905
1148.90 0.3905
1149.00 0.3904
1149.10 0.3903
1149.20 0.3903
1149.30 0.3902
1149.40 0.3901
1149.50 0.3901
1149.60 0.39
1149.70 0.3899
1149.80 0.3899
1149.90 0.3898
1150.00 0.3897
1150.10 0.3897
1150.20 0.3896
1150.30 0.3895
1150.40 0.3895
1150.50 0.3894
1150.60 0.3893
1150.70 0.3893
1150.80 0.3892
1150.90 0.3891
1151.00 0.3891
1151.10 0.389
1151.20 0.3889
1151.30 0.3889
1151.40 0.3888
1151.50 0.3887
1151.60 0.3887
1151.70 0.3886
1151.80 0.3885
1151.90 0.3885
1152.00 0.3884
1152.10 0.3883
1152.20 0.3883
1152.30 0.3882
1152.40 0.3881
1152.50 0.3881
1152.60 0.388
1152.70 0.3879
1152.80 0.3879
1152.90 0.3878
1153.00 0.3877
1153.10 0.3877
1153.20 0.3876
1153.30 0.3875
1153.40 0.3875
1153.50 0.3874
1153.60 0.3873
1153.70 0.3873
1153.80 0.3872
1153.90 0.3871
1154.00 0.387
1154.10 0.387
1154.20 0.3869
1154.30 0.3868
1154.40 0.3868
1154.50 0.3867
1154.60 0.3866
1154.70 0.3866
1154.80 0.3865
1154.90 0.3864
1155.00 0.3864
1155.10 0.3863
1155.20 0.3862
1155.30 0.3862
1155.40 0.3861
1155.50 0.386
1155.60 0.386
1155.70 0.3859
1155.80 0.3858
1155.90 0.3858
1156.00 0.3857
1156.10 0.3856
1156.20 0.3856
1156.30 0.3855
1156.40 0.3854
1156.50 0.3854
1156.60 0.3853
1156.70 0.3852
1156.80 0.3852
1156.90 0.3851
1157.00 0.385
1157.10 0.3849
1157.20 0.3849
1157.30 0.3848
1157.40 0.3847
1157.50 0.3847
1157.60 0.3846
1157.70 0.3845
1157.80 0.3844
1157.90 0.3844
1158.00 0.3843
1158.10 0.3842
1158.20 0.3842
1158.30 0.3841
1158.40 0.384
1158.50 0.3839
1158.60 0.3839
1158.70 0.3838
1158.80 0.3837
1158.90 0.3837
1159.00 0.3836
1159.10 0.3835
1159.20 0.3834
1159.30 0.3834
1159.40 0.3833
1159.50 0.3832
1159.60 0.3832
1159.70 0.3831
1159.80 0.383
1159.90 0.3829
1160.00 0.3829
1160.10 0.3828
1160.20 0.3827
1160.30 0.3827
1160.40 0.3826
1160.50 0.3825
1160.60 0.3824
1160.70 0.3824
1160.80 0.3823
1160.90 0.3822
1161.00 0.3822
1161.10 0.3821
1161.20 0.382
1161.30 0.3819
1161.40 0.3819
1161.50 0.3818
1161.60 0.3817
1161.70 0.3817
1161.80 0.3816
1161.90 0.3815
1162.00 0.3814
1162.10 0.3814
1162.20 0.3813
1162.30 0.3812
1162.40 0.3811
1162.50 0.3811
1162.60 0.381
1162.70 0.3809
1162.80 0.3808
1162.90 0.3808
1163.00 0.3807
1163.10 0.3806
1163.20 0.3806
1163.30 0.3805
1163.40 0.3804
1163.50 0.3803
1163.60 0.3803
1163.70 0.3802
1163.80 0.3801
1163.90 0.38
1164.00 0.38
1164.10 0.3799
1164.20 0.3798
1164.30 0.3797
1164.40 0.3797
1164.50 0.3796
1164.60 0.3795
1164.70 0.3794
1164.80 0.3794
1164.90 0.3793
1165.00 0.3792
1165.10 0.3792
1165.20 0.3791
1165.30 0.379
1165.40 0.3789
1165.50 0.3789
1165.60 0.3788
1165.70 0.3787
1165.80 0.3786
1165.90 0.3786
1166.00 0.3785
1166.10 0.3784
1166.20 0.3783
1166.30 0.3783
1166.40 0.3782
1166.50 0.3781
1166.60 0.3781
1166.70 0.378
1166.80 0.3779
1166.90 0.3778
1167.00 0.3778
1167.10 0.3777
1167.20 0.3776
1167.30 0.3775
1167.40 0.3775
1167.50 0.3774
1167.60 0.3773
1167.70 0.3772
1167.80 0.3771
1167.90 0.3771
1168.00 0.377
1168.10 0.3769
1168.20 0.3768
1168.30 0.3768
1168.40 0.3767
1168.50 0.3766
1168.60 0.3765
1168.70 0.3765
1168.80 0.3764
1168.90 0.3763
1169.00 0.3762
1169.10 0.3762
1169.20 0.3761
1169.30 0.376
1169.40 0.3759
1169.50 0.3758
1169.60 0.3758
1169.70 0.3757
1169.80 0.3756
1169.90 0.3755
1170.00 0.3755
1170.10 0.3754
1170.20 0.3753
1170.30 0.3752
1170.40 0.3752
1170.50 0.3751
1170.60 0.375
1170.70 0.3749
1170.80 0.3749
1170.90 0.3748
1171.00 0.3747
1171.10 0.3746
1171.20 0.3746
1171.30 0.3745
1171.40 0.3744
1171.50 0.3743
1171.60 0.3743
1171.70 0.3742
1171.80 0.3741
1171.90 0.374
1172.00 0.3739
1172.10 0.3739
1172.20 0.3738
1172.30 0.3737
1172.40 0.3736
1172.50 0.3736
1172.60 0.3735
1172.70 0.3734
1172.80 0.3733
1172.90 0.3732
1173.00 0.3732
1173.10 0.3731
1173.20 0.373
1173.30 0.3729
1173.40 0.3728
1173.50 0.3728
1173.60 0.3727
1173.70 0.3726
1173.80 0.3725
1173.90 0.3724
1174.00 0.3724
1174.10 0.3723
1174.20 0.3722
1174.30 0.3721
1174.40 0.3721
1174.50 0.372
1174.60 0.3719
1174.70 0.3718
1174.80 0.3717
1174.90 0.3717
1175.00 0.3716
1175.10 0.3715
1175.20 0.3714
1175.30 0.3713
1175.40 0.3713
1175.50 0.3712
1175.60 0.3711
1175.70 0.371
1175.80 0.371
1175.90 0.3709
1176.00 0.3708
1176.10 0.3707
1176.20 0.3706
1176.30 0.3706
1176.40 0.3705
1176.50 0.3704
1176.60 0.3703
1176.70 0.3703
1176.80 0.3702
1176.90 0.3701
1177.00 0.37
1177.10 0.3699
1177.20 0.3699
1177.30 0.3698
1177.40 0.3697
1177.50 0.3696
1177.60 0.3695
1177.70 0.3695
1177.80 0.3694
1177.90 0.3693
1178.00 0.3692
1178.10 0.3691
1178.20 0.369
1178.30 0.369
1178.40 0.3689
1178.50 0.3688
1178.60 0.3687
1178.70 0.3686
1178.80 0.3686
1178.90 0.3685
1179.00 0.3684
1179.10 0.3683
1179.20 0.3682
1179.30 0.3682
1179.40 0.3681
1179.50 0.368
1179.60 0.3679
1179.70 0.3678
1179.80 0.3678
1179.90 0.3677
1180.00 0.3676
1180.10 0.3675
1180.20 0.3674
1180.30 0.3674
1180.40 0.3673
1180.50 0.3672
1180.60 0.3671
1180.70 0.367
1180.80 0.367
1180.90 0.3669
1181.00 0.3668
1181.10 0.3667
1181.20 0.3666
1181.30 0.3666
1181.40 0.3665
1181.50 0.3664
1181.60 0.3663
1181.70 0.3662
1181.80 0.3662
1181.90 0.3661
1182.00 0.366
1182.10 0.3659
1182.20 0.3658
1182.30 0.3658
1182.40 0.3657
1182.50 0.3656
1182.60 0.3655
1182.70 0.3654
1182.80 0.3653
1182.90 0.3653
1183.00 0.3652
1183.10 0.3651
1183.20 0.365
1183.30 0.3649
1183.40 0.3648
1183.50 0.3648
1183.60 0.3647
1183.70 0.3646
1183.80 0.3645
1183.90 0.3644
1184.00 0.3643
1184.10 0.3643
1184.20 0.3642
1184.30 0.3641
1184.40 0.364
1184.50 0.3639
1184.60 0.3639
1184.70 0.3638
1184.80 0.3637
1184.90 0.3636
1185.00 0.3635
1185.10 0.3634
1185.20 0.3634
1185.30 0.3633
1185.40 0.3632
1185.50 0.3631
1185.60 0.363
1185.70 0.3629
1185.80 0.3629
1185.90 0.3628
1186.00 0.3627
1186.10 0.3626
1186.20 0.3625
1186.30 0.3625
1186.40 0.3624
1186.50 0.3623
1186.60 0.3622
1186.70 0.3621
1186.80 0.362
1186.90 0.362
1187.00 0.3619
1187.10 0.3618
1187.20 0.3617
1187.30 0.3616
1187.40 0.3615
1187.50 0.3615
1187.60 0.3614
1187.70 0.3613
1187.80 0.3612
1187.90 0.3611
1188.00 0.361
1188.10 0.361
1188.20 0.3609
1188.30 0.3608
1188.40 0.3607
1188.50 0.3606
1188.60 0.3606
1188.70 0.3605
1188.80 0.3604
1188.90 0.3603
1189.00 0.3602
1189.10 0.3601
1189.20 0.3601
1189.30 0.36
1189.40 0.3599
1189.50 0.3598
1189.60 0.3597
1189.70 0.3596
1189.80 0.3596
1189.90 0.3595
1190.00 0.3594
1190.10 0.3593
1190.20 0.3592
1190.30 0.3591
1190.40 0.3591
1190.50 0.359
1190.60 0.3589
1190.70 0.3588
1190.80 0.3587
1190.90 0.3586
1191.00 0.3586
1191.10 0.3585
1191.20 0.3584
1191.30 0.3583
1191.40 0.3582
1191.50 0.3582
1191.60 0.3581
1191.70 0.358
1191.80 0.3579
1191.90 0.3578
1192.00 0.3577
1192.10 0.3577
1192.20 0.3576
1192.30 0.3575
1192.40 0.3574
1192.50 0.3573
1192.60 0.3572
1192.70 0.3572
1192.80 0.3571
1192.90 0.357
1193.00 0.3569
1193.10 0.3568
1193.20 0.3567
1193.30 0.3567
1193.40 0.3566
1193.50 0.3565
1193.60 0.3564
1193.70 0.3563
1193.80 0.3562
1193.90 0.3561
1194.00 0.3561
1194.10 0.356
1194.20 0.3559
1194.30 0.3558
1194.40 0.3557
1194.50 0.3556
1194.60 0.3556
1194.70 0.3555
1194.80 0.3554
1194.90 0.3553
1195.00 0.3552
1195.10 0.3551
1195.20 0.3551
1195.30 0.355
1195.40 0.3549
1195.50 0.3548
1195.60 0.3547
1195.70 0.3546
1195.80 0.3546
1195.90 0.3545
1196.00 0.3544
1196.10 0.3543
1196.20 0.3542
1196.30 0.3541
1196.40 0.3541
1196.50 0.354
1196.60 0.3539
1196.70 0.3538
1196.80 0.3537
1196.90 0.3536
1197.00 0.3536
1197.10 0.3535
1197.20 0.3534
1197.30 0.3533
1197.40 0.3532
1197.50 0.3531
1197.60 0.353
1197.70 0.353
1197.80 0.3529
1197.90 0.3528
1198.00 0.3527
1198.10 0.3526
1198.20 0.3525
1198.30 0.3524
1198.40 0.3524
1198.50 0.3523
1198.60 0.3522
1198.70 0.3521
1198.80 0.352
1198.90 0.3519
1199.00 0.3519
1199.10 0.3518
1199.20 0.3517
1199.30 0.3516
1199.40 0.3515
1199.50 0.3514
1199.60 0.3513
1199.70 0.3513
1199.80 0.3512
1199.90 0.3511
1200.00 0
