# Version 2.1 - nm, norm@500 to 1, cut digits, bergeron_2500_95.dat_2500
# Wavelength(nm)  Flambda(ergs/cm^s/s/nm)
300.00 0.09586
300.10 0.09609
300.20 0.09633
300.30 0.09657
300.40 0.0968
300.50 0.09704
300.60 0.09728
300.70 0.09751
300.80 0.09775
300.90 0.09798
301.00 0.09822
301.10 0.09845
301.20 0.09869
301.30 0.09892
301.40 0.09916
301.50 0.09939
301.60 0.09962
301.70 0.09986
301.80 0.1001
301.90 0.1003
302.00 0.1006
302.10 0.1008
302.20 0.101
302.30 0.1013
302.40 0.1015
302.50 0.1018
302.60 0.102
302.70 0.1023
302.80 0.1025
302.90 0.1027
303.00 0.103
303.10 0.1032
303.20 0.1035
303.30 0.1037
303.40 0.104
303.50 0.1042
303.60 0.1044
303.70 0.1047
303.80 0.1049
303.90 0.1052
304.00 0.1054
304.10 0.1056
304.20 0.1059
304.30 0.1061
304.40 0.1064
304.50 0.1066
304.60 0.1069
304.70 0.1071
304.80 0.1074
304.90 0.1076
305.00 0.1079
305.10 0.1081
305.20 0.1084
305.30 0.1086
305.40 0.1089
305.50 0.1091
305.60 0.1094
305.70 0.1096
305.80 0.1099
305.90 0.1101
306.00 0.1104
306.10 0.1106
306.20 0.1109
306.30 0.1111
306.40 0.1114
306.50 0.1117
306.60 0.1119
306.70 0.1122
306.80 0.1124
306.90 0.1127
307.00 0.1129
307.10 0.1132
307.20 0.1135
307.30 0.1137
307.40 0.114
307.50 0.1142
307.60 0.1145
307.70 0.1147
307.80 0.115
307.90 0.1152
308.00 0.1155
308.10 0.1158
308.20 0.116
308.30 0.1163
308.40 0.1165
308.50 0.1168
308.60 0.1171
308.70 0.1173
308.80 0.1176
308.90 0.1179
309.00 0.1181
309.10 0.1184
309.20 0.1187
309.30 0.1189
309.40 0.1192
309.50 0.1194
309.60 0.1197
309.70 0.12
309.80 0.1202
309.90 0.1205
310.00 0.1207
310.10 0.121
310.20 0.1213
310.30 0.1216
310.40 0.1218
310.50 0.1221
310.60 0.1224
310.70 0.1226
310.80 0.1229
310.90 0.1232
311.00 0.1235
311.10 0.1237
311.20 0.124
311.30 0.1243
311.40 0.1245
311.50 0.1248
311.60 0.1251
311.70 0.1253
311.80 0.1256
311.90 0.1259
312.00 0.1262
312.10 0.1264
312.20 0.1267
312.30 0.127
312.40 0.1272
312.50 0.1275
312.60 0.1278
312.70 0.1281
312.80 0.1284
312.90 0.1286
313.00 0.1289
313.10 0.1292
313.20 0.1295
313.30 0.1297
313.40 0.13
313.50 0.1303
313.60 0.1306
313.70 0.1308
313.80 0.1311
313.90 0.1314
314.00 0.1317
314.10 0.132
314.20 0.1322
314.30 0.1325
314.40 0.1328
314.50 0.1331
314.60 0.1334
314.70 0.1337
314.80 0.134
314.90 0.1342
315.00 0.1345
315.10 0.1348
315.20 0.1351
315.30 0.1354
315.40 0.1357
315.50 0.1359
315.60 0.1362
315.70 0.1365
315.80 0.1368
315.90 0.1371
316.00 0.1374
316.10 0.1376
316.20 0.1379
316.30 0.1382
316.40 0.1385
316.50 0.1388
316.60 0.1391
316.70 0.1394
316.80 0.1397
316.90 0.14
317.00 0.1403
317.10 0.1406
317.20 0.1409
317.30 0.1411
317.40 0.1414
317.50 0.1417
317.60 0.142
317.70 0.1423
317.80 0.1426
317.90 0.1429
318.00 0.1432
318.10 0.1435
318.20 0.1438
318.30 0.1441
318.40 0.1444
318.50 0.1447
318.60 0.145
318.70 0.1453
318.80 0.1456
318.90 0.1459
319.00 0.1462
319.10 0.1465
319.20 0.1468
319.30 0.1471
319.40 0.1473
319.50 0.1476
319.60 0.1479
319.70 0.1482
319.80 0.1485
319.90 0.1488
320.00 0.1491
320.10 0.1494
320.20 0.1497
320.30 0.15
320.40 0.1503
320.50 0.1507
320.60 0.151
320.70 0.1513
320.80 0.1516
320.90 0.1519
321.00 0.1522
321.10 0.1525
321.20 0.1528
321.30 0.1531
321.40 0.1534
321.50 0.1537
321.60 0.154
321.70 0.1543
321.80 0.1546
321.90 0.1549
322.00 0.1552
322.10 0.1555
322.20 0.1558
322.30 0.1562
322.40 0.1565
322.50 0.1568
322.60 0.1571
322.70 0.1574
322.80 0.1577
322.90 0.158
323.00 0.1583
323.10 0.1587
323.20 0.159
323.30 0.1593
323.40 0.1596
323.50 0.1599
323.60 0.1602
323.70 0.1605
323.80 0.1608
323.90 0.1611
324.00 0.1614
324.10 0.1618
324.20 0.1621
324.30 0.1624
324.40 0.1627
324.50 0.163
324.60 0.1634
324.70 0.1637
324.80 0.164
324.90 0.1643
325.00 0.1646
325.10 0.165
325.20 0.1653
325.30 0.1656
325.40 0.1659
325.50 0.1662
325.60 0.1665
325.70 0.1669
325.80 0.1672
325.90 0.1675
326.00 0.1678
326.10 0.1681
326.20 0.1685
326.30 0.1688
326.40 0.1691
326.50 0.1694
326.60 0.1698
326.70 0.1701
326.80 0.1704
326.90 0.1708
327.00 0.1711
327.10 0.1714
327.20 0.1717
327.30 0.1721
327.40 0.1724
327.50 0.1727
327.60 0.173
327.70 0.1733
327.80 0.1737
327.90 0.174
328.00 0.1743
328.10 0.1746
328.20 0.175
328.30 0.1753
328.40 0.1757
328.50 0.176
328.60 0.1763
328.70 0.1767
328.80 0.177
328.90 0.1773
329.00 0.1776
329.10 0.178
329.20 0.1783
329.30 0.1786
329.40 0.179
329.50 0.1793
329.60 0.1796
329.70 0.18
329.80 0.1803
329.90 0.1806
330.00 0.1809
330.10 0.1813
330.20 0.1816
330.30 0.182
330.40 0.1823
330.50 0.1827
330.60 0.183
330.70 0.1833
330.80 0.1837
330.90 0.184
331.00 0.1844
331.10 0.1847
331.20 0.185
331.30 0.1854
331.40 0.1857
331.50 0.186
331.60 0.1864
331.70 0.1867
331.80 0.187
331.90 0.1874
332.00 0.1877
332.10 0.1881
332.20 0.1884
332.30 0.1888
332.40 0.1891
332.50 0.1895
332.60 0.1898
332.70 0.1902
332.80 0.1905
332.90 0.1908
333.00 0.1912
333.10 0.1915
333.20 0.1919
333.30 0.1922
333.40 0.1926
333.50 0.1929
333.60 0.1932
333.70 0.1936
333.80 0.1939
333.90 0.1943
334.00 0.1946
334.10 0.195
334.20 0.1953
334.30 0.1957
334.40 0.196
334.50 0.1964
334.60 0.1967
334.70 0.1971
334.80 0.1974
334.90 0.1978
335.00 0.1982
335.10 0.1985
335.20 0.1989
335.30 0.1992
335.40 0.1996
335.50 0.1999
335.60 0.2003
335.70 0.2006
335.80 0.201
335.90 0.2013
336.00 0.2016
336.10 0.202
336.20 0.2024
336.30 0.2027
336.40 0.2031
336.50 0.2035
336.60 0.2038
336.70 0.2042
336.80 0.2045
336.90 0.2049
337.00 0.2053
337.10 0.2056
337.20 0.206
337.30 0.2063
337.40 0.2067
337.50 0.207
337.60 0.2074
337.70 0.2077
337.80 0.2081
337.90 0.2085
338.00 0.2088
338.10 0.2092
338.20 0.2095
338.30 0.2099
338.40 0.2103
338.50 0.2106
338.60 0.211
338.70 0.2114
338.80 0.2117
338.90 0.2121
339.00 0.2125
339.10 0.2128
339.20 0.2132
339.30 0.2136
339.40 0.2139
339.50 0.2143
339.60 0.2147
339.70 0.215
339.80 0.2154
339.90 0.2157
340.00 0.2161
340.10 0.2165
340.20 0.2168
340.30 0.2172
340.40 0.2176
340.50 0.218
340.60 0.2183
340.70 0.2187
340.80 0.2191
340.90 0.2195
341.00 0.2198
341.10 0.2202
341.20 0.2206
341.30 0.2209
341.40 0.2213
341.50 0.2217
341.60 0.222
341.70 0.2224
341.80 0.2228
341.90 0.2231
342.00 0.2235
342.10 0.2239
342.20 0.2243
342.30 0.2247
342.40 0.225
342.50 0.2254
342.60 0.2258
342.70 0.2262
342.80 0.2266
342.90 0.2269
343.00 0.2273
343.10 0.2277
343.20 0.2281
343.30 0.2284
343.40 0.2288
343.50 0.2292
343.60 0.2296
343.70 0.2299
343.80 0.2303
343.90 0.2307
344.00 0.2311
344.10 0.2314
344.20 0.2318
344.30 0.2322
344.40 0.2326
344.50 0.233
344.60 0.2334
344.70 0.2338
344.80 0.2341
344.90 0.2345
345.00 0.2349
345.10 0.2353
345.20 0.2357
345.30 0.2361
345.40 0.2364
345.50 0.2368
345.60 0.2372
345.70 0.2376
345.80 0.238
345.90 0.2383
346.00 0.2387
346.10 0.2391
346.20 0.2395
346.30 0.2399
346.40 0.2403
346.50 0.2407
346.60 0.2411
346.70 0.2415
346.80 0.2419
346.90 0.2422
347.00 0.2426
347.10 0.243
347.20 0.2434
347.30 0.2438
347.40 0.2442
347.50 0.2446
347.60 0.245
347.70 0.2453
347.80 0.2457
347.90 0.2461
348.00 0.2465
348.10 0.2469
348.20 0.2473
348.30 0.2477
348.40 0.2481
348.50 0.2485
348.60 0.2489
348.70 0.2493
348.80 0.2497
348.90 0.2501
349.00 0.2505
349.10 0.2509
349.20 0.2513
349.30 0.2517
349.40 0.252
349.50 0.2524
349.60 0.2528
349.70 0.2532
349.80 0.2536
349.90 0.254
350.00 0.2544
350.10 0.2548
350.20 0.2552
350.30 0.2556
350.40 0.256
350.50 0.2564
350.60 0.2568
350.70 0.2572
350.80 0.2576
350.90 0.258
351.00 0.2584
351.10 0.2588
351.20 0.2592
351.30 0.2596
351.40 0.26
351.50 0.2604
351.60 0.2608
351.70 0.2612
351.80 0.2616
351.90 0.262
352.00 0.2624
352.10 0.2628
352.20 0.2632
352.30 0.2637
352.40 0.2641
352.50 0.2645
352.60 0.2649
352.70 0.2653
352.80 0.2657
352.90 0.2661
353.00 0.2665
353.10 0.2669
353.20 0.2673
353.30 0.2677
353.40 0.2681
353.50 0.2685
353.60 0.2689
353.70 0.2693
353.80 0.2697
353.90 0.2701
354.00 0.2705
354.10 0.271
354.20 0.2714
354.30 0.2718
354.40 0.2722
354.50 0.2726
354.60 0.273
354.70 0.2735
354.80 0.2739
354.90 0.2743
355.00 0.2747
355.10 0.2751
355.20 0.2755
355.30 0.2759
355.40 0.2763
355.50 0.2768
355.60 0.2772
355.70 0.2776
355.80 0.278
355.90 0.2784
356.00 0.2788
356.10 0.2792
356.20 0.2796
356.30 0.2801
356.40 0.2805
356.50 0.2809
356.60 0.2813
356.70 0.2817
356.80 0.2822
356.90 0.2826
357.00 0.283
357.10 0.2834
357.20 0.2838
357.30 0.2842
357.40 0.2847
357.50 0.2851
357.60 0.2855
357.70 0.2859
357.80 0.2863
357.90 0.2867
358.00 0.2871
358.10 0.2876
358.20 0.288
358.30 0.2884
358.40 0.2889
358.50 0.2893
358.60 0.2897
358.70 0.2901
358.80 0.2906
358.90 0.291
359.00 0.2914
359.10 0.2918
359.20 0.2923
359.30 0.2927
359.40 0.2931
359.50 0.2935
359.60 0.2939
359.70 0.2944
359.80 0.2948
359.90 0.2952
360.00 0.2956
360.10 0.296
360.20 0.2965
360.30 0.2969
360.40 0.2973
360.50 0.2978
360.60 0.2982
360.70 0.2986
360.80 0.2991
360.90 0.2995
361.00 0.2999
361.10 0.3004
361.20 0.3008
361.30 0.3012
361.40 0.3016
361.50 0.3021
361.60 0.3025
361.70 0.3029
361.80 0.3033
361.90 0.3038
362.00 0.3042
362.10 0.3046
362.20 0.3051
362.30 0.3055
362.40 0.3059
362.50 0.3063
362.60 0.3068
362.70 0.3072
362.80 0.3076
362.90 0.3081
363.00 0.3085
363.10 0.3089
363.20 0.3094
363.30 0.3098
363.40 0.3103
363.50 0.3107
363.60 0.3111
363.70 0.3116
363.80 0.312
363.90 0.3124
364.00 0.3129
364.10 0.3133
364.20 0.3137
364.30 0.3142
364.40 0.3146
364.50 0.315
364.60 0.3155
364.70 0.3159
364.80 0.3164
364.90 0.3168
365.00 0.3172
365.10 0.3177
365.20 0.3181
365.30 0.3186
365.40 0.319
365.50 0.3194
365.60 0.3199
365.70 0.3203
365.80 0.3208
365.90 0.3212
366.00 0.3216
366.10 0.3221
366.20 0.3225
366.30 0.323
366.40 0.3234
366.50 0.3239
366.60 0.3243
366.70 0.3248
366.80 0.3252
366.90 0.3256
367.00 0.3261
367.10 0.3265
367.20 0.327
367.30 0.3274
367.40 0.3279
367.50 0.3283
367.60 0.3287
367.70 0.3292
367.80 0.3296
367.90 0.3301
368.00 0.3305
368.10 0.3309
368.20 0.3314
368.30 0.3319
368.40 0.3323
368.50 0.3328
368.60 0.3332
368.70 0.3337
368.80 0.3341
368.90 0.3346
369.00 0.335
369.10 0.3355
369.20 0.3359
369.30 0.3364
369.40 0.3368
369.50 0.3372
369.60 0.3377
369.70 0.3381
369.80 0.3386
369.90 0.339
370.00 0.3395
370.10 0.3399
370.20 0.3404
370.30 0.3408
370.40 0.3413
370.50 0.3418
370.60 0.3422
370.70 0.3427
370.80 0.3431
370.90 0.3436
371.00 0.344
371.10 0.3445
371.20 0.3449
371.30 0.3454
371.40 0.3458
371.50 0.3463
371.60 0.3467
371.70 0.3472
371.80 0.3476
371.90 0.3481
372.00 0.3485
372.10 0.349
372.20 0.3495
372.30 0.3499
372.40 0.3504
372.50 0.3508
372.60 0.3513
372.70 0.3518
372.80 0.3522
372.90 0.3527
373.00 0.3531
373.10 0.3536
373.20 0.354
373.30 0.3545
373.40 0.355
373.50 0.3554
373.60 0.3559
373.70 0.3563
373.80 0.3568
373.90 0.3572
374.00 0.3577
374.10 0.3581
374.20 0.3586
374.30 0.3591
374.40 0.3595
374.50 0.36
374.60 0.3605
374.70 0.3609
374.80 0.3614
374.90 0.3619
375.00 0.3623
375.10 0.3628
375.20 0.3632
375.30 0.3637
375.40 0.3642
375.50 0.3646
375.60 0.3651
375.70 0.3655
375.80 0.366
375.90 0.3665
376.00 0.3669
376.10 0.3674
376.20 0.3678
376.30 0.3683
376.40 0.3688
376.50 0.3692
376.60 0.3697
376.70 0.3702
376.80 0.3706
376.90 0.3711
377.00 0.3716
377.10 0.372
377.20 0.3725
377.30 0.373
377.40 0.3734
377.50 0.3739
377.60 0.3744
377.70 0.3748
377.80 0.3753
377.90 0.3758
378.00 0.3762
378.10 0.3767
378.20 0.3772
378.30 0.3777
378.40 0.3781
378.50 0.3786
378.60 0.3791
378.70 0.3795
378.80 0.38
378.90 0.3805
379.00 0.3809
379.10 0.3814
379.20 0.3819
379.30 0.3824
379.40 0.3828
379.50 0.3833
379.60 0.3838
379.70 0.3842
379.80 0.3847
379.90 0.3852
380.00 0.3856
380.10 0.3861
380.20 0.3866
380.30 0.3871
380.40 0.3875
380.50 0.388
380.60 0.3885
380.70 0.389
380.80 0.3894
380.90 0.3899
381.00 0.3904
381.10 0.3909
381.20 0.3913
381.30 0.3918
381.40 0.3923
381.50 0.3928
381.60 0.3932
381.70 0.3937
381.80 0.3942
381.90 0.3947
382.00 0.3951
382.10 0.3956
382.20 0.3961
382.30 0.3966
382.40 0.397
382.50 0.3975
382.60 0.398
382.70 0.3985
382.80 0.399
382.90 0.3994
383.00 0.3999
383.10 0.4004
383.20 0.4009
383.30 0.4013
383.40 0.4018
383.50 0.4023
383.60 0.4028
383.70 0.4033
383.80 0.4037
383.90 0.4042
384.00 0.4047
384.10 0.4052
384.20 0.4057
384.30 0.4061
384.40 0.4066
384.50 0.4071
384.60 0.4076
384.70 0.4081
384.80 0.4085
384.90 0.409
385.00 0.4095
385.10 0.41
385.20 0.4105
385.30 0.411
385.40 0.4114
385.50 0.4119
385.60 0.4124
385.70 0.4129
385.80 0.4134
385.90 0.4138
386.00 0.4143
386.10 0.4148
386.20 0.4153
386.30 0.4158
386.40 0.4163
386.50 0.4168
386.60 0.4172
386.70 0.4177
386.80 0.4182
386.90 0.4187
387.00 0.4192
387.10 0.4197
387.20 0.4202
387.30 0.4206
387.40 0.4211
387.50 0.4216
387.60 0.4221
387.70 0.4226
387.80 0.4231
387.90 0.4236
388.00 0.424
388.10 0.4245
388.20 0.425
388.30 0.4255
388.40 0.426
388.50 0.4265
388.60 0.427
388.70 0.4275
388.80 0.4279
388.90 0.4284
389.00 0.4289
389.10 0.4294
389.20 0.4299
389.30 0.4304
389.40 0.4309
389.50 0.4314
389.60 0.4319
389.70 0.4324
389.80 0.4328
389.90 0.4333
390.00 0.4338
390.10 0.4343
390.20 0.4348
390.30 0.4353
390.40 0.4358
390.50 0.4363
390.60 0.4368
390.70 0.4373
390.80 0.4378
390.90 0.4382
391.00 0.4387
391.10 0.4392
391.20 0.4397
391.30 0.4402
391.40 0.4407
391.50 0.4412
391.60 0.4417
391.70 0.4422
391.80 0.4427
391.90 0.4432
392.00 0.4437
392.10 0.4442
392.20 0.4447
392.30 0.4451
392.40 0.4456
392.50 0.4461
392.60 0.4466
392.70 0.4471
392.80 0.4476
392.90 0.4481
393.00 0.4486
393.10 0.4491
393.20 0.4496
393.30 0.4501
393.40 0.4506
393.50 0.4511
393.60 0.4516
393.70 0.4521
393.80 0.4526
393.90 0.4531
394.00 0.4536
394.10 0.4541
394.20 0.4546
394.30 0.4551
394.40 0.4556
394.50 0.4561
394.60 0.4566
394.70 0.4571
394.80 0.4576
394.90 0.4581
395.00 0.4586
395.10 0.4591
395.20 0.4596
395.30 0.46
395.40 0.4605
395.50 0.461
395.60 0.4615
395.70 0.462
395.80 0.4625
395.90 0.463
396.00 0.4635
396.10 0.464
396.20 0.4645
396.30 0.465
396.40 0.4655
396.50 0.466
396.60 0.4665
396.70 0.467
396.80 0.4675
396.90 0.468
397.00 0.4685
397.10 0.4691
397.20 0.4696
397.30 0.4701
397.40 0.4706
397.50 0.4711
397.60 0.4716
397.70 0.4721
397.80 0.4726
397.90 0.4731
398.00 0.4736
398.10 0.4741
398.20 0.4746
398.30 0.4751
398.40 0.4756
398.50 0.4761
398.60 0.4766
398.70 0.4771
398.80 0.4776
398.90 0.4781
399.00 0.4786
399.10 0.4791
399.20 0.4796
399.30 0.4801
399.40 0.4806
399.50 0.4811
399.60 0.4816
399.70 0.4821
399.80 0.4826
399.90 0.4831
400.00 0.4837
400.10 0.4842
400.20 0.4847
400.30 0.4852
400.40 0.4857
400.50 0.4862
400.60 0.4867
400.70 0.4872
400.80 0.4877
400.90 0.4882
401.00 0.4887
401.10 0.4892
401.20 0.4897
401.30 0.4902
401.40 0.4907
401.50 0.4912
401.60 0.4918
401.70 0.4923
401.80 0.4928
401.90 0.4933
402.00 0.4938
402.10 0.4943
402.20 0.4948
402.30 0.4953
402.40 0.4958
402.50 0.4963
402.60 0.4968
402.70 0.4973
402.80 0.4979
402.90 0.4984
403.00 0.4989
403.10 0.4994
403.20 0.4999
403.30 0.5004
403.40 0.5009
403.50 0.5014
403.60 0.5019
403.70 0.5024
403.80 0.5029
403.90 0.5035
404.00 0.504
404.10 0.5045
404.20 0.505
404.30 0.5055
404.40 0.506
404.50 0.5065
404.60 0.507
404.70 0.5075
404.80 0.508
404.90 0.5086
405.00 0.5091
405.10 0.5096
405.20 0.5101
405.30 0.5106
405.40 0.5111
405.50 0.5117
405.60 0.5122
405.70 0.5127
405.80 0.5132
405.90 0.5137
406.00 0.5142
406.10 0.5147
406.20 0.5152
406.30 0.5158
406.40 0.5163
406.50 0.5168
406.60 0.5173
406.70 0.5178
406.80 0.5183
406.90 0.5188
407.00 0.5193
407.10 0.5199
407.20 0.5204
407.30 0.5209
407.40 0.5214
407.50 0.5219
407.60 0.5224
407.70 0.5229
407.80 0.5234
407.90 0.524
408.00 0.5245
408.10 0.525
408.20 0.5255
408.30 0.526
408.40 0.5265
408.50 0.5271
408.60 0.5276
408.70 0.5281
408.80 0.5286
408.90 0.5291
409.00 0.5296
409.10 0.5301
409.20 0.5307
409.30 0.5312
409.40 0.5317
409.50 0.5322
409.60 0.5327
409.70 0.5332
409.80 0.5338
409.90 0.5343
410.00 0.5348
410.10 0.5353
410.20 0.5358
410.30 0.5363
410.40 0.5368
410.50 0.5374
410.60 0.5379
410.70 0.5384
410.80 0.5389
410.90 0.5394
411.00 0.5399
411.10 0.5405
411.20 0.541
411.30 0.5415
411.40 0.5421
411.50 0.5426
411.60 0.5431
411.70 0.5436
411.80 0.5441
411.90 0.5446
412.00 0.5451
412.10 0.5457
412.20 0.5462
412.30 0.5467
412.40 0.5472
412.50 0.5477
412.60 0.5483
412.70 0.5488
412.80 0.5493
412.90 0.5498
413.00 0.5503
413.10 0.5508
413.20 0.5514
413.30 0.5519
413.40 0.5524
413.50 0.5529
413.60 0.5534
413.70 0.554
413.80 0.5545
413.90 0.555
414.00 0.5555
414.10 0.5561
414.20 0.5566
414.30 0.5571
414.40 0.5576
414.50 0.5581
414.60 0.5587
414.70 0.5592
414.80 0.5597
414.90 0.5602
415.00 0.5608
415.10 0.5612
415.20 0.5618
415.30 0.5623
415.40 0.5628
415.50 0.5633
415.60 0.5639
415.70 0.5644
415.80 0.5649
415.90 0.5654
416.00 0.5659
416.10 0.5665
416.20 0.567
416.30 0.5675
416.40 0.5681
416.50 0.5686
416.60 0.5691
416.70 0.5696
416.80 0.5701
416.90 0.5706
417.00 0.5712
417.10 0.5717
417.20 0.5722
417.30 0.5727
417.40 0.5732
417.50 0.5738
417.60 0.5743
417.70 0.5748
417.80 0.5753
417.90 0.5759
418.00 0.5764
418.10 0.5769
418.20 0.5774
418.30 0.578
418.40 0.5785
418.50 0.579
418.60 0.5795
418.70 0.5801
418.80 0.5806
418.90 0.5811
419.00 0.5816
419.10 0.5822
419.20 0.5827
419.30 0.5832
419.40 0.5837
419.50 0.5842
419.60 0.5848
419.70 0.5853
419.80 0.5858
419.90 0.5864
420.00 0.5869
420.10 0.5874
420.20 0.5879
420.30 0.5884
420.40 0.589
420.50 0.5895
420.60 0.59
420.70 0.5905
420.80 0.5911
420.90 0.5916
421.00 0.5921
421.10 0.5926
421.20 0.5932
421.30 0.5937
421.40 0.5942
421.50 0.5948
421.60 0.5953
421.70 0.5958
421.80 0.5963
421.90 0.5968
422.00 0.5974
422.10 0.5979
422.20 0.5984
422.30 0.5989
422.40 0.5995
422.50 0.6
422.60 0.6005
422.70 0.6011
422.80 0.6016
422.90 0.6021
423.00 0.6026
423.10 0.6031
423.20 0.6037
423.30 0.6042
423.40 0.6048
423.50 0.6053
423.60 0.6058
423.70 0.6063
423.80 0.6068
423.90 0.6074
424.00 0.6079
424.10 0.6084
424.20 0.609
424.30 0.6095
424.40 0.61
424.50 0.6105
424.60 0.6111
424.70 0.6116
424.80 0.6121
424.90 0.6127
425.00 0.6132
425.10 0.6137
425.20 0.6142
425.30 0.6147
425.40 0.6153
425.50 0.6158
425.60 0.6163
425.70 0.6168
425.80 0.6174
425.90 0.6179
426.00 0.6184
426.10 0.619
426.20 0.6195
426.30 0.62
426.40 0.6206
426.50 0.6211
426.60 0.6216
426.70 0.6221
426.80 0.6227
426.90 0.6232
427.00 0.6237
427.10 0.6243
427.20 0.6248
427.30 0.6253
427.40 0.6258
427.50 0.6264
427.60 0.6269
427.70 0.6274
427.80 0.628
427.90 0.6285
428.00 0.629
428.10 0.6295
428.20 0.6301
428.30 0.6306
428.40 0.6311
428.50 0.6316
428.60 0.6322
428.70 0.6327
428.80 0.6332
428.90 0.6338
429.00 0.6343
429.10 0.6348
429.20 0.6353
429.30 0.6359
429.40 0.6364
429.50 0.6369
429.60 0.6375
429.70 0.638
429.80 0.6385
429.90 0.6391
430.00 0.6396
430.10 0.6401
430.20 0.6406
430.30 0.6412
430.40 0.6417
430.50 0.6422
430.60 0.6428
430.70 0.6433
430.80 0.6438
430.90 0.6443
431.00 0.6449
431.10 0.6454
431.20 0.6459
431.30 0.6465
431.40 0.647
431.50 0.6475
431.60 0.6481
431.70 0.6486
431.80 0.6491
431.90 0.6496
432.00 0.6502
432.10 0.6507
432.20 0.6512
432.30 0.6518
432.40 0.6523
432.50 0.6528
432.60 0.6534
432.70 0.6539
432.80 0.6544
432.90 0.6549
433.00 0.6555
433.10 0.656
433.20 0.6565
433.30 0.6571
433.40 0.6576
433.50 0.6581
433.60 0.6586
433.70 0.6592
433.80 0.6597
433.90 0.6602
434.00 0.6608
434.10 0.6613
434.20 0.6618
434.30 0.6624
434.40 0.6629
434.50 0.6634
434.60 0.6639
434.70 0.6645
434.80 0.665
434.90 0.6655
435.00 0.6661
435.10 0.6666
435.20 0.6671
435.30 0.6677
435.40 0.6682
435.50 0.6687
435.60 0.6692
435.70 0.6698
435.80 0.6703
435.90 0.6708
436.00 0.6714
436.10 0.6719
436.20 0.6724
436.30 0.673
436.40 0.6735
436.50 0.674
436.60 0.6745
436.70 0.6751
436.80 0.6756
436.90 0.6761
437.00 0.6767
437.10 0.6772
437.20 0.6777
437.30 0.6782
437.40 0.6788
437.50 0.6793
437.60 0.6799
437.70 0.6804
437.80 0.6809
437.90 0.6815
438.00 0.682
438.10 0.6825
438.20 0.683
438.30 0.6836
438.40 0.6841
438.50 0.6846
438.60 0.6852
438.70 0.6857
438.80 0.6862
438.90 0.6867
439.00 0.6873
439.10 0.6878
439.20 0.6883
439.30 0.6889
439.40 0.6894
439.50 0.6899
439.60 0.6905
439.70 0.691
439.80 0.6915
439.90 0.692
440.00 0.6926
440.10 0.6931
440.20 0.6936
440.30 0.6942
440.40 0.6947
440.50 0.6952
440.60 0.6958
440.70 0.6963
440.80 0.6968
440.90 0.6974
441.00 0.6979
441.10 0.6984
441.20 0.6989
441.30 0.6995
441.40 0.7
441.50 0.7005
441.60 0.7011
441.70 0.7016
441.80 0.7021
441.90 0.7027
442.00 0.7032
442.10 0.7037
442.20 0.7042
442.30 0.7048
442.40 0.7053
442.50 0.7058
442.60 0.7064
442.70 0.7069
442.80 0.7074
442.90 0.708
443.00 0.7085
443.10 0.709
443.20 0.7096
443.30 0.7101
443.40 0.7106
443.50 0.7112
443.60 0.7117
443.70 0.7122
443.80 0.7127
443.90 0.7132
444.00 0.7138
444.10 0.7143
444.20 0.7149
444.30 0.7154
444.40 0.7159
444.50 0.7164
444.60 0.717
444.70 0.7175
444.80 0.718
444.90 0.7186
445.00 0.7191
445.10 0.7196
445.20 0.7201
445.30 0.7207
445.40 0.7212
445.50 0.7217
445.60 0.7223
445.70 0.7228
445.80 0.7233
445.90 0.7239
446.00 0.7244
446.10 0.7249
446.20 0.7254
446.30 0.726
446.40 0.7265
446.50 0.727
446.60 0.7276
446.70 0.7281
446.80 0.7286
446.90 0.7292
447.00 0.7297
447.10 0.7302
447.20 0.7307
447.30 0.7313
447.40 0.7318
447.50 0.7323
447.60 0.7329
447.70 0.7334
447.80 0.7339
447.90 0.7344
448.00 0.735
448.10 0.7355
448.20 0.736
448.30 0.7365
448.40 0.7371
448.50 0.7376
448.60 0.7381
448.70 0.7387
448.80 0.7392
448.90 0.7397
449.00 0.7403
449.10 0.7408
449.20 0.7413
449.30 0.7418
449.40 0.7424
449.50 0.7429
449.60 0.7434
449.70 0.744
449.80 0.7445
449.90 0.745
450.00 0.7455
450.10 0.7461
450.20 0.7466
450.30 0.7472
450.40 0.7477
450.50 0.7482
450.60 0.7487
450.70 0.7492
450.80 0.7498
450.90 0.7503
451.00 0.7508
451.10 0.7514
451.20 0.7519
451.30 0.7524
451.40 0.7529
451.50 0.7535
451.60 0.754
451.70 0.7545
451.80 0.755
451.90 0.7556
452.00 0.7561
452.10 0.7567
452.20 0.7572
452.30 0.7577
452.40 0.7582
452.50 0.7588
452.60 0.7593
452.70 0.7598
452.80 0.7603
452.90 0.7609
453.00 0.7614
453.10 0.7619
453.20 0.7625
453.30 0.763
453.40 0.7635
453.50 0.764
453.60 0.7646
453.70 0.7651
453.80 0.7656
453.90 0.7661
454.00 0.7667
454.10 0.7672
454.20 0.7677
454.30 0.7683
454.40 0.7688
454.50 0.7693
454.60 0.7698
454.70 0.7704
454.80 0.7709
454.90 0.7714
455.00 0.7719
455.10 0.7725
455.20 0.773
455.30 0.7735
455.40 0.7741
455.50 0.7746
455.60 0.7751
455.70 0.7756
455.80 0.7762
455.90 0.7767
456.00 0.7772
456.10 0.7777
456.20 0.7783
456.30 0.7788
456.40 0.7793
456.50 0.7798
456.60 0.7804
456.70 0.7809
456.80 0.7814
456.90 0.7819
457.00 0.7825
457.10 0.783
457.20 0.7835
457.30 0.784
457.40 0.7845
457.50 0.7851
457.60 0.7856
457.70 0.7861
457.80 0.7867
457.90 0.7872
458.00 0.7877
458.10 0.7882
458.20 0.7888
458.30 0.7893
458.40 0.7898
458.50 0.7903
458.60 0.7909
458.70 0.7914
458.80 0.7919
458.90 0.7924
459.00 0.793
459.10 0.7935
459.20 0.794
459.30 0.7945
459.40 0.7951
459.50 0.7956
459.60 0.7961
459.70 0.7966
459.80 0.7972
459.90 0.7977
460.00 0.7982
460.10 0.7987
460.20 0.7992
460.30 0.7998
460.40 0.8003
460.50 0.8008
460.60 0.8013
460.70 0.8019
460.80 0.8024
460.90 0.8029
461.00 0.8034
461.10 0.8039
461.20 0.8045
461.30 0.805
461.40 0.8055
461.50 0.806
461.60 0.8066
461.70 0.8071
461.80 0.8076
461.90 0.8082
462.00 0.8087
462.10 0.8092
462.20 0.8097
462.30 0.8102
462.40 0.8108
462.50 0.8113
462.60 0.8118
462.70 0.8123
462.80 0.8129
462.90 0.8134
463.00 0.8139
463.10 0.8144
463.20 0.8149
463.30 0.8155
463.40 0.816
463.50 0.8165
463.60 0.817
463.70 0.8175
463.80 0.8181
463.90 0.8186
464.00 0.8191
464.10 0.8196
464.20 0.8201
464.30 0.8207
464.40 0.8212
464.50 0.8217
464.60 0.8222
464.70 0.8227
464.80 0.8233
464.90 0.8238
465.00 0.8243
465.10 0.8248
465.20 0.8253
465.30 0.8259
465.40 0.8264
465.50 0.8269
465.60 0.8274
465.70 0.828
465.80 0.8285
465.90 0.829
466.00 0.8295
466.10 0.83
466.20 0.8306
466.30 0.8311
466.40 0.8316
466.50 0.8321
466.60 0.8326
466.70 0.8332
466.80 0.8337
466.90 0.8342
467.00 0.8347
467.10 0.8352
467.20 0.8357
467.30 0.8363
467.40 0.8368
467.50 0.8373
467.60 0.8378
467.70 0.8383
467.80 0.8388
467.90 0.8394
468.00 0.8399
468.10 0.8404
468.20 0.8409
468.30 0.8414
468.40 0.842
468.50 0.8425
468.60 0.843
468.70 0.8435
468.80 0.844
468.90 0.8446
469.00 0.8451
469.10 0.8456
469.20 0.8461
469.30 0.8466
469.40 0.8471
469.50 0.8477
469.60 0.8482
469.70 0.8487
469.80 0.8492
469.90 0.8497
470.00 0.8502
470.10 0.8508
470.20 0.8513
470.30 0.8518
470.40 0.8523
470.50 0.8528
470.60 0.8533
470.70 0.8539
470.80 0.8544
470.90 0.8549
471.00 0.8554
471.10 0.8559
471.20 0.8564
471.30 0.8569
471.40 0.8575
471.50 0.858
471.60 0.8585
471.70 0.859
471.80 0.8595
471.90 0.86
472.00 0.8606
472.10 0.8611
472.20 0.8616
472.30 0.8621
472.40 0.8626
472.50 0.8631
472.60 0.8636
472.70 0.8642
472.80 0.8647
472.90 0.8652
473.00 0.8657
473.10 0.8662
473.20 0.8667
473.30 0.8672
473.40 0.8678
473.50 0.8683
473.60 0.8688
473.70 0.8693
473.80 0.8698
473.90 0.8703
474.00 0.8708
474.10 0.8713
474.20 0.8718
474.30 0.8724
474.40 0.8729
474.50 0.8734
474.60 0.8739
474.70 0.8744
474.80 0.8749
474.90 0.8754
475.00 0.8759
475.10 0.8764
475.20 0.877
475.30 0.8775
475.40 0.878
475.50 0.8785
475.60 0.879
475.70 0.8795
475.80 0.88
475.90 0.8805
476.00 0.881
476.10 0.8815
476.20 0.8821
476.30 0.8826
476.40 0.8831
476.50 0.8836
476.60 0.8841
476.70 0.8846
476.80 0.8851
476.90 0.8856
477.00 0.8862
477.10 0.8867
477.20 0.8872
477.30 0.8877
477.40 0.8882
477.50 0.8887
477.60 0.8892
477.70 0.8897
477.80 0.8902
477.90 0.8907
478.00 0.8912
478.10 0.8917
478.20 0.8922
478.30 0.8928
478.40 0.8933
478.50 0.8938
478.60 0.8943
478.70 0.8948
478.80 0.8953
478.90 0.8958
479.00 0.8963
479.10 0.8968
479.20 0.8973
479.30 0.8978
479.40 0.8983
479.50 0.8989
479.60 0.8994
479.70 0.8999
479.80 0.9004
479.90 0.9009
480.00 0.9014
480.10 0.9019
480.20 0.9024
480.30 0.9029
480.40 0.9034
480.50 0.9039
480.60 0.9044
480.70 0.9049
480.80 0.9054
480.90 0.9059
481.00 0.9064
481.10 0.9069
481.20 0.9074
481.30 0.9079
481.40 0.9084
481.50 0.909
481.60 0.9095
481.70 0.91
481.80 0.9105
481.90 0.911
482.00 0.9115
482.10 0.912
482.20 0.9125
482.30 0.913
482.40 0.9135
482.50 0.914
482.60 0.9145
482.70 0.915
482.80 0.9155
482.90 0.916
483.00 0.9165
483.10 0.917
483.20 0.9175
483.30 0.918
483.40 0.9185
483.50 0.919
483.60 0.9195
483.70 0.92
483.80 0.9205
483.90 0.921
484.00 0.9215
484.10 0.922
484.20 0.9225
484.30 0.923
484.40 0.9235
484.50 0.924
484.60 0.9245
484.70 0.925
484.80 0.9255
484.90 0.926
485.00 0.9265
485.10 0.927
485.20 0.9275
485.30 0.928
485.40 0.9285
485.50 0.929
485.60 0.9295
485.70 0.93
485.80 0.9305
485.90 0.931
486.00 0.9315
486.10 0.932
486.20 0.9325
486.30 0.933
486.40 0.9335
486.50 0.934
486.60 0.9345
486.70 0.935
486.80 0.9355
486.90 0.936
487.00 0.9365
487.10 0.937
487.20 0.9375
487.30 0.938
487.40 0.9385
487.50 0.939
487.60 0.9395
487.70 0.94
487.80 0.9405
487.90 0.941
488.00 0.9415
488.10 0.942
488.20 0.9425
488.30 0.943
488.40 0.9435
488.50 0.944
488.60 0.9445
488.70 0.945
488.80 0.9455
488.90 0.946
489.00 0.9465
489.10 0.947
489.20 0.9474
489.30 0.9479
489.40 0.9484
489.50 0.9489
489.60 0.9494
489.70 0.9499
489.80 0.9504
489.90 0.9509
490.00 0.9514
490.10 0.9519
490.20 0.9524
490.30 0.9529
490.40 0.9534
490.50 0.9539
490.60 0.9544
490.70 0.9548
490.80 0.9553
490.90 0.9558
491.00 0.9563
491.10 0.9568
491.20 0.9573
491.30 0.9578
491.40 0.9583
491.50 0.9588
491.60 0.9593
491.70 0.9597
491.80 0.9602
491.90 0.9607
492.00 0.9612
492.10 0.9617
492.20 0.9622
492.30 0.9627
492.40 0.9632
492.50 0.9637
492.60 0.9642
492.70 0.9646
492.80 0.9651
492.90 0.9656
493.00 0.9661
493.10 0.9666
493.20 0.9671
493.30 0.9676
493.40 0.9681
493.50 0.9686
493.60 0.9691
493.70 0.9695
493.80 0.97
493.90 0.9705
494.00 0.971
494.10 0.9715
494.20 0.972
494.30 0.9725
494.40 0.973
494.50 0.9734
494.60 0.9739
494.70 0.9744
494.80 0.9749
494.90 0.9754
495.00 0.9759
495.10 0.9764
495.20 0.9768
495.30 0.9773
495.40 0.9778
495.50 0.9783
495.60 0.9788
495.70 0.9793
495.80 0.9798
495.90 0.9802
496.00 0.9807
496.10 0.9812
496.20 0.9817
496.30 0.9822
496.40 0.9827
496.50 0.9831
496.60 0.9836
496.70 0.9841
496.80 0.9846
496.90 0.9851
497.00 0.9856
497.10 0.986
497.20 0.9865
497.30 0.987
497.40 0.9875
497.50 0.988
497.60 0.9885
497.70 0.9889
497.80 0.9894
497.90 0.9899
498.00 0.9904
498.10 0.9909
498.20 0.9914
498.30 0.9918
498.40 0.9923
498.50 0.9928
498.60 0.9933
498.70 0.9938
498.80 0.9942
498.90 0.9947
499.00 0.9952
499.10 0.9957
499.20 0.9962
499.30 0.9966
499.40 0.9971
499.50 0.9976
499.60 0.9981
499.70 0.9986
499.80 0.999
499.90 0.9995
500.00 1
500.10 1
500.20 1.001
500.30 1.001
500.40 1.002
500.50 1.002
500.60 1.003
500.70 1.003
500.80 1.004
500.90 1.004
501.00 1.005
501.10 1.005
501.20 1.006
501.30 1.006
501.40 1.007
501.50 1.007
501.60 1.008
501.70 1.008
501.80 1.009
501.90 1.009
502.00 1.01
502.10 1.01
502.20 1.01
502.30 1.011
502.40 1.011
502.50 1.012
502.60 1.012
502.70 1.013
502.80 1.013
502.90 1.014
503.00 1.014
503.10 1.015
503.20 1.015
503.30 1.016
503.40 1.016
503.50 1.017
503.60 1.017
503.70 1.018
503.80 1.018
503.90 1.018
504.00 1.019
504.10 1.019
504.20 1.02
504.30 1.02
504.40 1.021
504.50 1.021
504.60 1.022
504.70 1.022
504.80 1.023
504.90 1.023
505.00 1.024
505.10 1.024
505.20 1.025
505.30 1.025
505.40 1.026
505.50 1.026
505.60 1.026
505.70 1.027
505.80 1.027
505.90 1.028
506.00 1.028
506.10 1.029
506.20 1.029
506.30 1.03
506.40 1.03
506.50 1.031
506.60 1.031
506.70 1.032
506.80 1.032
506.90 1.032
507.00 1.033
507.10 1.033
507.20 1.034
507.30 1.034
507.40 1.035
507.50 1.035
507.60 1.036
507.70 1.036
507.80 1.037
507.90 1.037
508.00 1.038
508.10 1.038
508.20 1.038
508.30 1.039
508.40 1.039
508.50 1.04
508.60 1.04
508.70 1.041
508.80 1.041
508.90 1.042
509.00 1.042
509.10 1.043
509.20 1.043
509.30 1.044
509.40 1.044
509.50 1.044
509.60 1.045
509.70 1.045
509.80 1.046
509.90 1.046
510.00 1.047
510.10 1.047
510.20 1.048
510.30 1.048
510.40 1.049
510.50 1.049
510.60 1.05
510.70 1.05
510.80 1.05
510.90 1.051
511.00 1.051
511.10 1.052
511.20 1.052
511.30 1.053
511.40 1.053
511.50 1.054
511.60 1.054
511.70 1.055
511.80 1.055
511.90 1.055
512.00 1.056
512.10 1.056
512.20 1.057
512.30 1.057
512.40 1.058
512.50 1.058
512.60 1.059
512.70 1.059
512.80 1.06
512.90 1.06
513.00 1.061
513.10 1.061
513.20 1.061
513.30 1.062
513.40 1.062
513.50 1.063
513.60 1.063
513.70 1.064
513.80 1.064
513.90 1.065
514.00 1.065
514.10 1.066
514.20 1.066
514.30 1.066
514.40 1.067
514.50 1.067
514.60 1.068
514.70 1.068
514.80 1.069
514.90 1.069
515.00 1.07
515.10 1.07
515.20 1.07
515.30 1.071
515.40 1.071
515.50 1.072
515.60 1.072
515.70 1.073
515.80 1.073
515.90 1.074
516.00 1.074
516.10 1.074
516.20 1.075
516.30 1.075
516.40 1.076
516.50 1.076
516.60 1.077
516.70 1.077
516.80 1.078
516.90 1.078
517.00 1.079
517.10 1.079
517.20 1.079
517.30 1.08
517.40 1.08
517.50 1.081
517.60 1.081
517.70 1.082
517.80 1.082
517.90 1.083
518.00 1.083
518.10 1.083
518.20 1.084
518.30 1.084
518.40 1.085
518.50 1.085
518.60 1.086
518.70 1.086
518.80 1.086
518.90 1.087
519.00 1.087
519.10 1.088
519.20 1.088
519.30 1.089
519.40 1.089
519.50 1.09
519.60 1.09
519.70 1.09
519.80 1.091
519.90 1.091
520.00 1.092
520.10 1.092
520.20 1.093
520.30 1.093
520.40 1.094
520.50 1.094
520.60 1.094
520.70 1.095
520.80 1.095
520.90 1.096
521.00 1.096
521.10 1.097
521.20 1.097
521.30 1.097
521.40 1.098
521.50 1.098
521.60 1.099
521.70 1.099
521.80 1.1
521.90 1.1
522.00 1.1
522.10 1.101
522.20 1.101
522.30 1.102
522.40 1.102
522.50 1.103
522.60 1.103
522.70 1.104
522.80 1.104
522.90 1.104
523.00 1.105
523.10 1.105
523.20 1.106
523.30 1.106
523.40 1.107
523.50 1.107
523.60 1.107
523.70 1.108
523.80 1.108
523.90 1.109
524.00 1.109
524.10 1.11
524.20 1.11
524.30 1.11
524.40 1.111
524.50 1.111
524.60 1.112
524.70 1.112
524.80 1.113
524.90 1.113
525.00 1.113
525.10 1.114
525.20 1.114
525.30 1.115
525.40 1.115
525.50 1.116
525.60 1.116
525.70 1.116
525.80 1.117
525.90 1.117
526.00 1.118
526.10 1.118
526.20 1.119
526.30 1.119
526.40 1.119
526.50 1.12
526.60 1.12
526.70 1.121
526.80 1.121
526.90 1.121
527.00 1.122
527.10 1.122
527.20 1.123
527.30 1.123
527.40 1.124
527.50 1.124
527.60 1.124
527.70 1.125
527.80 1.125
527.90 1.126
528.00 1.126
528.10 1.127
528.20 1.127
528.30 1.127
528.40 1.128
528.50 1.128
528.60 1.129
528.70 1.129
528.80 1.129
528.90 1.13
529.00 1.13
529.10 1.131
529.20 1.131
529.30 1.132
529.40 1.132
529.50 1.132
529.60 1.133
529.70 1.133
529.80 1.134
529.90 1.134
530.00 1.134
530.10 1.135
530.20 1.135
530.30 1.136
530.40 1.136
530.50 1.137
530.60 1.137
530.70 1.137
530.80 1.138
530.90 1.138
531.00 1.139
531.10 1.139
531.20 1.139
531.30 1.14
531.40 1.14
531.50 1.141
531.60 1.141
531.70 1.141
531.80 1.142
531.90 1.142
532.00 1.143
532.10 1.143
532.20 1.143
532.30 1.144
532.40 1.144
532.50 1.145
532.60 1.145
532.70 1.146
532.80 1.146
532.90 1.146
533.00 1.147
533.10 1.147
533.20 1.148
533.30 1.148
533.40 1.148
533.50 1.149
533.60 1.149
533.70 1.15
533.80 1.15
533.90 1.15
534.00 1.151
534.10 1.151
534.20 1.152
534.30 1.152
534.40 1.152
534.50 1.153
534.60 1.153
534.70 1.154
534.80 1.154
534.90 1.154
535.00 1.155
535.10 1.155
535.20 1.156
535.30 1.156
535.40 1.156
535.50 1.157
535.60 1.157
535.70 1.158
535.80 1.158
535.90 1.158
536.00 1.159
536.10 1.159
536.20 1.16
536.30 1.16
536.40 1.16
536.50 1.161
536.60 1.161
536.70 1.162
536.80 1.162
536.90 1.162
537.00 1.163
537.10 1.163
537.20 1.164
537.30 1.164
537.40 1.164
537.50 1.165
537.60 1.165
537.70 1.166
537.80 1.166
537.90 1.166
538.00 1.167
538.10 1.167
538.20 1.167
538.30 1.168
538.40 1.168
538.50 1.169
538.60 1.169
538.70 1.169
538.80 1.17
538.90 1.17
539.00 1.171
539.10 1.171
539.20 1.171
539.30 1.172
539.40 1.172
539.50 1.173
539.60 1.173
539.70 1.173
539.80 1.174
539.90 1.174
540.00 1.174
540.10 1.175
540.20 1.175
540.30 1.176
540.40 1.176
540.50 1.176
540.60 1.177
540.70 1.177
540.80 1.178
540.90 1.178
541.00 1.178
541.10 1.179
541.20 1.179
541.30 1.179
541.40 1.18
541.50 1.18
541.60 1.181
541.70 1.181
541.80 1.181
541.90 1.182
542.00 1.182
542.10 1.182
542.20 1.183
542.30 1.183
542.40 1.184
542.50 1.184
542.60 1.184
542.70 1.185
542.80 1.185
542.90 1.185
543.00 1.186
543.10 1.186
543.20 1.187
543.30 1.187
543.40 1.187
543.50 1.188
543.60 1.188
543.70 1.188
543.80 1.189
543.90 1.189
544.00 1.19
544.10 1.19
544.20 1.19
544.30 1.191
544.40 1.191
544.50 1.191
544.60 1.192
544.70 1.192
544.80 1.193
544.90 1.193
545.00 1.193
545.10 1.194
545.20 1.194
545.30 1.194
545.40 1.195
545.50 1.195
545.60 1.195
545.70 1.196
545.80 1.196
545.90 1.197
546.00 1.197
546.10 1.197
546.20 1.198
546.30 1.198
546.40 1.198
546.50 1.199
546.60 1.199
546.70 1.199
546.80 1.2
546.90 1.2
547.00 1.201
547.10 1.201
547.20 1.201
547.30 1.202
547.40 1.202
547.50 1.202
547.60 1.203
547.70 1.203
547.80 1.203
547.90 1.204
548.00 1.204
548.10 1.204
548.20 1.205
548.30 1.205
548.40 1.206
548.50 1.206
548.60 1.206
548.70 1.207
548.80 1.207
548.90 1.207
549.00 1.208
549.10 1.208
549.20 1.208
549.30 1.209
549.40 1.209
549.50 1.209
549.60 1.21
549.70 1.21
549.80 1.21
549.90 1.211
550.00 1.211
550.10 1.212
550.20 1.212
550.30 1.212
550.40 1.213
550.50 1.213
550.60 1.213
550.70 1.214
550.80 1.214
550.90 1.214
551.00 1.215
551.10 1.215
551.20 1.215
551.30 1.216
551.40 1.216
551.50 1.216
551.60 1.217
551.70 1.217
551.80 1.217
551.90 1.218
552.00 1.218
552.10 1.218
552.20 1.219
552.30 1.219
552.40 1.219
552.50 1.22
552.60 1.22
552.70 1.22
552.80 1.221
552.90 1.221
553.00 1.221
553.10 1.222
553.20 1.222
553.30 1.222
553.40 1.223
553.50 1.223
553.60 1.223
553.70 1.224
553.80 1.224
553.90 1.224
554.00 1.225
554.10 1.225
554.20 1.225
554.30 1.226
554.40 1.226
554.50 1.226
554.60 1.227
554.70 1.227
554.80 1.227
554.90 1.228
555.00 1.228
555.10 1.228
555.20 1.229
555.30 1.229
555.40 1.229
555.50 1.23
555.60 1.23
555.70 1.23
555.80 1.231
555.90 1.231
556.00 1.231
556.10 1.232
556.20 1.232
556.30 1.232
556.40 1.233
556.50 1.233
556.60 1.233
556.70 1.234
556.80 1.234
556.90 1.234
557.00 1.235
557.10 1.235
557.20 1.235
557.30 1.236
557.40 1.236
557.50 1.236
557.60 1.236
557.70 1.237
557.80 1.237
557.90 1.237
558.00 1.238
558.10 1.238
558.20 1.238
558.30 1.239
558.40 1.239
558.50 1.239
558.60 1.24
558.70 1.24
558.80 1.24
558.90 1.241
559.00 1.241
559.10 1.241
559.20 1.241
559.30 1.242
559.40 1.242
559.50 1.242
559.60 1.243
559.70 1.243
559.80 1.243
559.90 1.244
560.00 1.244
560.10 1.244
560.20 1.245
560.30 1.245
560.40 1.245
560.50 1.245
560.60 1.246
560.70 1.246
560.80 1.246
560.90 1.247
561.00 1.247
561.10 1.247
561.20 1.248
561.30 1.248
561.40 1.248
561.50 1.249
561.60 1.249
561.70 1.249
561.80 1.249
561.90 1.25
562.00 1.25
562.10 1.25
562.20 1.251
562.30 1.251
562.40 1.251
562.50 1.252
562.60 1.252
562.70 1.252
562.80 1.252
562.90 1.253
563.00 1.253
563.10 1.253
563.20 1.254
563.30 1.254
563.40 1.254
563.50 1.254
563.60 1.255
563.70 1.255
563.80 1.255
563.90 1.256
564.00 1.256
564.10 1.256
564.20 1.256
564.30 1.257
564.40 1.257
564.50 1.257
564.60 1.258
564.70 1.258
564.80 1.258
564.90 1.258
565.00 1.259
565.10 1.259
565.20 1.259
565.30 1.26
565.40 1.26
565.50 1.26
565.60 1.26
565.70 1.261
565.80 1.261
565.90 1.261
566.00 1.262
566.10 1.262
566.20 1.262
566.30 1.262
566.40 1.263
566.50 1.263
566.60 1.263
566.70 1.263
566.80 1.264
566.90 1.264
567.00 1.264
567.10 1.265
567.20 1.265
567.30 1.265
567.40 1.265
567.50 1.266
567.60 1.266
567.70 1.266
567.80 1.266
567.90 1.267
568.00 1.267
568.10 1.267
568.20 1.268
568.30 1.268
568.40 1.268
568.50 1.268
568.60 1.269
568.70 1.269
568.80 1.269
568.90 1.269
569.00 1.27
569.10 1.27
569.20 1.27
569.30 1.27
569.40 1.271
569.50 1.271
569.60 1.271
569.70 1.271
569.80 1.272
569.90 1.272
570.00 1.272
570.10 1.272
570.20 1.273
570.30 1.273
570.40 1.273
570.50 1.273
570.60 1.274
570.70 1.274
570.80 1.274
570.90 1.274
571.00 1.275
571.10 1.275
571.20 1.275
571.30 1.275
571.40 1.276
571.50 1.276
571.60 1.276
571.70 1.276
571.80 1.277
571.90 1.277
572.00 1.277
572.10 1.277
572.20 1.278
572.30 1.278
572.40 1.278
572.50 1.278
572.60 1.279
572.70 1.279
572.80 1.279
572.90 1.279
573.00 1.28
573.10 1.28
573.20 1.28
573.30 1.28
573.40 1.28
573.50 1.281
573.60 1.281
573.70 1.281
573.80 1.281
573.90 1.282
574.00 1.282
574.10 1.282
574.20 1.282
574.30 1.283
574.40 1.283
574.50 1.283
574.60 1.283
574.70 1.284
574.80 1.284
574.90 1.284
575.00 1.284
575.10 1.284
575.20 1.285
575.30 1.285
575.40 1.285
575.50 1.285
575.60 1.286
575.70 1.286
575.80 1.286
575.90 1.286
576.00 1.286
576.10 1.287
576.20 1.287
576.30 1.287
576.40 1.287
576.50 1.288
576.60 1.288
576.70 1.288
576.80 1.288
576.90 1.288
577.00 1.289
577.10 1.289
577.20 1.289
577.30 1.289
577.40 1.289
577.50 1.29
577.60 1.29
577.70 1.29
577.80 1.29
577.90 1.291
578.00 1.291
578.10 1.291
578.20 1.291
578.30 1.291
578.40 1.292
578.50 1.292
578.60 1.292
578.70 1.292
578.80 1.292
578.90 1.293
579.00 1.293
579.10 1.293
579.20 1.293
579.30 1.293
579.40 1.294
579.50 1.294
579.60 1.294
579.70 1.294
579.80 1.294
579.90 1.295
580.00 1.295
580.10 1.295
580.20 1.295
580.30 1.295
580.40 1.296
580.50 1.296
580.60 1.296
580.70 1.296
580.80 1.296
580.90 1.296
581.00 1.297
581.10 1.297
581.20 1.297
581.30 1.297
581.40 1.297
581.50 1.298
581.60 1.298
581.70 1.298
581.80 1.298
581.90 1.298
582.00 1.298
582.10 1.299
582.20 1.299
582.30 1.299
582.40 1.299
582.50 1.299
582.60 1.3
582.70 1.3
582.80 1.3
582.90 1.3
583.00 1.3
583.10 1.3
583.20 1.301
583.30 1.301
583.40 1.301
583.50 1.301
583.60 1.301
583.70 1.301
583.80 1.302
583.90 1.302
584.00 1.302
584.10 1.302
584.20 1.302
584.30 1.302
584.40 1.302
584.50 1.303
584.60 1.303
584.70 1.303
584.80 1.303
584.90 1.303
585.00 1.303
585.10 1.304
585.20 1.304
585.30 1.304
585.40 1.304
585.50 1.304
585.60 1.304
585.70 1.304
585.80 1.305
585.90 1.305
586.00 1.305
586.10 1.305
586.20 1.305
586.30 1.305
586.40 1.306
586.50 1.306
586.60 1.306
586.70 1.306
586.80 1.306
586.90 1.306
587.00 1.306
587.10 1.306
587.20 1.307
587.30 1.307
587.40 1.307
587.50 1.307
587.60 1.307
587.70 1.307
587.80 1.307
587.90 1.308
588.00 1.308
588.10 1.308
588.20 1.308
588.30 1.308
588.40 1.308
588.50 1.308
588.60 1.308
588.70 1.309
588.80 1.309
588.90 1.309
589.00 1.309
589.10 1.309
589.20 1.309
589.30 1.309
589.40 1.309
589.50 1.31
589.60 1.31
589.70 1.31
589.80 1.31
589.90 1.31
590.00 1.31
590.10 1.31
590.20 1.31
590.30 1.31
590.40 1.311
590.50 1.311
590.60 1.311
590.70 1.311
590.80 1.311
590.90 1.311
591.00 1.311
591.10 1.311
591.20 1.311
591.30 1.312
591.40 1.312
591.50 1.312
591.60 1.312
591.70 1.312
591.80 1.312
591.90 1.312
592.00 1.312
592.10 1.312
592.20 1.312
592.30 1.312
592.40 1.313
592.50 1.313
592.60 1.313
592.70 1.313
592.80 1.313
592.90 1.313
593.00 1.313
593.10 1.313
593.20 1.313
593.30 1.313
593.40 1.313
593.50 1.314
593.60 1.314
593.70 1.314
593.80 1.314
593.90 1.314
594.00 1.314
594.10 1.314
594.20 1.314
594.30 1.314
594.40 1.314
594.50 1.314
594.60 1.314
594.70 1.315
594.80 1.315
594.90 1.315
595.00 1.315
595.10 1.315
595.20 1.315
595.30 1.315
595.40 1.315
595.50 1.315
595.60 1.315
595.70 1.315
595.80 1.315
595.90 1.315
596.00 1.315
596.10 1.316
596.20 1.316
596.30 1.316
596.40 1.316
596.50 1.316
596.60 1.316
596.70 1.316
596.80 1.316
596.90 1.316
597.00 1.316
597.10 1.316
597.20 1.316
597.30 1.316
597.40 1.316
597.50 1.316
597.60 1.316
597.70 1.316
597.80 1.316
597.90 1.317
598.00 1.317
598.10 1.317
598.20 1.317
598.30 1.317
598.40 1.317
598.50 1.317
598.60 1.317
598.70 1.317
598.80 1.317
598.90 1.317
599.00 1.317
599.10 1.317
599.20 1.317
599.30 1.317
599.40 1.317
599.50 1.317
599.60 1.317
599.70 1.317
599.80 1.317
599.90 1.317
600.00 1.317
600.10 1.317
600.20 1.317
600.30 1.317
600.40 1.317
600.50 1.317
600.60 1.317
600.70 1.317
600.80 1.317
600.90 1.318
601.00 1.318
601.10 1.318
601.20 1.318
601.30 1.318
601.40 1.318
601.50 1.318
601.60 1.318
601.70 1.318
601.80 1.318
601.90 1.318
602.00 1.318
602.10 1.318
602.20 1.318
602.30 1.318
602.40 1.318
602.50 1.318
602.60 1.318
602.70 1.318
602.80 1.318
602.90 1.318
603.00 1.318
603.10 1.318
603.20 1.318
603.30 1.318
603.40 1.318
603.50 1.318
603.60 1.318
603.70 1.318
603.80 1.318
603.90 1.318
604.00 1.318
604.10 1.318
604.20 1.318
604.30 1.318
604.40 1.318
604.50 1.318
604.60 1.318
604.70 1.317
604.80 1.317
604.90 1.317
605.00 1.317
605.10 1.317
605.20 1.317
605.30 1.317
605.40 1.317
605.50 1.317
605.60 1.317
605.70 1.317
605.80 1.317
605.90 1.317
606.00 1.317
606.10 1.317
606.20 1.317
606.30 1.317
606.40 1.317
606.50 1.317
606.60 1.317
606.70 1.317
606.80 1.317
606.90 1.317
607.00 1.317
607.10 1.317
607.20 1.317
607.30 1.317
607.40 1.317
607.50 1.317
607.60 1.316
607.70 1.316
607.80 1.316
607.90 1.316
608.00 1.316
608.10 1.316
608.20 1.316
608.30 1.316
608.40 1.316
608.50 1.316
608.60 1.316
608.70 1.316
608.80 1.316
608.90 1.316
609.00 1.316
609.10 1.316
609.20 1.316
609.30 1.315
609.40 1.315
609.50 1.315
609.60 1.315
609.70 1.315
609.80 1.315
609.90 1.315
610.00 1.315
610.10 1.315
610.20 1.315
610.30 1.315
610.40 1.315
610.50 1.315
610.60 1.314
610.70 1.314
610.80 1.314
610.90 1.314
611.00 1.314
611.10 1.314
611.20 1.314
611.30 1.314
611.40 1.314
611.50 1.314
611.60 1.314
611.70 1.313
611.80 1.313
611.90 1.313
612.00 1.313
612.10 1.313
612.20 1.313
612.30 1.313
612.40 1.313
612.50 1.313
612.60 1.312
612.70 1.312
612.80 1.312
612.90 1.312
613.00 1.312
613.10 1.312
613.20 1.312
613.30 1.312
613.40 1.312
613.50 1.311
613.60 1.311
613.70 1.311
613.80 1.311
613.90 1.311
614.00 1.311
614.10 1.311
614.20 1.311
614.30 1.31
614.40 1.31
614.50 1.31
614.60 1.31
614.70 1.31
614.80 1.31
614.90 1.31
615.00 1.31
615.10 1.309
615.20 1.309
615.30 1.309
615.40 1.309
615.50 1.309
615.60 1.309
615.70 1.308
615.80 1.308
615.90 1.308
616.00 1.308
616.10 1.308
616.20 1.308
616.30 1.308
616.40 1.307
616.50 1.307
616.60 1.307
616.70 1.307
616.80 1.307
616.90 1.307
617.00 1.306
617.10 1.306
617.20 1.306
617.30 1.306
617.40 1.306
617.50 1.306
617.60 1.305
617.70 1.305
617.80 1.305
617.90 1.305
618.00 1.305
618.10 1.305
618.20 1.304
618.30 1.304
618.40 1.304
618.50 1.304
618.60 1.304
618.70 1.303
618.80 1.303
618.90 1.303
619.00 1.303
619.10 1.303
619.20 1.302
619.30 1.302
619.40 1.302
619.50 1.302
619.60 1.302
619.70 1.301
619.80 1.301
619.90 1.301
620.00 1.301
620.10 1.301
620.20 1.3
620.30 1.3
620.40 1.3
620.50 1.3
620.60 1.3
620.70 1.299
620.80 1.299
620.90 1.299
621.00 1.299
621.10 1.298
621.20 1.298
621.30 1.298
621.40 1.298
621.50 1.298
621.60 1.297
621.70 1.297
621.80 1.297
621.90 1.297
622.00 1.296
622.10 1.296
622.20 1.296
622.30 1.296
622.40 1.296
622.50 1.295
622.60 1.295
622.70 1.295
622.80 1.295
622.90 1.294
623.00 1.294
623.10 1.294
623.20 1.294
623.30 1.293
623.40 1.293
623.50 1.293
623.60 1.293
623.70 1.292
623.80 1.292
623.90 1.292
624.00 1.292
624.10 1.291
624.20 1.291
624.30 1.291
624.40 1.291
624.50 1.29
624.60 1.29
624.70 1.29
624.80 1.29
624.90 1.289
625.00 1.289
625.10 1.289
625.20 1.288
625.30 1.288
625.40 1.288
625.50 1.288
625.60 1.287
625.70 1.287
625.80 1.287
625.90 1.286
626.00 1.286
626.10 1.286
626.20 1.286
626.30 1.285
626.40 1.285
626.50 1.285
626.60 1.284
626.70 1.284
626.80 1.284
626.90 1.284
627.00 1.283
627.10 1.283
627.20 1.283
627.30 1.282
627.40 1.282
627.50 1.282
627.60 1.281
627.70 1.281
627.80 1.281
627.90 1.281
628.00 1.28
628.10 1.28
628.20 1.28
628.30 1.279
628.40 1.279
628.50 1.279
628.60 1.278
628.70 1.278
628.80 1.278
628.90 1.277
629.00 1.277
629.10 1.277
629.20 1.276
629.30 1.276
629.40 1.276
629.50 1.275
629.60 1.275
629.70 1.275
629.80 1.274
629.90 1.274
630.00 1.274
630.10 1.273
630.20 1.273
630.30 1.273
630.40 1.272
630.50 1.272
630.60 1.272
630.70 1.271
630.80 1.271
630.90 1.271
631.00 1.27
631.10 1.27
631.20 1.27
631.30 1.269
631.40 1.269
631.50 1.268
631.60 1.268
631.70 1.268
631.80 1.267
631.90 1.267
632.00 1.267
632.10 1.266
632.20 1.266
632.30 1.265
632.40 1.265
632.50 1.265
632.60 1.264
632.70 1.264
632.80 1.264
632.90 1.263
633.00 1.263
633.10 1.262
633.20 1.262
633.30 1.262
633.40 1.261
633.50 1.261
633.60 1.26
633.70 1.26
633.80 1.26
633.90 1.259
634.00 1.259
634.10 1.258
634.20 1.258
634.30 1.258
634.40 1.257
634.50 1.257
634.60 1.256
634.70 1.256
634.80 1.256
634.90 1.255
635.00 1.255
635.10 1.254
635.20 1.254
635.30 1.254
635.40 1.253
635.50 1.253
635.60 1.252
635.70 1.252
635.80 1.251
635.90 1.251
636.00 1.251
636.10 1.25
636.20 1.25
636.30 1.249
636.40 1.249
636.50 1.248
636.60 1.248
636.70 1.247
636.80 1.247
636.90 1.247
637.00 1.246
637.10 1.246
637.20 1.245
637.30 1.245
637.40 1.244
637.50 1.244
637.60 1.243
637.70 1.243
637.80 1.243
637.90 1.242
638.00 1.242
638.10 1.241
638.20 1.241
638.30 1.24
638.40 1.24
638.50 1.239
638.60 1.239
638.70 1.238
638.80 1.238
638.90 1.237
639.00 1.237
639.10 1.237
639.20 1.236
639.30 1.236
639.40 1.235
639.50 1.235
639.60 1.234
639.70 1.234
639.80 1.233
639.90 1.233
640.00 1.232
640.10 1.232
640.20 1.231
640.30 1.231
640.40 1.23
640.50 1.23
640.60 1.229
640.70 1.229
640.80 1.228
640.90 1.228
641.00 1.227
641.10 1.227
641.20 1.226
641.30 1.226
641.40 1.225
641.50 1.225
641.60 1.224
641.70 1.224
641.80 1.223
641.90 1.222
642.00 1.222
642.10 1.221
642.20 1.221
642.30 1.22
642.40 1.22
642.50 1.219
642.60 1.219
642.70 1.218
642.80 1.218
642.90 1.217
643.00 1.216
643.10 1.216
643.20 1.215
643.30 1.215
643.40 1.214
643.50 1.214
643.60 1.213
643.70 1.213
643.80 1.212
643.90 1.211
644.00 1.211
644.10 1.21
644.20 1.21
644.30 1.209
644.40 1.209
644.50 1.208
644.60 1.207
644.70 1.207
644.80 1.206
644.90 1.206
645.00 1.205
645.10 1.205
645.20 1.204
645.30 1.203
645.40 1.203
645.50 1.202
645.60 1.202
645.70 1.201
645.80 1.2
645.90 1.2
646.00 1.199
646.10 1.199
646.20 1.198
646.30 1.198
646.40 1.197
646.50 1.196
646.60 1.196
646.70 1.195
646.80 1.195
646.90 1.194
647.00 1.193
647.10 1.193
647.20 1.192
647.30 1.192
647.40 1.191
647.50 1.19
647.60 1.19
647.70 1.189
647.80 1.188
647.90 1.188
648.00 1.187
648.10 1.187
648.20 1.186
648.30 1.185
648.40 1.185
648.50 1.184
648.60 1.183
648.70 1.183
648.80 1.182
648.90 1.182
649.00 1.181
649.10 1.18
649.20 1.18
649.30 1.179
649.40 1.178
649.50 1.178
649.60 1.177
649.70 1.176
649.80 1.176
649.90 1.175
650.00 1.174
650.10 1.174
650.20 1.173
650.30 1.173
650.40 1.172
650.50 1.171
650.60 1.171
650.70 1.17
650.80 1.169
650.90 1.169
651.00 1.168
651.10 1.167
651.20 1.167
651.30 1.166
651.40 1.165
651.50 1.164
651.60 1.164
651.70 1.163
651.80 1.162
651.90 1.162
652.00 1.161
652.10 1.16
652.20 1.16
652.30 1.159
652.40 1.158
652.50 1.158
652.60 1.157
652.70 1.156
652.80 1.155
652.90 1.155
653.00 1.154
653.10 1.153
653.20 1.153
653.30 1.152
653.40 1.151
653.50 1.151
653.60 1.15
653.70 1.149
653.80 1.148
653.90 1.148
654.00 1.147
654.10 1.146
654.20 1.146
654.30 1.145
654.40 1.144
654.50 1.143
654.60 1.143
654.70 1.142
654.80 1.141
654.90 1.14
655.00 1.14
655.10 1.139
655.20 1.138
655.30 1.138
655.40 1.137
655.50 1.136
655.60 1.135
655.70 1.135
655.80 1.134
655.90 1.133
656.00 1.132
656.10 1.132
656.20 1.131
656.30 1.13
656.40 1.129
656.50 1.129
656.60 1.128
656.70 1.127
656.80 1.126
656.90 1.126
657.00 1.125
657.10 1.124
657.20 1.123
657.30 1.122
657.40 1.122
657.50 1.121
657.60 1.12
657.70 1.119
657.80 1.119
657.90 1.118
658.00 1.117
658.10 1.116
658.20 1.116
658.30 1.115
658.40 1.114
658.50 1.113
658.60 1.112
658.70 1.112
658.80 1.111
658.90 1.11
659.00 1.109
659.10 1.108
659.20 1.108
659.30 1.107
659.40 1.106
659.50 1.105
659.60 1.104
659.70 1.104
659.80 1.103
659.90 1.102
660.00 1.101
660.10 1.1
660.20 1.1
660.30 1.099
660.40 1.098
660.50 1.097
660.60 1.096
660.70 1.096
660.80 1.095
660.90 1.094
661.00 1.093
661.10 1.092
661.20 1.091
661.30 1.091
661.40 1.09
661.50 1.089
661.60 1.088
661.70 1.087
661.80 1.087
661.90 1.086
662.00 1.085
662.10 1.084
662.20 1.083
662.30 1.082
662.40 1.082
662.50 1.081
662.60 1.08
662.70 1.079
662.80 1.078
662.90 1.077
663.00 1.076
663.10 1.076
663.20 1.075
663.30 1.074
663.40 1.073
663.50 1.072
663.60 1.071
663.70 1.07
663.80 1.07
663.90 1.069
664.00 1.068
664.10 1.067
664.20 1.066
664.30 1.065
664.40 1.064
664.50 1.064
664.60 1.063
664.70 1.062
664.80 1.061
664.90 1.06
665.00 1.059
665.10 1.058
665.20 1.057
665.30 1.057
665.40 1.056
665.50 1.055
665.60 1.054
665.70 1.053
665.80 1.052
665.90 1.051
666.00 1.05
666.10 1.049
666.20 1.049
666.30 1.048
666.40 1.047
666.50 1.046
666.60 1.045
666.70 1.044
666.80 1.043
666.90 1.042
667.00 1.041
667.10 1.04
667.20 1.04
667.30 1.039
667.40 1.038
667.50 1.037
667.60 1.036
667.70 1.035
667.80 1.034
667.90 1.033
668.00 1.032
668.10 1.031
668.20 1.03
668.30 1.03
668.40 1.029
668.50 1.028
668.60 1.027
668.70 1.026
668.80 1.025
668.90 1.024
669.00 1.023
669.10 1.022
669.20 1.021
669.30 1.02
669.40 1.019
669.50 1.018
669.60 1.017
669.70 1.016
669.80 1.016
669.90 1.015
670.00 1.014
670.10 1.013
670.20 1.012
670.30 1.011
670.40 1.01
670.50 1.009
670.60 1.008
670.70 1.007
670.80 1.006
670.90 1.005
671.00 1.004
671.10 1.003
671.20 1.002
671.30 1.001
671.40 1
671.50 0.9993
671.60 0.9984
671.70 0.9974
671.80 0.9964
671.90 0.9955
672.00 0.9945
672.10 0.9935
672.20 0.9926
672.30 0.9916
672.40 0.9906
672.50 0.9897
672.60 0.9887
672.70 0.9877
672.80 0.9867
672.90 0.9857
673.00 0.9848
673.10 0.9838
673.20 0.9828
673.30 0.9818
673.40 0.9809
673.50 0.9799
673.60 0.9789
673.70 0.9779
673.80 0.9769
673.90 0.9759
674.00 0.9749
674.10 0.974
674.20 0.973
674.30 0.972
674.40 0.971
674.50 0.97
674.60 0.969
674.70 0.968
674.80 0.967
674.90 0.966
675.00 0.965
675.10 0.964
675.20 0.963
675.30 0.962
675.40 0.961
675.50 0.96
675.60 0.959
675.70 0.958
675.80 0.957
675.90 0.9559
676.00 0.9549
676.10 0.9539
676.20 0.9529
676.30 0.9519
676.40 0.9509
676.50 0.9499
676.60 0.9489
676.70 0.9478
676.80 0.9468
676.90 0.9458
677.00 0.9448
677.10 0.9438
677.20 0.9428
677.30 0.9417
677.40 0.9407
677.50 0.9397
677.60 0.9387
677.70 0.9376
677.80 0.9366
677.90 0.9356
678.00 0.9346
678.10 0.9335
678.20 0.9325
678.30 0.9315
678.40 0.9304
678.50 0.9294
678.60 0.9284
678.70 0.9273
678.80 0.9263
678.90 0.9253
679.00 0.9242
679.10 0.9232
679.20 0.9222
679.30 0.9211
679.40 0.9201
679.50 0.919
679.60 0.918
679.70 0.9169
679.80 0.9159
679.90 0.9148
680.00 0.9138
680.10 0.9128
680.20 0.9117
680.30 0.9107
680.40 0.9096
680.50 0.9085
680.60 0.9075
680.70 0.9064
680.80 0.9054
680.90 0.9043
681.00 0.9033
681.10 0.9022
681.20 0.9012
681.30 0.9001
681.40 0.899
681.50 0.898
681.60 0.8969
681.70 0.8959
681.80 0.8948
681.90 0.8937
682.00 0.8927
682.10 0.8916
682.20 0.8905
682.30 0.8895
682.40 0.8884
682.50 0.8873
682.60 0.8863
682.70 0.8852
682.80 0.8841
682.90 0.883
683.00 0.882
683.10 0.8809
683.20 0.8798
683.30 0.8788
683.40 0.8777
683.50 0.8766
683.60 0.8755
683.70 0.8745
683.80 0.8734
683.90 0.8723
684.00 0.8712
684.10 0.8701
684.20 0.8691
684.30 0.868
684.40 0.8669
684.50 0.8658
684.60 0.8647
684.70 0.8637
684.80 0.8626
684.90 0.8615
685.00 0.8604
685.10 0.8593
685.20 0.8582
685.30 0.8572
685.40 0.8561
685.50 0.855
685.60 0.8539
685.70 0.8528
685.80 0.8517
685.90 0.8506
686.00 0.8495
686.10 0.8484
686.20 0.8474
686.30 0.8463
686.40 0.8452
686.50 0.8441
686.60 0.843
686.70 0.8419
686.80 0.8408
686.90 0.8397
687.00 0.8386
687.10 0.8375
687.20 0.8364
687.30 0.8353
687.40 0.8342
687.50 0.8331
687.60 0.832
687.70 0.8309
687.80 0.8298
687.90 0.8287
688.00 0.8276
688.10 0.8265
688.20 0.8254
688.30 0.8243
688.40 0.8232
688.50 0.8221
688.60 0.821
688.70 0.8199
688.80 0.8188
688.90 0.8177
689.00 0.8166
689.10 0.8155
689.20 0.8144
689.30 0.8133
689.40 0.8122
689.50 0.811
689.60 0.8099
689.70 0.8088
689.80 0.8077
689.90 0.8065
690.00 0.8054
690.10 0.8043
690.20 0.8032
690.30 0.8021
690.40 0.8009
690.50 0.7998
690.60 0.7987
690.70 0.7976
690.80 0.7965
690.90 0.7953
691.00 0.7942
691.10 0.7931
691.20 0.792
691.30 0.7909
691.40 0.7898
691.50 0.7886
691.60 0.7875
691.70 0.7864
691.80 0.7853
691.90 0.7842
692.00 0.7831
692.10 0.782
692.20 0.7809
692.30 0.7798
692.40 0.7786
692.50 0.7775
692.60 0.7764
692.70 0.7753
692.80 0.7742
692.90 0.7731
693.00 0.772
693.10 0.7709
693.20 0.7698
693.30 0.7687
693.40 0.7676
693.50 0.7665
693.60 0.7654
693.70 0.7643
693.80 0.7632
693.90 0.7621
694.00 0.761
694.10 0.7599
694.20 0.7588
694.30 0.7577
694.40 0.7566
694.50 0.7555
694.60 0.7544
694.70 0.7533
694.80 0.7522
694.90 0.7511
695.00 0.75
695.10 0.7489
695.20 0.7478
695.30 0.7467
695.40 0.7456
695.50 0.7445
695.60 0.7434
695.70 0.7423
695.80 0.7412
695.90 0.7401
696.00 0.739
696.10 0.7379
696.20 0.7368
696.30 0.7357
696.40 0.7346
696.50 0.7335
696.60 0.7324
696.70 0.7313
696.80 0.7302
696.90 0.7291
697.00 0.728
697.10 0.7269
697.20 0.7258
697.30 0.7247
697.40 0.7236
697.50 0.7225
697.60 0.7214
697.70 0.7204
697.80 0.7193
697.90 0.7182
698.00 0.7171
698.10 0.716
698.20 0.7149
698.30 0.7138
698.40 0.7127
698.50 0.7116
698.60 0.7106
698.70 0.7095
698.80 0.7084
698.90 0.7073
699.00 0.7062
699.10 0.7051
699.20 0.7041
699.30 0.703
699.40 0.7019
699.50 0.7008
699.60 0.6997
699.70 0.6987
699.80 0.6976
699.90 0.6965
700.00 0.6954
700.10 0.6943
700.20 0.6933
700.30 0.6922
700.40 0.6911
700.50 0.69
700.60 0.689
700.70 0.6879
700.80 0.6868
700.90 0.6857
701.00 0.6847
701.10 0.6836
701.20 0.6825
701.30 0.6814
701.40 0.6804
701.50 0.6793
701.60 0.6782
701.70 0.6772
701.80 0.6761
701.90 0.675
702.00 0.674
702.10 0.6729
702.20 0.6718
702.30 0.6708
702.40 0.6697
702.50 0.6686
702.60 0.6676
702.70 0.6665
702.80 0.6655
702.90 0.6644
703.00 0.6633
703.10 0.6623
703.20 0.6612
703.30 0.6602
703.40 0.6591
703.50 0.658
703.60 0.657
703.70 0.6559
703.80 0.6549
703.90 0.6538
704.00 0.6528
704.10 0.6517
704.20 0.6506
704.30 0.6496
704.40 0.6485
704.50 0.6475
704.60 0.6464
704.70 0.6454
704.80 0.6443
704.90 0.6433
705.00 0.6422
705.10 0.6412
705.20 0.6402
705.30 0.6392
705.40 0.6382
705.50 0.6371
705.60 0.6361
705.70 0.6351
705.80 0.6341
705.90 0.6331
706.00 0.6321
706.10 0.6311
706.20 0.63
706.30 0.629
706.40 0.628
706.50 0.627
706.60 0.626
706.70 0.625
706.80 0.624
706.90 0.623
707.00 0.622
707.10 0.621
707.20 0.6199
707.30 0.6189
707.40 0.6179
707.50 0.6169
707.60 0.6159
707.70 0.6149
707.80 0.6139
707.90 0.6129
708.00 0.6119
708.10 0.6109
708.20 0.6099
708.30 0.6089
708.40 0.6079
708.50 0.6069
708.60 0.6059
708.70 0.6049
708.80 0.6039
708.90 0.6029
709.00 0.6019
709.10 0.6009
709.20 0.5999
709.30 0.5989
709.40 0.5979
709.50 0.5969
709.60 0.5959
709.70 0.5949
709.80 0.5939
709.90 0.5929
710.00 0.592
710.10 0.591
710.20 0.5901
710.30 0.5891
710.40 0.5882
710.50 0.5872
710.60 0.5863
710.70 0.5853
710.80 0.5844
710.90 0.5834
711.00 0.5825
711.10 0.5816
711.20 0.5806
711.30 0.5797
711.40 0.5787
711.50 0.5778
711.60 0.5769
711.70 0.5759
711.80 0.575
711.90 0.574
712.00 0.5731
712.10 0.5722
712.20 0.5712
712.30 0.5703
712.40 0.5694
712.50 0.5684
712.60 0.5675
712.70 0.5665
712.80 0.5656
712.90 0.5647
713.00 0.5637
713.10 0.5628
713.20 0.5619
713.30 0.561
713.40 0.56
713.50 0.5591
713.60 0.5582
713.70 0.5572
713.80 0.5563
713.90 0.5554
714.00 0.5544
714.10 0.5535
714.20 0.5526
714.30 0.5517
714.40 0.5507
714.50 0.5498
714.60 0.5489
714.70 0.548
714.80 0.547
714.90 0.5461
715.00 0.5452
715.10 0.5443
715.20 0.5435
715.30 0.5426
715.40 0.5417
715.50 0.5409
715.60 0.54
715.70 0.5391
715.80 0.5383
715.90 0.5374
716.00 0.5366
716.10 0.5357
716.20 0.5348
716.30 0.534
716.40 0.5331
716.50 0.5323
716.60 0.5314
716.70 0.5305
716.80 0.5297
716.90 0.5288
717.00 0.528
717.10 0.5271
717.20 0.5262
717.30 0.5254
717.40 0.5245
717.50 0.5237
717.60 0.5228
717.70 0.522
717.80 0.5211
717.90 0.5203
718.00 0.5194
718.10 0.5186
718.20 0.5177
718.30 0.5169
718.40 0.516
718.50 0.5152
718.60 0.5143
718.70 0.5135
718.80 0.5126
718.90 0.5118
719.00 0.5109
719.10 0.5101
719.20 0.5092
719.30 0.5084
719.40 0.5075
719.50 0.5067
719.60 0.5058
719.70 0.505
719.80 0.5041
719.90 0.5033
720.00 0.5025
720.10 0.5017
720.20 0.5009
720.30 0.5002
720.40 0.4994
720.50 0.4986
720.60 0.4979
720.70 0.4971
720.80 0.4963
720.90 0.4956
721.00 0.4948
721.10 0.4941
721.20 0.4933
721.30 0.4925
721.40 0.4918
721.50 0.491
721.60 0.4903
721.70 0.4895
721.80 0.4887
721.90 0.488
722.00 0.4872
722.10 0.4865
722.20 0.4857
722.30 0.485
722.40 0.4842
722.50 0.4834
722.60 0.4827
722.70 0.4819
722.80 0.4812
722.90 0.4804
723.00 0.4797
723.10 0.4789
723.20 0.4782
723.30 0.4774
723.40 0.4767
723.50 0.4759
723.60 0.4752
723.70 0.4744
723.80 0.4737
723.90 0.4729
724.00 0.4722
724.10 0.4714
724.20 0.4707
724.30 0.4699
724.40 0.4692
724.50 0.4684
724.60 0.4677
724.70 0.4669
724.80 0.4662
724.90 0.4654
725.00 0.4647
725.10 0.464
725.20 0.4634
725.30 0.4627
725.40 0.462
725.50 0.4614
725.60 0.4607
725.70 0.4601
725.80 0.4594
725.90 0.4587
726.00 0.4581
726.10 0.4574
726.20 0.4568
726.30 0.4561
726.40 0.4555
726.50 0.4548
726.60 0.4541
726.70 0.4535
726.80 0.4528
726.90 0.4522
727.00 0.4515
727.10 0.4509
727.20 0.4502
727.30 0.4496
727.40 0.4489
727.50 0.4482
727.60 0.4476
727.70 0.4469
727.80 0.4463
727.90 0.4456
728.00 0.445
728.10 0.4443
728.20 0.4437
728.30 0.443
728.40 0.4424
728.50 0.4417
728.60 0.4411
728.70 0.4404
728.80 0.4398
728.90 0.4391
729.00 0.4385
729.10 0.4378
729.20 0.4372
729.30 0.4365
729.40 0.4359
729.50 0.4353
729.60 0.4346
729.70 0.434
729.80 0.4333
729.90 0.4327
730.00 0.432
730.10 0.4315
730.20 0.431
730.30 0.4305
730.40 0.43
730.50 0.4295
730.60 0.429
730.70 0.4285
730.80 0.428
730.90 0.4275
731.00 0.427
731.10 0.4265
731.20 0.4261
731.30 0.4256
731.40 0.4251
731.50 0.4246
731.60 0.4241
731.70 0.4236
731.80 0.4231
731.90 0.4226
732.00 0.4221
732.10 0.4216
732.20 0.4211
732.30 0.4206
732.40 0.4201
732.50 0.4196
732.60 0.4191
732.70 0.4186
732.80 0.4182
732.90 0.4177
733.00 0.4172
733.10 0.4167
733.20 0.4162
733.30 0.4157
733.40 0.4152
733.50 0.4147
733.60 0.4142
733.70 0.4137
733.80 0.4132
733.90 0.4128
734.00 0.4123
734.10 0.4118
734.20 0.4113
734.30 0.4108
734.40 0.4103
734.50 0.4098
734.60 0.4093
734.70 0.4089
734.80 0.4084
734.90 0.4079
735.00 0.4074
735.10 0.4069
735.20 0.4064
735.30 0.4059
735.40 0.4055
735.50 0.405
735.60 0.4045
735.70 0.404
735.80 0.4035
735.90 0.403
736.00 0.4025
736.10 0.4021
736.20 0.4016
736.30 0.4011
736.40 0.4006
736.50 0.4001
736.60 0.3996
736.70 0.3992
736.80 0.3987
736.90 0.3982
737.00 0.3977
737.10 0.3972
737.20 0.3968
737.30 0.3963
737.40 0.3958
737.50 0.3953
737.60 0.3948
737.70 0.3944
737.80 0.3939
737.90 0.3934
738.00 0.3929
738.10 0.3924
738.20 0.392
738.30 0.3915
738.40 0.391
738.50 0.3905
738.60 0.3901
738.70 0.3896
738.80 0.3891
738.90 0.3886
739.00 0.3881
739.10 0.3877
739.20 0.3872
739.30 0.3867
739.40 0.3862
739.50 0.3858
739.60 0.3853
739.70 0.3848
739.80 0.3843
739.90 0.3839
740.00 0.3834
740.10 0.3831
740.20 0.3828
740.30 0.3825
740.40 0.3822
740.50 0.3818
740.60 0.3815
740.70 0.3812
740.80 0.3809
740.90 0.3806
741.00 0.3803
741.10 0.38
741.20 0.3797
741.30 0.3794
741.40 0.3791
741.50 0.3788
741.60 0.3785
741.70 0.3782
741.80 0.3778
741.90 0.3775
742.00 0.3772
742.10 0.3769
742.20 0.3766
742.30 0.3763
742.40 0.376
742.50 0.3757
742.60 0.3754
742.70 0.3751
742.80 0.3748
742.90 0.3745
743.00 0.3742
743.10 0.3739
743.20 0.3736
743.30 0.3733
743.40 0.373
743.50 0.3727
743.60 0.3724
743.70 0.372
743.80 0.3717
743.90 0.3714
744.00 0.3711
744.10 0.3708
744.20 0.3705
744.30 0.3702
744.40 0.3699
744.50 0.3696
744.60 0.3693
744.70 0.369
744.80 0.3687
744.90 0.3684
745.00 0.3681
745.10 0.3678
745.20 0.3675
745.30 0.3672
745.40 0.3669
745.50 0.3666
745.60 0.3663
745.70 0.366
745.80 0.3657
745.90 0.3654
746.00 0.3651
746.10 0.3648
746.20 0.3645
746.30 0.3642
746.40 0.3639
746.50 0.3636
746.60 0.3633
746.70 0.363
746.80 0.3627
746.90 0.3624
747.00 0.3621
747.10 0.3618
747.20 0.3615
747.30 0.3612
747.40 0.3609
747.50 0.3606
747.60 0.3603
747.70 0.36
747.80 0.3597
747.90 0.3594
748.00 0.3591
748.10 0.3588
748.20 0.3585
748.30 0.3582
748.40 0.3579
748.50 0.3576
748.60 0.3573
748.70 0.357
748.80 0.3567
748.90 0.3564
749.00 0.3562
749.10 0.3559
749.20 0.3556
749.30 0.3553
749.40 0.355
749.50 0.3547
749.60 0.3544
749.70 0.3541
749.80 0.3538
749.90 0.3535
750.00 0.3532
750.10 0.353
750.20 0.3528
750.30 0.3526
750.40 0.3524
750.50 0.3522
750.60 0.352
750.70 0.3518
750.80 0.3516
750.90 0.3514
751.00 0.3512
751.10 0.351
751.20 0.3508
751.30 0.3506
751.40 0.3504
751.50 0.3502
751.60 0.35
751.70 0.3498
751.80 0.3496
751.90 0.3494
752.00 0.3492
752.10 0.349
752.20 0.3488
752.30 0.3486
752.40 0.3484
752.50 0.3482
752.60 0.348
752.70 0.3478
752.80 0.3476
752.90 0.3474
753.00 0.3472
753.10 0.347
753.20 0.3468
753.30 0.3466
753.40 0.3464
753.50 0.3462
753.60 0.346
753.70 0.3458
753.80 0.3456
753.90 0.3454
754.00 0.3452
754.10 0.345
754.20 0.3448
754.30 0.3446
754.40 0.3444
754.50 0.3442
754.60 0.344
754.70 0.3438
754.80 0.3437
754.90 0.3435
755.00 0.3433
755.10 0.3431
755.20 0.3429
755.30 0.3427
755.40 0.3425
755.50 0.3423
755.60 0.3421
755.70 0.3419
755.80 0.3417
755.90 0.3415
756.00 0.3413
756.10 0.3411
756.20 0.3409
756.30 0.3407
756.40 0.3405
756.50 0.3403
756.60 0.3401
756.70 0.3399
756.80 0.3397
756.90 0.3395
757.00 0.3393
757.10 0.3392
757.20 0.339
757.30 0.3388
757.40 0.3386
757.50 0.3384
757.60 0.3382
757.70 0.338
757.80 0.3378
757.90 0.3376
758.00 0.3374
758.10 0.3372
758.20 0.337
758.30 0.3368
758.40 0.3366
758.50 0.3364
758.60 0.3362
758.70 0.336
758.80 0.3359
758.90 0.3357
759.00 0.3355
759.10 0.3353
759.20 0.3351
759.30 0.3349
759.40 0.3347
759.50 0.3345
759.60 0.3343
759.70 0.3341
759.80 0.3339
759.90 0.3337
760.00 0.3335
760.10 0.3334
760.20 0.3333
760.30 0.3331
760.40 0.333
760.50 0.3328
760.60 0.3327
760.70 0.3326
760.80 0.3324
760.90 0.3323
761.00 0.3321
761.10 0.332
761.20 0.3319
761.30 0.3317
761.40 0.3316
761.50 0.3314
761.60 0.3313
761.70 0.3312
761.80 0.331
761.90 0.3309
762.00 0.3307
762.10 0.3306
762.20 0.3305
762.30 0.3303
762.40 0.3302
762.50 0.3301
762.60 0.3299
762.70 0.3298
762.80 0.3296
762.90 0.3295
763.00 0.3294
763.10 0.3292
763.20 0.3291
763.30 0.3289
763.40 0.3288
763.50 0.3287
763.60 0.3285
763.70 0.3284
763.80 0.3282
763.90 0.3281
764.00 0.328
764.10 0.3278
764.20 0.3277
764.30 0.3276
764.40 0.3274
764.50 0.3273
764.60 0.3271
764.70 0.327
764.80 0.3269
764.90 0.3267
765.00 0.3266
765.10 0.3265
765.20 0.3263
765.30 0.3262
765.40 0.326
765.50 0.3259
765.60 0.3258
765.70 0.3256
765.80 0.3255
765.90 0.3254
766.00 0.3252
766.10 0.3251
766.20 0.3249
766.30 0.3248
766.40 0.3247
766.50 0.3245
766.60 0.3244
766.70 0.3243
766.80 0.3241
766.90 0.324
767.00 0.3239
767.10 0.3237
767.20 0.3236
767.30 0.3234
767.40 0.3233
767.50 0.3232
767.60 0.323
767.70 0.3229
767.80 0.3228
767.90 0.3226
768.00 0.3225
768.10 0.3224
768.20 0.3222
768.30 0.3221
768.40 0.322
768.50 0.3218
768.60 0.3217
768.70 0.3215
768.80 0.3214
768.90 0.3213
769.00 0.3211
769.10 0.321
769.20 0.3209
769.30 0.3207
769.40 0.3206
769.50 0.3205
769.60 0.3203
769.70 0.3202
769.80 0.3201
769.90 0.3199
770.00 0.3198
770.10 0.3197
770.20 0.3197
770.30 0.3196
770.40 0.3195
770.50 0.3194
770.60 0.3194
770.70 0.3193
770.80 0.3192
770.90 0.3192
771.00 0.3191
771.10 0.319
771.20 0.3189
771.30 0.3189
771.40 0.3188
771.50 0.3187
771.60 0.3187
771.70 0.3186
771.80 0.3185
771.90 0.3185
772.00 0.3184
772.10 0.3183
772.20 0.3182
772.30 0.3182
772.40 0.3181
772.50 0.318
772.60 0.318
772.70 0.3179
772.80 0.3178
772.90 0.3178
773.00 0.3177
773.10 0.3176
773.20 0.3175
773.30 0.3175
773.40 0.3174
773.50 0.3173
773.60 0.3173
773.70 0.3172
773.80 0.3171
773.90 0.3171
774.00 0.317
774.10 0.3169
774.20 0.3168
774.30 0.3168
774.40 0.3167
774.50 0.3166
774.60 0.3166
774.70 0.3165
774.80 0.3164
774.90 0.3164
775.00 0.3163
775.10 0.3162
775.20 0.3162
775.30 0.3161
775.40 0.316
775.50 0.3159
775.60 0.3159
775.70 0.3158
775.80 0.3157
775.90 0.3157
776.00 0.3156
776.10 0.3155
776.20 0.3155
776.30 0.3154
776.40 0.3153
776.50 0.3153
776.60 0.3152
776.70 0.3151
776.80 0.315
776.90 0.315
777.00 0.3149
777.10 0.3148
777.20 0.3148
777.30 0.3147
777.40 0.3146
777.50 0.3146
777.60 0.3145
777.70 0.3144
777.80 0.3144
777.90 0.3143
778.00 0.3142
778.10 0.3141
778.20 0.3141
778.30 0.314
778.40 0.3139
778.50 0.3139
778.60 0.3138
778.70 0.3137
778.80 0.3137
778.90 0.3136
779.00 0.3135
779.10 0.3135
779.20 0.3134
779.30 0.3133
779.40 0.3133
779.50 0.3132
779.60 0.3131
779.70 0.3131
779.80 0.313
779.90 0.3129
780.00 0.3128
780.10 0.3129
780.20 0.3129
780.30 0.3129
780.40 0.3129
780.50 0.3129
780.60 0.3129
780.70 0.3129
780.80 0.3129
780.90 0.3129
781.00 0.313
781.10 0.313
781.20 0.313
781.30 0.313
781.40 0.313
781.50 0.313
781.60 0.313
781.70 0.313
781.80 0.313
781.90 0.313
782.00 0.3131
782.10 0.3131
782.20 0.3131
782.30 0.3131
782.40 0.3131
782.50 0.3131
782.60 0.3131
782.70 0.3131
782.80 0.3131
782.90 0.3131
783.00 0.3132
783.10 0.3132
783.20 0.3132
783.30 0.3132
783.40 0.3132
783.50 0.3132
783.60 0.3132
783.70 0.3132
783.80 0.3132
783.90 0.3132
784.00 0.3132
784.10 0.3133
784.20 0.3133
784.30 0.3133
784.40 0.3133
784.50 0.3133
784.60 0.3133
784.70 0.3133
784.80 0.3133
784.90 0.3133
785.00 0.3133
785.10 0.3134
785.20 0.3134
785.30 0.3134
785.40 0.3134
785.50 0.3134
785.60 0.3134
785.70 0.3134
785.80 0.3134
785.90 0.3134
786.00 0.3134
786.10 0.3135
786.20 0.3135
786.30 0.3135
786.40 0.3135
786.50 0.3135
786.60 0.3135
786.70 0.3135
786.80 0.3135
786.90 0.3135
787.00 0.3135
787.10 0.3135
787.20 0.3136
787.30 0.3136
787.40 0.3136
787.50 0.3136
787.60 0.3136
787.70 0.3136
787.80 0.3136
787.90 0.3136
788.00 0.3136
788.10 0.3136
788.20 0.3136
788.30 0.3137
788.40 0.3137
788.50 0.3137
788.60 0.3137
788.70 0.3137
788.80 0.3137
788.90 0.3137
789.00 0.3137
789.10 0.3137
789.20 0.3137
789.30 0.3137
789.40 0.3138
789.50 0.3138
789.60 0.3138
789.70 0.3138
789.80 0.3138
789.90 0.3138
790.00 0.3138
790.10 0.3138
790.20 0.3139
790.30 0.3139
790.40 0.314
790.50 0.314
790.60 0.3141
790.70 0.3141
790.80 0.3142
790.90 0.3142
791.00 0.3142
791.10 0.3143
791.20 0.3143
791.30 0.3144
791.40 0.3144
791.50 0.3145
791.60 0.3145
791.70 0.3145
791.80 0.3146
791.90 0.3146
792.00 0.3147
792.10 0.3147
792.20 0.3148
792.30 0.3148
792.40 0.3148
792.50 0.3149
792.60 0.3149
792.70 0.315
792.80 0.315
792.90 0.3151
793.00 0.3151
793.10 0.3151
793.20 0.3152
793.30 0.3152
793.40 0.3153
793.50 0.3153
793.60 0.3154
793.70 0.3154
793.80 0.3154
793.90 0.3155
794.00 0.3155
794.10 0.3156
794.20 0.3156
794.30 0.3157
794.40 0.3157
794.50 0.3157
794.60 0.3158
794.70 0.3158
794.80 0.3159
794.90 0.3159
795.00 0.316
795.10 0.316
795.20 0.316
795.30 0.3161
795.40 0.3161
795.50 0.3162
795.60 0.3162
795.70 0.3162
795.80 0.3163
795.90 0.3163
796.00 0.3164
796.10 0.3164
796.20 0.3165
796.30 0.3165
796.40 0.3165
796.50 0.3166
796.60 0.3166
796.70 0.3167
796.80 0.3167
796.90 0.3167
797.00 0.3168
797.10 0.3168
797.20 0.3169
797.30 0.3169
797.40 0.317
797.50 0.317
797.60 0.317
797.70 0.3171
797.80 0.3171
797.90 0.3172
798.00 0.3172
798.10 0.3172
798.20 0.3173
798.30 0.3173
798.40 0.3174
798.50 0.3174
798.60 0.3174
798.70 0.3175
798.80 0.3175
798.90 0.3176
799.00 0.3176
799.10 0.3177
799.20 0.3177
799.30 0.3177
799.40 0.3178
799.50 0.3178
799.60 0.3179
799.70 0.3179
799.80 0.3179
799.90 0.318
800.00 0.318
800.10 0.318
800.20 0.318
800.30 0.318
800.40 0.3181
800.50 0.3181
800.60 0.3181
800.70 0.3181
800.80 0.3181
800.90 0.3181
801.00 0.3181
801.10 0.3181
801.20 0.3181
801.30 0.3181
801.40 0.3182
801.50 0.3182
801.60 0.3182
801.70 0.3182
801.80 0.3182
801.90 0.3182
802.00 0.3182
802.10 0.3182
802.20 0.3182
802.30 0.3182
802.40 0.3182
802.50 0.3183
802.60 0.3183
802.70 0.3183
802.80 0.3183
802.90 0.3183
803.00 0.3183
803.10 0.3183
803.20 0.3183
803.30 0.3183
803.40 0.3183
803.50 0.3183
803.60 0.3183
803.70 0.3184
803.80 0.3184
803.90 0.3184
804.00 0.3184
804.10 0.3184
804.20 0.3184
804.30 0.3184
804.40 0.3184
804.50 0.3184
804.60 0.3184
804.70 0.3184
804.80 0.3185
804.90 0.3185
805.00 0.3185
805.10 0.3185
805.20 0.3185
805.30 0.3185
805.40 0.3185
805.50 0.3185
805.60 0.3185
805.70 0.3185
805.80 0.3185
805.90 0.3185
806.00 0.3186
806.10 0.3186
806.20 0.3186
806.30 0.3186
806.40 0.3186
806.50 0.3186
806.60 0.3186
806.70 0.3186
806.80 0.3186
806.90 0.3186
807.00 0.3186
807.10 0.3187
807.20 0.3187
807.30 0.3187
807.40 0.3187
807.50 0.3187
807.60 0.3187
807.70 0.3187
807.80 0.3187
807.90 0.3187
808.00 0.3187
808.10 0.3187
808.20 0.3187
808.30 0.3187
808.40 0.3188
808.50 0.3188
808.60 0.3188
808.70 0.3188
808.80 0.3188
808.90 0.3188
809.00 0.3188
809.10 0.3188
809.20 0.3188
809.30 0.3188
809.40 0.3188
809.50 0.3188
809.60 0.3189
809.70 0.3189
809.80 0.3189
809.90 0.3189
810.00 0.3189
810.10 0.3189
810.20 0.3188
810.30 0.3188
810.40 0.3187
810.50 0.3187
810.60 0.3187
810.70 0.3186
810.80 0.3186
810.90 0.3186
811.00 0.3185
811.10 0.3185
811.20 0.3184
811.30 0.3184
811.40 0.3184
811.50 0.3183
811.60 0.3183
811.70 0.3183
811.80 0.3182
811.90 0.3182
812.00 0.3182
812.10 0.3181
812.20 0.3181
812.30 0.318
812.40 0.318
812.50 0.318
812.60 0.3179
812.70 0.3179
812.80 0.3179
812.90 0.3178
813.00 0.3178
813.10 0.3178
813.20 0.3177
813.30 0.3177
813.40 0.3177
813.50 0.3176
813.60 0.3176
813.70 0.3175
813.80 0.3175
813.90 0.3175
814.00 0.3174
814.10 0.3174
814.20 0.3174
814.30 0.3173
814.40 0.3173
814.50 0.3173
814.60 0.3172
814.70 0.3172
814.80 0.3171
814.90 0.3171
815.00 0.3171
815.10 0.317
815.20 0.317
815.30 0.317
815.40 0.3169
815.50 0.3169
815.60 0.3169
815.70 0.3168
815.80 0.3168
815.90 0.3167
816.00 0.3167
816.10 0.3167
816.20 0.3166
816.30 0.3166
816.40 0.3166
816.50 0.3165
816.60 0.3165
816.70 0.3165
816.80 0.3164
816.90 0.3164
817.00 0.3164
817.10 0.3163
817.20 0.3163
817.30 0.3162
817.40 0.3162
817.50 0.3162
817.60 0.3161
817.70 0.3161
817.80 0.3161
817.90 0.316
818.00 0.316
818.10 0.316
818.20 0.3159
818.30 0.3159
818.40 0.3158
818.50 0.3158
818.60 0.3158
818.70 0.3157
818.80 0.3157
818.90 0.3157
819.00 0.3156
819.10 0.3156
819.20 0.3156
819.30 0.3155
819.40 0.3155
819.50 0.3155
819.60 0.3154
819.70 0.3154
819.80 0.3153
819.90 0.3153
820.00 0.3153
820.10 0.3152
820.20 0.3152
820.30 0.3151
820.40 0.3151
820.50 0.315
820.60 0.315
820.70 0.3149
820.80 0.3149
820.90 0.3149
821.00 0.3148
821.10 0.3148
821.20 0.3147
821.30 0.3147
821.40 0.3146
821.50 0.3146
821.60 0.3145
821.70 0.3145
821.80 0.3144
821.90 0.3144
822.00 0.3143
822.10 0.3143
822.20 0.3142
822.30 0.3142
822.40 0.3141
822.50 0.3141
822.60 0.314
822.70 0.314
822.80 0.3139
822.90 0.3139
823.00 0.3138
823.10 0.3138
823.20 0.3137
823.30 0.3136
823.40 0.3136
823.50 0.3135
823.60 0.3135
823.70 0.3134
823.80 0.3134
823.90 0.3133
824.00 0.3133
824.10 0.3132
824.20 0.3132
824.30 0.3131
824.40 0.3131
824.50 0.313
824.60 0.313
824.70 0.3129
824.80 0.3129
824.90 0.3128
825.00 0.3128
825.10 0.3127
825.20 0.3127
825.30 0.3126
825.40 0.3125
825.50 0.3125
825.60 0.3124
825.70 0.3124
825.80 0.3123
825.90 0.3123
826.00 0.3122
826.10 0.3122
826.20 0.3121
826.30 0.3121
826.40 0.312
826.50 0.312
826.60 0.3119
826.70 0.3119
826.80 0.3118
826.90 0.3118
827.00 0.3117
827.10 0.3117
827.20 0.3116
827.30 0.3116
827.40 0.3115
827.50 0.3114
827.60 0.3114
827.70 0.3113
827.80 0.3113
827.90 0.3112
828.00 0.3112
828.10 0.3111
828.20 0.3111
828.30 0.311
828.40 0.311
828.50 0.3109
828.60 0.3109
828.70 0.3108
828.80 0.3107
828.90 0.3107
829.00 0.3106
829.10 0.3106
829.20 0.3105
829.30 0.3105
829.40 0.3104
829.50 0.3104
829.60 0.3103
829.70 0.3103
829.80 0.3102
829.90 0.3102
830.00 0.3101
830.10 0.3101
830.20 0.31
830.30 0.3099
830.40 0.3099
830.50 0.3098
830.60 0.3098
830.70 0.3097
830.80 0.3097
830.90 0.3096
831.00 0.3096
831.10 0.3095
831.20 0.3095
831.30 0.3094
831.40 0.3094
831.50 0.3093
831.60 0.3093
831.70 0.3092
831.80 0.3091
831.90 0.3091
832.00 0.309
832.10 0.309
832.20 0.3089
832.30 0.3089
832.40 0.3088
832.50 0.3088
832.60 0.3087
832.70 0.3087
832.80 0.3086
832.90 0.3086
833.00 0.3085
833.10 0.3085
833.20 0.3084
833.30 0.3084
833.40 0.3083
833.50 0.3083
833.60 0.3082
833.70 0.3082
833.80 0.3081
833.90 0.3081
834.00 0.308
834.10 0.308
834.20 0.3079
834.30 0.3079
834.40 0.3078
834.50 0.3078
834.60 0.3077
834.70 0.3076
834.80 0.3076
834.90 0.3075
835.00 0.3075
835.10 0.3074
835.20 0.3074
835.30 0.3073
835.40 0.3073
835.50 0.3072
835.60 0.3072
835.70 0.3071
835.80 0.3071
835.90 0.307
836.00 0.307
836.10 0.3069
836.20 0.3069
836.30 0.3068
836.40 0.3068
836.50 0.3067
836.60 0.3067
836.70 0.3066
836.80 0.3066
836.90 0.3065
837.00 0.3065
837.10 0.3064
837.20 0.3064
837.30 0.3063
837.40 0.3063
837.50 0.3062
837.60 0.3062
837.70 0.3061
837.80 0.3061
837.90 0.306
838.00 0.306
838.10 0.3059
838.20 0.3059
838.30 0.3058
838.40 0.3057
838.50 0.3057
838.60 0.3056
838.70 0.3056
838.80 0.3055
838.90 0.3055
839.00 0.3054
839.10 0.3054
839.20 0.3053
839.30 0.3053
839.40 0.3052
839.50 0.3052
839.60 0.3051
839.70 0.3051
839.80 0.305
839.90 0.305
840.00 0.3049
840.10 0.3049
840.20 0.3048
840.30 0.3048
840.40 0.3047
840.50 0.3047
840.60 0.3046
840.70 0.3046
840.80 0.3045
840.90 0.3045
841.00 0.3044
841.10 0.3044
841.20 0.3043
841.30 0.3043
841.40 0.3042
841.50 0.3042
841.60 0.3041
841.70 0.3041
841.80 0.304
841.90 0.304
842.00 0.3039
842.10 0.3038
842.20 0.3038
842.30 0.3037
842.40 0.3037
842.50 0.3036
842.60 0.3036
842.70 0.3035
842.80 0.3035
842.90 0.3034
843.00 0.3034
843.10 0.3033
843.20 0.3033
843.30 0.3032
843.40 0.3032
843.50 0.3031
843.60 0.3031
843.70 0.303
843.80 0.303
843.90 0.3029
844.00 0.3029
844.10 0.3028
844.20 0.3028
844.30 0.3027
844.40 0.3027
844.50 0.3026
844.60 0.3026
844.70 0.3025
844.80 0.3025
844.90 0.3024
845.00 0.3024
845.10 0.3023
845.20 0.3023
845.30 0.3022
845.40 0.3022
845.50 0.3021
845.60 0.3021
845.70 0.302
845.80 0.302
845.90 0.3019
846.00 0.3019
846.10 0.3018
846.20 0.3018
846.30 0.3017
846.40 0.3017
846.50 0.3016
846.60 0.3016
846.70 0.3015
846.80 0.3015
846.90 0.3014
847.00 0.3014
847.10 0.3013
847.20 0.3012
847.30 0.3012
847.40 0.3011
847.50 0.3011
847.60 0.301
847.70 0.301
847.80 0.3009
847.90 0.3009
848.00 0.3008
848.10 0.3007
848.20 0.3007
848.30 0.3006
848.40 0.3006
848.50 0.3005
848.60 0.3005
848.70 0.3004
848.80 0.3004
848.90 0.3003
849.00 0.3003
849.10 0.3002
849.20 0.3001
849.30 0.3001
849.40 0.3
849.50 0.3
849.60 0.2999
849.70 0.2999
849.80 0.2998
849.90 0.2998
850.00 0.2997
850.10 0.2996
850.20 0.2996
850.30 0.2995
850.40 0.2995
850.50 0.2994
850.60 0.2994
850.70 0.2993
850.80 0.2993
850.90 0.2992
851.00 0.2992
851.10 0.2991
851.20 0.299
851.30 0.299
851.40 0.2989
851.50 0.2989
851.60 0.2988
851.70 0.2988
851.80 0.2987
851.90 0.2987
852.00 0.2986
852.10 0.2985
852.20 0.2985
852.30 0.2984
852.40 0.2984
852.50 0.2983
852.60 0.2982
852.70 0.2982
852.80 0.2981
852.90 0.2981
853.00 0.298
853.10 0.2979
853.20 0.2979
853.30 0.2978
853.40 0.2978
853.50 0.2977
853.60 0.2976
853.70 0.2976
853.80 0.2975
853.90 0.2975
854.00 0.2974
854.10 0.2973
854.20 0.2973
854.30 0.2972
854.40 0.2972
854.50 0.2971
854.60 0.2971
854.70 0.297
854.80 0.2969
854.90 0.2969
855.00 0.2968
855.10 0.2968
855.20 0.2967
855.30 0.2966
855.40 0.2966
855.50 0.2965
855.60 0.2965
855.70 0.2964
855.80 0.2963
855.90 0.2963
856.00 0.2962
856.10 0.2962
856.20 0.2961
856.30 0.296
856.40 0.296
856.50 0.2959
856.60 0.2959
856.70 0.2958
856.80 0.2957
856.90 0.2957
857.00 0.2956
857.10 0.2956
857.20 0.2955
857.30 0.2954
857.40 0.2954
857.50 0.2953
857.60 0.2952
857.70 0.2952
857.80 0.2951
857.90 0.295
858.00 0.295
858.10 0.2949
858.20 0.2949
858.30 0.2948
858.40 0.2947
858.50 0.2947
858.60 0.2946
858.70 0.2945
858.80 0.2945
858.90 0.2944
859.00 0.2943
859.10 0.2943
859.20 0.2942
859.30 0.2941
859.40 0.2941
859.50 0.294
859.60 0.294
859.70 0.2939
859.80 0.2938
859.90 0.2938
860.00 0.2937
860.10 0.2936
860.20 0.2936
860.30 0.2935
860.40 0.2934
860.50 0.2934
860.60 0.2933
860.70 0.2933
860.80 0.2932
860.90 0.2931
861.00 0.2931
861.10 0.293
861.20 0.2929
861.30 0.2929
861.40 0.2928
861.50 0.2927
861.60 0.2927
861.70 0.2926
861.80 0.2926
861.90 0.2925
862.00 0.2924
862.10 0.2924
862.20 0.2923
862.30 0.2922
862.40 0.2922
862.50 0.2921
862.60 0.292
862.70 0.2919
862.80 0.2919
862.90 0.2918
863.00 0.2917
863.10 0.2917
863.20 0.2916
863.30 0.2915
863.40 0.2915
863.50 0.2914
863.60 0.2913
863.70 0.2913
863.80 0.2912
863.90 0.2911
864.00 0.291
864.10 0.291
864.20 0.2909
864.30 0.2908
864.40 0.2908
864.50 0.2907
864.60 0.2906
864.70 0.2906
864.80 0.2905
864.90 0.2904
865.00 0.2904
865.10 0.2903
865.20 0.2902
865.30 0.2902
865.40 0.2901
865.50 0.29
865.60 0.2899
865.70 0.2899
865.80 0.2898
865.90 0.2897
866.00 0.2897
866.10 0.2896
866.20 0.2895
866.30 0.2895
866.40 0.2894
866.50 0.2893
866.60 0.2893
866.70 0.2892
866.80 0.2891
866.90 0.2891
867.00 0.289
867.10 0.2889
867.20 0.2888
867.30 0.2887
867.40 0.2887
867.50 0.2886
867.60 0.2885
867.70 0.2884
867.80 0.2883
867.90 0.2883
868.00 0.2882
868.10 0.2881
868.20 0.288
868.30 0.2879
868.40 0.2879
868.50 0.2878
868.60 0.2877
868.70 0.2876
868.80 0.2875
868.90 0.2875
869.00 0.2874
869.10 0.2873
869.20 0.2872
869.30 0.2872
869.40 0.2871
869.50 0.287
869.60 0.2869
869.70 0.2868
869.80 0.2868
869.90 0.2867
870.00 0.2866
870.10 0.2865
870.20 0.2864
870.30 0.2864
870.40 0.2863
870.50 0.2862
870.60 0.2861
870.70 0.286
870.80 0.286
870.90 0.2859
871.00 0.2858
871.10 0.2857
871.20 0.2856
871.30 0.2856
871.40 0.2855
871.50 0.2854
871.60 0.2853
871.70 0.2853
871.80 0.2852
871.90 0.2851
872.00 0.285
872.10 0.2849
872.20 0.2848
872.30 0.2847
872.40 0.2847
872.50 0.2846
872.60 0.2845
872.70 0.2844
872.80 0.2843
872.90 0.2842
873.00 0.2841
873.10 0.284
873.20 0.2839
873.30 0.2838
873.40 0.2838
873.50 0.2837
873.60 0.2836
873.70 0.2835
873.80 0.2834
873.90 0.2833
874.00 0.2832
874.10 0.2831
874.20 0.283
874.30 0.2829
874.40 0.2829
874.50 0.2828
874.60 0.2827
874.70 0.2826
874.80 0.2825
874.90 0.2824
875.00 0.2823
875.10 0.2822
875.20 0.2821
875.30 0.282
875.40 0.282
875.50 0.2819
875.60 0.2818
875.70 0.2817
875.80 0.2816
875.90 0.2815
876.00 0.2814
876.10 0.2813
876.20 0.2812
876.30 0.2812
876.40 0.2811
876.50 0.281
876.60 0.2809
876.70 0.2808
876.80 0.2807
876.90 0.2806
877.00 0.2805
877.10 0.2804
877.20 0.2803
877.30 0.2802
877.40 0.2801
877.50 0.28
877.60 0.2799
877.70 0.2798
877.80 0.2797
877.90 0.2796
878.00 0.2795
878.10 0.2794
878.20 0.2793
878.30 0.2792
878.40 0.2791
878.50 0.279
878.60 0.2789
878.70 0.2788
878.80 0.2787
878.90 0.2786
879.00 0.2785
879.10 0.2784
879.20 0.2783
879.30 0.2782
879.40 0.2781
879.50 0.278
879.60 0.2779
879.70 0.2778
879.80 0.2777
879.90 0.2776
880.00 0.2775
880.10 0.2773
880.20 0.2772
880.30 0.2771
880.40 0.277
880.50 0.2769
880.60 0.2768
880.70 0.2767
880.80 0.2766
880.90 0.2765
881.00 0.2764
881.10 0.2763
881.20 0.2762
881.30 0.2761
881.40 0.276
881.50 0.2759
881.60 0.2758
881.70 0.2757
881.80 0.2756
881.90 0.2755
882.00 0.2754
882.10 0.2753
882.20 0.2752
882.30 0.2751
882.40 0.275
882.50 0.2748
882.60 0.2747
882.70 0.2746
882.80 0.2745
882.90 0.2744
883.00 0.2743
883.10 0.2741
883.20 0.274
883.30 0.2739
883.40 0.2738
883.50 0.2737
883.60 0.2736
883.70 0.2734
883.80 0.2733
883.90 0.2732
884.00 0.2731
884.10 0.273
884.20 0.2729
884.30 0.2727
884.40 0.2726
884.50 0.2725
884.60 0.2724
884.70 0.2723
884.80 0.2722
884.90 0.272
885.00 0.2719
885.10 0.2718
885.20 0.2717
885.30 0.2716
885.40 0.2715
885.50 0.2714
885.60 0.2712
885.70 0.2711
885.80 0.271
885.90 0.2709
886.00 0.2708
886.10 0.2707
886.20 0.2706
886.30 0.2704
886.40 0.2703
886.50 0.2702
886.60 0.2701
886.70 0.27
886.80 0.2699
886.90 0.2697
887.00 0.2696
887.10 0.2695
887.20 0.2694
887.30 0.2692
887.40 0.2691
887.50 0.269
887.60 0.2689
887.70 0.2687
887.80 0.2686
887.90 0.2685
888.00 0.2684
888.10 0.2682
888.20 0.2681
888.30 0.268
888.40 0.2678
888.50 0.2677
888.60 0.2676
888.70 0.2675
888.80 0.2673
888.90 0.2672
889.00 0.2671
889.10 0.2669
889.20 0.2668
889.30 0.2667
889.40 0.2666
889.50 0.2664
889.60 0.2663
889.70 0.2662
889.80 0.2661
889.90 0.2659
890.00 0.2658
890.10 0.2657
890.20 0.2655
890.30 0.2654
890.40 0.2653
890.50 0.2652
890.60 0.265
890.70 0.2649
890.80 0.2648
890.90 0.2647
891.00 0.2645
891.10 0.2644
891.20 0.2643
891.30 0.2642
891.40 0.264
891.50 0.2639
891.60 0.2638
891.70 0.2637
891.80 0.2635
891.90 0.2634
892.00 0.2633
892.10 0.2631
892.20 0.263
892.30 0.2628
892.40 0.2627
892.50 0.2625
892.60 0.2624
892.70 0.2623
892.80 0.2621
892.90 0.262
893.00 0.2618
893.10 0.2617
893.20 0.2615
893.30 0.2614
893.40 0.2612
893.50 0.2611
893.60 0.261
893.70 0.2608
893.80 0.2607
893.90 0.2605
894.00 0.2604
894.10 0.2602
894.20 0.2601
894.30 0.2599
894.40 0.2598
894.50 0.2597
894.60 0.2595
894.70 0.2594
894.80 0.2592
894.90 0.2591
895.00 0.2589
895.10 0.2588
895.20 0.2587
895.30 0.2585
895.40 0.2584
895.50 0.2582
895.60 0.2581
895.70 0.2579
895.80 0.2578
895.90 0.2577
896.00 0.2575
896.10 0.2574
896.20 0.2572
896.30 0.2571
896.40 0.2569
896.50 0.2568
896.60 0.2567
896.70 0.2565
896.80 0.2564
896.90 0.2562
897.00 0.2561
897.10 0.2559
897.20 0.2558
897.30 0.2556
897.40 0.2555
897.50 0.2553
897.60 0.2552
897.70 0.255
897.80 0.2549
897.90 0.2547
898.00 0.2546
898.10 0.2544
898.20 0.2543
898.30 0.2541
898.40 0.254
898.50 0.2538
898.60 0.2537
898.70 0.2535
898.80 0.2534
898.90 0.2532
899.00 0.2531
899.10 0.2529
899.20 0.2528
899.30 0.2526
899.40 0.2525
899.50 0.2523
899.60 0.2522
899.70 0.252
899.80 0.2519
899.90 0.2517
900.00 0.2516
900.10 0.2514
900.20 0.2513
900.30 0.2512
900.40 0.251
900.50 0.2509
900.60 0.2507
900.70 0.2506
900.80 0.2504
900.90 0.2503
901.00 0.2501
901.10 0.25
901.20 0.2498
901.30 0.2497
901.40 0.2495
901.50 0.2494
901.60 0.2492
901.70 0.2491
901.80 0.2489
901.90 0.2488
902.00 0.2486
902.10 0.2485
902.20 0.2483
902.30 0.2482
902.40 0.248
902.50 0.2479
902.60 0.2477
902.70 0.2476
902.80 0.2474
902.90 0.2473
903.00 0.2471
903.10 0.247
903.20 0.2468
903.30 0.2467
903.40 0.2465
903.50 0.2464
903.60 0.2462
903.70 0.2461
903.80 0.2459
903.90 0.2458
904.00 0.2456
904.10 0.2455
904.20 0.2453
904.30 0.2452
904.40 0.245
904.50 0.2449
904.60 0.2447
904.70 0.2446
904.80 0.2444
904.90 0.2443
905.00 0.2441
905.10 0.244
905.20 0.2438
905.30 0.2437
905.40 0.2435
905.50 0.2434
905.60 0.2432
905.70 0.2431
905.80 0.2429
905.90 0.2428
906.00 0.2426
906.10 0.2425
906.20 0.2424
906.30 0.2422
906.40 0.2421
906.50 0.2419
906.60 0.2418
906.70 0.2416
906.80 0.2415
906.90 0.2413
907.00 0.2412
907.10 0.241
907.20 0.2408
907.30 0.2407
907.40 0.2405
907.50 0.2403
907.60 0.2402
907.70 0.24
907.80 0.2398
907.90 0.2397
908.00 0.2395
908.10 0.2393
908.20 0.2392
908.30 0.239
908.40 0.2388
908.50 0.2387
908.60 0.2385
908.70 0.2383
908.80 0.2382
908.90 0.238
909.00 0.2378
909.10 0.2377
909.20 0.2375
909.30 0.2373
909.40 0.2372
909.50 0.237
909.60 0.2368
909.70 0.2367
909.80 0.2365
909.90 0.2363
910.00 0.2362
910.10 0.236
910.20 0.2358
910.30 0.2357
910.40 0.2355
910.50 0.2353
910.60 0.2352
910.70 0.235
910.80 0.2348
910.90 0.2347
911.00 0.2345
911.10 0.2344
911.20 0.2342
911.30 0.234
911.40 0.2339
911.50 0.2337
911.60 0.2335
911.70 0.2334
911.80 0.2332
911.90 0.233
912.00 0.2329
912.10 0.2327
912.20 0.2325
912.30 0.2323
912.40 0.2322
912.50 0.232
912.60 0.2318
912.70 0.2316
912.80 0.2314
912.90 0.2313
913.00 0.2311
913.10 0.2309
913.20 0.2307
913.30 0.2305
913.40 0.2304
913.50 0.2302
913.60 0.23
913.70 0.2298
913.80 0.2296
913.90 0.2295
914.00 0.2293
914.10 0.2291
914.20 0.2289
914.30 0.2288
914.40 0.2286
914.50 0.2284
914.60 0.2282
914.70 0.228
914.80 0.2279
914.90 0.2277
915.00 0.2275
915.10 0.2273
915.20 0.2272
915.30 0.227
915.40 0.2268
915.50 0.2266
915.60 0.2264
915.70 0.2263
915.80 0.2261
915.90 0.2259
916.00 0.2257
916.10 0.2256
916.20 0.2254
916.30 0.2252
916.40 0.225
916.50 0.2249
916.60 0.2247
916.70 0.2245
916.80 0.2243
916.90 0.2241
917.00 0.224
917.10 0.2238
917.20 0.2236
917.30 0.2234
917.40 0.2232
917.50 0.2231
917.60 0.2229
917.70 0.2227
917.80 0.2225
917.90 0.2223
918.00 0.2221
918.10 0.222
918.20 0.2218
918.30 0.2216
918.40 0.2214
918.50 0.2212
918.60 0.2211
918.70 0.2209
918.80 0.2207
918.90 0.2205
919.00 0.2203
919.10 0.2202
919.20 0.22
919.30 0.2198
919.40 0.2196
919.50 0.2194
919.60 0.2192
919.70 0.2191
919.80 0.2189
919.90 0.2187
920.00 0.2185
920.10 0.2183
920.20 0.2182
920.30 0.218
920.40 0.2178
920.50 0.2176
920.60 0.2174
920.70 0.2173
920.80 0.2171
920.90 0.2169
921.00 0.2167
921.10 0.2165
921.20 0.2164
921.30 0.2162
921.40 0.216
921.50 0.2158
921.60 0.2156
921.70 0.2155
921.80 0.2153
921.90 0.2151
922.00 0.2149
922.10 0.2147
922.20 0.2146
922.30 0.2144
922.40 0.2142
922.50 0.214
922.60 0.2138
922.70 0.2136
922.80 0.2134
922.90 0.2133
923.00 0.2131
923.10 0.2129
923.20 0.2127
923.30 0.2125
923.40 0.2123
923.50 0.2122
923.60 0.212
923.70 0.2118
923.80 0.2116
923.90 0.2114
924.00 0.2112
924.10 0.211
924.20 0.2109
924.30 0.2107
924.40 0.2105
924.50 0.2103
924.60 0.2101
924.70 0.2099
924.80 0.2098
924.90 0.2096
925.00 0.2094
925.10 0.2092
925.20 0.209
925.30 0.2088
925.40 0.2087
925.50 0.2085
925.60 0.2083
925.70 0.2081
925.80 0.2079
925.90 0.2077
926.00 0.2076
926.10 0.2074
926.20 0.2072
926.30 0.207
926.40 0.2068
926.50 0.2067
926.60 0.2065
926.70 0.2063
926.80 0.2061
926.90 0.2059
927.00 0.2057
927.10 0.2056
927.20 0.2054
927.30 0.2052
927.40 0.205
927.50 0.2048
927.60 0.2046
927.70 0.2044
927.80 0.2042
927.90 0.204
928.00 0.2039
928.10 0.2037
928.20 0.2035
928.30 0.2033
928.40 0.2031
928.50 0.2029
928.60 0.2027
928.70 0.2025
928.80 0.2024
928.90 0.2022
929.00 0.202
929.10 0.2018
929.20 0.2016
929.30 0.2014
929.40 0.2012
929.50 0.201
929.60 0.2009
929.70 0.2007
929.80 0.2005
929.90 0.2003
930.00 0.2001
930.10 0.1999
930.20 0.1997
930.30 0.1995
930.40 0.1994
930.50 0.1992
930.60 0.199
930.70 0.1988
930.80 0.1986
930.90 0.1984
931.00 0.1982
931.10 0.1981
931.20 0.1979
931.30 0.1977
931.40 0.1975
931.50 0.1973
931.60 0.1971
931.70 0.1969
931.80 0.1968
931.90 0.1966
932.00 0.1964
932.10 0.1962
932.20 0.196
932.30 0.1958
932.40 0.1956
932.50 0.1955
932.60 0.1953
932.70 0.1951
932.80 0.1949
932.90 0.1947
933.00 0.1945
933.10 0.1943
933.20 0.1941
933.30 0.194
933.40 0.1938
933.50 0.1936
933.60 0.1934
933.70 0.1932
933.80 0.193
933.90 0.1928
934.00 0.1927
934.10 0.1925
934.20 0.1923
934.30 0.1921
934.40 0.1919
934.50 0.1917
934.60 0.1915
934.70 0.1914
934.80 0.1912
934.90 0.191
935.00 0.1908
935.10 0.1906
935.20 0.1904
935.30 0.1902
935.40 0.19
935.50 0.1899
935.60 0.1897
935.70 0.1895
935.80 0.1893
935.90 0.1891
936.00 0.1889
936.10 0.1887
936.20 0.1886
936.30 0.1884
936.40 0.1882
936.50 0.188
936.60 0.1878
936.70 0.1876
936.80 0.1874
936.90 0.1873
937.00 0.1871
937.10 0.1869
937.20 0.1867
937.30 0.1865
937.40 0.1863
937.50 0.1861
937.60 0.186
937.70 0.1858
937.80 0.1856
937.90 0.1854
938.00 0.1852
938.10 0.185
938.20 0.1848
938.30 0.1847
938.40 0.1845
938.50 0.1843
938.60 0.1841
938.70 0.1839
938.80 0.1837
938.90 0.1835
939.00 0.1833
939.10 0.1832
939.20 0.183
939.30 0.1828
939.40 0.1826
939.50 0.1824
939.60 0.1822
939.70 0.182
939.80 0.1818
939.90 0.1817
940.00 0.1815
940.10 0.1813
940.20 0.1811
940.30 0.1809
940.40 0.1807
940.50 0.1805
940.60 0.1804
940.70 0.1802
940.80 0.18
940.90 0.1798
941.00 0.1796
941.10 0.1794
941.20 0.1793
941.30 0.1791
941.40 0.1789
941.50 0.1787
941.60 0.1785
941.70 0.1783
941.80 0.1781
941.90 0.178
942.00 0.1778
942.10 0.1776
942.20 0.1774
942.30 0.1772
942.40 0.177
942.50 0.1769
942.60 0.1767
942.70 0.1765
942.80 0.1763
942.90 0.1761
943.00 0.1759
943.10 0.1758
943.20 0.1756
943.30 0.1754
943.40 0.1752
943.50 0.175
943.60 0.1748
943.70 0.1747
943.80 0.1745
943.90 0.1743
944.00 0.1741
944.10 0.1739
944.20 0.1738
944.30 0.1736
944.40 0.1734
944.50 0.1732
944.60 0.173
944.70 0.1728
944.80 0.1727
944.90 0.1725
945.00 0.1723
945.10 0.1721
945.20 0.1719
945.30 0.1717
945.40 0.1716
945.50 0.1714
945.60 0.1712
945.70 0.171
945.80 0.1708
945.90 0.1707
946.00 0.1705
946.10 0.1703
946.20 0.1701
946.30 0.1699
946.40 0.1697
946.50 0.1696
946.60 0.1694
946.70 0.1692
946.80 0.169
946.90 0.1688
947.00 0.1687
947.10 0.1685
947.20 0.1683
947.30 0.1681
947.40 0.1679
947.50 0.1678
947.60 0.1676
947.70 0.1674
947.80 0.1672
947.90 0.167
948.00 0.1668
948.10 0.1667
948.20 0.1665
948.30 0.1663
948.40 0.1661
948.50 0.1659
948.60 0.1658
948.70 0.1656
948.80 0.1654
948.90 0.1652
949.00 0.165
949.10 0.1649
949.20 0.1647
949.30 0.1645
949.40 0.1643
949.50 0.1641
949.60 0.164
949.70 0.1638
949.80 0.1636
949.90 0.1634
950.00 0.1632
950.10 0.1631
950.20 0.1629
950.30 0.1627
950.40 0.1625
950.50 0.1624
950.60 0.1622
950.70 0.162
950.80 0.1618
950.90 0.1616
951.00 0.1615
951.10 0.1613
951.20 0.1611
951.30 0.1609
951.40 0.1608
951.50 0.1606
951.60 0.1604
951.70 0.1602
951.80 0.1601
951.90 0.1599
952.00 0.1597
952.10 0.1595
952.20 0.1594
952.30 0.1592
952.40 0.159
952.50 0.1588
952.60 0.1587
952.70 0.1585
952.80 0.1583
952.90 0.1581
953.00 0.158
953.10 0.1578
953.20 0.1576
953.30 0.1574
953.40 0.1573
953.50 0.1571
953.60 0.1569
953.70 0.1567
953.80 0.1566
953.90 0.1564
954.00 0.1562
954.10 0.156
954.20 0.1559
954.30 0.1557
954.40 0.1555
954.50 0.1553
954.60 0.1552
954.70 0.155
954.80 0.1548
954.90 0.1546
955.00 0.1545
955.10 0.1543
955.20 0.1541
955.30 0.154
955.40 0.1538
955.50 0.1536
955.60 0.1534
955.70 0.1533
955.80 0.1531
955.90 0.1529
956.00 0.1527
956.10 0.1526
956.20 0.1524
956.30 0.1522
956.40 0.152
956.50 0.1519
956.60 0.1517
956.70 0.1515
956.80 0.1513
956.90 0.1511
957.00 0.151
957.10 0.1508
957.20 0.1506
957.30 0.1505
957.40 0.1503
957.50 0.1501
957.60 0.15
957.70 0.1498
957.80 0.1496
957.90 0.1494
958.00 0.1493
958.10 0.1491
958.20 0.1489
958.30 0.1488
958.40 0.1486
958.50 0.1484
958.60 0.1483
958.70 0.1481
958.80 0.1479
958.90 0.1478
959.00 0.1476
959.10 0.1474
959.20 0.1473
959.30 0.1471
959.40 0.1469
959.50 0.1467
959.60 0.1466
959.70 0.1464
959.80 0.1462
959.90 0.1461
960.00 0.1459
960.10 0.1457
960.20 0.1456
960.30 0.1454
960.40 0.1453
960.50 0.1451
960.60 0.1449
960.70 0.1448
960.80 0.1446
960.90 0.1444
961.00 0.1443
961.10 0.1441
961.20 0.1439
961.30 0.1438
961.40 0.1436
961.50 0.1434
961.60 0.1433
961.70 0.1431
961.80 0.1429
961.90 0.1428
962.00 0.1426
962.10 0.1424
962.20 0.1423
962.30 0.1421
962.40 0.142
962.50 0.1418
962.60 0.1416
962.70 0.1415
962.80 0.1413
962.90 0.1411
963.00 0.141
963.10 0.1408
963.20 0.1406
963.30 0.1405
963.40 0.1403
963.50 0.1402
963.60 0.14
963.70 0.1398
963.80 0.1397
963.90 0.1395
964.00 0.1394
964.10 0.1392
964.20 0.139
964.30 0.1389
964.40 0.1387
964.50 0.1385
964.60 0.1384
964.70 0.1382
964.80 0.1381
964.90 0.1379
965.00 0.1377
965.10 0.1376
965.20 0.1374
965.30 0.1372
965.40 0.1371
965.50 0.1369
965.60 0.1368
965.70 0.1366
965.80 0.1364
965.90 0.1363
966.00 0.1361
966.10 0.1359
966.20 0.1358
966.30 0.1356
966.40 0.1355
966.50 0.1353
966.60 0.1351
966.70 0.135
966.80 0.1348
966.90 0.1347
967.00 0.1345
967.10 0.1344
967.20 0.1342
967.30 0.134
967.40 0.1339
967.50 0.1337
967.60 0.1336
967.70 0.1334
967.80 0.1333
967.90 0.1331
968.00 0.133
968.10 0.1328
968.20 0.1327
968.30 0.1325
968.40 0.1323
968.50 0.1322
968.60 0.132
968.70 0.1319
968.80 0.1317
968.90 0.1316
969.00 0.1314
969.10 0.1313
969.20 0.1311
969.30 0.131
969.40 0.1308
969.50 0.1307
969.60 0.1305
969.70 0.1304
969.80 0.1302
969.90 0.1301
970.00 0.1299
970.10 0.1297
970.20 0.1296
970.30 0.1294
970.40 0.1293
970.50 0.1291
970.60 0.129
970.70 0.1288
970.80 0.1287
970.90 0.1286
971.00 0.1284
971.10 0.1283
971.20 0.1281
971.30 0.128
971.40 0.1278
971.50 0.1277
971.60 0.1275
971.70 0.1274
971.80 0.1272
971.90 0.1271
972.00 0.1269
972.10 0.1268
972.20 0.1266
972.30 0.1265
972.40 0.1263
972.50 0.1262
972.60 0.126
972.70 0.1259
972.80 0.1257
972.90 0.1256
973.00 0.1255
973.10 0.1253
973.20 0.1252
973.30 0.125
973.40 0.1249
973.50 0.1247
973.60 0.1246
973.70 0.1244
973.80 0.1243
973.90 0.1241
974.00 0.124
974.10 0.1239
974.20 0.1237
974.30 0.1236
974.40 0.1234
974.50 0.1233
974.60 0.1231
974.70 0.123
974.80 0.1229
974.90 0.1227
975.00 0.1226
975.10 0.1224
975.20 0.1223
975.30 0.1221
975.40 0.122
975.50 0.1219
975.60 0.1217
975.70 0.1216
975.80 0.1214
975.90 0.1213
976.00 0.1211
976.10 0.121
976.20 0.1209
976.30 0.1207
976.40 0.1206
976.50 0.1204
976.60 0.1203
976.70 0.1201
976.80 0.12
976.90 0.1199
977.00 0.1197
977.10 0.1196
977.20 0.1194
977.30 0.1193
977.40 0.1192
977.50 0.119
977.60 0.1189
977.70 0.1188
977.80 0.1186
977.90 0.1185
978.00 0.1184
978.10 0.1182
978.20 0.1181
978.30 0.118
978.40 0.1178
978.50 0.1177
978.60 0.1176
978.70 0.1174
978.80 0.1173
978.90 0.1172
979.00 0.117
979.10 0.1169
979.20 0.1168
979.30 0.1166
979.40 0.1165
979.50 0.1163
979.60 0.1162
979.70 0.1161
979.80 0.1159
979.90 0.1158
980.00 0.1157
980.10 0.1155
980.20 0.1154
980.30 0.1153
980.40 0.1151
980.50 0.115
980.60 0.1149
980.70 0.1147
980.80 0.1146
980.90 0.1145
981.00 0.1143
981.10 0.1142
981.20 0.1141
981.30 0.1139
981.40 0.1138
981.50 0.1137
981.60 0.1135
981.70 0.1134
981.80 0.1133
981.90 0.1131
982.00 0.113
982.10 0.1129
982.20 0.1128
982.30 0.1126
982.40 0.1125
982.50 0.1124
982.60 0.1122
982.70 0.1121
982.80 0.112
982.90 0.1119
983.00 0.1117
983.10 0.1116
983.20 0.1115
983.30 0.1113
983.40 0.1112
983.50 0.1111
983.60 0.111
983.70 0.1108
983.80 0.1107
983.90 0.1106
984.00 0.1105
984.10 0.1103
984.20 0.1102
984.30 0.1101
984.40 0.1099
984.50 0.1098
984.60 0.1097
984.70 0.1096
984.80 0.1095
984.90 0.1093
985.00 0.1092
985.10 0.1091
985.20 0.109
985.30 0.1089
985.40 0.1087
985.50 0.1086
985.60 0.1085
985.70 0.1084
985.80 0.1083
985.90 0.1081
986.00 0.108
986.10 0.1079
986.20 0.1078
986.30 0.1077
986.40 0.1076
986.50 0.1074
986.60 0.1073
986.70 0.1072
986.80 0.1071
986.90 0.107
987.00 0.1068
987.10 0.1067
987.20 0.1066
987.30 0.1065
987.40 0.1064
987.50 0.1062
987.60 0.1061
987.70 0.106
987.80 0.1059
987.90 0.1057
988.00 0.1056
988.10 0.1055
988.20 0.1054
988.30 0.1052
988.40 0.1051
988.50 0.105
988.60 0.1049
988.70 0.1048
988.80 0.1046
988.90 0.1045
989.00 0.1044
989.10 0.1043
989.20 0.1041
989.30 0.104
989.40 0.1039
989.50 0.1038
989.60 0.1037
989.70 0.1035
989.80 0.1034
989.90 0.1033
990.00 0.1032
990.10 0.103
990.20 0.1029
990.30 0.1028
990.40 0.1027
990.50 0.1026
990.60 0.1024
990.70 0.1023
990.80 0.1022
990.90 0.1021
991.00 0.102
991.10 0.1018
991.20 0.1017
991.30 0.1016
991.40 0.1015
991.50 0.1013
991.60 0.1012
991.70 0.1011
991.80 0.101
991.90 0.1009
992.00 0.1007
992.10 0.1006
992.20 0.1005
992.30 0.1004
992.40 0.1003
992.50 0.1001
992.60 0.1
992.70 0.09989
992.80 0.09977
992.90 0.09965
993.00 0.09953
993.10 0.09941
993.20 0.09929
993.30 0.09917
993.40 0.09905
993.50 0.09893
993.60 0.09881
993.70 0.09869
993.80 0.09857
993.90 0.09845
994.00 0.09833
994.10 0.09821
994.20 0.09809
994.30 0.09797
994.40 0.09785
994.50 0.09773
994.60 0.09761
994.70 0.09747
994.80 0.09732
994.90 0.09717
995.00 0.09703
995.10 0.09688
995.20 0.09673
995.30 0.09658
995.40 0.09644
995.50 0.09629
995.60 0.09614
995.70 0.09602
995.80 0.0959
995.90 0.09579
996.00 0.09567
996.10 0.09556
996.20 0.09544
996.30 0.09533
996.40 0.09521
996.50 0.09509
996.60 0.09498
996.70 0.09486
996.80 0.09475
996.90 0.09463
997.00 0.09452
997.10 0.09441
997.20 0.09429
997.30 0.09418
997.40 0.09407
997.50 0.09395
997.60 0.09384
997.70 0.09373
997.80 0.09362
997.90 0.09351
998.00 0.0934
998.10 0.09329
998.20 0.09318
998.30 0.09307
998.40 0.09296
998.50 0.09285
998.60 0.09274
998.70 0.09263
998.80 0.09252
998.90 0.09241
999.00 0.0923
999.10 0.09219
999.20 0.09208
999.30 0.09197
999.40 0.09186
999.50 0.09175
999.60 0.09164
999.70 0.09153
999.80 0.09143
999.90 0.09132
1000.00 0.09122
1000.10 0.09111
1000.20 0.09101
1000.30 0.0909
1000.40 0.0908
1000.50 0.09069
1000.60 0.09059
1000.70 0.09048
1000.80 0.09038
1000.90 0.09027
1001.00 0.09017
1001.10 0.09006
1001.20 0.08996
1001.30 0.08986
1001.40 0.08975
1001.50 0.08965
1001.60 0.08954
1001.70 0.08944
1001.80 0.08934
1001.90 0.08924
1002.00 0.08914
1002.10 0.08904
1002.20 0.08894
1002.30 0.08884
1002.40 0.08874
1002.50 0.08864
1002.60 0.08853
1002.70 0.08843
1002.80 0.08833
1002.90 0.08823
1003.00 0.08813
1003.10 0.08803
1003.20 0.08793
1003.30 0.08784
1003.40 0.08774
1003.50 0.08764
1003.60 0.08754
1003.70 0.08744
1003.80 0.08735
1003.90 0.08725
1004.00 0.08715
1004.10 0.08706
1004.20 0.08696
1004.30 0.08686
1004.40 0.08677
1004.50 0.08667
1004.60 0.08657
1004.70 0.08648
1004.80 0.08638
1004.90 0.08626
1005.00 0.08613
1005.10 0.08602
1005.20 0.08593
1005.30 0.08584
1005.40 0.08574
1005.50 0.08565
1005.60 0.08556
1005.70 0.08546
1005.80 0.08537
1005.90 0.08528
1006.00 0.08519
1006.10 0.08509
1006.20 0.085
1006.30 0.08491
1006.40 0.08482
1006.50 0.08473
1006.60 0.08464
1006.70 0.08455
1006.80 0.08446
1006.90 0.08437
1007.00 0.08428
1007.10 0.0842
1007.20 0.08411
1007.30 0.08402
1007.40 0.08393
1007.50 0.08384
1007.60 0.08376
1007.70 0.08367
1007.80 0.08358
1007.90 0.0835
1008.00 0.08341
1008.10 0.08333
1008.20 0.08324
1008.30 0.08316
1008.40 0.08307
1008.50 0.08299
1008.60 0.0829
1008.70 0.08282
1008.80 0.08273
1008.90 0.08265
1009.00 0.08256
1009.10 0.08248
1009.20 0.08239
1009.30 0.08231
1009.40 0.08222
1009.50 0.08214
1009.60 0.08205
1009.70 0.08197
1009.80 0.08189
1009.90 0.08181
1010.00 0.08173
1010.10 0.08165
1010.20 0.08157
1010.30 0.08149
1010.40 0.08141
1010.50 0.08133
1010.60 0.08125
1010.70 0.08117
1010.80 0.08109
1010.90 0.08101
1011.00 0.08093
1011.10 0.08085
1011.20 0.08078
1011.30 0.0807
1011.40 0.08062
1011.50 0.08054
1011.60 0.08046
1011.70 0.08038
1011.80 0.0803
1011.90 0.08022
1012.00 0.08015
1012.10 0.08007
1012.20 0.08
1012.30 0.07992
1012.40 0.07985
1012.50 0.07977
1012.60 0.0797
1012.70 0.07962
1012.80 0.07955
1012.90 0.07948
1013.00 0.0794
1013.10 0.07933
1013.20 0.07925
1013.30 0.07918
1013.40 0.0791
1013.50 0.07903
1013.60 0.07895
1013.70 0.07888
1013.80 0.07881
1013.90 0.07874
1014.00 0.07867
1014.10 0.0786
1014.20 0.07852
1014.30 0.07845
1014.40 0.07838
1014.50 0.07831
1014.60 0.07824
1014.70 0.07817
1014.80 0.07811
1014.90 0.07805
1015.00 0.07799
1015.10 0.07793
1015.20 0.07787
1015.30 0.07781
1015.40 0.07774
1015.50 0.07768
1015.60 0.07762
1015.70 0.07756
1015.80 0.0775
1015.90 0.07744
1016.00 0.07738
1016.10 0.07732
1016.20 0.07725
1016.30 0.07719
1016.40 0.07713
1016.50 0.07707
1016.60 0.07701
1016.70 0.07694
1016.80 0.07688
1016.90 0.07681
1017.00 0.07674
1017.10 0.07668
1017.20 0.07661
1017.30 0.07654
1017.40 0.07648
1017.50 0.07641
1017.60 0.07634
1017.70 0.07628
1017.80 0.07621
1017.90 0.07615
1018.00 0.07608
1018.10 0.07601
1018.20 0.07595
1018.30 0.07588
1018.40 0.07582
1018.50 0.07575
1018.60 0.07568
1018.70 0.07562
1018.80 0.07555
1018.90 0.07549
1019.00 0.07543
1019.10 0.07536
1019.20 0.0753
1019.30 0.07523
1019.40 0.07517
1019.50 0.0751
1019.60 0.07504
1019.70 0.07498
1019.80 0.07491
1019.90 0.07485
1020.00 0.07478
1020.10 0.07472
1020.20 0.07466
1020.30 0.07459
1020.40 0.07453
1020.50 0.07446
1020.60 0.0744
1020.70 0.07434
1020.80 0.07427
1020.90 0.07421
1021.00 0.07415
1021.10 0.07409
1021.20 0.07402
1021.30 0.07396
1021.40 0.0739
1021.50 0.07384
1021.60 0.07377
1021.70 0.07371
1021.80 0.07365
1021.90 0.07359
1022.00 0.07352
1022.10 0.07346
1022.20 0.0734
1022.30 0.07334
1022.40 0.07328
1022.50 0.07322
1022.60 0.07316
1022.70 0.0731
1022.80 0.07304
1022.90 0.07298
1023.00 0.07292
1023.10 0.07286
1023.20 0.0728
1023.30 0.07274
1023.40 0.07268
1023.50 0.07262
1023.60 0.07256
1023.70 0.0725
1023.80 0.07244
1023.90 0.07238
1024.00 0.07232
1024.10 0.07226
1024.20 0.0722
1024.30 0.07214
1024.40 0.07208
1024.50 0.07202
1024.60 0.07196
1024.70 0.0719
1024.80 0.07184
1024.90 0.07178
1025.00 0.07172
1025.10 0.07166
1025.20 0.0716
1025.30 0.07154
1025.40 0.07148
1025.50 0.07142
1025.60 0.07137
1025.70 0.07131
1025.80 0.07125
1025.90 0.07119
1026.00 0.07113
1026.10 0.07107
1026.20 0.07101
1026.30 0.07095
1026.40 0.0709
1026.50 0.07084
1026.60 0.07078
1026.70 0.07072
1026.80 0.07066
1026.90 0.0706
1027.00 0.07054
1027.10 0.07049
1027.20 0.07043
1027.30 0.07038
1027.40 0.07033
1027.50 0.07027
1027.60 0.07022
1027.70 0.07016
1027.80 0.07011
1027.90 0.07005
1028.00 0.07
1028.10 0.06995
1028.20 0.06989
1028.30 0.06984
1028.40 0.06978
1028.50 0.06973
1028.60 0.06968
1028.70 0.06962
1028.80 0.06957
1028.90 0.06951
1029.00 0.06946
1029.10 0.06941
1029.20 0.06935
1029.30 0.0693
1029.40 0.06924
1029.50 0.06919
1029.60 0.06914
1029.70 0.06908
1029.80 0.06903
1029.90 0.06897
1030.00 0.06892
1030.10 0.06887
1030.20 0.06881
1030.30 0.06876
1030.40 0.06871
1030.50 0.06865
1030.60 0.0686
1030.70 0.06854
1030.80 0.06849
1030.90 0.06844
1031.00 0.06838
1031.10 0.06833
1031.20 0.06828
1031.30 0.06822
1031.40 0.06817
1031.50 0.06812
1031.60 0.06806
1031.70 0.06801
1031.80 0.06796
1031.90 0.0679
1032.00 0.06785
1032.10 0.0678
1032.20 0.06775
1032.30 0.0677
1032.40 0.06765
1032.50 0.0676
1032.60 0.06755
1032.70 0.0675
1032.80 0.06745
1032.90 0.0674
1033.00 0.06735
1033.10 0.0673
1033.20 0.06725
1033.30 0.0672
1033.40 0.06715
1033.50 0.06711
1033.60 0.06706
1033.70 0.06701
1033.80 0.06696
1033.90 0.06691
1034.00 0.06686
1034.10 0.06681
1034.20 0.06676
1034.30 0.06671
1034.40 0.06666
1034.50 0.06661
1034.60 0.06656
1034.70 0.06651
1034.80 0.06646
1034.90 0.06642
1035.00 0.06637
1035.10 0.06632
1035.20 0.06627
1035.30 0.06622
1035.40 0.06617
1035.50 0.06612
1035.60 0.06607
1035.70 0.06602
1035.80 0.06597
1035.90 0.06592
1036.00 0.06588
1036.10 0.06583
1036.20 0.06578
1036.30 0.06573
1036.40 0.06568
1036.50 0.06563
1036.60 0.06558
1036.70 0.06553
1036.80 0.06548
1036.90 0.06544
1037.00 0.06539
1037.10 0.06534
1037.20 0.0653
1037.30 0.06526
1037.40 0.06521
1037.50 0.06517
1037.60 0.06512
1037.70 0.06508
1037.80 0.06504
1037.90 0.06499
1038.00 0.06495
1038.10 0.06491
1038.20 0.06486
1038.30 0.06482
1038.40 0.06477
1038.50 0.06473
1038.60 0.06469
1038.70 0.06464
1038.80 0.0646
1038.90 0.06456
1039.00 0.06451
1039.10 0.06447
1039.20 0.06443
1039.30 0.06438
1039.40 0.06434
1039.50 0.0643
1039.60 0.06425
1039.70 0.06421
1039.80 0.06416
1039.90 0.06412
1040.00 0.06408
1040.10 0.06403
1040.20 0.06399
1040.30 0.06395
1040.40 0.0639
1040.50 0.06386
1040.60 0.06382
1040.70 0.06377
1040.80 0.06373
1040.90 0.06369
1041.00 0.06365
1041.10 0.0636
1041.20 0.06356
1041.30 0.06352
1041.40 0.06347
1041.50 0.06343
1041.60 0.06339
1041.70 0.06334
1041.80 0.0633
1041.90 0.06326
1042.00 0.06321
1042.10 0.06318
1042.20 0.06314
1042.30 0.0631
1042.40 0.06306
1042.50 0.06302
1042.60 0.06298
1042.70 0.06294
1042.80 0.06291
1042.90 0.06287
1043.00 0.06283
1043.10 0.06279
1043.20 0.06275
1043.30 0.06271
1043.40 0.06268
1043.50 0.06264
1043.60 0.0626
1043.70 0.06256
1043.80 0.06252
1043.90 0.06248
1044.00 0.06245
1044.10 0.06241
1044.20 0.06237
1044.30 0.06233
1044.40 0.06229
1044.50 0.06225
1044.60 0.06222
1044.70 0.06218
1044.80 0.06214
1044.90 0.0621
1045.00 0.06206
1045.10 0.06202
1045.20 0.06199
1045.30 0.06195
1045.40 0.06191
1045.50 0.06187
1045.60 0.06183
1045.70 0.0618
1045.80 0.06176
1045.90 0.06172
1046.00 0.06168
1046.10 0.06164
1046.20 0.06161
1046.30 0.06157
1046.40 0.06153
1046.50 0.06149
1046.60 0.06145
1046.70 0.06142
1046.80 0.06138
1046.90 0.06134
1047.00 0.0613
1047.10 0.06127
1047.20 0.06124
1047.30 0.0612
1047.40 0.06117
1047.50 0.06113
1047.60 0.0611
1047.70 0.06107
1047.80 0.06103
1047.90 0.061
1048.00 0.06097
1048.10 0.06093
1048.20 0.0609
1048.30 0.06087
1048.40 0.06083
1048.50 0.0608
1048.60 0.06077
1048.70 0.06073
1048.80 0.0607
1048.90 0.06067
1049.00 0.06063
1049.10 0.0606
1049.20 0.06057
1049.30 0.06053
1049.40 0.0605
1049.50 0.06047
1049.60 0.06043
1049.70 0.0604
1049.80 0.06037
1049.90 0.06033
1050.00 0.0603
1050.10 0.06027
1050.20 0.06023
1050.30 0.0602
1050.40 0.06017
1050.50 0.06014
1050.60 0.0601
1050.70 0.06007
1050.80 0.06004
1050.90 0.06
1051.00 0.05997
1051.10 0.05994
1051.20 0.0599
1051.30 0.05987
1051.40 0.05984
1051.50 0.0598
1051.60 0.05977
1051.70 0.05974
1051.80 0.0597
1051.90 0.05967
1052.00 0.05964
1052.10 0.05961
1052.20 0.05958
1052.30 0.05955
1052.40 0.05952
1052.50 0.05949
1052.60 0.05946
1052.70 0.05943
1052.80 0.05941
1052.90 0.05938
1053.00 0.05935
1053.10 0.05932
1053.20 0.05929
1053.30 0.05926
1053.40 0.05923
1053.50 0.0592
1053.60 0.05917
1053.70 0.05914
1053.80 0.05911
1053.90 0.05908
1054.00 0.05906
1054.10 0.05903
1054.20 0.059
1054.30 0.05897
1054.40 0.05894
1054.50 0.05891
1054.60 0.05888
1054.70 0.05885
1054.80 0.05882
1054.90 0.05879
1055.00 0.05877
1055.10 0.05874
1055.20 0.05871
1055.30 0.05868
1055.40 0.05865
1055.50 0.05862
1055.60 0.05859
1055.70 0.05856
1055.80 0.05853
1055.90 0.0585
1056.00 0.05848
1056.10 0.05845
1056.20 0.05842
1056.30 0.05839
1056.40 0.05836
1056.50 0.05833
1056.60 0.0583
1056.70 0.05827
1056.80 0.05825
1056.90 0.05822
1057.00 0.05819
1057.10 0.05816
1057.20 0.05814
1057.30 0.05811
1057.40 0.05809
1057.50 0.05806
1057.60 0.05804
1057.70 0.05801
1057.80 0.05799
1057.90 0.05796
1058.00 0.05794
1058.10 0.05791
1058.20 0.05789
1058.30 0.05786
1058.40 0.05784
1058.50 0.05781
1058.60 0.05779
1058.70 0.05776
1058.80 0.05774
1058.90 0.05771
1059.00 0.05769
1059.10 0.05766
1059.20 0.05764
1059.30 0.05761
1059.40 0.05759
1059.50 0.05756
1059.60 0.05754
1059.70 0.05751
1059.80 0.05749
1059.90 0.05746
1060.00 0.05744
1060.10 0.05741
1060.20 0.05739
1060.30 0.05736
1060.40 0.05734
1060.50 0.05731
1060.60 0.05729
1060.70 0.05726
1060.80 0.05724
1060.90 0.05721
1061.00 0.05719
1061.10 0.05716
1061.20 0.05714
1061.30 0.05711
1061.40 0.05709
1061.50 0.05706
1061.60 0.05704
1061.70 0.05701
1061.80 0.05699
1061.90 0.05697
1062.00 0.05694
1062.10 0.05692
1062.20 0.0569
1062.30 0.05688
1062.40 0.05686
1062.50 0.05683
1062.60 0.05681
1062.70 0.05679
1062.80 0.05677
1062.90 0.05675
1063.00 0.05673
1063.10 0.05671
1063.20 0.05669
1063.30 0.05667
1063.40 0.05664
1063.50 0.05662
1063.60 0.0566
1063.70 0.05658
1063.80 0.05656
1063.90 0.05654
1064.00 0.05652
1064.10 0.0565
1064.20 0.05648
1064.30 0.05645
1064.40 0.05643
1064.50 0.05641
1064.60 0.05639
1064.70 0.05637
1064.80 0.05635
1064.90 0.05633
1065.00 0.05631
1065.10 0.05629
1065.20 0.05626
1065.30 0.05624
1065.40 0.05622
1065.50 0.0562
1065.60 0.05618
1065.70 0.05616
1065.80 0.05614
1065.90 0.05612
1066.00 0.0561
1066.10 0.05608
1066.20 0.05606
1066.30 0.05603
1066.40 0.05601
1066.50 0.05599
1066.60 0.05597
1066.70 0.05595
1066.80 0.05593
1066.90 0.05591
1067.00 0.05589
1067.10 0.05587
1067.20 0.05585
1067.30 0.05583
1067.40 0.05582
1067.50 0.0558
1067.60 0.05578
1067.70 0.05576
1067.80 0.05574
1067.90 0.05573
1068.00 0.05571
1068.10 0.05569
1068.20 0.05567
1068.30 0.05565
1068.40 0.05564
1068.50 0.05562
1068.60 0.0556
1068.70 0.05558
1068.80 0.05556
1068.90 0.05555
1069.00 0.05553
1069.10 0.05551
1069.20 0.05549
1069.30 0.05548
1069.40 0.05546
1069.50 0.05544
1069.60 0.05542
1069.70 0.0554
1069.80 0.05539
1069.90 0.05537
1070.00 0.05535
1070.10 0.05533
1070.20 0.05531
1070.30 0.0553
1070.40 0.05528
1070.50 0.05526
1070.60 0.05524
1070.70 0.05523
1070.80 0.05521
1070.90 0.05519
1071.00 0.05517
1071.10 0.05515
1071.20 0.05514
1071.30 0.05512
1071.40 0.0551
1071.50 0.05508
1071.60 0.05507
1071.70 0.05505
1071.80 0.05503
1071.90 0.05501
1072.00 0.05499
1072.10 0.05498
1072.20 0.05497
1072.30 0.05495
1072.40 0.05494
1072.50 0.05492
1072.60 0.05491
1072.70 0.05489
1072.80 0.05488
1072.90 0.05486
1073.00 0.05485
1073.10 0.05483
1073.20 0.05482
1073.30 0.0548
1073.40 0.05479
1073.50 0.05478
1073.60 0.05476
1073.70 0.05475
1073.80 0.05474
1073.90 0.05473
1074.00 0.05471
1074.10 0.0547
1074.20 0.05469
1074.30 0.05468
1074.40 0.05466
1074.50 0.05465
1074.60 0.05464
1074.70 0.05463
1074.80 0.05461
1074.90 0.0546
1075.00 0.05459
1075.10 0.05458
1075.20 0.05456
1075.30 0.05455
1075.40 0.05454
1075.50 0.05453
1075.60 0.05451
1075.70 0.0545
1075.80 0.05449
1075.90 0.05448
1076.00 0.05446
1076.10 0.05445
1076.20 0.05444
1076.30 0.05443
1076.40 0.05441
1076.50 0.0544
1076.60 0.05439
1076.70 0.05438
1076.80 0.05436
1076.90 0.05435
1077.00 0.05434
1077.10 0.05433
1077.20 0.05432
1077.30 0.05431
1077.40 0.0543
1077.50 0.05429
1077.60 0.05428
1077.70 0.05427
1077.80 0.05426
1077.90 0.05425
1078.00 0.05424
1078.10 0.05423
1078.20 0.05422
1078.30 0.05421
1078.40 0.0542
1078.50 0.05419
1078.60 0.05418
1078.70 0.05417
1078.80 0.05416
1078.90 0.05415
1079.00 0.05414
1079.10 0.05413
1079.20 0.05412
1079.30 0.05411
1079.40 0.0541
1079.50 0.05409
1079.60 0.05409
1079.70 0.05408
1079.80 0.05407
1079.90 0.05406
1080.00 0.05406
1080.10 0.05405
1080.20 0.05404
1080.30 0.05404
1080.40 0.05403
1080.50 0.05402
1080.60 0.05401
1080.70 0.05401
1080.80 0.054
1080.90 0.05399
1081.00 0.05399
1081.10 0.05398
1081.20 0.05397
1081.30 0.05397
1081.40 0.05396
1081.50 0.05395
1081.60 0.05394
1081.70 0.05394
1081.80 0.05393
1081.90 0.05392
1082.00 0.05391
1082.10 0.05391
1082.20 0.0539
1082.30 0.0539
1082.40 0.05389
1082.50 0.05388
1082.60 0.05388
1082.70 0.05387
1082.80 0.05386
1082.90 0.05386
1083.00 0.05385
1083.10 0.05384
1083.20 0.05384
1083.30 0.05383
1083.40 0.05383
1083.50 0.05382
1083.60 0.05381
1083.70 0.05381
1083.80 0.0538
1083.90 0.0538
1084.00 0.05379
1084.10 0.05379
1084.20 0.05378
1084.30 0.05377
1084.40 0.05377
1084.50 0.05376
1084.60 0.05376
1084.70 0.05376
1084.80 0.05375
1084.90 0.05375
1085.00 0.05374
1085.10 0.05374
1085.20 0.05373
1085.30 0.05373
1085.40 0.05372
1085.50 0.05372
1085.60 0.05371
1085.70 0.05371
1085.80 0.05371
1085.90 0.0537
1086.00 0.0537
1086.10 0.05369
1086.20 0.05369
1086.30 0.05368
1086.40 0.05368
1086.50 0.05367
1086.60 0.05367
1086.70 0.05367
1086.80 0.05366
1086.90 0.05366
1087.00 0.05366
1087.10 0.05365
1087.20 0.05365
1087.30 0.05365
1087.40 0.05364
1087.50 0.05364
1087.60 0.05364
1087.70 0.05364
1087.80 0.05363
1087.90 0.05363
1088.00 0.05363
1088.10 0.05362
1088.20 0.05362
1088.30 0.05362
1088.40 0.05361
1088.50 0.05361
1088.60 0.05361
1088.70 0.05361
1088.80 0.05361
1088.90 0.05361
1089.00 0.0536
1089.10 0.0536
1089.20 0.0536
1089.30 0.0536
1089.40 0.0536
1089.50 0.05359
1089.60 0.05359
1089.70 0.05359
1089.80 0.05359
1089.90 0.05359
1090.00 0.05359
1090.10 0.05358
1090.20 0.05358
1090.30 0.05358
1090.40 0.05358
1090.50 0.05358
1090.60 0.05358
1090.70 0.05358
1090.80 0.05358
1090.90 0.05357
1091.00 0.05357
1091.10 0.05357
1091.20 0.05357
1091.30 0.05357
1091.40 0.05357
1091.50 0.05357
1091.60 0.05357
1091.70 0.05357
1091.80 0.05357
1091.90 0.05357
1092.00 0.05357
1092.10 0.05357
1092.20 0.05357
1092.30 0.05357
1092.40 0.05357
1092.50 0.05357
1092.60 0.05357
1092.70 0.05357
1092.80 0.05359
1092.90 0.0536
1093.00 0.05361
1093.10 0.05362
1093.20 0.05362
1093.30 0.05362
1093.40 0.05362
1093.50 0.05362
1093.60 0.05362
1093.70 0.05363
1093.80 0.05363
1093.90 0.05363
1094.00 0.05363
1094.10 0.05363
1094.20 0.05363
1094.30 0.05363
1094.40 0.05363
1094.50 0.05363
1094.60 0.05364
1094.70 0.05364
1094.80 0.05364
1094.90 0.05364
1095.00 0.05364
1095.10 0.05364
1095.20 0.05364
1095.30 0.05365
1095.40 0.05365
1095.50 0.05365
1095.60 0.05365
1095.70 0.05365
1095.80 0.05365
1095.90 0.05366
1096.00 0.05366
1096.10 0.05366
1096.20 0.05366
1096.30 0.05366
1096.40 0.05366
1096.50 0.05367
1096.60 0.05367
1096.70 0.05367
1096.80 0.05367
1096.90 0.05367
1097.00 0.05368
1097.10 0.05368
1097.20 0.05368
1097.30 0.05368
1097.40 0.05369
1097.50 0.05369
1097.60 0.05369
1097.70 0.05369
1097.80 0.0537
1097.90 0.0537
1098.00 0.0537
1098.10 0.0537
1098.20 0.05371
1098.30 0.05371
1098.40 0.05371
1098.50 0.05371
1098.60 0.05372
1098.70 0.05372
1098.80 0.05372
1098.90 0.05373
1099.00 0.05373
1099.10 0.05373
1099.20 0.05374
1099.30 0.05374
1099.40 0.05374
1099.50 0.05374
1099.60 0.05375
1099.70 0.05375
1099.80 0.05375
1099.90 0.05376
1100.00 0.05376
1100.10 0.05376
1100.20 0.05377
1100.30 0.05377
1100.40 0.05377
1100.50 0.05378
1100.60 0.05378
1100.70 0.05378
1100.80 0.05379
1100.90 0.05379
1101.00 0.0538
1101.10 0.0538
1101.20 0.0538
1101.30 0.05381
1101.40 0.05381
1101.50 0.05381
1101.60 0.05382
1101.70 0.05382
1101.80 0.05383
1101.90 0.05383
1102.00 0.05383
1102.10 0.05384
1102.20 0.05384
1102.30 0.05385
1102.40 0.05385
1102.50 0.05385
1102.60 0.05386
1102.70 0.05386
1102.80 0.05387
1102.90 0.05387
1103.00 0.05388
1103.10 0.05388
1103.20 0.05389
1103.30 0.05389
1103.40 0.0539
1103.50 0.0539
1103.60 0.05391
1103.70 0.05391
1103.80 0.05392
1103.90 0.05392
1104.00 0.05393
1104.10 0.05393
1104.20 0.05394
1104.30 0.05394
1104.40 0.05395
1104.50 0.05395
1104.60 0.05396
1104.70 0.05397
1104.80 0.05397
1104.90 0.05398
1105.00 0.05398
1105.10 0.05399
1105.20 0.05399
1105.30 0.054
1105.40 0.054
1105.50 0.05401
1105.60 0.05402
1105.70 0.05402
1105.80 0.05403
1105.90 0.05403
1106.00 0.05404
1106.10 0.05404
1106.20 0.05405
1106.30 0.05406
1106.40 0.05406
1106.50 0.05407
1106.60 0.05407
1106.70 0.05408
1106.80 0.05408
1106.90 0.05409
1107.00 0.05409
1107.10 0.0541
1107.20 0.05411
1107.30 0.05411
1107.40 0.05412
1107.50 0.05412
1107.60 0.05413
1107.70 0.05414
1107.80 0.05414
1107.90 0.05415
1108.00 0.05416
1108.10 0.05416
1108.20 0.05417
1108.30 0.05418
1108.40 0.05418
1108.50 0.05419
1108.60 0.0542
1108.70 0.0542
1108.80 0.05421
1108.90 0.05421
1109.00 0.05422
1109.10 0.05423
1109.20 0.05423
1109.30 0.05424
1109.40 0.05425
1109.50 0.05425
1109.60 0.05426
1109.70 0.05427
1109.80 0.05427
1109.90 0.05428
1110.00 0.05429
1110.10 0.0543
1110.20 0.0543
1110.30 0.05431
1110.40 0.05432
1110.50 0.05432
1110.60 0.05433
1110.70 0.05434
1110.80 0.05435
1110.90 0.05435
1111.00 0.05436
1111.10 0.05437
1111.20 0.05437
1111.30 0.05438
1111.40 0.05439
1111.50 0.0544
1111.60 0.0544
1111.70 0.05441
1111.80 0.05442
1111.90 0.05442
1112.00 0.05443
1112.10 0.05444
1112.20 0.05445
1112.30 0.05446
1112.40 0.05446
1112.50 0.05447
1112.60 0.05448
1112.70 0.05449
1112.80 0.05449
1112.90 0.0545
1113.00 0.05451
1113.10 0.05452
1113.20 0.05452
1113.30 0.05453
1113.40 0.05454
1113.50 0.05455
1113.60 0.05456
1113.70 0.05457
1113.80 0.05457
1113.90 0.05458
1114.00 0.05459
1114.10 0.0546
1114.20 0.05461
1114.30 0.05462
1114.40 0.05463
1114.50 0.05464
1114.60 0.05464
1114.70 0.05465
1114.80 0.05466
1114.90 0.05467
1115.00 0.05468
1115.10 0.05469
1115.20 0.0547
1115.30 0.0547
1115.40 0.05471
1115.50 0.05472
1115.60 0.05473
1115.70 0.05474
1115.80 0.05475
1115.90 0.05476
1116.00 0.05476
1116.10 0.05477
1116.20 0.05478
1116.30 0.05479
1116.40 0.0548
1116.50 0.05481
1116.60 0.05482
1116.70 0.05482
1116.80 0.05483
1116.90 0.05484
1117.00 0.05485
1117.10 0.05486
1117.20 0.05487
1117.30 0.05488
1117.40 0.05489
1117.50 0.0549
1117.60 0.05491
1117.70 0.05492
1117.80 0.05493
1117.90 0.05494
1118.00 0.05495
1118.10 0.05496
1118.20 0.05497
1118.30 0.05498
1118.40 0.05499
1118.50 0.055
1118.60 0.05501
1118.70 0.05502
1118.80 0.05503
1118.90 0.05504
1119.00 0.05505
1119.10 0.05506
1119.20 0.05507
1119.30 0.05508
1119.40 0.05509
1119.50 0.0551
1119.60 0.05511
1119.70 0.05512
1119.80 0.05513
1119.90 0.05514
1120.00 0.05515
1120.10 0.05516
1120.20 0.05517
1120.30 0.05518
1120.40 0.05519
1120.50 0.0552
1120.60 0.05521
1120.70 0.05522
1120.80 0.05523
1120.90 0.05524
1121.00 0.05525
1121.10 0.05526
1121.20 0.05527
1121.30 0.05528
1121.40 0.05529
1121.50 0.0553
1121.60 0.05531
1121.70 0.05532
1121.80 0.05533
1121.90 0.05534
1122.00 0.05535
1122.10 0.05536
1122.20 0.05537
1122.30 0.05538
1122.40 0.05539
1122.50 0.05541
1122.60 0.05542
1122.70 0.05543
1122.80 0.05544
1122.90 0.05545
1123.00 0.05546
1123.10 0.05548
1123.20 0.05549
1123.30 0.0555
1123.40 0.05551
1123.50 0.05552
1123.60 0.05554
1123.70 0.05555
1123.80 0.05556
1123.90 0.05557
1124.00 0.05558
1124.10 0.05559
1124.20 0.05561
1124.30 0.05562
1124.40 0.05563
1124.50 0.05564
1124.60 0.05565
1124.70 0.05566
1124.80 0.05568
1124.90 0.05569
1125.00 0.0557
1125.10 0.05571
1125.20 0.05572
1125.30 0.05573
1125.40 0.05575
1125.50 0.05576
1125.60 0.05577
1125.70 0.05578
1125.80 0.05579
1125.90 0.0558
1126.00 0.05582
1126.10 0.05583
1126.20 0.05584
1126.30 0.05585
1126.40 0.05586
1126.50 0.05587
1126.60 0.05588
1126.70 0.0559
1126.80 0.05591
1126.90 0.05592
1127.00 0.05593
1127.10 0.05595
1127.20 0.05596
1127.30 0.05597
1127.40 0.05599
1127.50 0.056
1127.60 0.05602
1127.70 0.05603
1127.80 0.05605
1127.90 0.05606
1128.00 0.05608
1128.10 0.05609
1128.20 0.0561
1128.30 0.05612
1128.40 0.05613
1128.50 0.05615
1128.60 0.05616
1128.70 0.05618
1128.80 0.05619
1128.90 0.05621
1129.00 0.05622
1129.10 0.05623
1129.20 0.05625
1129.30 0.05626
1129.40 0.05628
1129.50 0.05629
1129.60 0.05631
1129.70 0.05632
1129.80 0.05634
1129.90 0.05635
1130.00 0.05636
1130.10 0.05638
1130.20 0.05639
1130.30 0.05641
1130.40 0.05642
1130.50 0.05644
1130.60 0.05645
1130.70 0.05646
1130.80 0.05648
1130.90 0.05649
1131.00 0.05651
1131.10 0.05652
1131.20 0.05654
1131.30 0.05655
1131.40 0.05656
1131.50 0.05658
1131.60 0.05659
1131.70 0.05661
1131.80 0.05662
1131.90 0.05664
1132.00 0.05665
1132.10 0.05666
1132.20 0.05668
1132.30 0.05669
1132.40 0.0567
1132.50 0.05672
1132.60 0.05673
1132.70 0.05675
1132.80 0.05676
1132.90 0.05677
1133.00 0.05679
1133.10 0.0568
1133.20 0.05682
1133.30 0.05683
1133.40 0.05684
1133.50 0.05686
1133.60 0.05687
1133.70 0.05688
1133.80 0.0569
1133.90 0.05691
1134.00 0.05693
1134.10 0.05694
1134.20 0.05695
1134.30 0.05697
1134.40 0.05698
1134.50 0.05699
1134.60 0.05701
1134.70 0.05702
1134.80 0.05704
1134.90 0.05705
1135.00 0.05706
1135.10 0.05708
1135.20 0.05709
1135.30 0.0571
1135.40 0.05712
1135.50 0.05713
1135.60 0.05714
1135.70 0.05716
1135.80 0.05717
1135.90 0.05719
1136.00 0.0572
1136.10 0.05721
1136.20 0.05723
1136.30 0.05724
1136.40 0.05725
1136.50 0.05727
1136.60 0.05728
1136.70 0.05729
1136.80 0.05731
1136.90 0.05732
1137.00 0.05734
1137.10 0.05735
1137.20 0.05736
1137.30 0.05738
1137.40 0.05739
1137.50 0.05741
1137.60 0.05742
1137.70 0.05743
1137.80 0.05745
1137.90 0.05746
1138.00 0.05748
1138.10 0.05749
1138.20 0.0575
1138.30 0.05752
1138.40 0.05753
1138.50 0.05755
1138.60 0.05756
1138.70 0.05757
1138.80 0.05759
1138.90 0.0576
1139.00 0.05762
1139.10 0.05763
1139.20 0.05764
1139.30 0.05766
1139.40 0.05767
1139.50 0.05768
1139.60 0.0577
1139.70 0.05771
1139.80 0.05773
1139.90 0.05774
1140.00 0.05775
1140.10 0.05777
1140.20 0.05778
1140.30 0.0578
1140.40 0.05781
1140.50 0.05782
1140.60 0.05784
1140.70 0.05785
1140.80 0.05787
1140.90 0.05788
1141.00 0.05789
1141.10 0.05791
1141.20 0.05792
1141.30 0.05793
1141.40 0.05795
1141.50 0.05796
1141.60 0.05798
1141.70 0.05799
1141.80 0.058
1141.90 0.05802
1142.00 0.05803
1142.10 0.05805
1142.20 0.05806
1142.30 0.05808
1142.40 0.05809
1142.50 0.05811
1142.60 0.05812
1142.70 0.05814
1142.80 0.05815
1142.90 0.05817
1143.00 0.05818
1143.10 0.0582
1143.20 0.05821
1143.30 0.05823
1143.40 0.05824
1143.50 0.05826
1143.60 0.05827
1143.70 0.05829
1143.80 0.0583
1143.90 0.05832
1144.00 0.05833
1144.10 0.05835
1144.20 0.05836
1144.30 0.05838
1144.40 0.05839
1144.50 0.05841
1144.60 0.05842
1144.70 0.05844
1144.80 0.05845
1144.90 0.05847
1145.00 0.05848
1145.10 0.0585
1145.20 0.05851
1145.30 0.05853
1145.40 0.05854
1145.50 0.05856
1145.60 0.05857
1145.70 0.05859
1145.80 0.0586
1145.90 0.05862
1146.00 0.05863
1146.10 0.05865
1146.20 0.05866
1146.30 0.05868
1146.40 0.05869
1146.50 0.05871
1146.60 0.05872
1146.70 0.05873
1146.80 0.05875
1146.90 0.05876
1147.00 0.05878
1147.10 0.05879
1147.20 0.0588
1147.30 0.05882
1147.40 0.05883
1147.50 0.05884
1147.60 0.05885
1147.70 0.05886
1147.80 0.05888
1147.90 0.05889
1148.00 0.0589
1148.10 0.05891
1148.20 0.05893
1148.30 0.05894
1148.40 0.05895
1148.50 0.05896
1148.60 0.05897
1148.70 0.05899
1148.80 0.059
1148.90 0.05901
1149.00 0.05902
1149.10 0.05903
1149.20 0.05905
1149.30 0.05906
1149.40 0.05907
1149.50 0.05908
1149.60 0.0591
1149.70 0.05911
1149.80 0.05912
1149.90 0.05913
1150.00 0.05914
1150.10 0.05916
1150.20 0.05917
1150.30 0.05918
1150.40 0.05919
1150.50 0.0592
1150.60 0.05922
1150.70 0.05923
1150.80 0.05924
1150.90 0.05925
1151.00 0.05926
1151.10 0.05928
1151.20 0.05929
1151.30 0.0593
1151.40 0.05931
1151.50 0.05932
1151.60 0.05934
1151.70 0.05935
1151.80 0.05936
1151.90 0.05937
1152.00 0.05938
1152.10 0.0594
1152.20 0.05941
1152.30 0.05942
1152.40 0.05943
1152.50 0.05944
1152.60 0.05945
1152.70 0.05947
1152.80 0.05948
1152.90 0.05949
1153.00 0.0595
1153.10 0.05951
1153.20 0.05952
1153.30 0.05954
1153.40 0.05955
1153.50 0.05956
1153.60 0.05957
1153.70 0.05958
1153.80 0.0596
1153.90 0.05961
1154.00 0.05962
1154.10 0.05963
1154.20 0.05964
1154.30 0.05965
1154.40 0.05967
1154.50 0.05968
1154.60 0.05969
1154.70 0.0597
1154.80 0.05971
1154.90 0.05972
1155.00 0.05974
1155.10 0.05975
1155.20 0.05976
1155.30 0.05977
1155.40 0.05978
1155.50 0.05979
1155.60 0.05981
1155.70 0.05982
1155.80 0.05983
1155.90 0.05984
1156.00 0.05985
1156.10 0.05986
1156.20 0.05988
1156.30 0.05989
1156.40 0.0599
1156.50 0.05991
1156.60 0.05992
1156.70 0.05993
1156.80 0.05995
1156.90 0.05996
1157.00 0.05997
1157.10 0.05998
1157.20 0.05999
1157.30 0.05999
1157.40 0.06
1157.50 0.06001
1157.60 0.06002
1157.70 0.06003
1157.80 0.06004
1157.90 0.06004
1158.00 0.06005
1158.10 0.06006
1158.20 0.06007
1158.30 0.06008
1158.40 0.06009
1158.50 0.06009
1158.60 0.0601
1158.70 0.06011
1158.80 0.06012
1158.90 0.06013
1159.00 0.06014
1159.10 0.06014
1159.20 0.06015
1159.30 0.06016
1159.40 0.06017
1159.50 0.06018
1159.60 0.06019
1159.70 0.06019
1159.80 0.0602
1159.90 0.06021
1160.00 0.06022
1160.10 0.06023
1160.20 0.06024
1160.30 0.06024
1160.40 0.06025
1160.50 0.06026
1160.60 0.06027
1160.70 0.06028
1160.80 0.06029
1160.90 0.06029
1161.00 0.0603
1161.10 0.06031
1161.20 0.06032
1161.30 0.06033
1161.40 0.06034
1161.50 0.06034
1161.60 0.06035
1161.70 0.06036
1161.80 0.06037
1161.90 0.06038
1162.00 0.06039
1162.10 0.06039
1162.20 0.0604
1162.30 0.0604
1162.40 0.06041
1162.50 0.06041
1162.60 0.06042
1162.70 0.06043
1162.80 0.06043
1162.90 0.06044
1163.00 0.06044
1163.10 0.06045
1163.20 0.06046
1163.30 0.06046
1163.40 0.06047
1163.50 0.06047
1163.60 0.06048
1163.70 0.06048
1163.80 0.06049
1163.90 0.0605
1164.00 0.0605
1164.10 0.06051
1164.20 0.06051
1164.30 0.06052
1164.40 0.06053
1164.50 0.06053
1164.60 0.06054
1164.70 0.06054
1164.80 0.06055
1164.90 0.06055
1165.00 0.06056
1165.10 0.06057
1165.20 0.06057
1165.30 0.06058
1165.40 0.06058
1165.50 0.06059
1165.60 0.06059
1165.70 0.0606
1165.80 0.06061
1165.90 0.06061
1166.00 0.06062
1166.10 0.06062
1166.20 0.06063
1166.30 0.06063
1166.40 0.06064
1166.50 0.06065
1166.60 0.06065
1166.70 0.06066
1166.80 0.06066
1166.90 0.06067
1167.00 0.06067
1167.10 0.06068
1167.20 0.06068
1167.30 0.06069
1167.40 0.06069
1167.50 0.0607
1167.60 0.0607
1167.70 0.0607
1167.80 0.06071
1167.90 0.06071
1168.00 0.06072
1168.10 0.06072
1168.20 0.06073
1168.30 0.06073
1168.40 0.06073
1168.50 0.06074
1168.60 0.06074
1168.70 0.06075
1168.80 0.06075
1168.90 0.06075
1169.00 0.06076
1169.10 0.06076
1169.20 0.06077
1169.30 0.06077
1169.40 0.06078
1169.50 0.06078
1169.60 0.06078
1169.70 0.06079
1169.80 0.06079
1169.90 0.0608
1170.00 0.0608
1170.10 0.0608
1170.20 0.06081
1170.30 0.06081
1170.40 0.06082
1170.50 0.06082
1170.60 0.06082
1170.70 0.06083
1170.80 0.06083
1170.90 0.06084
1171.00 0.06084
1171.10 0.06085
1171.20 0.06085
1171.30 0.06085
1171.40 0.06086
1171.50 0.06086
1171.60 0.06087
1171.70 0.06087
1171.80 0.06087
1171.90 0.06088
1172.00 0.06088
1172.10 0.06088
1172.20 0.06088
1172.30 0.06088
1172.40 0.06088
1172.50 0.06088
1172.60 0.06088
1172.70 0.06088
1172.80 0.06088
1172.90 0.06088
1173.00 0.06088
1173.10 0.06088
1173.20 0.06088
1173.30 0.06088
1173.40 0.06088
1173.50 0.06088
1173.60 0.06088
1173.70 0.06088
1173.80 0.06088
1173.90 0.06088
1174.00 0.06088
1174.10 0.06088
1174.20 0.06088
1174.30 0.06088
1174.40 0.06088
1174.50 0.06088
1174.60 0.06088
1174.70 0.06088
1174.80 0.06088
1174.90 0.06088
1175.00 0.06088
1175.10 0.06088
1175.20 0.06088
1175.30 0.06087
1175.40 0.06087
1175.50 0.06087
1175.60 0.06087
1175.70 0.06087
1175.80 0.06087
1175.90 0.06087
1176.00 0.06087
1176.10 0.06087
1176.20 0.06087
1176.30 0.06087
1176.40 0.06087
1176.50 0.06087
1176.60 0.06087
1176.70 0.06087
1176.80 0.06087
1176.90 0.06087
1177.00 0.06087
1177.10 0.06087
1177.20 0.06086
1177.30 0.06086
1177.40 0.06086
1177.50 0.06085
1177.60 0.06085
1177.70 0.06084
1177.80 0.06084
1177.90 0.06084
1178.00 0.06083
1178.10 0.06083
1178.20 0.06083
1178.30 0.06082
1178.40 0.06082
1178.50 0.06082
1178.60 0.06081
1178.70 0.06081
1178.80 0.0608
1178.90 0.0608
1179.00 0.0608
1179.10 0.06079
1179.20 0.06079
1179.30 0.06079
1179.40 0.06078
1179.50 0.06078
1179.60 0.06077
1179.70 0.06077
1179.80 0.06077
1179.90 0.06076
1180.00 0.06076
1180.10 0.06076
1180.20 0.06075
1180.30 0.06075
1180.40 0.06075
1180.50 0.06074
1180.60 0.06074
1180.70 0.06073
1180.80 0.06073
1180.90 0.06073
1181.00 0.06072
1181.10 0.06072
1181.20 0.06072
1181.30 0.06071
1181.40 0.06071
1181.50 0.0607
1181.60 0.0607
1181.70 0.0607
1181.80 0.06069
1181.90 0.06069
1182.00 0.06069
1182.10 0.06068
1182.20 0.06067
1182.30 0.06066
1182.40 0.06065
1182.50 0.06064
1182.60 0.06064
1182.70 0.06063
1182.80 0.06062
1182.90 0.06061
1183.00 0.0606
1183.10 0.06059
1183.20 0.06059
1183.30 0.06058
1183.40 0.06057
1183.50 0.06056
1183.60 0.06055
1183.70 0.06054
1183.80 0.06054
1183.90 0.06053
1184.00 0.06052
1184.10 0.06051
1184.20 0.0605
1184.30 0.06049
1184.40 0.06049
1184.50 0.06048
1184.60 0.06047
1184.70 0.06046
1184.80 0.06045
1184.90 0.06044
1185.00 0.06044
1185.10 0.06043
1185.20 0.06042
1185.30 0.06041
1185.40 0.0604
1185.50 0.06039
1185.60 0.06039
1185.70 0.06038
1185.80 0.06037
1185.90 0.06036
1186.00 0.06035
1186.10 0.06034
1186.20 0.06034
1186.30 0.06033
1186.40 0.06032
1186.50 0.06031
1186.60 0.0603
1186.70 0.06029
1186.80 0.06029
1186.90 0.06028
1187.00 0.06027
1187.10 0.06026
1187.20 0.06025
1187.30 0.06025
1187.40 0.06024
1187.50 0.06023
1187.60 0.06022
1187.70 0.06022
1187.80 0.06021
1187.90 0.0602
1188.00 0.06019
1188.10 0.06018
1188.20 0.06018
1188.30 0.06017
1188.40 0.06016
1188.50 0.06015
1188.60 0.06015
1188.70 0.06014
1188.80 0.06013
1188.90 0.06012
1189.00 0.06012
1189.10 0.06011
1189.20 0.0601
1189.30 0.06009
1189.40 0.06008
1189.50 0.06008
1189.60 0.06007
1189.70 0.06006
1189.80 0.06005
1189.90 0.06005
1190.00 0.06004
1190.10 0.06003
1190.20 0.06002
1190.30 0.06002
1190.40 0.06001
1190.50 0.06
1190.60 0.05999
1190.70 0.05999
1190.80 0.05998
1190.90 0.05997
1191.00 0.05996
1191.10 0.05995
1191.20 0.05995
1191.30 0.05994
1191.40 0.05993
1191.50 0.05992
1191.60 0.05992
1191.70 0.05991
1191.80 0.0599
1191.90 0.05989
1192.00 0.05989
1192.10 0.05988
1192.20 0.05987
1192.30 0.05986
1192.40 0.05985
1192.50 0.05984
1192.60 0.05983
1192.70 0.05982
1192.80 0.05982
1192.90 0.05981
1193.00 0.0598
1193.10 0.05979
1193.20 0.05978
1193.30 0.05977
1193.40 0.05976
1193.50 0.05975
1193.60 0.05974
1193.70 0.05974
1193.80 0.05973
1193.90 0.05972
1194.00 0.05971
1194.10 0.0597
1194.20 0.05969
1194.30 0.05968
1194.40 0.05967
1194.50 0.05966
1194.60 0.05966
1194.70 0.05965
1194.80 0.05964
1194.90 0.05963
1195.00 0.05962
1195.10 0.05961
1195.20 0.0596
1195.30 0.05959
1195.40 0.05959
1195.50 0.05958
1195.60 0.05957
1195.70 0.05956
1195.80 0.05955
1195.90 0.05954
1196.00 0.05953
1196.10 0.05952
1196.20 0.05951
1196.30 0.05951
1196.40 0.0595
1196.50 0.05949
1196.60 0.05948
1196.70 0.05947
1196.80 0.05946
1196.90 0.05945
1197.00 0.05944
1197.10 0.05943
1197.20 0.05942
1197.30 0.05941
1197.40 0.0594
1197.50 0.05939
1197.60 0.05937
1197.70 0.05936
1197.80 0.05935
1197.90 0.05934
1198.00 0.05933
1198.10 0.05931
1198.20 0.0593
1198.30 0.05929
1198.40 0.05928
1198.50 0.05927
1198.60 0.05925
1198.70 0.05924
1198.80 0.05923
1198.90 0.05922
1199.00 0.05921
1199.10 0.0592
1199.20 0.05918
1199.30 0.05917
1199.40 0.05916
1199.50 0.05915
1199.60 0.05914
1199.70 0.05912
1199.80 0.05911
1199.90 0.0591
1200.00 0
