# Version 2.1 - nm, norm@500 to 1, cut digits, bergeron_17000_75.dat_17000
# Wavelength(nm)  Flambda(ergs/cm^s/s/nm)
300.00 2.604
300.10 2.602
300.20 2.6
300.30 2.598
300.40 2.596
300.50 2.593
300.60 2.591
300.70 2.589
300.80 2.587
300.90 2.585
301.00 2.582
301.10 2.58
301.20 2.578
301.30 2.576
301.40 2.574
301.50 2.571
301.60 2.569
301.70 2.567
301.80 2.565
301.90 2.563
302.00 2.561
302.10 2.558
302.20 2.556
302.30 2.554
302.40 2.552
302.50 2.55
302.60 2.548
302.70 2.545
302.80 2.543
302.90 2.541
303.00 2.539
303.10 2.537
303.20 2.535
303.30 2.532
303.40 2.53
303.50 2.528
303.60 2.526
303.70 2.524
303.80 2.522
303.90 2.52
304.00 2.517
304.10 2.515
304.20 2.513
304.30 2.511
304.40 2.509
304.50 2.507
304.60 2.505
304.70 2.503
304.80 2.501
304.90 2.498
305.00 2.496
305.10 2.494
305.20 2.492
305.30 2.49
305.40 2.488
305.50 2.486
305.60 2.484
305.70 2.482
305.80 2.48
305.90 2.478
306.00 2.475
306.10 2.473
306.20 2.471
306.30 2.469
306.40 2.467
306.50 2.465
306.60 2.463
306.70 2.461
306.80 2.459
306.90 2.457
307.00 2.455
307.10 2.453
307.20 2.451
307.30 2.449
307.40 2.447
307.50 2.445
307.60 2.443
307.70 2.441
307.80 2.439
307.90 2.437
308.00 2.434
308.10 2.432
308.20 2.43
308.30 2.428
308.40 2.426
308.50 2.424
308.60 2.422
308.70 2.42
308.80 2.418
308.90 2.416
309.00 2.414
309.10 2.412
309.20 2.41
309.30 2.408
309.40 2.406
309.50 2.404
309.60 2.402
309.70 2.4
309.80 2.398
309.90 2.396
310.00 2.394
310.10 2.392
310.20 2.39
310.30 2.388
310.40 2.386
310.50 2.384
310.60 2.382
310.70 2.38
310.80 2.378
310.90 2.376
311.00 2.375
311.10 2.373
311.20 2.371
311.30 2.369
311.40 2.367
311.50 2.365
311.60 2.363
311.70 2.361
311.80 2.359
311.90 2.357
312.00 2.355
312.10 2.353
312.20 2.351
312.30 2.349
312.40 2.347
312.50 2.345
312.60 2.343
312.70 2.341
312.80 2.339
312.90 2.338
313.00 2.336
313.10 2.334
313.20 2.332
313.30 2.33
313.40 2.328
313.50 2.326
313.60 2.324
313.70 2.322
313.80 2.32
313.90 2.318
314.00 2.316
314.10 2.315
314.20 2.313
314.30 2.311
314.40 2.309
314.50 2.307
314.60 2.305
314.70 2.303
314.80 2.301
314.90 2.3
315.00 2.298
315.10 2.296
315.20 2.294
315.30 2.292
315.40 2.29
315.50 2.288
315.60 2.286
315.70 2.285
315.80 2.283
315.90 2.281
316.00 2.279
316.10 2.277
316.20 2.275
316.30 2.273
316.40 2.272
316.50 2.27
316.60 2.268
316.70 2.266
316.80 2.264
316.90 2.262
317.00 2.26
317.10 2.259
317.20 2.257
317.30 2.255
317.40 2.253
317.50 2.251
317.60 2.25
317.70 2.248
317.80 2.246
317.90 2.244
318.00 2.242
318.10 2.24
318.20 2.239
318.30 2.237
318.40 2.235
318.50 2.233
318.60 2.231
318.70 2.23
318.80 2.228
318.90 2.226
319.00 2.224
319.10 2.222
319.20 2.221
319.30 2.219
319.40 2.217
319.50 2.215
319.60 2.213
319.70 2.212
319.80 2.21
319.90 2.208
320.00 2.206
320.10 2.204
320.20 2.203
320.30 2.201
320.40 2.199
320.50 2.197
320.60 2.196
320.70 2.194
320.80 2.192
320.90 2.19
321.00 2.188
321.10 2.187
321.20 2.185
321.30 2.183
321.40 2.181
321.50 2.18
321.60 2.178
321.70 2.176
321.80 2.174
321.90 2.173
322.00 2.171
322.10 2.169
322.20 2.167
322.30 2.166
322.40 2.164
322.50 2.162
322.60 2.161
322.70 2.159
322.80 2.157
322.90 2.155
323.00 2.154
323.10 2.152
323.20 2.15
323.30 2.148
323.40 2.147
323.50 2.145
323.60 2.143
323.70 2.142
323.80 2.14
323.90 2.138
324.00 2.136
324.10 2.135
324.20 2.133
324.30 2.131
324.40 2.13
324.50 2.128
324.60 2.126
324.70 2.125
324.80 2.123
324.90 2.121
325.00 2.119
325.10 2.118
325.20 2.116
325.30 2.114
325.40 2.113
325.50 2.111
325.60 2.109
325.70 2.108
325.80 2.106
325.90 2.104
326.00 2.103
326.10 2.101
326.20 2.099
326.30 2.098
326.40 2.096
326.50 2.094
326.60 2.093
326.70 2.091
326.80 2.089
326.90 2.088
327.00 2.086
327.10 2.084
327.20 2.083
327.30 2.081
327.40 2.079
327.50 2.078
327.60 2.076
327.70 2.075
327.80 2.073
327.90 2.071
328.00 2.07
328.10 2.068
328.20 2.066
328.30 2.065
328.40 2.063
328.50 2.061
328.60 2.06
328.70 2.058
328.80 2.057
328.90 2.055
329.00 2.053
329.10 2.052
329.20 2.05
329.30 2.048
329.40 2.047
329.50 2.045
329.60 2.044
329.70 2.042
329.80 2.04
329.90 2.039
330.00 2.037
330.10 2.036
330.20 2.034
330.30 2.032
330.40 2.031
330.50 2.029
330.60 2.028
330.70 2.026
330.80 2.024
330.90 2.023
331.00 2.021
331.10 2.02
331.20 2.018
331.30 2.016
331.40 2.015
331.50 2.013
331.60 2.012
331.70 2.01
331.80 2.009
331.90 2.007
332.00 2.005
332.10 2.004
332.20 2.002
332.30 2.001
332.40 1.999
332.50 1.998
332.60 1.996
332.70 1.994
332.80 1.993
332.90 1.991
333.00 1.99
333.10 1.988
333.20 1.987
333.30 1.985
333.40 1.984
333.50 1.982
333.60 1.981
333.70 1.979
333.80 1.977
333.90 1.976
334.00 1.974
334.10 1.973
334.20 1.971
334.30 1.97
334.40 1.968
334.50 1.967
334.60 1.965
334.70 1.964
334.80 1.962
334.90 1.961
335.00 1.959
335.10 1.958
335.20 1.956
335.30 1.954
335.40 1.953
335.50 1.951
335.60 1.95
335.70 1.948
335.80 1.947
335.90 1.945
336.00 1.944
336.10 1.942
336.20 1.941
336.30 1.939
336.40 1.938
336.50 1.936
336.60 1.935
336.70 1.933
336.80 1.932
336.90 1.93
337.00 1.929
337.10 1.927
337.20 1.926
337.30 1.925
337.40 1.923
337.50 1.922
337.60 1.92
337.70 1.919
337.80 1.917
337.90 1.916
338.00 1.914
338.10 1.913
338.20 1.911
338.30 1.91
338.40 1.908
338.50 1.907
338.60 1.905
338.70 1.904
338.80 1.902
338.90 1.901
339.00 1.899
339.10 1.898
339.20 1.897
339.30 1.895
339.40 1.894
339.50 1.892
339.60 1.891
339.70 1.889
339.80 1.888
339.90 1.886
340.00 1.885
340.10 1.883
340.20 1.882
340.30 1.881
340.40 1.879
340.50 1.878
340.60 1.876
340.70 1.875
340.80 1.873
340.90 1.872
341.00 1.871
341.10 1.869
341.20 1.868
341.30 1.866
341.40 1.865
341.50 1.863
341.60 1.862
341.70 1.861
341.80 1.859
341.90 1.858
342.00 1.856
342.10 1.855
342.20 1.853
342.30 1.852
342.40 1.851
342.50 1.849
342.60 1.848
342.70 1.846
342.80 1.845
342.90 1.844
343.00 1.842
343.10 1.841
343.20 1.839
343.30 1.838
343.40 1.837
343.50 1.835
343.60 1.834
343.70 1.832
343.80 1.831
343.90 1.83
344.00 1.828
344.10 1.827
344.20 1.825
344.30 1.824
344.40 1.823
344.50 1.821
344.60 1.82
344.70 1.819
344.80 1.817
344.90 1.816
345.00 1.814
345.10 1.813
345.20 1.812
345.30 1.81
345.40 1.809
345.50 1.808
345.60 1.806
345.70 1.805
345.80 1.803
345.90 1.802
346.00 1.801
346.10 1.799
346.20 1.798
346.30 1.797
346.40 1.795
346.50 1.794
346.60 1.793
346.70 1.791
346.80 1.79
346.90 1.788
347.00 1.787
347.10 1.786
347.20 1.784
347.30 1.783
347.40 1.782
347.50 1.78
347.60 1.779
347.70 1.778
347.80 1.776
347.90 1.775
348.00 1.774
348.10 1.772
348.20 1.771
348.30 1.77
348.40 1.768
348.50 1.767
348.60 1.766
348.70 1.764
348.80 1.763
348.90 1.762
349.00 1.76
349.10 1.759
349.20 1.758
349.30 1.756
349.40 1.755
349.50 1.754
349.60 1.753
349.70 1.751
349.80 1.75
349.90 1.749
350.00 1.747
350.10 1.746
350.20 1.745
350.30 1.743
350.40 1.742
350.50 1.741
350.60 1.739
350.70 1.738
350.80 1.737
350.90 1.736
351.00 1.734
351.10 1.733
351.20 1.732
351.30 1.73
351.40 1.729
351.50 1.728
351.60 1.727
351.70 1.725
351.80 1.724
351.90 1.723
352.00 1.721
352.10 1.72
352.20 1.719
352.30 1.718
352.40 1.716
352.50 1.715
352.60 1.714
352.70 1.712
352.80 1.711
352.90 1.71
353.00 1.709
353.10 1.707
353.20 1.706
353.30 1.705
353.40 1.704
353.50 1.702
353.60 1.701
353.70 1.7
353.80 1.698
353.90 1.697
354.00 1.696
354.10 1.695
354.20 1.693
354.30 1.692
354.40 1.691
354.50 1.69
354.60 1.688
354.70 1.687
354.80 1.686
354.90 1.685
355.00 1.683
355.10 1.682
355.20 1.681
355.30 1.68
355.40 1.678
355.50 1.677
355.60 1.676
355.70 1.675
355.80 1.673
355.90 1.672
356.00 1.671
356.10 1.67
356.20 1.669
356.30 1.667
356.40 1.666
356.50 1.665
356.60 1.664
356.70 1.662
356.80 1.661
356.90 1.66
357.00 1.659
357.10 1.657
357.20 1.656
357.30 1.655
357.40 1.654
357.50 1.653
357.60 1.651
357.70 1.65
357.80 1.649
357.90 1.648
358.00 1.646
358.10 1.645
358.20 1.644
358.30 1.643
358.40 1.642
358.50 1.64
358.60 1.639
358.70 1.638
358.80 1.637
358.90 1.636
359.00 1.634
359.10 1.633
359.20 1.632
359.30 1.631
359.40 1.63
359.50 1.628
359.60 1.627
359.70 1.626
359.80 1.625
359.90 1.624
360.00 1.623
360.10 1.621
360.20 1.62
360.30 1.619
360.40 1.618
360.50 1.617
360.60 1.615
360.70 1.614
360.80 1.613
360.90 1.612
361.00 1.611
361.10 1.61
361.20 1.608
361.30 1.607
361.40 1.606
361.50 1.605
361.60 1.604
361.70 1.602
361.80 1.601
361.90 1.6
362.00 1.599
362.10 1.598
362.20 1.597
362.30 1.596
362.40 1.594
362.50 1.593
362.60 1.592
362.70 1.591
362.80 1.59
362.90 1.589
363.00 1.587
363.10 1.586
363.20 1.585
363.30 1.584
363.40 1.583
363.50 1.581
363.60 1.58
363.70 1.579
363.80 1.578
363.90 1.576
364.00 1.575
364.10 1.574
364.20 1.573
364.30 1.572
364.40 1.57
364.50 1.569
364.60 1.568
364.70 1.567
364.80 1.566
364.90 1.564
365.00 1.563
365.10 1.562
365.20 1.561
365.30 1.56
365.40 1.558
365.50 1.557
365.60 1.556
365.70 1.555
365.80 1.554
365.90 1.552
366.00 1.551
366.10 1.55
366.20 1.549
366.30 1.548
366.40 1.547
366.50 1.546
366.60 1.544
366.70 1.543
366.80 1.542
366.90 1.541
367.00 1.54
367.10 1.539
367.20 1.538
367.30 1.537
367.40 1.535
367.50 1.534
367.60 1.533
367.70 1.532
367.80 1.531
367.90 1.53
368.00 1.529
368.10 1.528
368.20 1.527
368.30 1.526
368.40 1.525
368.50 1.525
368.60 1.524
368.70 1.523
368.80 1.522
368.90 1.521
369.00 1.52
369.10 1.52
369.20 1.519
369.30 1.518
369.40 1.517
369.50 1.516
369.60 1.516
369.70 1.515
369.80 1.514
369.90 1.513
370.00 1.512
370.10 1.512
370.20 1.513
370.30 1.513
370.40 1.513
370.50 1.513
370.60 1.513
370.70 1.513
370.80 1.513
370.90 1.513
371.00 1.513
371.10 1.513
371.20 1.513
371.30 1.513
371.40 1.513
371.50 1.514
371.60 1.514
371.70 1.514
371.80 1.514
371.90 1.514
372.00 1.514
372.10 1.515
372.20 1.517
372.30 1.518
372.40 1.519
372.50 1.521
372.60 1.522
372.70 1.523
372.80 1.525
372.90 1.526
373.00 1.527
373.10 1.529
373.20 1.53
373.30 1.531
373.40 1.533
373.50 1.534
373.60 1.535
373.70 1.536
373.80 1.538
373.90 1.539
374.00 1.54
374.10 1.542
374.20 1.544
374.30 1.546
374.40 1.548
374.50 1.55
374.60 1.552
374.70 1.554
374.80 1.556
374.90 1.558
375.00 1.56
375.10 1.562
375.20 1.564
375.30 1.565
375.40 1.567
375.50 1.569
375.60 1.571
375.70 1.573
375.80 1.575
375.90 1.577
376.00 1.579
376.10 1.58
376.20 1.581
376.30 1.582
376.40 1.583
376.50 1.584
376.60 1.584
376.70 1.585
376.80 1.586
376.90 1.587
377.00 1.588
377.10 1.586
377.20 1.585
377.30 1.583
377.40 1.581
377.50 1.579
377.60 1.577
377.70 1.575
377.80 1.573
377.90 1.571
378.00 1.57
378.10 1.559
378.20 1.549
378.30 1.539
378.40 1.528
378.50 1.518
378.60 1.508
378.70 1.498
378.80 1.488
378.90 1.477
379.00 1.467
379.10 1.46
379.20 1.453
379.30 1.446
379.40 1.438
379.50 1.431
379.60 1.424
379.70 1.417
379.80 1.41
379.90 1.402
380.00 1.395
380.10 1.406
380.20 1.417
380.30 1.428
380.40 1.439
380.50 1.45
380.60 1.461
380.70 1.471
380.80 1.482
380.90 1.493
381.00 1.504
381.10 1.508
381.20 1.512
381.30 1.516
381.40 1.52
381.50 1.524
381.60 1.523
381.70 1.52
381.80 1.516
381.90 1.509
382.00 1.501
382.10 1.491
382.20 1.479
382.30 1.458
382.40 1.436
382.50 1.414
382.60 1.393
382.70 1.371
382.80 1.35
382.90 1.328
383.00 1.307
383.10 1.285
383.20 1.264
383.30 1.248
383.40 1.229
383.50 1.209
383.60 1.212
383.70 1.233
383.80 1.251
383.90 1.268
384.00 1.288
384.10 1.312
384.20 1.339
384.30 1.366
384.40 1.392
384.50 1.417
384.60 1.44
384.70 1.461
384.80 1.48
384.90 1.496
385.00 1.51
385.10 1.522
385.20 1.533
385.30 1.542
385.40 1.549
385.50 1.555
385.60 1.56
385.70 1.563
385.80 1.565
385.90 1.567
386.00 1.566
386.10 1.565
386.20 1.563
386.30 1.559
386.40 1.554
386.50 1.549
386.60 1.541
386.70 1.533
386.80 1.524
386.90 1.513
387.00 1.502
387.10 1.489
387.20 1.474
387.30 1.459
387.40 1.442
387.50 1.422
387.60 1.402
387.70 1.379
387.80 1.353
387.90 1.326
388.00 1.296
388.10 1.262
388.20 1.227
388.30 1.191
388.40 1.154
388.50 1.12
388.60 1.089
388.70 1.062
388.80 1.037
388.90 1.014
389.00 1.035
389.10 1.058
389.20 1.084
389.30 1.113
389.40 1.146
389.50 1.182
389.60 1.219
389.70 1.254
389.80 1.287
389.90 1.318
390.00 1.346
390.10 1.373
390.20 1.396
390.30 1.419
390.40 1.44
390.50 1.459
390.60 1.477
390.70 1.495
390.80 1.51
390.90 1.526
391.00 1.54
391.10 1.554
391.20 1.567
391.30 1.579
391.40 1.591
391.50 1.602
391.60 1.612
391.70 1.621
391.80 1.63
391.90 1.638
392.00 1.645
392.10 1.651
392.20 1.656
392.30 1.66
392.40 1.664
392.50 1.667
392.60 1.668
392.70 1.669
392.80 1.67
392.90 1.668
393.00 1.667
393.10 1.664
393.20 1.66
393.30 1.656
393.40 1.65
393.50 1.644
393.60 1.636
393.70 1.628
393.80 1.619
393.90 1.609
394.00 1.598
394.10 1.586
394.20 1.573
394.30 1.559
394.40 1.544
394.50 1.529
394.60 1.513
394.70 1.496
394.80 1.478
394.90 1.46
395.00 1.441
395.10 1.422
395.20 1.401
395.30 1.38
395.40 1.358
395.50 1.336
395.60 1.312
395.70 1.287
395.80 1.262
395.90 1.234
396.00 1.206
396.10 1.176
396.20 1.143
396.30 1.108
396.40 1.071
396.50 1.031
396.60 0.9914
396.70 0.953
396.80 0.9187
396.90 0.8799
397.00 0.8367
397.10 0.8758
397.20 0.9121
397.30 0.9455
397.40 0.9824
397.50 1.02
397.60 1.059
397.70 1.095
397.80 1.13
397.90 1.162
398.00 1.19
398.10 1.218
398.20 1.244
398.30 1.269
398.40 1.292
398.50 1.315
398.60 1.337
398.70 1.358
398.80 1.378
398.90 1.398
399.00 1.417
399.10 1.436
399.20 1.454
399.30 1.472
399.40 1.489
399.50 1.506
399.60 1.522
399.70 1.538
399.80 1.553
399.90 1.568
400.00 1.582
400.10 1.596
400.20 1.609
400.30 1.621
400.40 1.633
400.50 1.644
400.60 1.655
400.70 1.665
400.80 1.675
400.90 1.684
401.00 1.693
401.10 1.701
401.20 1.709
401.30 1.716
401.40 1.723
401.50 1.729
401.60 1.735
401.70 1.74
401.80 1.746
401.90 1.75
402.00 1.754
402.10 1.758
402.20 1.762
402.30 1.765
402.40 1.768
402.50 1.77
402.60 1.772
402.70 1.774
402.80 1.775
402.90 1.776
403.00 1.777
403.10 1.777
403.20 1.777
403.30 1.777
403.40 1.776
403.50 1.775
403.60 1.774
403.70 1.772
403.80 1.77
403.90 1.768
404.00 1.766
404.10 1.763
404.20 1.76
404.30 1.756
404.40 1.752
404.50 1.748
404.60 1.744
404.70 1.739
404.80 1.734
404.90 1.728
405.00 1.722
405.10 1.716
405.20 1.709
405.30 1.702
405.40 1.694
405.50 1.686
405.60 1.678
405.70 1.669
405.80 1.66
405.90 1.651
406.00 1.641
406.10 1.63
406.20 1.619
406.30 1.608
406.40 1.596
406.50 1.583
406.60 1.571
406.70 1.557
406.80 1.543
406.90 1.529
407.00 1.514
407.10 1.498
407.20 1.482
407.30 1.466
407.40 1.448
407.50 1.431
407.60 1.412
407.70 1.393
407.80 1.374
407.90 1.355
408.00 1.334
408.10 1.314
408.20 1.293
408.30 1.272
408.40 1.251
408.50 1.229
408.60 1.206
408.70 1.184
408.80 1.161
408.90 1.137
409.00 1.113
409.10 1.088
409.20 1.063
409.30 1.037
409.40 1.008
409.50 0.9776
409.60 0.9453
409.70 0.91
409.80 0.8741
409.90 0.8377
410.00 0.7969
410.10 0.7567
410.20 0.7172
410.30 0.7723
410.40 0.8181
410.50 0.8547
410.60 0.89
410.70 0.9243
410.80 0.9575
410.90 0.9873
411.00 1.015
411.10 1.042
411.20 1.066
411.30 1.089
411.40 1.112
411.50 1.134
411.60 1.156
411.70 1.177
411.80 1.198
411.90 1.218
412.00 1.238
412.10 1.257
412.20 1.277
412.30 1.295
412.40 1.314
412.50 1.332
412.60 1.349
412.70 1.366
412.80 1.383
412.90 1.399
413.00 1.414
413.10 1.429
413.20 1.444
413.30 1.458
413.40 1.471
413.50 1.484
413.60 1.496
413.70 1.508
413.80 1.52
413.90 1.531
414.00 1.541
414.10 1.551
414.20 1.561
414.30 1.57
414.40 1.579
414.50 1.587
414.60 1.596
414.70 1.603
414.80 1.611
414.90 1.618
415.00 1.625
415.10 1.631
415.20 1.637
415.30 1.643
415.40 1.649
415.50 1.654
415.60 1.659
415.70 1.664
415.80 1.668
415.90 1.673
416.00 1.677
416.10 1.68
416.20 1.684
416.30 1.688
416.40 1.691
416.50 1.694
416.60 1.697
416.70 1.7
416.80 1.702
416.90 1.705
417.00 1.707
417.10 1.709
417.20 1.711
417.30 1.713
417.40 1.715
417.50 1.716
417.60 1.718
417.70 1.719
417.80 1.721
417.90 1.722
418.00 1.723
418.10 1.724
418.20 1.725
418.30 1.726
418.40 1.726
418.50 1.727
418.60 1.728
418.70 1.728
418.80 1.728
418.90 1.729
419.00 1.729
419.10 1.729
419.20 1.729
419.30 1.729
419.40 1.729
419.50 1.729
419.60 1.729
419.70 1.729
419.80 1.729
419.90 1.728
420.00 1.728
420.10 1.728
420.20 1.727
420.30 1.727
420.40 1.726
420.50 1.725
420.60 1.725
420.70 1.724
420.80 1.723
420.90 1.723
421.00 1.722
421.10 1.721
421.20 1.72
421.30 1.719
421.40 1.718
421.50 1.717
421.60 1.716
421.70 1.715
421.80 1.714
421.90 1.713
422.00 1.711
422.10 1.71
422.20 1.709
422.30 1.708
422.40 1.706
422.50 1.705
422.60 1.703
422.70 1.702
422.80 1.7
422.90 1.699
423.00 1.697
423.10 1.696
423.20 1.694
423.30 1.692
423.40 1.69
423.50 1.688
423.60 1.687
423.70 1.685
423.80 1.683
423.90 1.681
424.00 1.679
424.10 1.676
424.20 1.674
424.30 1.672
424.40 1.67
424.50 1.667
424.60 1.665
424.70 1.663
424.80 1.66
424.90 1.658
425.00 1.655
425.10 1.652
425.20 1.65
425.30 1.647
425.40 1.644
425.50 1.641
425.60 1.638
425.70 1.635
425.80 1.632
425.90 1.628
426.00 1.625
426.10 1.622
426.20 1.618
426.30 1.614
426.40 1.61
426.50 1.606
426.60 1.602
426.70 1.598
426.80 1.594
426.90 1.59
427.00 1.586
427.10 1.581
427.20 1.577
427.30 1.572
427.40 1.567
427.50 1.562
427.60 1.557
427.70 1.552
427.80 1.547
427.90 1.541
428.00 1.536
428.10 1.53
428.20 1.524
428.30 1.518
428.40 1.512
428.50 1.505
428.60 1.499
428.70 1.492
428.80 1.485
428.90 1.478
429.00 1.47
429.10 1.463
429.20 1.455
429.30 1.446
429.40 1.438
429.50 1.429
429.60 1.42
429.70 1.411
429.80 1.402
429.90 1.392
430.00 1.382
430.10 1.372
430.20 1.361
430.30 1.35
430.40 1.339
430.50 1.328
430.60 1.316
430.70 1.304
430.80 1.291
430.90 1.279
431.00 1.266
431.10 1.252
431.20 1.239
431.30 1.224
431.40 1.21
431.50 1.195
431.60 1.18
431.70 1.165
431.80 1.149
431.90 1.132
432.00 1.116
432.10 1.099
432.20 1.081
432.30 1.062
432.40 1.043
432.50 1.024
432.60 1.003
432.70 0.9823
432.80 0.9609
432.90 0.9396
433.00 0.9185
433.10 0.8981
433.20 0.8774
433.30 0.8563
433.40 0.833
433.50 0.8081
433.60 0.7817
433.70 0.7512
433.80 0.7177
433.90 0.6809
434.00 0.607
434.10 0.6079
434.20 0.6836
434.30 0.7189
434.40 0.7512
434.50 0.7806
434.60 0.8058
434.70 0.8296
434.80 0.8517
434.90 0.8716
435.00 0.8912
435.10 0.9104
435.20 0.9303
435.30 0.9502
435.40 0.9702
435.50 0.9896
435.60 1.008
435.70 1.027
435.80 1.044
435.90 1.06
436.00 1.077
436.10 1.092
436.20 1.107
436.30 1.122
436.40 1.136
436.50 1.149
436.60 1.162
436.70 1.175
436.80 1.187
436.90 1.199
437.00 1.211
437.10 1.222
437.20 1.233
437.30 1.243
437.40 1.254
437.50 1.264
437.60 1.273
437.70 1.282
437.80 1.291
437.90 1.299
438.00 1.308
438.10 1.316
438.20 1.323
438.30 1.33
438.40 1.338
438.50 1.344
438.60 1.351
438.70 1.357
438.80 1.363
438.90 1.368
439.00 1.374
439.10 1.379
439.20 1.384
439.30 1.389
439.40 1.393
439.50 1.398
439.60 1.402
439.70 1.406
439.80 1.41
439.90 1.413
440.00 1.417
440.10 1.42
440.20 1.423
440.30 1.426
440.40 1.429
440.50 1.431
440.60 1.434
440.70 1.436
440.80 1.439
440.90 1.441
441.00 1.443
441.10 1.445
441.20 1.447
441.30 1.449
441.40 1.45
441.50 1.452
441.60 1.453
441.70 1.455
441.80 1.456
441.90 1.457
442.00 1.458
442.10 1.459
442.20 1.46
442.30 1.461
442.40 1.462
442.50 1.463
442.60 1.463
442.70 1.464
442.80 1.465
442.90 1.465
443.00 1.465
443.10 1.466
443.20 1.466
443.30 1.466
443.40 1.467
443.50 1.467
443.60 1.467
443.70 1.467
443.80 1.467
443.90 1.467
444.00 1.467
444.10 1.467
444.20 1.467
444.30 1.467
444.40 1.467
444.50 1.467
444.60 1.467
444.70 1.466
444.80 1.466
444.90 1.466
445.00 1.466
445.10 1.465
445.20 1.465
445.30 1.465
445.40 1.464
445.50 1.464
445.60 1.463
445.70 1.463
445.80 1.462
445.90 1.462
446.00 1.461
446.10 1.461
446.20 1.46
446.30 1.46
446.40 1.459
446.50 1.459
446.60 1.458
446.70 1.457
446.80 1.457
446.90 1.456
447.00 1.455
447.10 1.455
447.20 1.454
447.30 1.453
447.40 1.453
447.50 1.452
447.60 1.451
447.70 1.451
447.80 1.45
447.90 1.449
448.00 1.448
448.10 1.448
448.20 1.447
448.30 1.446
448.40 1.445
448.50 1.444
448.60 1.444
448.70 1.443
448.80 1.442
448.90 1.441
449.00 1.441
449.10 1.44
449.20 1.439
449.30 1.438
449.40 1.437
449.50 1.436
449.60 1.436
449.70 1.435
449.80 1.434
449.90 1.433
450.00 1.432
450.10 1.431
450.20 1.43
450.30 1.429
450.40 1.429
450.50 1.428
450.60 1.427
450.70 1.426
450.80 1.425
450.90 1.424
451.00 1.423
451.10 1.422
451.20 1.421
451.30 1.421
451.40 1.42
451.50 1.419
451.60 1.418
451.70 1.417
451.80 1.416
451.90 1.415
452.00 1.414
452.10 1.413
452.20 1.412
452.30 1.411
452.40 1.41
452.50 1.409
452.60 1.408
452.70 1.408
452.80 1.407
452.90 1.406
453.00 1.405
453.10 1.404
453.20 1.403
453.30 1.402
453.40 1.401
453.50 1.4
453.60 1.399
453.70 1.398
453.80 1.397
453.90 1.396
454.00 1.395
454.10 1.394
454.20 1.393
454.30 1.392
454.40 1.391
454.50 1.39
454.60 1.389
454.70 1.388
454.80 1.387
454.90 1.386
455.00 1.386
455.10 1.385
455.20 1.384
455.30 1.383
455.40 1.382
455.50 1.381
455.60 1.38
455.70 1.379
455.80 1.378
455.90 1.377
456.00 1.376
456.10 1.375
456.20 1.374
456.30 1.373
456.40 1.372
456.50 1.371
456.60 1.37
456.70 1.369
456.80 1.368
456.90 1.367
457.00 1.366
457.10 1.365
457.20 1.364
457.30 1.363
457.40 1.362
457.50 1.361
457.60 1.36
457.70 1.359
457.80 1.358
457.90 1.357
458.00 1.356
458.10 1.355
458.20 1.354
458.30 1.353
458.40 1.352
458.50 1.351
458.60 1.35
458.70 1.349
458.80 1.348
458.90 1.347
459.00 1.346
459.10 1.346
459.20 1.345
459.30 1.344
459.40 1.343
459.50 1.342
459.60 1.341
459.70 1.34
459.80 1.339
459.90 1.338
460.00 1.337
460.10 1.336
460.20 1.335
460.30 1.334
460.40 1.333
460.50 1.332
460.60 1.331
460.70 1.33
460.80 1.329
460.90 1.328
461.00 1.327
461.10 1.326
461.20 1.325
461.30 1.324
461.40 1.323
461.50 1.322
461.60 1.321
461.70 1.32
461.80 1.319
461.90 1.318
462.00 1.317
462.10 1.316
462.20 1.315
462.30 1.314
462.40 1.313
462.50 1.312
462.60 1.311
462.70 1.31
462.80 1.309
462.90 1.308
463.00 1.307
463.10 1.306
463.20 1.305
463.30 1.304
463.40 1.303
463.50 1.302
463.60 1.301
463.70 1.3
463.80 1.299
463.90 1.298
464.00 1.297
464.10 1.296
464.20 1.295
464.30 1.294
464.40 1.293
464.50 1.292
464.60 1.291
464.70 1.29
464.80 1.289
464.90 1.288
465.00 1.287
465.10 1.286
465.20 1.284
465.30 1.283
465.40 1.282
465.50 1.281
465.60 1.28
465.70 1.279
465.80 1.278
465.90 1.277
466.00 1.276
466.10 1.275
466.20 1.274
466.30 1.273
466.40 1.272
466.50 1.271
466.60 1.27
466.70 1.269
466.80 1.268
466.90 1.267
467.00 1.266
467.10 1.265
467.20 1.264
467.30 1.263
467.40 1.262
467.50 1.261
467.60 1.26
467.70 1.259
467.80 1.257
467.90 1.256
468.00 1.255
468.10 1.254
468.20 1.253
468.30 1.252
468.40 1.251
468.50 1.25
468.60 1.249
468.70 1.248
468.80 1.247
468.90 1.246
469.00 1.245
469.10 1.243
469.20 1.242
469.30 1.241
469.40 1.24
469.50 1.239
469.60 1.238
469.70 1.237
469.80 1.236
469.90 1.235
470.00 1.234
470.10 1.232
470.20 1.231
470.30 1.23
470.40 1.229
470.50 1.228
470.60 1.227
470.70 1.226
470.80 1.224
470.90 1.223
471.00 1.222
471.10 1.221
471.20 1.22
471.30 1.219
471.40 1.217
471.50 1.216
471.60 1.215
471.70 1.214
471.80 1.213
471.90 1.211
472.00 1.21
472.10 1.209
472.20 1.208
472.30 1.207
472.40 1.205
472.50 1.204
472.60 1.203
472.70 1.201
472.80 1.2
472.90 1.199
473.00 1.198
473.10 1.196
473.20 1.195
473.30 1.194
473.40 1.192
473.50 1.191
473.60 1.189
473.70 1.188
473.80 1.187
473.90 1.185
474.00 1.184
474.10 1.183
474.20 1.181
474.30 1.18
474.40 1.178
474.50 1.177
474.60 1.175
474.70 1.174
474.80 1.172
474.90 1.17
475.00 1.169
475.10 1.167
475.20 1.166
475.30 1.164
475.40 1.162
475.50 1.161
475.60 1.159
475.70 1.157
475.80 1.156
475.90 1.154
476.00 1.152
476.10 1.151
476.20 1.149
476.30 1.147
476.40 1.145
476.50 1.143
476.60 1.141
476.70 1.139
476.80 1.137
476.90 1.135
477.00 1.133
477.10 1.131
477.20 1.129
477.30 1.127
477.40 1.125
477.50 1.122
477.60 1.12
477.70 1.118
477.80 1.115
477.90 1.113
478.00 1.111
478.10 1.109
478.20 1.106
478.30 1.103
478.40 1.1
478.50 1.097
478.60 1.095
478.70 1.092
478.80 1.089
478.90 1.086
479.00 1.084
479.10 1.081
479.20 1.078
479.30 1.074
479.40 1.071
479.50 1.067
479.60 1.064
479.70 1.06
479.80 1.057
479.90 1.053
480.00 1.05
480.10 1.046
480.20 1.042
480.30 1.038
480.40 1.033
480.50 1.029
480.60 1.025
480.70 1.02
480.80 1.016
480.90 1.012
481.00 1.007
481.10 1.003
481.20 0.9975
481.30 0.9918
481.40 0.9861
481.50 0.9804
481.60 0.9747
481.70 0.969
481.80 0.9633
481.90 0.9576
482.00 0.9519
482.10 0.9462
482.20 0.9394
482.30 0.932
482.40 0.9246
482.50 0.9173
482.60 0.9099
482.70 0.9026
482.80 0.8952
482.90 0.8879
483.00 0.8806
483.10 0.8732
483.20 0.8644
483.30 0.855
483.40 0.8455
483.50 0.8361
483.60 0.8267
483.70 0.8173
483.80 0.8078
483.90 0.7984
484.00 0.789
484.10 0.7796
484.20 0.7691
484.30 0.7581
484.40 0.7471
484.50 0.7361
484.60 0.7251
484.70 0.7135
484.80 0.7016
484.90 0.6897
485.00 0.6778
485.10 0.6659
485.20 0.6537
485.30 0.6414
485.40 0.6285
485.50 0.6152
485.60 0.6008
485.70 0.5857
485.80 0.5669
485.90 0.5463
486.00 0.5171
486.10 0.4342
486.20 0.4743
486.30 0.5287
486.40 0.5517
486.50 0.572
486.60 0.5882
486.70 0.6027
486.80 0.6158
486.90 0.6283
487.00 0.6402
487.10 0.6517
487.20 0.6629
487.30 0.674
487.40 0.685
487.50 0.696
487.60 0.7071
487.70 0.7174
487.80 0.7273
487.90 0.7373
488.00 0.7473
488.10 0.7572
488.20 0.766
488.30 0.7742
488.40 0.7825
488.50 0.7907
488.60 0.7989
488.70 0.8071
488.80 0.8153
488.90 0.8235
489.00 0.8317
489.10 0.8398
489.20 0.8465
489.30 0.8524
489.40 0.8584
489.50 0.8643
489.60 0.8702
489.70 0.8761
489.80 0.8821
489.90 0.888
490.00 0.8939
490.10 0.8998
490.20 0.9045
490.30 0.9086
490.40 0.9127
490.50 0.9169
490.60 0.921
490.70 0.9251
490.80 0.9292
490.90 0.9333
491.00 0.9374
491.10 0.9415
491.20 0.9447
491.30 0.9475
491.40 0.9502
491.50 0.953
491.60 0.9557
491.70 0.9585
491.80 0.9612
491.90 0.964
492.00 0.9667
492.10 0.9694
492.20 0.9715
492.30 0.9733
492.40 0.9751
492.50 0.9768
492.60 0.9786
492.70 0.9804
492.80 0.9822
492.90 0.9839
493.00 0.9857
493.10 0.9875
493.20 0.9888
493.30 0.9899
493.40 0.991
493.50 0.9921
493.60 0.9932
493.70 0.9943
493.80 0.9954
493.90 0.9965
494.00 0.9976
494.10 0.9987
494.20 0.9994
494.30 1
494.40 1.001
494.50 1.001
494.60 1.002
494.70 1.002
494.80 1.003
494.90 1.004
495.00 1.004
495.10 1.005
495.20 1.005
495.30 1.005
495.40 1.006
495.50 1.006
495.60 1.006
495.70 1.006
495.80 1.007
495.90 1.007
496.00 1.007
496.10 1.007
496.20 1.007
496.30 1.007
496.40 1.007
496.50 1.007
496.60 1.007
496.70 1.007
496.80 1.008
496.90 1.008
497.00 1.008
497.10 1.008
497.20 1.007
497.30 1.007
497.40 1.007
497.50 1.007
497.60 1.007
497.70 1.007
497.80 1.007
497.90 1.006
498.00 1.006
498.10 1.006
498.20 1.006
498.30 1.006
498.40 1.005
498.50 1.005
498.60 1.005
498.70 1.004
498.80 1.004
498.90 1.004
499.00 1.004
499.10 1.003
499.20 1.003
499.30 1.003
499.40 1.002
499.50 1.002
499.60 1.001
499.70 1.001
499.80 1.001
499.90 1
500.00 1
500.10 0.9996
500.20 0.9992
500.30 0.9988
500.40 0.9984
500.50 0.9979
500.60 0.9975
500.70 0.9971
500.80 0.9967
500.90 0.9962
501.00 0.9958
501.10 0.9954
501.20 0.9949
501.30 0.9944
501.40 0.994
501.50 0.9935
501.60 0.993
501.70 0.9925
501.80 0.992
501.90 0.9916
502.00 0.9911
502.10 0.9906
502.20 0.9901
502.30 0.9896
502.40 0.9891
502.50 0.9886
502.60 0.9881
502.70 0.9876
502.80 0.9871
502.90 0.9866
503.00 0.9861
503.10 0.9856
503.20 0.985
503.30 0.9845
503.40 0.984
503.50 0.9834
503.60 0.9829
503.70 0.9824
503.80 0.9818
503.90 0.9813
504.00 0.9808
504.10 0.9802
504.20 0.9797
504.30 0.9791
504.40 0.9786
504.50 0.978
504.60 0.9775
504.70 0.9769
504.80 0.9764
504.90 0.9758
505.00 0.9752
505.10 0.9747
505.20 0.9741
505.30 0.9736
505.40 0.973
505.50 0.9724
505.60 0.9718
505.70 0.9713
505.80 0.9707
505.90 0.9701
506.00 0.9696
506.10 0.969
506.20 0.9684
506.30 0.9679
506.40 0.9673
506.50 0.9667
506.60 0.9661
506.70 0.9656
506.80 0.965
506.90 0.9644
507.00 0.9638
507.10 0.9633
507.20 0.9627
507.30 0.9621
507.40 0.9615
507.50 0.9609
507.60 0.9604
507.70 0.9598
507.80 0.9592
507.90 0.9586
508.00 0.958
508.10 0.9574
508.20 0.9569
508.30 0.9563
508.40 0.9557
508.50 0.9551
508.60 0.9545
508.70 0.9539
508.80 0.9533
508.90 0.9528
509.00 0.9522
509.10 0.9516
509.20 0.951
509.30 0.9504
509.40 0.9498
509.50 0.9492
509.60 0.9486
509.70 0.948
509.80 0.9474
509.90 0.9468
510.00 0.9462
510.10 0.9456
510.20 0.945
510.30 0.9444
510.40 0.9439
510.50 0.9433
510.60 0.9427
510.70 0.9421
510.80 0.9415
510.90 0.9409
511.00 0.9403
511.10 0.9397
511.20 0.9391
511.30 0.9385
511.40 0.9379
511.50 0.9373
511.60 0.9367
511.70 0.9361
511.80 0.9355
511.90 0.935
512.00 0.9344
512.10 0.9338
512.20 0.9332
512.30 0.9326
512.40 0.932
512.50 0.9314
512.60 0.9308
512.70 0.9302
512.80 0.9296
512.90 0.929
513.00 0.9284
513.10 0.9279
513.20 0.9273
513.30 0.9267
513.40 0.9261
513.50 0.9255
513.60 0.9249
513.70 0.9243
513.80 0.9237
513.90 0.9232
514.00 0.9226
514.10 0.922
514.20 0.9214
514.30 0.9208
514.40 0.9202
514.50 0.9196
514.60 0.919
514.70 0.9185
514.80 0.9179
514.90 0.9173
515.00 0.9167
515.10 0.9161
515.20 0.9155
515.30 0.9149
515.40 0.9143
515.50 0.9137
515.60 0.9132
515.70 0.9126
515.80 0.912
515.90 0.9114
516.00 0.9108
516.10 0.9102
516.20 0.9097
516.30 0.9091
516.40 0.9085
516.50 0.9079
516.60 0.9073
516.70 0.9067
516.80 0.9061
516.90 0.9055
517.00 0.9049
517.10 0.9044
517.20 0.9038
517.30 0.9032
517.40 0.9026
517.50 0.902
517.60 0.9015
517.70 0.9009
517.80 0.9003
517.90 0.8997
518.00 0.8991
518.10 0.8986
518.20 0.898
518.30 0.8974
518.40 0.8968
518.50 0.8963
518.60 0.8957
518.70 0.8951
518.80 0.8945
518.90 0.894
519.00 0.8934
519.10 0.8928
519.20 0.8923
519.30 0.8917
519.40 0.8911
519.50 0.8905
519.60 0.8899
519.70 0.8894
519.80 0.8888
519.90 0.8882
520.00 0.8876
520.10 0.8871
520.20 0.8865
520.30 0.8859
520.40 0.8854
520.50 0.8848
520.60 0.8842
520.70 0.8837
520.80 0.8831
520.90 0.8825
521.00 0.882
521.10 0.8814
521.20 0.8808
521.30 0.8802
521.40 0.8797
521.50 0.8791
521.60 0.8785
521.70 0.878
521.80 0.8774
521.90 0.8768
522.00 0.8763
522.10 0.8757
522.20 0.8751
522.30 0.8746
522.40 0.874
522.50 0.8734
522.60 0.8729
522.70 0.8723
522.80 0.8717
522.90 0.8712
523.00 0.8706
523.10 0.87
523.20 0.8695
523.30 0.8689
523.40 0.8684
523.50 0.8678
523.60 0.8673
523.70 0.8667
523.80 0.8661
523.90 0.8656
524.00 0.865
524.10 0.8645
524.20 0.8639
524.30 0.8634
524.40 0.8628
524.50 0.8622
524.60 0.8617
524.70 0.8611
524.80 0.8606
524.90 0.86
525.00 0.8594
525.10 0.8589
525.20 0.8583
525.30 0.8578
525.40 0.8572
525.50 0.8567
525.60 0.8561
525.70 0.8556
525.80 0.855
525.90 0.8545
526.00 0.854
526.10 0.8534
526.20 0.8529
526.30 0.8523
526.40 0.8517
526.50 0.8512
526.60 0.8506
526.70 0.8501
526.80 0.8495
526.90 0.849
527.00 0.8484
527.10 0.8479
527.20 0.8473
527.30 0.8468
527.40 0.8463
527.50 0.8457
527.60 0.8452
527.70 0.8446
527.80 0.8441
527.90 0.8436
528.00 0.843
528.10 0.8425
528.20 0.8419
528.30 0.8414
528.40 0.8409
528.50 0.8403
528.60 0.8398
528.70 0.8392
528.80 0.8387
528.90 0.8382
529.00 0.8376
529.10 0.8371
529.20 0.8366
529.30 0.836
529.40 0.8355
529.50 0.8349
529.60 0.8344
529.70 0.8338
529.80 0.8333
529.90 0.8328
530.00 0.8322
530.10 0.8317
530.20 0.8312
530.30 0.8306
530.40 0.8301
530.50 0.8296
530.60 0.829
530.70 0.8285
530.80 0.828
530.90 0.8274
531.00 0.8269
531.10 0.8264
531.20 0.8258
531.30 0.8253
531.40 0.8248
531.50 0.8243
531.60 0.8237
531.70 0.8232
531.80 0.8227
531.90 0.8221
532.00 0.8216
532.10 0.8211
532.20 0.8206
532.30 0.82
532.40 0.8195
532.50 0.819
532.60 0.8185
532.70 0.8179
532.80 0.8174
532.90 0.8169
533.00 0.8164
533.10 0.8159
533.20 0.8153
533.30 0.8148
533.40 0.8143
533.50 0.8138
533.60 0.8133
533.70 0.8128
533.80 0.8122
533.90 0.8117
534.00 0.8112
534.10 0.8107
534.20 0.8102
534.30 0.8097
534.40 0.8091
534.50 0.8086
534.60 0.8081
534.70 0.8076
534.80 0.8071
534.90 0.8066
535.00 0.806
535.10 0.8055
535.20 0.805
535.30 0.8045
535.40 0.804
535.50 0.8035
535.60 0.803
535.70 0.8024
535.80 0.8019
535.90 0.8014
536.00 0.8009
536.10 0.8004
536.20 0.7999
536.30 0.7994
536.40 0.7989
536.50 0.7984
536.60 0.7979
536.70 0.7973
536.80 0.7968
536.90 0.7963
537.00 0.7958
537.10 0.7953
537.20 0.7948
537.30 0.7943
537.40 0.7938
537.50 0.7933
537.60 0.7928
537.70 0.7923
537.80 0.7918
537.90 0.7913
538.00 0.7908
538.10 0.7903
538.20 0.7898
538.30 0.7893
538.40 0.7888
538.50 0.7883
538.60 0.7878
538.70 0.7873
538.80 0.7868
538.90 0.7863
539.00 0.7858
539.10 0.7853
539.20 0.7848
539.30 0.7843
539.40 0.7838
539.50 0.7833
539.60 0.7828
539.70 0.7823
539.80 0.7818
539.90 0.7813
540.00 0.7808
540.10 0.7803
540.20 0.7798
540.30 0.7793
540.40 0.7788
540.50 0.7783
540.60 0.7778
540.70 0.7774
540.80 0.7769
540.90 0.7764
541.00 0.7759
541.10 0.7754
541.20 0.7749
541.30 0.7744
541.40 0.7739
541.50 0.7734
541.60 0.7729
541.70 0.7724
541.80 0.772
541.90 0.7715
542.00 0.771
542.10 0.7705
542.20 0.77
542.30 0.7695
542.40 0.769
542.50 0.7685
542.60 0.7681
542.70 0.7676
542.80 0.7671
542.90 0.7666
543.00 0.7661
543.10 0.7656
543.20 0.7651
543.30 0.7647
543.40 0.7642
543.50 0.7637
543.60 0.7632
543.70 0.7627
543.80 0.7622
543.90 0.7618
544.00 0.7613
544.10 0.7608
544.20 0.7603
544.30 0.7598
544.40 0.7594
544.50 0.7589
544.60 0.7584
544.70 0.7579
544.80 0.7575
544.90 0.757
545.00 0.7565
545.10 0.7561
545.20 0.7556
545.30 0.7551
545.40 0.7546
545.50 0.7541
545.60 0.7537
545.70 0.7532
545.80 0.7527
545.90 0.7522
546.00 0.7518
546.10 0.7513
546.20 0.7508
546.30 0.7504
546.40 0.7499
546.50 0.7495
546.60 0.749
546.70 0.7486
546.80 0.7482
546.90 0.7477
547.00 0.7473
547.10 0.7468
547.20 0.7464
547.30 0.7459
547.40 0.7454
547.50 0.7449
547.60 0.7445
547.70 0.744
547.80 0.7435
547.90 0.7431
548.00 0.7426
548.10 0.7421
548.20 0.7417
548.30 0.7412
548.40 0.7407
548.50 0.7403
548.60 0.7398
548.70 0.7393
548.80 0.7389
548.90 0.7384
549.00 0.738
549.10 0.7375
549.20 0.737
549.30 0.7366
549.40 0.7361
549.50 0.7357
549.60 0.7352
549.70 0.7347
549.80 0.7343
549.90 0.7338
550.00 0.7334
550.10 0.7329
550.20 0.7324
550.30 0.732
550.40 0.7315
550.50 0.7311
550.60 0.7306
550.70 0.7302
550.80 0.7297
550.90 0.7292
551.00 0.7288
551.10 0.7283
551.20 0.7279
551.30 0.7274
551.40 0.727
551.50 0.7265
551.60 0.7261
551.70 0.7256
551.80 0.7251
551.90 0.7247
552.00 0.7242
552.10 0.7238
552.20 0.7233
552.30 0.7229
552.40 0.7224
552.50 0.722
552.60 0.7215
552.70 0.7211
552.80 0.7206
552.90 0.7202
553.00 0.7197
553.10 0.7193
553.20 0.7188
553.30 0.7184
553.40 0.7179
553.50 0.7175
553.60 0.7171
553.70 0.7166
553.80 0.7162
553.90 0.7157
554.00 0.7153
554.10 0.7148
554.20 0.7144
554.30 0.714
554.40 0.7135
554.50 0.7131
554.60 0.7126
554.70 0.7122
554.80 0.7117
554.90 0.7113
555.00 0.7108
555.10 0.7104
555.20 0.71
555.30 0.7095
555.40 0.7091
555.50 0.7086
555.60 0.7082
555.70 0.7078
555.80 0.7073
555.90 0.7069
556.00 0.7065
556.10 0.706
556.20 0.7056
556.30 0.7051
556.40 0.7047
556.50 0.7043
556.60 0.7038
556.70 0.7034
556.80 0.703
556.90 0.7025
557.00 0.7021
557.10 0.7017
557.20 0.7012
557.30 0.7008
557.40 0.7004
557.50 0.6999
557.60 0.6995
557.70 0.6991
557.80 0.6986
557.90 0.6982
558.00 0.6978
558.10 0.6974
558.20 0.6969
558.30 0.6965
558.40 0.6961
558.50 0.6956
558.60 0.6952
558.70 0.6948
558.80 0.6943
558.90 0.6939
559.00 0.6935
559.10 0.6931
559.20 0.6926
559.30 0.6922
559.40 0.6918
559.50 0.6913
559.60 0.6909
559.70 0.6905
559.80 0.6901
559.90 0.6896
560.00 0.6892
560.10 0.6888
560.20 0.6884
560.30 0.6879
560.40 0.6875
560.50 0.6871
560.60 0.6867
560.70 0.6862
560.80 0.6858
560.90 0.6854
561.00 0.685
561.10 0.6846
561.20 0.6841
561.30 0.6837
561.40 0.6833
561.50 0.6829
561.60 0.6825
561.70 0.682
561.80 0.6816
561.90 0.6812
562.00 0.6808
562.10 0.6804
562.20 0.68
562.30 0.6796
562.40 0.6791
562.50 0.6787
562.60 0.6783
562.70 0.6779
562.80 0.6775
562.90 0.677
563.00 0.6766
563.10 0.6762
563.20 0.6758
563.30 0.6754
563.40 0.675
563.50 0.6746
563.60 0.6741
563.70 0.6737
563.80 0.6733
563.90 0.6729
564.00 0.6725
564.10 0.6721
564.20 0.6717
564.30 0.6713
564.40 0.6709
564.50 0.6705
564.60 0.67
564.70 0.6696
564.80 0.6692
564.90 0.6688
565.00 0.6684
565.10 0.668
565.20 0.6676
565.30 0.6672
565.40 0.6668
565.50 0.6664
565.60 0.666
565.70 0.6656
565.80 0.6652
565.90 0.6648
566.00 0.6644
566.10 0.6639
566.20 0.6635
566.30 0.6631
566.40 0.6627
566.50 0.6623
566.60 0.6619
566.70 0.6615
566.80 0.6611
566.90 0.6607
567.00 0.6603
567.10 0.6599
567.20 0.6595
567.30 0.6591
567.40 0.6587
567.50 0.6583
567.60 0.6579
567.70 0.6575
567.80 0.6571
567.90 0.6567
568.00 0.6563
568.10 0.6559
568.20 0.6555
568.30 0.6551
568.40 0.6547
568.50 0.6543
568.60 0.6539
568.70 0.6535
568.80 0.6531
568.90 0.6527
569.00 0.6523
569.10 0.6519
569.20 0.6515
569.30 0.6511
569.40 0.6507
569.50 0.6503
569.60 0.65
569.70 0.6496
569.80 0.6492
569.90 0.6488
570.00 0.6484
570.10 0.648
570.20 0.6476
570.30 0.6472
570.40 0.6468
570.50 0.6464
570.60 0.646
570.70 0.6456
570.80 0.6452
570.90 0.6449
571.00 0.6445
571.10 0.6441
571.20 0.6437
571.30 0.6433
571.40 0.6429
571.50 0.6425
571.60 0.6421
571.70 0.6417
571.80 0.6414
571.90 0.641
572.00 0.6406
572.10 0.6402
572.20 0.6398
572.30 0.6394
572.40 0.639
572.50 0.6387
572.60 0.6383
572.70 0.6379
572.80 0.6375
572.90 0.6371
573.00 0.6367
573.10 0.6364
573.20 0.636
573.30 0.6356
573.40 0.6352
573.50 0.6348
573.60 0.6345
573.70 0.6341
573.80 0.6337
573.90 0.6333
574.00 0.6329
574.10 0.6326
574.20 0.6322
574.30 0.6318
574.40 0.6314
574.50 0.631
574.60 0.6307
574.70 0.6303
574.80 0.6299
574.90 0.6295
575.00 0.6291
575.10 0.6288
575.20 0.6284
575.30 0.628
575.40 0.6276
575.50 0.6272
575.60 0.6269
575.70 0.6265
575.80 0.6261
575.90 0.6257
576.00 0.6254
576.10 0.625
576.20 0.6246
576.30 0.6242
576.40 0.6239
576.50 0.6235
576.60 0.6231
576.70 0.6227
576.80 0.6224
576.90 0.622
577.00 0.6216
577.10 0.6212
577.20 0.6209
577.30 0.6205
577.40 0.6201
577.50 0.6197
577.60 0.6194
577.70 0.619
577.80 0.6186
577.90 0.6183
578.00 0.6179
578.10 0.6175
578.20 0.6171
578.30 0.6168
578.40 0.6164
578.50 0.616
578.60 0.6157
578.70 0.6153
578.80 0.615
578.90 0.6146
579.00 0.6142
579.10 0.6139
579.20 0.6135
579.30 0.6131
579.40 0.6128
579.50 0.6124
579.60 0.612
579.70 0.6116
579.80 0.6113
579.90 0.6109
580.00 0.6105
580.10 0.6102
580.20 0.6098
580.30 0.6095
580.40 0.6091
580.50 0.6087
580.60 0.6084
580.70 0.608
580.80 0.6076
580.90 0.6073
581.00 0.6069
581.10 0.6066
581.20 0.6062
581.30 0.6058
581.40 0.6055
581.50 0.6051
581.60 0.6048
581.70 0.6044
581.80 0.6041
581.90 0.6037
582.00 0.6033
582.10 0.603
582.20 0.6026
582.30 0.6023
582.40 0.6019
582.50 0.6015
582.60 0.6012
582.70 0.6008
582.80 0.6005
582.90 0.6001
583.00 0.5998
583.10 0.5994
583.20 0.5991
583.30 0.5987
583.40 0.5983
583.50 0.598
583.60 0.5976
583.70 0.5973
583.80 0.5969
583.90 0.5966
584.00 0.5962
584.10 0.5959
584.20 0.5955
584.30 0.5952
584.40 0.5948
584.50 0.5945
584.60 0.5941
584.70 0.5937
584.80 0.5934
584.90 0.593
585.00 0.5927
585.10 0.5923
585.20 0.592
585.30 0.5916
585.40 0.5913
585.50 0.5909
585.60 0.5906
585.70 0.5902
585.80 0.5899
585.90 0.5895
586.00 0.5892
586.10 0.5888
586.20 0.5885
586.30 0.5881
586.40 0.5878
586.50 0.5875
586.60 0.5871
586.70 0.5868
586.80 0.5864
586.90 0.5861
587.00 0.5857
587.10 0.5854
587.20 0.5851
587.30 0.5847
587.40 0.5844
587.50 0.584
587.60 0.5837
587.70 0.5833
587.80 0.583
587.90 0.5826
588.00 0.5823
588.10 0.5819
588.20 0.5816
588.30 0.5813
588.40 0.5809
588.50 0.5806
588.60 0.5802
588.70 0.5799
588.80 0.5796
588.90 0.5792
589.00 0.5789
589.10 0.5785
589.20 0.5782
589.30 0.5779
589.40 0.5775
589.50 0.5772
589.60 0.5768
589.70 0.5765
589.80 0.5761
589.90 0.5758
590.00 0.5755
590.10 0.5751
590.20 0.5748
590.30 0.5744
590.40 0.5741
590.50 0.5738
590.60 0.5734
590.70 0.5731
590.80 0.5728
590.90 0.5724
591.00 0.5721
591.10 0.5718
591.20 0.5714
591.30 0.5711
591.40 0.5708
591.50 0.5704
591.60 0.5701
591.70 0.5698
591.80 0.5694
591.90 0.5691
592.00 0.5688
592.10 0.5684
592.20 0.5681
592.30 0.5678
592.40 0.5674
592.50 0.5671
592.60 0.5668
592.70 0.5664
592.80 0.5661
592.90 0.5658
593.00 0.5654
593.10 0.5651
593.20 0.5648
593.30 0.5645
593.40 0.5641
593.50 0.5638
593.60 0.5635
593.70 0.5631
593.80 0.5628
593.90 0.5625
594.00 0.5622
594.10 0.5618
594.20 0.5615
594.30 0.5612
594.40 0.5608
594.50 0.5605
594.60 0.5602
594.70 0.5599
594.80 0.5595
594.90 0.5592
595.00 0.5589
595.10 0.5585
595.20 0.5582
595.30 0.5579
595.40 0.5576
595.50 0.5573
595.60 0.5569
595.70 0.5566
595.80 0.5563
595.90 0.556
596.00 0.5557
596.10 0.5553
596.20 0.555
596.30 0.5546
596.40 0.5543
596.50 0.5539
596.60 0.5535
596.70 0.5532
596.80 0.5528
596.90 0.5524
597.00 0.5521
597.10 0.5517
597.20 0.5514
597.30 0.5511
597.40 0.5507
597.50 0.5504
597.60 0.5501
597.70 0.5498
597.80 0.5495
597.90 0.5492
598.00 0.5488
598.10 0.5485
598.20 0.5482
598.30 0.5479
598.40 0.5476
598.50 0.5472
598.60 0.5469
598.70 0.5466
598.80 0.5463
598.90 0.546
599.00 0.5456
599.10 0.5453
599.20 0.545
599.30 0.5447
599.40 0.5444
599.50 0.5441
599.60 0.5438
599.70 0.5434
599.80 0.5431
599.90 0.5428
600.00 0.5425
600.10 0.5422
600.20 0.5419
600.30 0.5416
600.40 0.5412
600.50 0.5409
600.60 0.5406
600.70 0.5403
600.80 0.54
600.90 0.5397
601.00 0.5393
601.10 0.539
601.20 0.5387
601.30 0.5384
601.40 0.5381
601.50 0.5378
601.60 0.5375
601.70 0.5372
601.80 0.5369
601.90 0.5365
602.00 0.5362
602.10 0.5359
602.20 0.5356
602.30 0.5353
602.40 0.535
602.50 0.5347
602.60 0.5344
602.70 0.534
602.80 0.5337
602.90 0.5334
603.00 0.5331
603.10 0.5328
603.20 0.5325
603.30 0.5322
603.40 0.5319
603.50 0.5316
603.60 0.5313
603.70 0.531
603.80 0.5307
603.90 0.5303
604.00 0.53
604.10 0.5297
604.20 0.5294
604.30 0.5291
604.40 0.5288
604.50 0.5285
604.60 0.5282
604.70 0.5279
604.80 0.5276
604.90 0.5273
605.00 0.527
605.10 0.5267
605.20 0.5264
605.30 0.5261
605.40 0.5258
605.50 0.5255
605.60 0.5252
605.70 0.5249
605.80 0.5246
605.90 0.5243
606.00 0.524
606.10 0.5237
606.20 0.5234
606.30 0.5231
606.40 0.5228
606.50 0.5225
606.60 0.5222
606.70 0.5218
606.80 0.5215
606.90 0.5212
607.00 0.5209
607.10 0.5206
607.20 0.5203
607.30 0.52
607.40 0.5197
607.50 0.5194
607.60 0.5191
607.70 0.5188
607.80 0.5185
607.90 0.5182
608.00 0.5179
608.10 0.5177
608.20 0.5174
608.30 0.5171
608.40 0.5168
608.50 0.5165
608.60 0.5162
608.70 0.5159
608.80 0.5156
608.90 0.5153
609.00 0.515
609.10 0.5147
609.20 0.5144
609.30 0.5141
609.40 0.5138
609.50 0.5135
609.60 0.5132
609.70 0.5129
609.80 0.5126
609.90 0.5123
610.00 0.512
610.10 0.5118
610.20 0.5115
610.30 0.5112
610.40 0.5109
610.50 0.5106
610.60 0.5103
610.70 0.51
610.80 0.5097
610.90 0.5094
611.00 0.5091
611.10 0.5088
611.20 0.5085
611.30 0.5082
611.40 0.5079
611.50 0.5076
611.60 0.5073
611.70 0.5071
611.80 0.5068
611.90 0.5065
612.00 0.5062
612.10 0.5059
612.20 0.5056
612.30 0.5053
612.40 0.505
612.50 0.5047
612.60 0.5044
612.70 0.5042
612.80 0.5039
612.90 0.5036
613.00 0.5033
613.10 0.503
613.20 0.5027
613.30 0.5024
613.40 0.5021
613.50 0.5019
613.60 0.5016
613.70 0.5013
613.80 0.501
613.90 0.5007
614.00 0.5004
614.10 0.5001
614.20 0.4998
614.30 0.4995
614.40 0.4993
614.50 0.499
614.60 0.4987
614.70 0.4984
614.80 0.4981
614.90 0.4978
615.00 0.4975
615.10 0.4972
615.20 0.497
615.30 0.4967
615.40 0.4964
615.50 0.4961
615.60 0.4958
615.70 0.4955
615.80 0.4953
615.90 0.495
616.00 0.4947
616.10 0.4944
616.20 0.4941
616.30 0.4939
616.40 0.4936
616.50 0.4933
616.60 0.493
616.70 0.4927
616.80 0.4924
616.90 0.4921
617.00 0.4919
617.10 0.4916
617.20 0.4913
617.30 0.491
617.40 0.4907
617.50 0.4905
617.60 0.4902
617.70 0.4899
617.80 0.4896
617.90 0.4893
618.00 0.4891
618.10 0.4888
618.20 0.4885
618.30 0.4882
618.40 0.4879
618.50 0.4877
618.60 0.4874
618.70 0.4871
618.80 0.4868
618.90 0.4865
619.00 0.4863
619.10 0.486
619.20 0.4857
619.30 0.4854
619.40 0.4851
619.50 0.4849
619.60 0.4846
619.70 0.4843
619.80 0.484
619.90 0.4838
620.00 0.4835
620.10 0.4832
620.20 0.4829
620.30 0.4827
620.40 0.4824
620.50 0.4821
620.60 0.4818
620.70 0.4815
620.80 0.4813
620.90 0.481
621.00 0.4807
621.10 0.4804
621.20 0.4802
621.30 0.4799
621.40 0.4796
621.50 0.4793
621.60 0.4791
621.70 0.4788
621.80 0.4785
621.90 0.4782
622.00 0.478
622.10 0.4777
622.20 0.4774
622.30 0.4772
622.40 0.4769
622.50 0.4766
622.60 0.4763
622.70 0.4761
622.80 0.4758
622.90 0.4755
623.00 0.4752
623.10 0.475
623.20 0.4747
623.30 0.4744
623.40 0.4741
623.50 0.4739
623.60 0.4736
623.70 0.4733
623.80 0.473
623.90 0.4728
624.00 0.4725
624.10 0.4722
624.20 0.4719
624.30 0.4717
624.40 0.4714
624.50 0.4711
624.60 0.4709
624.70 0.4706
624.80 0.4703
624.90 0.4701
625.00 0.4698
625.10 0.4695
625.20 0.4693
625.30 0.469
625.40 0.4687
625.50 0.4684
625.60 0.4682
625.70 0.4679
625.80 0.4676
625.90 0.4674
626.00 0.4671
626.10 0.4668
626.20 0.4666
626.30 0.4663
626.40 0.466
626.50 0.4657
626.60 0.4655
626.70 0.4652
626.80 0.4649
626.90 0.4647
627.00 0.4644
627.10 0.4641
627.20 0.4639
627.30 0.4636
627.40 0.4633
627.50 0.4631
627.60 0.4628
627.70 0.4625
627.80 0.4622
627.90 0.462
628.00 0.4617
628.10 0.4614
628.20 0.4612
628.30 0.4609
628.40 0.4606
628.50 0.4604
628.60 0.4601
628.70 0.4598
628.80 0.4595
628.90 0.4593
629.00 0.459
629.10 0.4587
629.20 0.4585
629.30 0.4582
629.40 0.4579
629.50 0.4577
629.60 0.4574
629.70 0.4571
629.80 0.4569
629.90 0.4566
630.00 0.4563
630.10 0.4561
630.20 0.4558
630.30 0.4555
630.40 0.4553
630.50 0.455
630.60 0.4547
630.70 0.4545
630.80 0.4542
630.90 0.4539
631.00 0.4537
631.10 0.4534
631.20 0.4531
631.30 0.4529
631.40 0.4526
631.50 0.4523
631.60 0.4521
631.70 0.4518
631.80 0.4515
631.90 0.4513
632.00 0.451
632.10 0.4507
632.20 0.4504
632.30 0.4502
632.40 0.4499
632.50 0.4496
632.60 0.4494
632.70 0.4491
632.80 0.4488
632.90 0.4486
633.00 0.4483
633.10 0.448
633.20 0.4477
633.30 0.4475
633.40 0.4472
633.50 0.4469
633.60 0.4467
633.70 0.4464
633.80 0.4461
633.90 0.4459
634.00 0.4456
634.10 0.4453
634.20 0.4451
634.30 0.4448
634.40 0.4445
634.50 0.4442
634.60 0.444
634.70 0.4437
634.80 0.4434
634.90 0.4431
635.00 0.4429
635.10 0.4426
635.20 0.4423
635.30 0.442
635.40 0.4418
635.50 0.4415
635.60 0.4412
635.70 0.441
635.80 0.4407
635.90 0.4404
636.00 0.4401
636.10 0.4399
636.20 0.4396
636.30 0.4393
636.40 0.439
636.50 0.4387
636.60 0.4385
636.70 0.4382
636.80 0.4379
636.90 0.4376
637.00 0.4373
637.10 0.4371
637.20 0.4368
637.30 0.4365
637.40 0.4362
637.50 0.4359
637.60 0.4357
637.70 0.4354
637.80 0.4351
637.90 0.4348
638.00 0.4345
638.10 0.4342
638.20 0.434
638.30 0.4337
638.40 0.4334
638.50 0.4331
638.60 0.4328
638.70 0.4325
638.80 0.4322
638.90 0.4319
639.00 0.4316
639.10 0.4313
639.20 0.4311
639.30 0.4308
639.40 0.4305
639.50 0.4302
639.60 0.4299
639.70 0.4296
639.80 0.4293
639.90 0.429
640.00 0.4287
640.10 0.4284
640.20 0.4281
640.30 0.4278
640.40 0.4275
640.50 0.4271
640.60 0.4268
640.70 0.4265
640.80 0.4262
640.90 0.4259
641.00 0.4256
641.10 0.4253
641.20 0.425
641.30 0.4247
641.40 0.4243
641.50 0.424
641.60 0.4237
641.70 0.4234
641.80 0.423
641.90 0.4227
642.00 0.4224
642.10 0.4221
642.20 0.4217
642.30 0.4214
642.40 0.4211
642.50 0.4207
642.60 0.4204
642.70 0.42
642.80 0.4197
642.90 0.4194
643.00 0.419
643.10 0.4187
643.20 0.4183
643.30 0.418
643.40 0.4176
643.50 0.4172
643.60 0.4169
643.70 0.4165
643.80 0.4161
643.90 0.4158
644.00 0.4154
644.10 0.415
644.20 0.4146
644.30 0.4143
644.40 0.4139
644.50 0.4135
644.60 0.4131
644.70 0.4127
644.80 0.4123
644.90 0.4118
645.00 0.4114
645.10 0.411
645.20 0.4106
645.30 0.4102
645.40 0.4098
645.50 0.4093
645.60 0.4089
645.70 0.4084
645.80 0.408
645.90 0.4075
646.00 0.4071
646.10 0.4066
646.20 0.4062
646.30 0.4057
646.40 0.4052
646.50 0.4047
646.60 0.4042
646.70 0.4037
646.80 0.4032
646.90 0.4027
647.00 0.4022
647.10 0.4016
647.20 0.4011
647.30 0.4006
647.40 0.4
647.50 0.3994
647.60 0.3988
647.70 0.3982
647.80 0.3976
647.90 0.397
648.00 0.3964
648.10 0.3958
648.20 0.3953
648.30 0.3946
648.40 0.3939
648.50 0.3932
648.60 0.3925
648.70 0.3918
648.80 0.391
648.90 0.3903
649.00 0.3896
649.10 0.3889
649.20 0.3882
649.30 0.3874
649.40 0.3866
649.50 0.3857
649.60 0.3848
649.70 0.384
649.80 0.3831
649.90 0.3822
650.00 0.3813
650.10 0.3805
650.20 0.3796
650.30 0.3787
650.40 0.3776
650.50 0.3765
650.60 0.3754
650.70 0.3743
650.80 0.3732
650.90 0.3721
651.00 0.371
651.10 0.3699
651.20 0.3688
651.30 0.3676
651.40 0.3662
651.50 0.3648
651.60 0.3634
651.70 0.362
651.80 0.3606
651.90 0.3592
652.00 0.3578
652.10 0.3564
652.20 0.355
652.30 0.3535
652.40 0.3517
652.50 0.3499
652.60 0.3481
652.70 0.3463
652.80 0.3445
652.90 0.3427
653.00 0.3409
653.10 0.3391
653.20 0.3373
653.30 0.3354
653.40 0.3331
653.50 0.3308
653.60 0.3285
653.70 0.3262
653.80 0.324
653.90 0.3217
654.00 0.3194
654.10 0.3171
654.20 0.3148
654.30 0.3125
654.40 0.3098
654.50 0.3071
654.60 0.3044
654.70 0.3017
654.80 0.2989
654.90 0.2958
655.00 0.2927
655.10 0.2896
655.20 0.2864
655.30 0.2833
655.40 0.2798
655.50 0.2763
655.60 0.2724
655.70 0.2684
655.80 0.2638
655.90 0.2586
656.00 0.2514
656.10 0.2433
656.20 0.2164
656.30 0.1887
656.40 0.2326
656.50 0.2464
656.60 0.2534
656.70 0.26
656.80 0.2644
656.90 0.2686
657.00 0.2722
657.10 0.2757
657.20 0.2789
657.30 0.282
657.40 0.2848
657.50 0.2877
657.60 0.2905
657.70 0.2933
657.80 0.2961
657.90 0.2984
658.00 0.3008
658.10 0.3032
658.20 0.3056
658.30 0.3078
658.40 0.3098
658.50 0.3117
658.60 0.3136
658.70 0.3156
658.80 0.3175
658.90 0.3194
659.00 0.3214
659.10 0.3233
659.20 0.3252
659.30 0.327
659.40 0.3284
659.50 0.3298
659.60 0.3312
659.70 0.3326
659.80 0.334
659.90 0.3354
660.00 0.3368
660.10 0.3382
660.20 0.3396
660.30 0.341
660.40 0.342
660.50 0.3429
660.60 0.3439
660.70 0.3449
660.80 0.3459
660.90 0.3469
661.00 0.3479
661.10 0.3488
661.20 0.3498
661.30 0.3507
661.40 0.3514
661.50 0.3521
661.60 0.3527
661.70 0.3534
661.80 0.3541
661.90 0.3547
662.00 0.3554
662.10 0.3561
662.20 0.3567
662.30 0.3573
662.40 0.3578
662.50 0.3582
662.60 0.3586
662.70 0.359
662.80 0.3595
662.90 0.3599
663.00 0.3603
663.10 0.3607
663.20 0.3612
663.30 0.3616
663.40 0.3618
663.50 0.3621
663.60 0.3624
663.70 0.3626
663.80 0.3629
663.90 0.3632
664.00 0.3634
664.10 0.3637
664.20 0.364
664.30 0.3642
664.40 0.3643
664.50 0.3645
664.60 0.3646
664.70 0.3648
664.80 0.3649
664.90 0.3651
665.00 0.3652
665.10 0.3654
665.20 0.3655
665.30 0.3656
665.40 0.3657
665.50 0.3658
665.60 0.3658
665.70 0.3659
665.80 0.3659
665.90 0.366
666.00 0.3661
666.10 0.3661
666.20 0.3662
666.30 0.3662
666.40 0.3662
666.50 0.3662
666.60 0.3662
666.70 0.3662
666.80 0.3662
666.90 0.3662
667.00 0.3662
667.10 0.3662
667.20 0.3662
667.30 0.3662
667.40 0.3662
667.50 0.3662
667.60 0.3661
667.70 0.3661
667.80 0.366
667.90 0.366
668.00 0.3659
668.10 0.3659
668.20 0.3659
668.30 0.3658
668.40 0.3657
668.50 0.3657
668.60 0.3656
668.70 0.3655
668.80 0.3654
668.90 0.3654
669.00 0.3653
669.10 0.3652
669.20 0.3651
669.30 0.3651
669.40 0.365
669.50 0.3649
669.60 0.3648
669.70 0.3647
669.80 0.3646
669.90 0.3645
670.00 0.3644
670.10 0.3643
670.20 0.3642
670.30 0.3641
670.40 0.3639
670.50 0.3638
670.60 0.3637
670.70 0.3636
670.80 0.3635
670.90 0.3634
671.00 0.3632
671.10 0.3631
671.20 0.363
671.30 0.3629
671.40 0.3628
671.50 0.3626
671.60 0.3625
671.70 0.3624
671.80 0.3622
671.90 0.3621
672.00 0.362
672.10 0.3619
672.20 0.3617
672.30 0.3616
672.40 0.3614
672.50 0.3613
672.60 0.3612
672.70 0.361
672.80 0.3609
672.90 0.3608
673.00 0.3606
673.10 0.3605
673.20 0.3603
673.30 0.3602
673.40 0.36
673.50 0.3599
673.60 0.3597
673.70 0.3596
673.80 0.3595
673.90 0.3593
674.00 0.3592
674.10 0.359
674.20 0.3589
674.30 0.3587
674.40 0.3586
674.50 0.3584
674.60 0.3583
674.70 0.3581
674.80 0.3579
674.90 0.3578
675.00 0.3576
675.10 0.3575
675.20 0.3573
675.30 0.3572
675.40 0.357
675.50 0.3569
675.60 0.3567
675.70 0.3566
675.80 0.3564
675.90 0.3562
676.00 0.3561
676.10 0.3559
676.20 0.3558
676.30 0.3556
676.40 0.3554
676.50 0.3553
676.60 0.3551
676.70 0.355
676.80 0.3548
676.90 0.3546
677.00 0.3545
677.10 0.3543
677.20 0.3542
677.30 0.354
677.40 0.3538
677.50 0.3537
677.60 0.3535
677.70 0.3533
677.80 0.3532
677.90 0.353
678.00 0.3528
678.10 0.3527
678.20 0.3525
678.30 0.3524
678.40 0.3522
678.50 0.352
678.60 0.3519
678.70 0.3517
678.80 0.3515
678.90 0.3514
679.00 0.3512
679.10 0.351
679.20 0.3509
679.30 0.3507
679.40 0.3505
679.50 0.3504
679.60 0.3502
679.70 0.35
679.80 0.3499
679.90 0.3497
680.00 0.3495
680.10 0.3494
680.20 0.3492
680.30 0.349
680.40 0.3489
680.50 0.3487
680.60 0.3485
680.70 0.3484
680.80 0.3482
680.90 0.348
681.00 0.3479
681.10 0.3477
681.20 0.3475
681.30 0.3474
681.40 0.3472
681.50 0.347
681.60 0.3469
681.70 0.3467
681.80 0.3465
681.90 0.3464
682.00 0.3462
682.10 0.346
682.20 0.3459
682.30 0.3457
682.40 0.3455
682.50 0.3454
682.60 0.3452
682.70 0.345
682.80 0.3448
682.90 0.3447
683.00 0.3445
683.10 0.3443
683.20 0.3442
683.30 0.344
683.40 0.3438
683.50 0.3437
683.60 0.3435
683.70 0.3433
683.80 0.3432
683.90 0.343
684.00 0.3428
684.10 0.3427
684.20 0.3425
684.30 0.3423
684.40 0.3422
684.50 0.342
684.60 0.3418
684.70 0.3416
684.80 0.3415
684.90 0.3413
685.00 0.3411
685.10 0.341
685.20 0.3408
685.30 0.3406
685.40 0.3405
685.50 0.3403
685.60 0.3401
685.70 0.34
685.80 0.3398
685.90 0.3396
686.00 0.3395
686.10 0.3393
686.20 0.3391
686.30 0.339
686.40 0.3388
686.50 0.3386
686.60 0.3385
686.70 0.3383
686.80 0.3381
686.90 0.338
687.00 0.3378
687.10 0.3376
687.20 0.3375
687.30 0.3373
687.40 0.3371
687.50 0.337
687.60 0.3368
687.70 0.3366
687.80 0.3365
687.90 0.3363
688.00 0.3361
688.10 0.336
688.20 0.3358
688.30 0.3356
688.40 0.3355
688.50 0.3353
688.60 0.3351
688.70 0.335
688.80 0.3348
688.90 0.3346
689.00 0.3345
689.10 0.3343
689.20 0.3341
689.30 0.334
689.40 0.3338
689.50 0.3336
689.60 0.3335
689.70 0.3333
689.80 0.3331
689.90 0.333
690.00 0.3328
690.10 0.3326
690.20 0.3325
690.30 0.3323
690.40 0.3321
690.50 0.332
690.60 0.3318
690.70 0.3316
690.80 0.3315
690.90 0.3313
691.00 0.3311
691.10 0.331
691.20 0.3308
691.30 0.3306
691.40 0.3305
691.50 0.3303
691.60 0.3302
691.70 0.33
691.80 0.3298
691.90 0.3297
692.00 0.3295
692.10 0.3293
692.20 0.3292
692.30 0.329
692.40 0.3288
692.50 0.3287
692.60 0.3285
692.70 0.3283
692.80 0.3282
692.90 0.328
693.00 0.3279
693.10 0.3277
693.20 0.3275
693.30 0.3274
693.40 0.3272
693.50 0.327
693.60 0.3269
693.70 0.3267
693.80 0.3266
693.90 0.3264
694.00 0.3262
694.10 0.3261
694.20 0.3259
694.30 0.3257
694.40 0.3256
694.50 0.3254
694.60 0.3253
694.70 0.3251
694.80 0.3249
694.90 0.3248
695.00 0.3246
695.10 0.3244
695.20 0.3243
695.30 0.3241
695.40 0.324
695.50 0.3238
695.60 0.3236
695.70 0.3235
695.80 0.3233
695.90 0.3232
696.00 0.323
696.10 0.3228
696.20 0.3227
696.30 0.3225
696.40 0.3224
696.50 0.3222
696.60 0.322
696.70 0.3219
696.80 0.3217
696.90 0.3215
697.00 0.3214
697.10 0.3212
697.20 0.3211
697.30 0.3209
697.40 0.3207
697.50 0.3206
697.60 0.3204
697.70 0.3203
697.80 0.3201
697.90 0.32
698.00 0.3198
698.10 0.3196
698.20 0.3195
698.30 0.3193
698.40 0.3192
698.50 0.319
698.60 0.3188
698.70 0.3187
698.80 0.3185
698.90 0.3184
699.00 0.3182
699.10 0.318
699.20 0.3179
699.30 0.3177
699.40 0.3176
699.50 0.3174
699.60 0.3173
699.70 0.3171
699.80 0.3169
699.90 0.3168
700.00 0.3166
700.10 0.3165
700.20 0.3163
700.30 0.3161
700.40 0.316
700.50 0.3158
700.60 0.3157
700.70 0.3155
700.80 0.3154
700.90 0.3152
701.00 0.3151
701.10 0.3149
701.20 0.3147
701.30 0.3146
701.40 0.3144
701.50 0.3143
701.60 0.3141
701.70 0.314
701.80 0.3138
701.90 0.3137
702.00 0.3135
702.10 0.3133
702.20 0.3132
702.30 0.313
702.40 0.3129
702.50 0.3127
702.60 0.3126
702.70 0.3124
702.80 0.3123
702.90 0.3121
703.00 0.312
703.10 0.3118
703.20 0.3116
703.30 0.3115
703.40 0.3113
703.50 0.3112
703.60 0.311
703.70 0.3109
703.80 0.3107
703.90 0.3106
704.00 0.3104
704.10 0.3103
704.20 0.3101
704.30 0.31
704.40 0.3098
704.50 0.3097
704.60 0.3095
704.70 0.3093
704.80 0.3092
704.90 0.309
705.00 0.3089
705.10 0.3087
705.20 0.3086
705.30 0.3084
705.40 0.3083
705.50 0.3081
705.60 0.308
705.70 0.3078
705.80 0.3077
705.90 0.3075
706.00 0.3074
706.10 0.3072
706.20 0.3071
706.30 0.3069
706.40 0.3068
706.50 0.3066
706.60 0.3064
706.70 0.3063
706.80 0.3061
706.90 0.306
707.00 0.3058
707.10 0.3057
707.20 0.3055
707.30 0.3054
707.40 0.3052
707.50 0.3051
707.60 0.3049
707.70 0.3048
707.80 0.3046
707.90 0.3045
708.00 0.3043
708.10 0.3042
708.20 0.304
708.30 0.3039
708.40 0.3037
708.50 0.3036
708.60 0.3034
708.70 0.3033
708.80 0.3031
708.90 0.303
709.00 0.3028
709.10 0.3027
709.20 0.3025
709.30 0.3024
709.40 0.3022
709.50 0.3021
709.60 0.3019
709.70 0.3018
709.80 0.3016
709.90 0.3015
710.00 0.3013
710.10 0.3012
710.20 0.301
710.30 0.3009
710.40 0.3007
710.50 0.3006
710.60 0.3004
710.70 0.3003
710.80 0.3001
710.90 0.3
711.00 0.2998
711.10 0.2997
711.20 0.2995
711.30 0.2994
711.40 0.2993
711.50 0.2991
711.60 0.299
711.70 0.2988
711.80 0.2987
711.90 0.2985
712.00 0.2984
712.10 0.2982
712.20 0.2981
712.30 0.2979
712.40 0.2978
712.50 0.2976
712.60 0.2975
712.70 0.2973
712.80 0.2972
712.90 0.297
713.00 0.2969
713.10 0.2968
713.20 0.2966
713.30 0.2965
713.40 0.2963
713.50 0.2962
713.60 0.296
713.70 0.2959
713.80 0.2957
713.90 0.2956
714.00 0.2954
714.10 0.2953
714.20 0.2951
714.30 0.295
714.40 0.2949
714.50 0.2947
714.60 0.2946
714.70 0.2944
714.80 0.2943
714.90 0.2941
715.00 0.294
715.10 0.2938
715.20 0.2937
715.30 0.2936
715.40 0.2934
715.50 0.2933
715.60 0.2931
715.70 0.293
715.80 0.2928
715.90 0.2927
716.00 0.2926
716.10 0.2924
716.20 0.2923
716.30 0.2921
716.40 0.292
716.50 0.2918
716.60 0.2917
716.70 0.2916
716.80 0.2914
716.90 0.2913
717.00 0.2911
717.10 0.291
717.20 0.2909
717.30 0.2907
717.40 0.2906
717.50 0.2904
717.60 0.2903
717.70 0.2902
717.80 0.29
717.90 0.2899
718.00 0.2897
718.10 0.2896
718.20 0.2894
718.30 0.2893
718.40 0.2892
718.50 0.289
718.60 0.2889
718.70 0.2887
718.80 0.2886
718.90 0.2885
719.00 0.2883
719.10 0.2882
719.20 0.288
719.30 0.2879
719.40 0.2878
719.50 0.2876
719.60 0.2875
719.70 0.2873
719.80 0.2872
719.90 0.2871
720.00 0.2869
720.10 0.2868
720.20 0.2866
720.30 0.2865
720.40 0.2864
720.50 0.2862
720.60 0.2861
720.70 0.2859
720.80 0.2858
720.90 0.2857
721.00 0.2855
721.10 0.2854
721.20 0.2852
721.30 0.2851
721.40 0.285
721.50 0.2848
721.60 0.2847
721.70 0.2846
721.80 0.2844
721.90 0.2843
722.00 0.2841
722.10 0.284
722.20 0.2839
722.30 0.2837
722.40 0.2836
722.50 0.2834
722.60 0.2833
722.70 0.2832
722.80 0.283
722.90 0.2829
723.00 0.2828
723.10 0.2826
723.20 0.2825
723.30 0.2823
723.40 0.2822
723.50 0.2821
723.60 0.2819
723.70 0.2818
723.80 0.2816
723.90 0.2815
724.00 0.2814
724.10 0.2812
724.20 0.2811
724.30 0.281
724.40 0.2808
724.50 0.2807
724.60 0.2805
724.70 0.2804
724.80 0.2803
724.90 0.2801
725.00 0.28
725.10 0.2799
725.20 0.2797
725.30 0.2796
725.40 0.2795
725.50 0.2793
725.60 0.2792
725.70 0.2791
725.80 0.2789
725.90 0.2788
726.00 0.2786
726.10 0.2785
726.20 0.2784
726.30 0.2782
726.40 0.2781
726.50 0.278
726.60 0.2778
726.70 0.2777
726.80 0.2776
726.90 0.2774
727.00 0.2773
727.10 0.2772
727.20 0.277
727.30 0.2769
727.40 0.2768
727.50 0.2766
727.60 0.2765
727.70 0.2764
727.80 0.2762
727.90 0.2761
728.00 0.2759
728.10 0.2758
728.20 0.2757
728.30 0.2755
728.40 0.2754
728.50 0.2753
728.60 0.2751
728.70 0.275
728.80 0.2749
728.90 0.2747
729.00 0.2746
729.10 0.2745
729.20 0.2743
729.30 0.2742
729.40 0.2741
729.50 0.2739
729.60 0.2738
729.70 0.2737
729.80 0.2735
729.90 0.2734
730.00 0.2733
730.10 0.2731
730.20 0.273
730.30 0.2729
730.40 0.2728
730.50 0.2726
730.60 0.2725
730.70 0.2724
730.80 0.2722
730.90 0.2721
731.00 0.272
731.10 0.2718
731.20 0.2717
731.30 0.2716
731.40 0.2714
731.50 0.2713
731.60 0.2712
731.70 0.2711
731.80 0.2709
731.90 0.2708
732.00 0.2707
732.10 0.2705
732.20 0.2704
732.30 0.2703
732.40 0.2701
732.50 0.27
732.60 0.2699
732.70 0.2698
732.80 0.2696
732.90 0.2695
733.00 0.2694
733.10 0.2692
733.20 0.2691
733.30 0.269
733.40 0.2688
733.50 0.2687
733.60 0.2686
733.70 0.2685
733.80 0.2683
733.90 0.2682
734.00 0.2681
734.10 0.2679
734.20 0.2678
734.30 0.2677
734.40 0.2676
734.50 0.2674
734.60 0.2673
734.70 0.2672
734.80 0.267
734.90 0.2669
735.00 0.2668
735.10 0.2667
735.20 0.2665
735.30 0.2664
735.40 0.2663
735.50 0.2661
735.60 0.266
735.70 0.2659
735.80 0.2658
735.90 0.2656
736.00 0.2655
736.10 0.2654
736.20 0.2653
736.30 0.2651
736.40 0.265
736.50 0.2649
736.60 0.2647
736.70 0.2646
736.80 0.2645
736.90 0.2644
737.00 0.2642
737.10 0.2641
737.20 0.264
737.30 0.2639
737.40 0.2637
737.50 0.2636
737.60 0.2635
737.70 0.2633
737.80 0.2632
737.90 0.2631
738.00 0.263
738.10 0.2628
738.20 0.2627
738.30 0.2626
738.40 0.2625
738.50 0.2623
738.60 0.2622
738.70 0.2621
738.80 0.262
738.90 0.2618
739.00 0.2617
739.10 0.2616
739.20 0.2615
739.30 0.2613
739.40 0.2612
739.50 0.2611
739.60 0.2609
739.70 0.2608
739.80 0.2607
739.90 0.2606
740.00 0.2604
740.10 0.2603
740.20 0.2602
740.30 0.2601
740.40 0.26
740.50 0.2598
740.60 0.2597
740.70 0.2596
740.80 0.2595
740.90 0.2593
741.00 0.2592
741.10 0.2591
741.20 0.259
741.30 0.2588
741.40 0.2587
741.50 0.2586
741.60 0.2585
741.70 0.2584
741.80 0.2582
741.90 0.2581
742.00 0.258
742.10 0.2579
742.20 0.2577
742.30 0.2576
742.40 0.2575
742.50 0.2574
742.60 0.2572
742.70 0.2571
742.80 0.257
742.90 0.2569
743.00 0.2568
743.10 0.2566
743.20 0.2565
743.30 0.2564
743.40 0.2563
743.50 0.2562
743.60 0.256
743.70 0.2559
743.80 0.2558
743.90 0.2557
744.00 0.2555
744.10 0.2554
744.20 0.2553
744.30 0.2552
744.40 0.2551
744.50 0.2549
744.60 0.2548
744.70 0.2547
744.80 0.2546
744.90 0.2545
745.00 0.2543
745.10 0.2542
745.20 0.2541
745.30 0.254
745.40 0.2538
745.50 0.2537
745.60 0.2536
745.70 0.2535
745.80 0.2534
745.90 0.2532
746.00 0.2531
746.10 0.253
746.20 0.2529
746.30 0.2528
746.40 0.2526
746.50 0.2525
746.60 0.2524
746.70 0.2523
746.80 0.2522
746.90 0.252
747.00 0.2519
747.10 0.2518
747.20 0.2517
747.30 0.2516
747.40 0.2514
747.50 0.2513
747.60 0.2512
747.70 0.2511
747.80 0.251
747.90 0.2509
748.00 0.2507
748.10 0.2506
748.20 0.2505
748.30 0.2504
748.40 0.2503
748.50 0.2501
748.60 0.25
748.70 0.2499
748.80 0.2498
748.90 0.2497
749.00 0.2495
749.10 0.2494
749.20 0.2493
749.30 0.2492
749.40 0.2491
749.50 0.2489
749.60 0.2488
749.70 0.2487
749.80 0.2486
749.90 0.2485
750.00 0.2484
750.10 0.2482
750.20 0.2481
750.30 0.248
750.40 0.2479
750.50 0.2478
750.60 0.2477
750.70 0.2475
750.80 0.2474
750.90 0.2473
751.00 0.2472
751.10 0.2471
751.20 0.247
751.30 0.2468
751.40 0.2467
751.50 0.2466
751.60 0.2465
751.70 0.2464
751.80 0.2463
751.90 0.2462
752.00 0.246
752.10 0.2459
752.20 0.2458
752.30 0.2457
752.40 0.2456
752.50 0.2455
752.60 0.2453
752.70 0.2452
752.80 0.2451
752.90 0.245
753.00 0.2449
753.10 0.2448
753.20 0.2447
753.30 0.2445
753.40 0.2444
753.50 0.2443
753.60 0.2442
753.70 0.2441
753.80 0.244
753.90 0.2439
754.00 0.2437
754.10 0.2436
754.20 0.2435
754.30 0.2434
754.40 0.2433
754.50 0.2432
754.60 0.2431
754.70 0.2429
754.80 0.2428
754.90 0.2427
755.00 0.2426
755.10 0.2425
755.20 0.2424
755.30 0.2423
755.40 0.2421
755.50 0.242
755.60 0.2419
755.70 0.2418
755.80 0.2417
755.90 0.2416
756.00 0.2415
756.10 0.2413
756.20 0.2412
756.30 0.2411
756.40 0.241
756.50 0.2409
756.60 0.2408
756.70 0.2407
756.80 0.2406
756.90 0.2404
757.00 0.2403
757.10 0.2402
757.20 0.2401
757.30 0.24
757.40 0.2399
757.50 0.2398
757.60 0.2397
757.70 0.2395
757.80 0.2394
757.90 0.2393
758.00 0.2392
758.10 0.2391
758.20 0.239
758.30 0.2389
758.40 0.2388
758.50 0.2386
758.60 0.2385
758.70 0.2384
758.80 0.2383
758.90 0.2382
759.00 0.2381
759.10 0.238
759.20 0.2379
759.30 0.2377
759.40 0.2376
759.50 0.2375
759.60 0.2374
759.70 0.2373
759.80 0.2372
759.90 0.2371
760.00 0.237
760.10 0.2369
760.20 0.2367
760.30 0.2366
760.40 0.2365
760.50 0.2364
760.60 0.2363
760.70 0.2362
760.80 0.2361
760.90 0.236
761.00 0.2359
761.10 0.2358
761.20 0.2357
761.30 0.2355
761.40 0.2354
761.50 0.2353
761.60 0.2352
761.70 0.2351
761.80 0.235
761.90 0.2349
762.00 0.2348
762.10 0.2347
762.20 0.2346
762.30 0.2345
762.40 0.2343
762.50 0.2342
762.60 0.2341
762.70 0.234
762.80 0.2339
762.90 0.2338
763.00 0.2337
763.10 0.2336
763.20 0.2335
763.30 0.2334
763.40 0.2333
763.50 0.2332
763.60 0.233
763.70 0.2329
763.80 0.2328
763.90 0.2327
764.00 0.2326
764.10 0.2325
764.20 0.2324
764.30 0.2323
764.40 0.2322
764.50 0.2321
764.60 0.232
764.70 0.2319
764.80 0.2318
764.90 0.2316
765.00 0.2315
765.10 0.2314
765.20 0.2313
765.30 0.2312
765.40 0.2311
765.50 0.231
765.60 0.2309
765.70 0.2308
765.80 0.2307
765.90 0.2306
766.00 0.2305
766.10 0.2304
766.20 0.2303
766.30 0.2301
766.40 0.23
766.50 0.2299
766.60 0.2298
766.70 0.2297
766.80 0.2296
766.90 0.2295
767.00 0.2294
767.10 0.2293
767.20 0.2292
767.30 0.2291
767.40 0.229
767.50 0.2289
767.60 0.2288
767.70 0.2287
767.80 0.2286
767.90 0.2284
768.00 0.2283
768.10 0.2282
768.20 0.2281
768.30 0.228
768.40 0.2279
768.50 0.2278
768.60 0.2277
768.70 0.2276
768.80 0.2275
768.90 0.2274
769.00 0.2273
769.10 0.2272
769.20 0.2271
769.30 0.227
769.40 0.2269
769.50 0.2268
769.60 0.2266
769.70 0.2265
769.80 0.2264
769.90 0.2263
770.00 0.2262
770.10 0.2261
770.20 0.226
770.30 0.2259
770.40 0.2258
770.50 0.2257
770.60 0.2256
770.70 0.2255
770.80 0.2254
770.90 0.2253
771.00 0.2252
771.10 0.2251
771.20 0.225
771.30 0.2249
771.40 0.2248
771.50 0.2247
771.60 0.2246
771.70 0.2245
771.80 0.2244
771.90 0.2243
772.00 0.2242
772.10 0.2241
772.20 0.224
772.30 0.2239
772.40 0.2238
772.50 0.2237
772.60 0.2236
772.70 0.2234
772.80 0.2233
772.90 0.2232
773.00 0.2231
773.10 0.223
773.20 0.2229
773.30 0.2228
773.40 0.2227
773.50 0.2226
773.60 0.2225
773.70 0.2224
773.80 0.2223
773.90 0.2222
774.00 0.2221
774.10 0.222
774.20 0.2219
774.30 0.2218
774.40 0.2217
774.50 0.2216
774.60 0.2215
774.70 0.2214
774.80 0.2213
774.90 0.2212
775.00 0.2211
775.10 0.221
775.20 0.2209
775.30 0.2208
775.40 0.2207
775.50 0.2206
775.60 0.2205
775.70 0.2204
775.80 0.2203
775.90 0.2202
776.00 0.2201
776.10 0.22
776.20 0.2199
776.30 0.2198
776.40 0.2197
776.50 0.2196
776.60 0.2195
776.70 0.2194
776.80 0.2193
776.90 0.2192
777.00 0.2191
777.10 0.219
777.20 0.2189
777.30 0.2188
777.40 0.2187
777.50 0.2186
777.60 0.2185
777.70 0.2184
777.80 0.2183
777.90 0.2182
778.00 0.2181
778.10 0.218
778.20 0.2179
778.30 0.2178
778.40 0.2177
778.50 0.2176
778.60 0.2175
778.70 0.2174
778.80 0.2173
778.90 0.2172
779.00 0.2171
779.10 0.217
779.20 0.2169
779.30 0.2168
779.40 0.2167
779.50 0.2166
779.60 0.2165
779.70 0.2164
779.80 0.2163
779.90 0.2162
780.00 0.2161
780.10 0.216
780.20 0.2159
780.30 0.2158
780.40 0.2157
780.50 0.2156
780.60 0.2155
780.70 0.2154
780.80 0.2153
780.90 0.2152
781.00 0.2151
781.10 0.215
781.20 0.2149
781.30 0.2148
781.40 0.2147
781.50 0.2146
781.60 0.2145
781.70 0.2144
781.80 0.2143
781.90 0.2142
782.00 0.2141
782.10 0.214
782.20 0.214
782.30 0.2139
782.40 0.2138
782.50 0.2137
782.60 0.2136
782.70 0.2135
782.80 0.2134
782.90 0.2133
783.00 0.2132
783.10 0.2131
783.20 0.213
783.30 0.2129
783.40 0.2128
783.50 0.2127
783.60 0.2126
783.70 0.2125
783.80 0.2124
783.90 0.2123
784.00 0.2122
784.10 0.2121
784.20 0.212
784.30 0.2119
784.40 0.2118
784.50 0.2117
784.60 0.2116
784.70 0.2115
784.80 0.2114
784.90 0.2114
785.00 0.2113
785.10 0.2112
785.20 0.2111
785.30 0.211
785.40 0.2109
785.50 0.2108
785.60 0.2107
785.70 0.2106
785.80 0.2105
785.90 0.2104
786.00 0.2103
786.10 0.2102
786.20 0.2101
786.30 0.21
786.40 0.2099
786.50 0.2098
786.60 0.2097
786.70 0.2096
786.80 0.2095
786.90 0.2094
787.00 0.2094
787.10 0.2093
787.20 0.2092
787.30 0.2091
787.40 0.209
787.50 0.2089
787.60 0.2088
787.70 0.2087
787.80 0.2086
787.90 0.2085
788.00 0.2084
788.10 0.2083
788.20 0.2082
788.30 0.2081
788.40 0.208
788.50 0.2079
788.60 0.2078
788.70 0.2077
788.80 0.2077
788.90 0.2076
789.00 0.2075
789.10 0.2074
789.20 0.2073
789.30 0.2072
789.40 0.2071
789.50 0.207
789.60 0.2069
789.70 0.2068
789.80 0.2067
789.90 0.2066
790.00 0.2065
790.10 0.2064
790.20 0.2063
790.30 0.2062
790.40 0.2062
790.50 0.2061
790.60 0.206
790.70 0.2059
790.80 0.2058
790.90 0.2057
791.00 0.2056
791.10 0.2055
791.20 0.2054
791.30 0.2053
791.40 0.2052
791.50 0.2051
791.60 0.2051
791.70 0.205
791.80 0.2049
791.90 0.2048
792.00 0.2047
792.10 0.2046
792.20 0.2045
792.30 0.2044
792.40 0.2043
792.50 0.2042
792.60 0.2041
792.70 0.204
792.80 0.204
792.90 0.2039
793.00 0.2038
793.10 0.2037
793.20 0.2036
793.30 0.2035
793.40 0.2034
793.50 0.2033
793.60 0.2032
793.70 0.2031
793.80 0.203
793.90 0.203
794.00 0.2029
794.10 0.2028
794.20 0.2027
794.30 0.2026
794.40 0.2025
794.50 0.2024
794.60 0.2023
794.70 0.2022
794.80 0.2021
794.90 0.202
795.00 0.202
795.10 0.2019
795.20 0.2018
795.30 0.2017
795.40 0.2016
795.50 0.2015
795.60 0.2014
795.70 0.2013
795.80 0.2012
795.90 0.2011
796.00 0.2011
796.10 0.201
796.20 0.2009
796.30 0.2008
796.40 0.2007
796.50 0.2006
796.60 0.2005
796.70 0.2004
796.80 0.2003
796.90 0.2002
797.00 0.2002
797.10 0.2001
797.20 0.2
797.30 0.1999
797.40 0.1998
797.50 0.1997
797.60 0.1996
797.70 0.1995
797.80 0.1994
797.90 0.1993
798.00 0.1993
798.10 0.1992
798.20 0.1991
798.30 0.199
798.40 0.1989
798.50 0.1988
798.60 0.1987
798.70 0.1986
798.80 0.1985
798.90 0.1985
799.00 0.1984
799.10 0.1983
799.20 0.1982
799.30 0.1981
799.40 0.198
799.50 0.1979
799.60 0.1978
799.70 0.1977
799.80 0.1977
799.90 0.1976
800.00 0.1975
800.10 0.1974
800.20 0.1973
800.30 0.1972
800.40 0.1971
800.50 0.197
800.60 0.197
800.70 0.1969
800.80 0.1968
800.90 0.1967
801.00 0.1966
801.10 0.1965
801.20 0.1964
801.30 0.1963
801.40 0.1963
801.50 0.1962
801.60 0.1961
801.70 0.196
801.80 0.1959
801.90 0.1958
802.00 0.1957
802.10 0.1957
802.20 0.1956
802.30 0.1955
802.40 0.1954
802.50 0.1953
802.60 0.1952
802.70 0.1951
802.80 0.1951
802.90 0.195
803.00 0.1949
803.10 0.1948
803.20 0.1947
803.30 0.1946
803.40 0.1945
803.50 0.1944
803.60 0.1944
803.70 0.1943
803.80 0.1942
803.90 0.1941
804.00 0.194
804.10 0.1939
804.20 0.1938
804.30 0.1938
804.40 0.1937
804.50 0.1936
804.60 0.1935
804.70 0.1934
804.80 0.1933
804.90 0.1932
805.00 0.1932
805.10 0.1931
805.20 0.193
805.30 0.1929
805.40 0.1928
805.50 0.1927
805.60 0.1927
805.70 0.1926
805.80 0.1925
805.90 0.1924
806.00 0.1923
806.10 0.1922
806.20 0.1921
806.30 0.1921
806.40 0.192
806.50 0.1919
806.60 0.1918
806.70 0.1917
806.80 0.1916
806.90 0.1915
807.00 0.1915
807.10 0.1914
807.20 0.1913
807.30 0.1912
807.40 0.1911
807.50 0.191
807.60 0.191
807.70 0.1909
807.80 0.1908
807.90 0.1907
808.00 0.1906
808.10 0.1905
808.20 0.1904
808.30 0.1904
808.40 0.1903
808.50 0.1902
808.60 0.1901
808.70 0.19
808.80 0.1899
808.90 0.1899
809.00 0.1898
809.10 0.1897
809.20 0.1896
809.30 0.1895
809.40 0.1894
809.50 0.1894
809.60 0.1893
809.70 0.1892
809.80 0.1891
809.90 0.189
810.00 0.1889
810.10 0.1889
810.20 0.1888
810.30 0.1887
810.40 0.1886
810.50 0.1885
810.60 0.1884
810.70 0.1884
810.80 0.1883
810.90 0.1882
811.00 0.1881
811.10 0.188
811.20 0.1879
811.30 0.1879
811.40 0.1878
811.50 0.1877
811.60 0.1876
811.70 0.1875
811.80 0.1875
811.90 0.1874
812.00 0.1873
812.10 0.1872
812.20 0.1871
812.30 0.187
812.40 0.187
812.50 0.1869
812.60 0.1868
812.70 0.1867
812.80 0.1866
812.90 0.1866
813.00 0.1865
813.10 0.1864
813.20 0.1863
813.30 0.1862
813.40 0.1861
813.50 0.1861
813.60 0.186
813.70 0.1859
813.80 0.1858
813.90 0.1857
814.00 0.1857
814.10 0.1856
814.20 0.1855
814.30 0.1854
814.40 0.1853
814.50 0.1853
814.60 0.1852
814.70 0.1851
814.80 0.185
814.90 0.1849
815.00 0.1848
815.10 0.1848
815.20 0.1847
815.30 0.1846
815.40 0.1845
815.50 0.1844
815.60 0.1844
815.70 0.1843
815.80 0.1842
815.90 0.1841
816.00 0.184
816.10 0.184
816.20 0.1839
816.30 0.1838
816.40 0.1837
816.50 0.1836
816.60 0.1836
816.70 0.1835
816.80 0.1834
816.90 0.1833
817.00 0.1832
817.10 0.1832
817.20 0.1831
817.30 0.183
817.40 0.1829
817.50 0.1828
817.60 0.1828
817.70 0.1827
817.80 0.1826
817.90 0.1825
818.00 0.1824
818.10 0.1824
818.20 0.1823
818.30 0.1822
818.40 0.1821
818.50 0.182
818.60 0.182
818.70 0.1819
818.80 0.1818
818.90 0.1817
819.00 0.1816
819.10 0.1816
819.20 0.1815
819.30 0.1814
819.40 0.1813
819.50 0.1812
819.60 0.1812
819.70 0.1811
819.80 0.181
819.90 0.1809
820.00 0.1808
820.10 0.1808
820.20 0.1807
820.30 0.1806
820.40 0.1805
820.50 0.1805
820.60 0.1804
820.70 0.1803
820.80 0.1802
820.90 0.1801
821.00 0.1801
821.10 0.18
821.20 0.1799
821.30 0.1798
821.40 0.1798
821.50 0.1797
821.60 0.1796
821.70 0.1795
821.80 0.1794
821.90 0.1794
822.00 0.1793
822.10 0.1792
822.20 0.1791
822.30 0.179
822.40 0.179
822.50 0.1789
822.60 0.1788
822.70 0.1787
822.80 0.1787
822.90 0.1786
823.00 0.1785
823.10 0.1784
823.20 0.1784
823.30 0.1783
823.40 0.1782
823.50 0.1781
823.60 0.178
823.70 0.178
823.80 0.1779
823.90 0.1778
824.00 0.1777
824.10 0.1777
824.20 0.1776
824.30 0.1775
824.40 0.1774
824.50 0.1774
824.60 0.1773
824.70 0.1772
824.80 0.1771
824.90 0.177
825.00 0.177
825.10 0.1769
825.20 0.1768
825.30 0.1767
825.40 0.1767
825.50 0.1766
825.60 0.1765
825.70 0.1764
825.80 0.1764
825.90 0.1763
826.00 0.1762
826.10 0.1761
826.20 0.1761
826.30 0.176
826.40 0.1759
826.50 0.1758
826.60 0.1757
826.70 0.1757
826.80 0.1756
826.90 0.1755
827.00 0.1754
827.10 0.1754
827.20 0.1753
827.30 0.1752
827.40 0.1751
827.50 0.1751
827.60 0.175
827.70 0.1749
827.80 0.1748
827.90 0.1748
828.00 0.1747
828.10 0.1746
828.20 0.1745
828.30 0.1745
828.40 0.1744
828.50 0.1743
828.60 0.1742
828.70 0.1742
828.80 0.1741
828.90 0.174
829.00 0.1739
829.10 0.1739
829.20 0.1738
829.30 0.1737
829.40 0.1736
829.50 0.1736
829.60 0.1735
829.70 0.1734
829.80 0.1733
829.90 0.1733
830.00 0.1732
830.10 0.1731
830.20 0.173
830.30 0.173
830.40 0.1729
830.50 0.1728
830.60 0.1727
830.70 0.1727
830.80 0.1726
830.90 0.1725
831.00 0.1724
831.10 0.1724
831.20 0.1723
831.30 0.1722
831.40 0.1721
831.50 0.1721
831.60 0.172
831.70 0.1719
831.80 0.1719
831.90 0.1718
832.00 0.1717
832.10 0.1716
832.20 0.1716
832.30 0.1715
832.40 0.1714
832.50 0.1713
832.60 0.1713
832.70 0.1712
832.80 0.1711
832.90 0.171
833.00 0.171
833.10 0.1709
833.20 0.1708
833.30 0.1708
833.40 0.1707
833.50 0.1706
833.60 0.1705
833.70 0.1705
833.80 0.1704
833.90 0.1703
834.00 0.1702
834.10 0.1702
834.20 0.1701
834.30 0.17
834.40 0.17
834.50 0.1699
834.60 0.1698
834.70 0.1697
834.80 0.1697
834.90 0.1696
835.00 0.1695
835.10 0.1694
835.20 0.1694
835.30 0.1693
835.40 0.1692
835.50 0.1692
835.60 0.1691
835.70 0.169
835.80 0.1689
835.90 0.1689
836.00 0.1688
836.10 0.1687
836.20 0.1686
836.30 0.1686
836.40 0.1685
836.50 0.1684
836.60 0.1684
836.70 0.1683
836.80 0.1682
836.90 0.1681
837.00 0.1681
837.10 0.168
837.20 0.1679
837.30 0.1679
837.40 0.1678
837.50 0.1677
837.60 0.1676
837.70 0.1676
837.80 0.1675
837.90 0.1674
838.00 0.1674
838.10 0.1673
838.20 0.1672
838.30 0.1671
838.40 0.1671
838.50 0.167
838.60 0.1669
838.70 0.1669
838.80 0.1668
838.90 0.1667
839.00 0.1666
839.10 0.1666
839.20 0.1665
839.30 0.1664
839.40 0.1664
839.50 0.1663
839.60 0.1662
839.70 0.1661
839.80 0.1661
839.90 0.166
840.00 0.1659
840.10 0.1659
840.20 0.1658
840.30 0.1657
840.40 0.1657
840.50 0.1656
840.60 0.1655
840.70 0.1654
840.80 0.1654
840.90 0.1653
841.00 0.1652
841.10 0.1652
841.20 0.1651
841.30 0.165
841.40 0.165
841.50 0.1649
841.60 0.1648
841.70 0.1647
841.80 0.1647
841.90 0.1646
842.00 0.1645
842.10 0.1645
842.20 0.1644
842.30 0.1643
842.40 0.1643
842.50 0.1642
842.60 0.1641
842.70 0.164
842.80 0.164
842.90 0.1639
843.00 0.1638
843.10 0.1638
843.20 0.1637
843.30 0.1636
843.40 0.1636
843.50 0.1635
843.60 0.1634
843.70 0.1633
843.80 0.1633
843.90 0.1632
844.00 0.1631
844.10 0.1631
844.20 0.163
844.30 0.1629
844.40 0.1629
844.50 0.1628
844.60 0.1627
844.70 0.1627
844.80 0.1626
844.90 0.1625
845.00 0.1625
845.10 0.1624
845.20 0.1623
845.30 0.1622
845.40 0.1622
845.50 0.1621
845.60 0.162
845.70 0.162
845.80 0.1619
845.90 0.1618
846.00 0.1618
846.10 0.1617
846.20 0.1616
846.30 0.1616
846.40 0.1615
846.50 0.1614
846.60 0.1614
846.70 0.1613
846.80 0.1612
846.90 0.1611
847.00 0.1611
847.10 0.161
847.20 0.161
847.30 0.1609
847.40 0.1608
847.50 0.1608
847.60 0.1607
847.70 0.1607
847.80 0.1606
847.90 0.1605
848.00 0.1605
848.10 0.1604
848.20 0.1604
848.30 0.1603
848.40 0.1603
848.50 0.1602
848.60 0.1601
848.70 0.1601
848.80 0.16
848.90 0.16
849.00 0.1599
849.10 0.1598
849.20 0.1598
849.30 0.1597
849.40 0.1597
849.50 0.1596
849.60 0.1595
849.70 0.1595
849.80 0.1594
849.90 0.1594
850.00 0.1593
850.10 0.1593
850.20 0.1592
850.30 0.1591
850.40 0.1591
850.50 0.159
850.60 0.159
850.70 0.1589
850.80 0.1588
850.90 0.1588
851.00 0.1587
851.10 0.1587
851.20 0.1586
851.30 0.1586
851.40 0.1585
851.50 0.1584
851.60 0.1584
851.70 0.1583
851.80 0.1583
851.90 0.1582
852.00 0.1581
852.10 0.1581
852.20 0.158
852.30 0.158
852.40 0.1579
852.50 0.1579
852.60 0.1578
852.70 0.1577
852.80 0.1577
852.90 0.1576
853.00 0.1576
853.10 0.1575
853.20 0.1574
853.30 0.1574
853.40 0.1573
853.50 0.1573
853.60 0.1572
853.70 0.1572
853.80 0.1571
853.90 0.157
854.00 0.157
854.10 0.1569
854.20 0.1569
854.30 0.1568
854.40 0.1568
854.50 0.1567
854.60 0.1566
854.70 0.1566
854.80 0.1565
854.90 0.1565
855.00 0.1564
855.10 0.1564
855.20 0.1563
855.30 0.1562
855.40 0.1562
855.50 0.1561
855.60 0.1561
855.70 0.156
855.80 0.1559
855.90 0.1559
856.00 0.1558
856.10 0.1558
856.20 0.1557
856.30 0.1557
856.40 0.1556
856.50 0.1555
856.60 0.1555
856.70 0.1554
856.80 0.1554
856.90 0.1553
857.00 0.1553
857.10 0.1552
857.20 0.1552
857.30 0.1551
857.40 0.155
857.50 0.155
857.60 0.1549
857.70 0.1549
857.80 0.1548
857.90 0.1548
858.00 0.1547
858.10 0.1547
858.20 0.1546
858.30 0.1546
858.40 0.1545
858.50 0.1545
858.60 0.1544
858.70 0.1544
858.80 0.1543
858.90 0.1543
859.00 0.1542
859.10 0.1542
859.20 0.1541
859.30 0.154
859.40 0.154
859.50 0.1539
859.60 0.1539
859.70 0.1538
859.80 0.1538
859.90 0.1537
860.00 0.1537
860.10 0.1536
860.20 0.1536
860.30 0.1535
860.40 0.1535
860.50 0.1534
860.60 0.1534
860.70 0.1533
860.80 0.1533
860.90 0.1532
861.00 0.1532
861.10 0.1531
861.20 0.153
861.30 0.153
861.40 0.1529
861.50 0.1529
861.60 0.1528
861.70 0.1528
861.80 0.1527
861.90 0.1527
862.00 0.1526
862.10 0.1526
862.20 0.1525
862.30 0.1525
862.40 0.1524
862.50 0.1523
862.60 0.1523
862.70 0.1522
862.80 0.1522
862.90 0.1521
863.00 0.1521
863.10 0.152
863.20 0.1519
863.30 0.1519
863.40 0.1518
863.50 0.1518
863.60 0.1517
863.70 0.1517
863.80 0.1516
863.90 0.1515
864.00 0.1515
864.10 0.1514
864.20 0.1514
864.30 0.1513
864.40 0.1513
864.50 0.1512
864.60 0.1511
864.70 0.1511
864.80 0.151
864.90 0.151
865.00 0.1509
865.10 0.1509
865.20 0.1508
865.30 0.1507
865.40 0.1507
865.50 0.1506
865.60 0.1506
865.70 0.1505
865.80 0.1505
865.90 0.1504
866.00 0.1503
866.10 0.1503
866.20 0.1502
866.30 0.1502
866.40 0.1501
866.50 0.1501
866.60 0.15
866.70 0.1499
866.80 0.1499
866.90 0.1498
867.00 0.1498
867.10 0.1497
867.20 0.1497
867.30 0.1497
867.40 0.1496
867.50 0.1496
867.60 0.1496
867.70 0.1495
867.80 0.1495
867.90 0.1495
868.00 0.1494
868.10 0.1494
868.20 0.1493
868.30 0.1493
868.40 0.1493
868.50 0.1492
868.60 0.1492
868.70 0.1492
868.80 0.1491
868.90 0.1491
869.00 0.1491
869.10 0.149
869.20 0.149
869.30 0.149
869.40 0.1489
869.50 0.1489
869.60 0.1488
869.70 0.1488
869.80 0.1488
869.90 0.1487
870.00 0.1487
870.10 0.1487
870.20 0.1486
870.30 0.1486
870.40 0.1486
870.50 0.1485
870.60 0.1485
870.70 0.1485
870.80 0.1484
870.90 0.1484
871.00 0.1483
871.10 0.1483
871.20 0.1483
871.30 0.1482
871.40 0.1482
871.50 0.1482
871.60 0.1481
871.70 0.1481
871.80 0.1481
871.90 0.148
872.00 0.148
872.10 0.1479
872.20 0.1479
872.30 0.1478
872.40 0.1478
872.50 0.1477
872.60 0.1477
872.70 0.1476
872.80 0.1476
872.90 0.1475
873.00 0.1474
873.10 0.1474
873.20 0.1473
873.30 0.1473
873.40 0.1472
873.50 0.1472
873.60 0.1471
873.70 0.1471
873.80 0.147
873.90 0.1469
874.00 0.1469
874.10 0.1468
874.20 0.1468
874.30 0.1467
874.40 0.1467
874.50 0.1466
874.60 0.1466
874.70 0.1465
874.80 0.1465
874.90 0.1464
875.00 0.1463
875.10 0.1463
875.20 0.1462
875.30 0.1462
875.40 0.1461
875.50 0.1461
875.60 0.146
875.70 0.146
875.80 0.1459
875.90 0.1459
876.00 0.1458
876.10 0.1457
876.20 0.1457
876.30 0.1456
876.40 0.1456
876.50 0.1455
876.60 0.1455
876.70 0.1454
876.80 0.1454
876.90 0.1453
877.00 0.1453
877.10 0.1452
877.20 0.1452
877.30 0.1452
877.40 0.1451
877.50 0.1451
877.60 0.1451
877.70 0.145
877.80 0.145
877.90 0.145
878.00 0.145
878.10 0.1449
878.20 0.1449
878.30 0.1449
878.40 0.1448
878.50 0.1448
878.60 0.1448
878.70 0.1448
878.80 0.1447
878.90 0.1447
879.00 0.1447
879.10 0.1446
879.20 0.1446
879.30 0.1446
879.40 0.1445
879.50 0.1445
879.60 0.1445
879.70 0.1445
879.80 0.1444
879.90 0.1444
880.00 0.1444
880.10 0.1443
880.20 0.1443
880.30 0.1443
880.40 0.1443
880.50 0.1442
880.60 0.1442
880.70 0.1442
880.80 0.1441
880.90 0.1441
881.00 0.1441
881.10 0.144
881.20 0.144
881.30 0.144
881.40 0.144
881.50 0.1439
881.60 0.1439
881.70 0.1439
881.80 0.1438
881.90 0.1438
882.00 0.1438
882.10 0.1437
882.20 0.1435
882.30 0.1434
882.40 0.1433
882.50 0.1432
882.60 0.1431
882.70 0.1429
882.80 0.1428
882.90 0.1427
883.00 0.1426
883.10 0.1425
883.20 0.1423
883.30 0.1422
883.40 0.1421
883.50 0.142
883.60 0.1418
883.70 0.1417
883.80 0.1416
883.90 0.1415
884.00 0.1414
884.10 0.1412
884.20 0.1411
884.30 0.141
884.40 0.1409
884.50 0.1408
884.60 0.1406
884.70 0.1405
884.80 0.1404
884.90 0.1403
885.00 0.1402
885.10 0.14
885.20 0.1399
885.30 0.1398
885.40 0.1397
885.50 0.1396
885.60 0.1394
885.70 0.1393
885.80 0.1392
885.90 0.1391
886.00 0.139
886.10 0.1388
886.20 0.1387
886.30 0.1386
886.40 0.1385
886.50 0.1384
886.60 0.1382
886.70 0.1381
886.80 0.138
886.90 0.1379
887.00 0.1378
887.10 0.1378
887.20 0.1378
887.30 0.1379
887.40 0.1379
887.50 0.1379
887.60 0.138
887.70 0.138
887.80 0.138
887.90 0.1381
888.00 0.1381
888.10 0.1382
888.20 0.1382
888.30 0.1382
888.40 0.1383
888.50 0.1383
888.60 0.1383
888.70 0.1384
888.80 0.1384
888.90 0.1384
889.00 0.1385
889.10 0.1385
889.20 0.1385
889.30 0.1386
889.40 0.1386
889.50 0.1387
889.60 0.1387
889.70 0.1387
889.80 0.1388
889.90 0.1388
890.00 0.1388
890.10 0.1389
890.20 0.1389
890.30 0.1389
890.40 0.139
890.50 0.139
890.60 0.139
890.70 0.1391
890.80 0.1391
890.90 0.1392
891.00 0.1392
891.10 0.1392
891.20 0.1393
891.30 0.1393
891.40 0.1393
891.50 0.1394
891.60 0.1394
891.70 0.1394
891.80 0.1395
891.90 0.1395
892.00 0.1395
892.10 0.1395
892.20 0.1394
892.30 0.1394
892.40 0.1393
892.50 0.1392
892.60 0.1392
892.70 0.1391
892.80 0.1391
892.90 0.139
893.00 0.1389
893.10 0.1389
893.20 0.1388
893.30 0.1388
893.40 0.1387
893.50 0.1387
893.60 0.1386
893.70 0.1385
893.80 0.1385
893.90 0.1384
894.00 0.1384
894.10 0.1383
894.20 0.1382
894.30 0.1382
894.40 0.1381
894.50 0.1381
894.60 0.138
894.70 0.138
894.80 0.1379
894.90 0.1378
895.00 0.1378
895.10 0.1377
895.20 0.1377
895.30 0.1376
895.40 0.1375
895.50 0.1375
895.60 0.1374
895.70 0.1374
895.80 0.1373
895.90 0.1372
896.00 0.1372
896.10 0.1371
896.20 0.1371
896.30 0.137
896.40 0.137
896.50 0.1369
896.60 0.1368
896.70 0.1368
896.80 0.1367
896.90 0.1367
897.00 0.1366
897.10 0.1364
897.20 0.1361
897.30 0.1359
897.40 0.1356
897.50 0.1354
897.60 0.1351
897.70 0.1349
897.80 0.1346
897.90 0.1344
898.00 0.1341
898.10 0.1339
898.20 0.1336
898.30 0.1334
898.40 0.1331
898.50 0.1329
898.60 0.1326
898.70 0.1324
898.80 0.1321
898.90 0.1319
899.00 0.1316
899.10 0.1314
899.20 0.1312
899.30 0.1309
899.40 0.1307
899.50 0.1304
899.60 0.1302
899.70 0.1299
899.80 0.1297
899.90 0.1294
900.00 0.1292
900.10 0.1289
900.20 0.1287
900.30 0.1284
900.40 0.1282
900.50 0.128
900.60 0.1277
900.70 0.1275
900.80 0.1272
900.90 0.127
901.00 0.1267
901.10 0.1265
901.20 0.1262
901.30 0.126
901.40 0.1257
901.50 0.1255
901.60 0.1253
901.70 0.125
901.80 0.1248
901.90 0.1245
902.00 0.1243
902.10 0.1244
902.20 0.1245
902.30 0.1246
902.40 0.1247
902.50 0.1248
902.60 0.125
902.70 0.1251
902.80 0.1252
902.90 0.1253
903.00 0.1254
903.10 0.1255
903.20 0.1256
903.30 0.1257
903.40 0.1258
903.50 0.126
903.60 0.1261
903.70 0.1262
903.80 0.1263
903.90 0.1264
904.00 0.1265
904.10 0.1266
904.20 0.1267
904.30 0.1268
904.40 0.127
904.50 0.1271
904.60 0.1272
904.70 0.1273
904.80 0.1274
904.90 0.1275
905.00 0.1276
905.10 0.1277
905.20 0.1278
905.30 0.128
905.40 0.1281
905.50 0.1282
905.60 0.1283
905.70 0.1284
905.80 0.1285
905.90 0.1286
906.00 0.1287
906.10 0.1288
906.20 0.1289
906.30 0.1291
906.40 0.1292
906.50 0.1293
906.60 0.1294
906.70 0.1295
906.80 0.1296
906.90 0.1297
907.00 0.1298
907.10 0.1298
907.20 0.1298
907.30 0.1298
907.40 0.1298
907.50 0.1298
907.60 0.1298
907.70 0.1298
907.80 0.1298
907.90 0.1298
908.00 0.1299
908.10 0.1299
908.20 0.1299
908.30 0.1299
908.40 0.1299
908.50 0.1299
908.60 0.1299
908.70 0.1299
908.80 0.1299
908.90 0.1299
909.00 0.1299
909.10 0.1299
909.20 0.1299
909.30 0.1299
909.40 0.1299
909.50 0.1299
909.60 0.1299
909.70 0.1299
909.80 0.1299
909.90 0.1299
910.00 0.1299
910.10 0.1299
910.20 0.1299
910.30 0.1299
910.40 0.1299
910.50 0.1299
910.60 0.1299
910.70 0.1299
910.80 0.1299
910.90 0.1299
911.00 0.1299
911.10 0.1299
911.20 0.1299
911.30 0.13
911.40 0.13
911.50 0.13
911.60 0.13
911.70 0.13
911.80 0.13
911.90 0.13
912.00 0.13
912.10 0.1299
912.20 0.1297
912.30 0.1296
912.40 0.1295
912.50 0.1294
912.60 0.1292
912.70 0.1291
912.80 0.129
912.90 0.1289
913.00 0.1287
913.10 0.1286
913.20 0.1285
913.30 0.1284
913.40 0.1283
913.50 0.1281
913.60 0.128
913.70 0.1279
913.80 0.1278
913.90 0.1276
914.00 0.1275
914.10 0.1274
914.20 0.1273
914.30 0.1271
914.40 0.127
914.50 0.1269
914.60 0.1268
914.70 0.1267
914.80 0.1265
914.90 0.1264
915.00 0.1263
915.10 0.1262
915.20 0.1261
915.30 0.1259
915.40 0.1258
915.50 0.1257
915.60 0.1256
915.70 0.1254
915.80 0.1253
915.90 0.1252
916.00 0.1251
916.10 0.125
916.20 0.1248
916.30 0.1247
916.40 0.1246
916.50 0.1245
916.60 0.1244
916.70 0.1242
916.80 0.1241
916.90 0.124
917.00 0.1239
917.10 0.1236
917.20 0.1233
917.30 0.123
917.40 0.1227
917.50 0.1224
917.60 0.1221
917.70 0.1218
917.80 0.1216
917.90 0.1213
918.00 0.121
918.10 0.1207
918.20 0.1204
918.30 0.1201
918.40 0.1198
918.50 0.1195
918.60 0.1193
918.70 0.119
918.80 0.1187
918.90 0.1184
919.00 0.1181
919.10 0.1178
919.20 0.1175
919.30 0.1172
919.40 0.117
919.50 0.1167
919.60 0.1164
919.70 0.1161
919.80 0.1158
919.90 0.1155
920.00 0.1152
920.10 0.115
920.20 0.1147
920.30 0.1144
920.40 0.1141
920.50 0.1138
920.60 0.1135
920.70 0.1133
920.80 0.113
920.90 0.1127
921.00 0.1124
921.10 0.1121
921.20 0.1118
921.30 0.1115
921.40 0.1113
921.50 0.111
921.60 0.1107
921.70 0.1104
921.80 0.1101
921.90 0.1098
922.00 0.1096
922.10 0.1096
922.20 0.1096
922.30 0.1097
922.40 0.1097
922.50 0.1097
922.60 0.1097
922.70 0.1098
922.80 0.1098
922.90 0.1098
923.00 0.1099
923.10 0.1099
923.20 0.1099
923.30 0.11
923.40 0.11
923.50 0.11
923.60 0.11
923.70 0.1101
923.80 0.1101
923.90 0.1101
924.00 0.1102
924.10 0.1102
924.20 0.1102
924.30 0.1103
924.40 0.1103
924.50 0.1103
924.60 0.1103
924.70 0.1104
924.80 0.1104
924.90 0.1104
925.00 0.1105
925.10 0.1105
925.20 0.1105
925.30 0.1106
925.40 0.1106
925.50 0.1106
925.60 0.1107
925.70 0.1107
925.80 0.1107
925.90 0.1107
926.00 0.1108
926.10 0.1108
926.20 0.1108
926.30 0.1109
926.40 0.1109
926.50 0.1109
926.60 0.111
926.70 0.111
926.80 0.111
926.90 0.111
927.00 0.1111
927.10 0.1112
927.20 0.1113
927.30 0.1114
927.40 0.1116
927.50 0.1117
927.60 0.1118
927.70 0.1119
927.80 0.112
927.90 0.1122
928.00 0.1123
928.10 0.1124
928.20 0.1125
928.30 0.1126
928.40 0.1127
928.50 0.1129
928.60 0.113
928.70 0.1131
928.80 0.1132
928.90 0.1133
929.00 0.1135
929.10 0.1136
929.20 0.1137
929.30 0.1138
929.40 0.1139
929.50 0.1141
929.60 0.1142
929.70 0.1143
929.80 0.1144
929.90 0.1145
930.00 0.1147
930.10 0.1148
930.20 0.1149
930.30 0.115
930.40 0.1151
930.50 0.1153
930.60 0.1154
930.70 0.1155
930.80 0.1156
930.90 0.1157
931.00 0.1158
931.10 0.116
931.20 0.1161
931.30 0.1162
931.40 0.1163
931.50 0.1164
931.60 0.1166
931.70 0.1167
931.80 0.1168
931.90 0.1169
932.00 0.117
932.10 0.1171
932.20 0.1171
932.30 0.1171
932.40 0.1172
932.50 0.1172
932.60 0.1172
932.70 0.1173
932.80 0.1173
932.90 0.1173
933.00 0.1174
933.10 0.1174
933.20 0.1174
933.30 0.1175
933.40 0.1175
933.50 0.1175
933.60 0.1176
933.70 0.1176
933.80 0.1176
933.90 0.1177
934.00 0.1177
934.10 0.1177
934.20 0.1178
934.30 0.1178
934.40 0.1178
934.50 0.1178
934.60 0.1178
934.70 0.1178
934.80 0.1178
934.90 0.1178
935.00 0.1177
935.10 0.1177
935.20 0.1177
935.30 0.1177
935.40 0.1177
935.50 0.1177
935.60 0.1177
935.70 0.1177
935.80 0.1177
935.90 0.1177
936.00 0.1177
936.10 0.1177
936.20 0.1177
936.30 0.1176
936.40 0.1176
936.50 0.1176
936.60 0.1176
936.70 0.1176
936.80 0.1176
936.90 0.1176
937.00 0.1176
937.10 0.1176
937.20 0.1175
937.30 0.1175
937.40 0.1175
937.50 0.1174
937.60 0.1174
937.70 0.1173
937.80 0.1173
937.90 0.1173
938.00 0.1172
938.10 0.1172
938.20 0.1172
938.30 0.1171
938.40 0.1171
938.50 0.117
938.60 0.117
938.70 0.1169
938.80 0.1169
938.90 0.1168
939.00 0.1167
939.10 0.1167
939.20 0.1166
939.30 0.1166
939.40 0.1165
939.50 0.1165
939.60 0.1164
939.70 0.1163
939.80 0.1163
939.90 0.1162
940.00 0.1162
940.10 0.1161
940.20 0.1161
940.30 0.116
940.40 0.1159
940.50 0.1158
940.60 0.1157
940.70 0.1157
940.80 0.1156
940.90 0.1155
941.00 0.1154
941.10 0.1153
941.20 0.1152
941.30 0.1152
941.40 0.1151
941.50 0.115
941.60 0.1149
941.70 0.1148
941.80 0.1147
941.90 0.1147
942.00 0.1146
942.10 0.1145
942.20 0.1144
942.30 0.1143
942.40 0.1142
942.50 0.114
942.60 0.1139
942.70 0.1138
942.80 0.1137
942.90 0.1135
943.00 0.1134
943.10 0.1133
943.20 0.1132
943.30 0.113
943.40 0.1129
943.50 0.1128
943.60 0.1127
943.70 0.1126
943.80 0.1124
943.90 0.1123
944.00 0.1122
944.10 0.1121
944.20 0.1119
944.30 0.1118
944.40 0.1117
944.50 0.1115
944.60 0.1113
944.70 0.1112
944.80 0.111
944.90 0.1109
945.00 0.1107
945.10 0.1106
945.20 0.1104
945.30 0.1103
945.40 0.1101
945.50 0.1099
945.60 0.1097
945.70 0.1095
945.80 0.1093
945.90 0.1091
946.00 0.1089
946.10 0.1087
946.20 0.1085
946.30 0.1083
946.40 0.1082
946.50 0.108
946.60 0.1078
946.70 0.1076
946.80 0.1074
946.90 0.1072
947.00 0.107
947.10 0.1068
947.20 0.1066
947.30 0.1064
947.40 0.1061
947.50 0.1059
947.60 0.1056
947.70 0.1054
947.80 0.1051
947.90 0.1049
948.00 0.1046
948.10 0.1044
948.20 0.1042
948.30 0.1039
948.40 0.1037
948.50 0.1034
948.60 0.1032
948.70 0.1029
948.80 0.1027
948.90 0.1024
949.00 0.1022
949.10 0.102
949.20 0.1017
949.30 0.1015
949.40 0.1012
949.50 0.1009
949.60 0.1006
949.70 0.1003
949.80 0.1
949.90 0.09974
950.00 0.09946
950.10 0.09917
950.20 0.09888
950.30 0.0986
950.40 0.09831
950.50 0.09802
950.60 0.09774
950.70 0.09745
950.80 0.09716
950.90 0.09688
951.00 0.09659
951.10 0.09631
951.20 0.09602
951.30 0.09574
951.40 0.09543
951.50 0.09513
951.60 0.09483
951.70 0.09453
951.80 0.09423
951.90 0.09393
952.00 0.09363
952.10 0.09334
952.20 0.09305
952.30 0.09276
952.40 0.09247
952.50 0.09218
952.60 0.09189
952.70 0.0916
952.80 0.09132
952.90 0.09108
953.00 0.09085
953.10 0.09061
953.20 0.09038
953.30 0.09015
953.40 0.08991
953.50 0.08968
953.60 0.08961
953.70 0.08954
953.80 0.08946
953.90 0.0894
954.00 0.08981
954.10 0.09023
954.20 0.09119
954.30 0.09211
954.40 0.09094
954.50 0.08995
954.60 0.0895
954.70 0.08905
954.80 0.08907
954.90 0.08909
955.00 0.08911
955.10 0.08913
955.20 0.0893
955.30 0.08947
955.40 0.08964
955.50 0.08981
955.60 0.08998
955.70 0.09015
955.80 0.09032
955.90 0.09054
956.00 0.09076
956.10 0.09099
956.20 0.09121
956.30 0.09143
956.40 0.09165
956.50 0.09187
956.60 0.09209
956.70 0.09231
956.80 0.09254
956.90 0.09276
957.00 0.09298
957.10 0.0932
957.20 0.09343
957.30 0.09365
957.40 0.09385
957.50 0.09406
957.60 0.09426
957.70 0.09446
957.80 0.09466
957.90 0.09486
958.00 0.09507
958.10 0.09527
958.20 0.09547
958.30 0.09567
958.40 0.09588
958.50 0.09608
958.60 0.09628
958.70 0.09648
958.80 0.09668
958.90 0.09688
959.00 0.09708
959.10 0.09729
959.20 0.09749
959.30 0.09769
959.40 0.09784
959.50 0.09799
959.60 0.09814
959.70 0.0983
959.80 0.09845
959.90 0.0986
960.00 0.09875
960.10 0.0989
960.20 0.09905
960.30 0.0992
960.40 0.09936
960.50 0.09951
960.60 0.09966
960.70 0.09981
960.80 0.09996
960.90 0.1001
961.00 0.1003
961.10 0.1004
961.20 0.1006
961.30 0.1007
961.40 0.1008
961.50 0.1009
961.60 0.1011
961.70 0.1012
961.80 0.1013
961.90 0.1014
962.00 0.1015
962.10 0.1016
962.20 0.1017
962.30 0.1018
962.40 0.1019
962.50 0.102
962.60 0.1021
962.70 0.1022
962.80 0.1023
962.90 0.1024
963.00 0.1025
963.10 0.1026
963.20 0.1027
963.30 0.1028
963.40 0.1028
963.50 0.1029
963.60 0.103
963.70 0.103
963.80 0.1031
963.90 0.1032
964.00 0.1033
964.10 0.1033
964.20 0.1034
964.30 0.1035
964.40 0.1035
964.50 0.1036
964.60 0.1036
964.70 0.1036
964.80 0.1037
964.90 0.1037
965.00 0.1038
965.10 0.1038
965.20 0.1039
965.30 0.1039
965.40 0.104
965.50 0.104
965.60 0.1041
965.70 0.1041
965.80 0.1041
965.90 0.1042
966.00 0.1042
966.10 0.1043
966.20 0.1043
966.30 0.1044
966.40 0.1044
966.50 0.1044
966.60 0.1045
966.70 0.1045
966.80 0.1045
966.90 0.1045
967.00 0.1046
967.10 0.1046
967.20 0.1046
967.30 0.1046
967.40 0.1046
967.50 0.1046
967.60 0.1047
967.70 0.1047
967.80 0.1047
967.90 0.1047
968.00 0.1047
968.10 0.1047
968.20 0.1048
968.30 0.1048
968.40 0.1048
968.50 0.1048
968.60 0.1048
968.70 0.1048
968.80 0.1048
968.90 0.1048
969.00 0.1048
969.10 0.1048
969.20 0.1048
969.30 0.1048
969.40 0.1048
969.50 0.1048
969.60 0.1048
969.70 0.1048
969.80 0.1048
969.90 0.1048
970.00 0.1048
970.10 0.1048
970.20 0.1048
970.30 0.1048
970.40 0.1048
970.50 0.1048
970.60 0.1048
970.70 0.1048
970.80 0.1048
970.90 0.1047
971.00 0.1047
971.10 0.1047
971.20 0.1047
971.30 0.1047
971.40 0.1047
971.50 0.1047
971.60 0.1047
971.70 0.1047
971.80 0.1046
971.90 0.1046
972.00 0.1046
972.10 0.1046
972.20 0.1046
972.30 0.1046
972.40 0.1045
972.50 0.1045
972.60 0.1045
972.70 0.1045
972.80 0.1045
972.90 0.1044
973.00 0.1044
973.10 0.1044
973.20 0.1044
973.30 0.1044
973.40 0.1043
973.50 0.1043
973.60 0.1043
973.70 0.1043
973.80 0.1043
973.90 0.1042
974.00 0.1042
974.10 0.1042
974.20 0.1042
974.30 0.1042
974.40 0.1041
974.50 0.1041
974.60 0.1041
974.70 0.104
974.80 0.104
974.90 0.104
975.00 0.104
975.10 0.1039
975.20 0.1039
975.30 0.1039
975.40 0.1038
975.50 0.1038
975.60 0.1038
975.70 0.1037
975.80 0.1037
975.90 0.1037
976.00 0.1037
976.10 0.1036
976.20 0.1036
976.30 0.1036
976.40 0.1035
976.50 0.1035
976.60 0.1035
976.70 0.1035
976.80 0.1034
976.90 0.1034
977.00 0.1034
977.10 0.1033
977.20 0.1033
977.30 0.1033
977.40 0.1032
977.50 0.1032
977.60 0.1031
977.70 0.1031
977.80 0.1031
977.90 0.103
978.00 0.103
978.10 0.1029
978.20 0.1029
978.30 0.1029
978.40 0.1028
978.50 0.1028
978.60 0.1027
978.70 0.1027
978.80 0.1027
978.90 0.1026
979.00 0.1026
979.10 0.1025
979.20 0.1025
979.30 0.1025
979.40 0.1024
979.50 0.1024
979.60 0.1023
979.70 0.1023
979.80 0.1023
979.90 0.1022
980.00 0.1022
980.10 0.1022
980.20 0.1021
980.30 0.1021
980.40 0.102
980.50 0.102
980.60 0.102
980.70 0.1019
980.80 0.1019
980.90 0.1018
981.00 0.1018
981.10 0.1018
981.20 0.1017
981.30 0.1017
981.40 0.1016
981.50 0.1016
981.60 0.1016
981.70 0.1015
981.80 0.1015
981.90 0.1014
982.00 0.1014
982.10 0.1014
982.20 0.1013
982.30 0.1013
982.40 0.1012
982.50 0.1012
982.60 0.1011
982.70 0.1011
982.80 0.101
982.90 0.101
983.00 0.1009
983.10 0.1009
983.20 0.1008
983.30 0.1008
983.40 0.1007
983.50 0.1007
983.60 0.1006
983.70 0.1006
983.80 0.1005
983.90 0.1005
984.00 0.1004
984.10 0.1004
984.20 0.1003
984.30 0.1003
984.40 0.1002
984.50 0.1002
984.60 0.1001
984.70 0.1001
984.80 0.1
984.90 0.09996
985.00 0.0999
985.10 0.09984
985.20 0.09978
985.30 0.09972
985.40 0.09966
985.50 0.0996
985.60 0.09955
985.70 0.09949
985.80 0.09943
985.90 0.09937
986.00 0.09931
986.10 0.09925
986.20 0.0992
986.30 0.09914
986.40 0.09908
986.50 0.09902
986.60 0.09896
986.70 0.09891
986.80 0.09885
986.90 0.09879
987.00 0.09873
987.10 0.09866
987.20 0.0986
987.30 0.09853
987.40 0.09846
987.50 0.09839
987.60 0.09832
987.70 0.09826
987.80 0.09819
987.90 0.09812
988.00 0.09805
988.10 0.09799
988.20 0.09792
988.30 0.09785
988.40 0.09778
988.50 0.09772
988.60 0.09765
988.70 0.09757
988.80 0.09749
988.90 0.09741
989.00 0.09733
989.10 0.09725
989.20 0.09717
989.30 0.09709
989.40 0.09702
989.50 0.09694
989.60 0.09686
989.70 0.09678
989.80 0.0967
989.90 0.09662
990.00 0.09654
990.10 0.09646
990.20 0.09638
990.30 0.0963
990.40 0.09622
990.50 0.09615
990.60 0.09607
990.70 0.09598
990.80 0.09588
990.90 0.09579
991.00 0.0957
991.10 0.0956
991.20 0.09551
991.30 0.09542
991.40 0.09532
991.50 0.09523
991.60 0.09514
991.70 0.09504
991.80 0.09495
991.90 0.09486
992.00 0.09476
992.10 0.09466
992.20 0.09456
992.30 0.09446
992.40 0.09435
992.50 0.09425
992.60 0.09415
992.70 0.09403
992.80 0.09391
992.90 0.0938
993.00 0.09368
993.10 0.09356
993.20 0.09344
993.30 0.09332
993.40 0.0932
993.50 0.09308
993.60 0.09296
993.70 0.09284
993.80 0.09272
993.90 0.0926
994.00 0.09248
994.10 0.09236
994.20 0.09224
994.30 0.09213
994.40 0.09201
994.50 0.09189
994.60 0.09177
994.70 0.09163
994.80 0.09149
994.90 0.09135
995.00 0.09121
995.10 0.09107
995.20 0.09093
995.30 0.09079
995.40 0.09065
995.50 0.09051
995.60 0.09037
995.70 0.09022
995.80 0.09006
995.90 0.0899
996.00 0.08974
996.10 0.08958
996.20 0.08942
996.30 0.08926
996.40 0.0891
996.50 0.08894
996.60 0.08878
996.70 0.08862
996.80 0.08846
996.90 0.0883
997.00 0.08814
997.10 0.08796
997.20 0.08778
997.30 0.0876
997.40 0.08743
997.50 0.08725
997.60 0.08707
997.70 0.08687
997.80 0.08667
997.90 0.08646
998.00 0.08626
998.10 0.08605
998.20 0.08585
998.30 0.08565
998.40 0.08544
998.50 0.08524
998.60 0.08503
998.70 0.08483
998.80 0.08463
998.90 0.08442
999.00 0.08422
999.10 0.08401
999.20 0.08381
999.30 0.08361
999.40 0.0834
999.50 0.0832
999.60 0.083
999.70 0.08276
999.80 0.08252
999.90 0.08227
1000.00 0.08203
1000.10 0.08178
1000.20 0.08153
1000.30 0.08129
1000.40 0.08104
1000.50 0.0808
1000.60 0.08055
1000.70 0.08031
1000.80 0.08006
1000.90 0.07982
1001.00 0.07958
1001.10 0.07933
1001.20 0.07909
1001.30 0.07884
1001.40 0.0786
1001.50 0.07835
1001.60 0.07811
1001.70 0.07785
1001.80 0.07758
1001.90 0.07731
1002.00 0.07704
1002.10 0.07676
1002.20 0.07648
1002.30 0.07619
1002.40 0.07591
1002.50 0.07563
1002.60 0.07535
1002.70 0.07506
1002.80 0.07478
1002.90 0.0745
1003.00 0.07422
1003.10 0.07394
1003.20 0.07364
1003.30 0.07335
1003.40 0.07305
1003.50 0.07276
1003.60 0.07246
1003.70 0.07217
1003.80 0.07187
1003.90 0.07159
1004.00 0.07131
1004.10 0.07104
1004.20 0.07076
1004.30 0.07061
1004.40 0.0705
1004.50 0.07064
1004.60 0.07147
1004.70 0.07092
1004.80 0.07038
1004.90 0.07043
1005.00 0.0705
1005.10 0.07069
1005.20 0.07092
1005.30 0.07115
1005.40 0.07137
1005.50 0.07162
1005.60 0.07186
1005.70 0.07211
1005.80 0.07235
1005.90 0.0726
1006.00 0.07284
1006.10 0.07309
1006.20 0.07332
1006.30 0.07355
1006.40 0.07378
1006.50 0.07401
1006.60 0.07424
1006.70 0.07447
1006.80 0.0747
1006.90 0.07493
1007.00 0.07516
1007.10 0.07537
1007.20 0.07559
1007.30 0.0758
1007.40 0.07601
1007.50 0.07623
1007.60 0.07644
1007.70 0.07663
1007.80 0.07682
1007.90 0.077
1008.00 0.07718
1008.10 0.07737
1008.20 0.07755
1008.30 0.07773
1008.40 0.07792
1008.50 0.0781
1008.60 0.07828
1008.70 0.07847
1008.80 0.07865
1008.90 0.07883
1009.00 0.07902
1009.10 0.0792
1009.20 0.07938
1009.30 0.07956
1009.40 0.07975
1009.50 0.07993
1009.60 0.08011
1009.70 0.08026
1009.80 0.0804
1009.90 0.08053
1010.00 0.08067
1010.10 0.08081
1010.20 0.08095
1010.30 0.08108
1010.40 0.08122
1010.50 0.08136
1010.60 0.08149
1010.70 0.08163
1010.80 0.08177
1010.90 0.08191
1011.00 0.08204
1011.10 0.08218
1011.20 0.08232
1011.30 0.08245
1011.40 0.08259
1011.50 0.08273
1011.60 0.08286
1011.70 0.08298
1011.80 0.08309
1011.90 0.0832
1012.00 0.08332
1012.10 0.08341
1012.20 0.0835
1012.30 0.08359
1012.40 0.08369
1012.50 0.08378
1012.60 0.08387
1012.70 0.08397
1012.80 0.08406
1012.90 0.08415
1013.00 0.08424
1013.10 0.08433
1013.20 0.08443
1013.30 0.08452
1013.40 0.08461
1013.50 0.0847
1013.60 0.0848
1013.70 0.08487
1013.80 0.08494
1013.90 0.08501
1014.00 0.08508
1014.10 0.08515
1014.20 0.08522
1014.30 0.08529
1014.40 0.08536
1014.50 0.08543
1014.60 0.0855
1014.70 0.08555
1014.80 0.0856
1014.90 0.08565
1015.00 0.0857
1015.10 0.08575
1015.20 0.08579
1015.30 0.08584
1015.40 0.08589
1015.50 0.08594
1015.60 0.08599
1015.70 0.08603
1015.80 0.08608
1015.90 0.08613
1016.00 0.08618
1016.10 0.08623
1016.20 0.08627
1016.30 0.08632
1016.40 0.08637
1016.50 0.08642
1016.60 0.08646
1016.70 0.0865
1016.80 0.08654
1016.90 0.08657
1017.00 0.08661
1017.10 0.08663
1017.20 0.08666
1017.30 0.08668
1017.40 0.08671
1017.50 0.08673
1017.60 0.08675
1017.70 0.08678
1017.80 0.0868
1017.90 0.08683
1018.00 0.08685
1018.10 0.08687
1018.20 0.0869
1018.30 0.08692
1018.40 0.08695
1018.50 0.08697
1018.60 0.08699
1018.70 0.08701
1018.80 0.08702
1018.90 0.08703
1019.00 0.08704
1019.10 0.08705
1019.20 0.08705
1019.30 0.08706
1019.40 0.08707
1019.50 0.08708
1019.60 0.08709
1019.70 0.0871
1019.80 0.08711
1019.90 0.08712
1020.00 0.08713
1020.10 0.08714
1020.20 0.08715
1020.30 0.08716
1020.40 0.08717
1020.50 0.08718
1020.60 0.08719
1020.70 0.08719
1020.80 0.08719
1020.90 0.08719
1021.00 0.08719
1021.10 0.08719
1021.20 0.08719
1021.30 0.08719
1021.40 0.08719
1021.50 0.08719
1021.60 0.08719
1021.70 0.08719
1021.80 0.08719
1021.90 0.08719
1022.00 0.08719
1022.10 0.08718
1022.20 0.08717
1022.30 0.08716
1022.40 0.08715
1022.50 0.08714
1022.60 0.08713
1022.70 0.08712
1022.80 0.08711
1022.90 0.08711
1023.00 0.0871
1023.10 0.08709
1023.20 0.08708
1023.30 0.08707
1023.40 0.08706
1023.50 0.08705
1023.60 0.08704
1023.70 0.08703
1023.80 0.08702
1023.90 0.08702
1024.00 0.08701
1024.10 0.087
1024.20 0.08699
1024.30 0.08698
1024.40 0.08697
1024.50 0.08696
1024.60 0.08695
1024.70 0.08694
1024.80 0.08692
1024.90 0.08691
1025.00 0.08689
1025.10 0.08687
1025.20 0.08686
1025.30 0.08684
1025.40 0.08683
1025.50 0.08681
1025.60 0.08679
1025.70 0.08678
1025.80 0.08676
1025.90 0.08674
1026.00 0.08673
1026.10 0.08671
1026.20 0.0867
1026.30 0.08668
1026.40 0.08666
1026.50 0.08665
1026.60 0.08663
1026.70 0.08662
1026.80 0.0866
1026.90 0.08658
1027.00 0.08657
1027.10 0.08655
1027.20 0.08652
1027.30 0.0865
1027.40 0.08648
1027.50 0.08646
1027.60 0.08643
1027.70 0.08641
1027.80 0.08639
1027.90 0.08637
1028.00 0.08635
1028.10 0.08632
1028.20 0.0863
1028.30 0.08628
1028.40 0.08626
1028.50 0.08623
1028.60 0.08621
1028.70 0.08619
1028.80 0.08617
1028.90 0.08615
1029.00 0.08612
1029.10 0.0861
1029.20 0.08608
1029.30 0.08606
1029.40 0.08604
1029.50 0.08601
1029.60 0.08599
1029.70 0.08597
1029.80 0.08595
1029.90 0.08593
1030.00 0.0859
1030.10 0.08588
1030.20 0.08586
1030.30 0.08584
1030.40 0.08582
1030.50 0.08579
1030.60 0.08577
1030.70 0.08575
1030.80 0.08573
1030.90 0.08571
1031.00 0.08568
1031.10 0.08566
1031.20 0.08564
1031.30 0.08562
1031.40 0.0856
1031.50 0.08557
1031.60 0.08555
1031.70 0.08553
1031.80 0.08551
1031.90 0.08549
1032.00 0.08546
1032.10 0.08544
1032.20 0.08541
1032.30 0.08539
1032.40 0.08536
1032.50 0.08533
1032.60 0.08531
1032.70 0.08528
1032.80 0.08525
1032.90 0.08523
1033.00 0.0852
1033.10 0.08518
1033.20 0.08515
1033.30 0.08512
1033.40 0.0851
1033.50 0.08507
1033.60 0.08504
1033.70 0.08502
1033.80 0.08499
1033.90 0.08497
1034.00 0.08494
1034.10 0.08491
1034.20 0.08489
1034.30 0.08486
1034.40 0.08483
1034.50 0.08481
1034.60 0.08478
1034.70 0.08476
1034.80 0.08473
1034.90 0.0847
1035.00 0.08468
1035.10 0.08465
1035.20 0.08463
1035.30 0.0846
1035.40 0.08457
1035.50 0.08455
1035.60 0.08452
1035.70 0.08449
1035.80 0.08447
1035.90 0.08444
1036.00 0.08442
1036.10 0.08439
1036.20 0.08436
1036.30 0.08434
1036.40 0.08431
1036.50 0.08429
1036.60 0.08426
1036.70 0.08423
1036.80 0.08421
1036.90 0.08418
1037.00 0.08416
1037.10 0.08413
1037.20 0.0841
1037.30 0.08407
1037.40 0.08404
1037.50 0.08402
1037.60 0.08399
1037.70 0.08396
1037.80 0.08393
1037.90 0.08391
1038.00 0.08388
1038.10 0.08385
1038.20 0.08382
1038.30 0.08379
1038.40 0.08377
1038.50 0.08374
1038.60 0.08371
1038.70 0.08368
1038.80 0.08365
1038.90 0.08363
1039.00 0.0836
1039.10 0.08357
1039.20 0.08354
1039.30 0.08352
1039.40 0.08349
1039.50 0.08346
1039.60 0.08343
1039.70 0.0834
1039.80 0.08338
1039.90 0.08335
1040.00 0.08332
1040.10 0.08329
1040.20 0.08327
1040.30 0.08324
1040.40 0.08321
1040.50 0.08318
1040.60 0.08316
1040.70 0.08313
1040.80 0.0831
1040.90 0.08307
1041.00 0.08305
1041.10 0.08302
1041.20 0.08299
1041.30 0.08296
1041.40 0.08293
1041.50 0.08291
1041.60 0.08288
1041.70 0.08285
1041.80 0.08282
1041.90 0.0828
1042.00 0.08277
1042.10 0.08274
1042.20 0.08271
1042.30 0.08268
1042.40 0.08266
1042.50 0.08263
1042.60 0.0826
1042.70 0.08257
1042.80 0.08254
1042.90 0.08251
1043.00 0.08248
1043.10 0.08246
1043.20 0.08243
1043.30 0.0824
1043.40 0.08237
1043.50 0.08234
1043.60 0.08231
1043.70 0.08229
1043.80 0.08226
1043.90 0.08223
1044.00 0.0822
1044.10 0.08217
1044.20 0.08214
1044.30 0.08212
1044.40 0.08209
1044.50 0.08206
1044.60 0.08203
1044.70 0.082
1044.80 0.08197
1044.90 0.08195
1045.00 0.08192
1045.10 0.08189
1045.20 0.08186
1045.30 0.08183
1045.40 0.0818
1045.50 0.08178
1045.60 0.08175
1045.70 0.08172
1045.80 0.08169
1045.90 0.08166
1046.00 0.08163
1046.10 0.08161
1046.20 0.08158
1046.30 0.08155
1046.40 0.08152
1046.50 0.08149
1046.60 0.08147
1046.70 0.08144
1046.80 0.08141
1046.90 0.08138
1047.00 0.08135
1047.10 0.08132
1047.20 0.0813
1047.30 0.08127
1047.40 0.08124
1047.50 0.08121
1047.60 0.08118
1047.70 0.08115
1047.80 0.08112
1047.90 0.08109
1048.00 0.08107
1048.10 0.08104
1048.20 0.08101
1048.30 0.08098
1048.40 0.08095
1048.50 0.08092
1048.60 0.08089
1048.70 0.08086
1048.80 0.08084
1048.90 0.08081
1049.00 0.08078
1049.10 0.08075
1049.20 0.08072
1049.30 0.08069
1049.40 0.08066
1049.50 0.08063
1049.60 0.08061
1049.70 0.08058
1049.80 0.08055
1049.90 0.08052
1050.00 0.08049
1050.10 0.08046
1050.20 0.08043
1050.30 0.08041
1050.40 0.08038
1050.50 0.08035
1050.60 0.08032
1050.70 0.08029
1050.80 0.08026
1050.90 0.08024
1051.00 0.08021
1051.10 0.08018
1051.20 0.08015
1051.30 0.08012
1051.40 0.08009
1051.50 0.08006
1051.60 0.08004
1051.70 0.08001
1051.80 0.07998
1051.90 0.07995
1052.00 0.07992
1052.10 0.07989
1052.20 0.07986
1052.30 0.07984
1052.40 0.07981
1052.50 0.07978
1052.60 0.07975
1052.70 0.07972
1052.80 0.07969
1052.90 0.07966
1053.00 0.07963
1053.10 0.0796
1053.20 0.07957
1053.30 0.07955
1053.40 0.07952
1053.50 0.07949
1053.60 0.07946
1053.70 0.07943
1053.80 0.0794
1053.90 0.07937
1054.00 0.07934
1054.10 0.07931
1054.20 0.07929
1054.30 0.07926
1054.40 0.07923
1054.50 0.0792
1054.60 0.07917
1054.70 0.07914
1054.80 0.07911
1054.90 0.07908
1055.00 0.07906
1055.10 0.07903
1055.20 0.079
1055.30 0.07897
1055.40 0.07894
1055.50 0.07891
1055.60 0.07888
1055.70 0.07885
1055.80 0.07883
1055.90 0.0788
1056.00 0.07877
1056.10 0.07874
1056.20 0.07871
1056.30 0.07868
1056.40 0.07865
1056.50 0.07862
1056.60 0.0786
1056.70 0.07857
1056.80 0.07854
1056.90 0.07851
1057.00 0.07848
1057.10 0.07845
1057.20 0.07842
1057.30 0.07839
1057.40 0.07836
1057.50 0.07833
1057.60 0.0783
1057.70 0.07827
1057.80 0.07824
1057.90 0.07822
1058.00 0.07819
1058.10 0.07816
1058.20 0.07813
1058.30 0.0781
1058.40 0.07807
1058.50 0.07804
1058.60 0.07801
1058.70 0.07798
1058.80 0.07795
1058.90 0.07792
1059.00 0.07789
1059.10 0.07786
1059.20 0.07783
1059.30 0.0778
1059.40 0.07777
1059.50 0.07774
1059.60 0.07771
1059.70 0.07769
1059.80 0.07766
1059.90 0.07763
1060.00 0.0776
1060.10 0.07757
1060.20 0.07754
1060.30 0.07751
1060.40 0.07748
1060.50 0.07745
1060.60 0.07742
1060.70 0.07739
1060.80 0.07736
1060.90 0.07733
1061.00 0.0773
1061.10 0.07728
1061.20 0.07725
1061.30 0.07722
1061.40 0.07719
1061.50 0.07716
1061.60 0.07713
1061.70 0.0771
1061.80 0.07707
1061.90 0.07704
1062.00 0.07701
1062.10 0.07698
1062.20 0.07695
1062.30 0.07692
1062.40 0.07689
1062.50 0.07686
1062.60 0.07683
1062.70 0.0768
1062.80 0.07677
1062.90 0.07673
1063.00 0.0767
1063.10 0.07667
1063.20 0.07664
1063.30 0.07661
1063.40 0.07658
1063.50 0.07655
1063.60 0.07652
1063.70 0.07649
1063.80 0.07646
1063.90 0.07643
1064.00 0.0764
1064.10 0.07637
1064.20 0.07633
1064.30 0.0763
1064.40 0.07627
1064.50 0.07624
1064.60 0.07621
1064.70 0.07618
1064.80 0.07615
1064.90 0.07612
1065.00 0.07609
1065.10 0.07606
1065.20 0.07603
1065.30 0.076
1065.40 0.07597
1065.50 0.07594
1065.60 0.07591
1065.70 0.07588
1065.80 0.07584
1065.90 0.07581
1066.00 0.07578
1066.10 0.07575
1066.20 0.07572
1066.30 0.07569
1066.40 0.07566
1066.50 0.07563
1066.60 0.0756
1066.70 0.07557
1066.80 0.07554
1066.90 0.07551
1067.00 0.07548
1067.10 0.07544
1067.20 0.07541
1067.30 0.07538
1067.40 0.07534
1067.50 0.07531
1067.60 0.07527
1067.70 0.07524
1067.80 0.0752
1067.90 0.07517
1068.00 0.07513
1068.10 0.0751
1068.20 0.07507
1068.30 0.07503
1068.40 0.075
1068.50 0.07496
1068.60 0.07493
1068.70 0.07489
1068.80 0.07486
1068.90 0.07483
1069.00 0.07479
1069.10 0.07476
1069.20 0.07472
1069.30 0.07469
1069.40 0.07465
1069.50 0.07462
1069.60 0.07459
1069.70 0.07455
1069.80 0.07452
1069.90 0.07448
1070.00 0.07445
1070.10 0.07442
1070.20 0.07438
1070.30 0.07435
1070.40 0.07431
1070.50 0.07428
1070.60 0.07424
1070.70 0.07421
1070.80 0.07418
1070.90 0.07414
1071.00 0.07411
1071.10 0.07407
1071.20 0.07404
1071.30 0.07401
1071.40 0.07397
1071.50 0.07394
1071.60 0.0739
1071.70 0.07387
1071.80 0.07384
1071.90 0.0738
1072.00 0.07377
1072.10 0.07373
1072.20 0.07369
1072.30 0.07365
1072.40 0.07361
1072.50 0.07357
1072.60 0.07354
1072.70 0.0735
1072.80 0.07346
1072.90 0.07342
1073.00 0.07338
1073.10 0.07334
1073.20 0.0733
1073.30 0.07326
1073.40 0.07322
1073.50 0.07318
1073.60 0.07314
1073.70 0.0731
1073.80 0.07305
1073.90 0.07301
1074.00 0.07296
1074.10 0.07292
1074.20 0.07288
1074.30 0.07283
1074.40 0.07279
1074.50 0.07274
1074.60 0.0727
1074.70 0.07266
1074.80 0.07261
1074.90 0.07257
1075.00 0.07252
1075.10 0.07248
1075.20 0.07244
1075.30 0.07239
1075.40 0.07235
1075.50 0.0723
1075.60 0.07226
1075.70 0.07222
1075.80 0.07217
1075.90 0.07213
1076.00 0.07209
1076.10 0.07204
1076.20 0.072
1076.30 0.07195
1076.40 0.07191
1076.50 0.07187
1076.60 0.07182
1076.70 0.07178
1076.80 0.07174
1076.90 0.07169
1077.00 0.07165
1077.10 0.07159
1077.20 0.07154
1077.30 0.07149
1077.40 0.07143
1077.50 0.07138
1077.60 0.07132
1077.70 0.07127
1077.80 0.07121
1077.90 0.07116
1078.00 0.0711
1078.10 0.07104
1078.20 0.07099
1078.30 0.07093
1078.40 0.07088
1078.50 0.07082
1078.60 0.07076
1078.70 0.07071
1078.80 0.07065
1078.90 0.0706
1079.00 0.07054
1079.10 0.07049
1079.20 0.07043
1079.30 0.07037
1079.40 0.07032
1079.50 0.07026
1079.60 0.07019
1079.70 0.07013
1079.80 0.07006
1079.90 0.06999
1080.00 0.06992
1080.10 0.06986
1080.20 0.06979
1080.30 0.06972
1080.40 0.06966
1080.50 0.06959
1080.60 0.06952
1080.70 0.06946
1080.80 0.06939
1080.90 0.06932
1081.00 0.06926
1081.10 0.06919
1081.20 0.06912
1081.30 0.06905
1081.40 0.06899
1081.50 0.06892
1081.60 0.06884
1081.70 0.06876
1081.80 0.06868
1081.90 0.06861
1082.00 0.06853
1082.10 0.06844
1082.20 0.06836
1082.30 0.06827
1082.40 0.06819
1082.50 0.0681
1082.60 0.06802
1082.70 0.06794
1082.80 0.06785
1082.90 0.06777
1083.00 0.06768
1083.10 0.0676
1083.20 0.06751
1083.30 0.06743
1083.40 0.06734
1083.50 0.06726
1083.60 0.06716
1083.70 0.06706
1083.80 0.06697
1083.90 0.06687
1084.00 0.06677
1084.10 0.06668
1084.20 0.06658
1084.30 0.06648
1084.40 0.06639
1084.50 0.06628
1084.60 0.06617
1084.70 0.06605
1084.80 0.06594
1084.90 0.06583
1085.00 0.06571
1085.10 0.0656
1085.20 0.06548
1085.30 0.06537
1085.40 0.06526
1085.50 0.06514
1085.60 0.06503
1085.70 0.06491
1085.80 0.0648
1085.90 0.06469
1086.00 0.06457
1086.10 0.06446
1086.20 0.06435
1086.30 0.06423
1086.40 0.06412
1086.50 0.064
1086.60 0.06387
1086.70 0.06374
1086.80 0.06361
1086.90 0.06348
1087.00 0.06335
1087.10 0.0632
1087.20 0.06305
1087.30 0.06291
1087.40 0.06276
1087.50 0.06262
1087.60 0.06247
1087.70 0.06233
1087.80 0.06218
1087.90 0.06204
1088.00 0.06189
1088.10 0.06175
1088.20 0.0616
1088.30 0.06146
1088.40 0.06131
1088.50 0.06116
1088.60 0.06099
1088.70 0.06082
1088.80 0.06064
1088.90 0.06047
1089.00 0.0603
1089.10 0.06013
1089.20 0.05995
1089.30 0.05978
1089.40 0.05961
1089.50 0.05944
1089.60 0.05926
1089.70 0.05909
1089.80 0.05892
1089.90 0.05875
1090.00 0.05858
1090.10 0.05841
1090.20 0.05823
1090.30 0.05806
1090.40 0.05789
1090.50 0.05771
1090.60 0.0575
1090.70 0.05729
1090.80 0.05708
1090.90 0.05687
1091.00 0.05667
1091.10 0.05646
1091.20 0.05625
1091.30 0.05604
1091.40 0.05584
1091.50 0.05563
1091.60 0.05542
1091.70 0.05521
1091.80 0.05501
1091.90 0.0548
1092.00 0.05458
1092.10 0.05432
1092.20 0.05406
1092.30 0.0538
1092.40 0.05354
1092.50 0.05328
1092.60 0.05302
1092.70 0.05273
1092.80 0.0524
1092.90 0.05207
1093.00 0.05174
1093.10 0.05139
1093.20 0.05104
1093.30 0.05069
1093.40 0.05067
1093.50 0.05082
1093.60 0.05059
1093.70 0.05083
1093.80 0.05116
1093.90 0.05148
1094.00 0.05178
1094.10 0.05208
1094.20 0.05238
1094.30 0.05265
1094.40 0.05288
1094.50 0.0531
1094.60 0.05333
1094.70 0.05355
1094.80 0.05378
1094.90 0.054
1095.00 0.05421
1095.10 0.05438
1095.20 0.05455
1095.30 0.05472
1095.40 0.05489
1095.50 0.05506
1095.60 0.05523
1095.70 0.05539
1095.80 0.05556
1095.90 0.05573
1096.00 0.0559
1096.10 0.05607
1096.20 0.05624
1096.30 0.05641
1096.40 0.05658
1096.50 0.05674
1096.60 0.05688
1096.70 0.05703
1096.80 0.05717
1096.90 0.05731
1097.00 0.05746
1097.10 0.05758
1097.20 0.05771
1097.30 0.05783
1097.40 0.05796
1097.50 0.05808
1097.60 0.05821
1097.70 0.05833
1097.80 0.05846
1097.90 0.05858
1098.00 0.0587
1098.10 0.05883
1098.20 0.05895
1098.30 0.05908
1098.40 0.0592
1098.50 0.05932
1098.60 0.05941
1098.70 0.05951
1098.80 0.0596
1098.90 0.0597
1099.00 0.05979
1099.10 0.05989
1099.20 0.05998
1099.30 0.06008
1099.40 0.06017
1099.50 0.06027
1099.60 0.06036
1099.70 0.06046
1099.80 0.06055
1099.90 0.06065
1100.00 0.06074
1100.10 0.06084
1100.20 0.06093
1100.30 0.06103
1100.40 0.06112
1100.50 0.06121
1100.60 0.06128
1100.70 0.06135
1100.80 0.06142
1100.90 0.06149
1101.00 0.06156
1101.10 0.06162
1101.20 0.06169
1101.30 0.06176
1101.40 0.06183
1101.50 0.0619
1101.60 0.06197
1101.70 0.06204
1101.80 0.06211
1101.90 0.06218
1102.00 0.06225
1102.10 0.0623
1102.20 0.06236
1102.30 0.06242
1102.40 0.06248
1102.50 0.06253
1102.60 0.06258
1102.70 0.06263
1102.80 0.06267
1102.90 0.06272
1103.00 0.06277
1103.10 0.06282
1103.20 0.06287
1103.30 0.06291
1103.40 0.06296
1103.50 0.063
1103.60 0.06304
1103.70 0.06307
1103.80 0.0631
1103.90 0.06314
1104.00 0.06317
1104.10 0.0632
1104.20 0.06323
1104.30 0.06327
1104.40 0.0633
1104.50 0.06333
1104.60 0.06337
1104.70 0.0634
1104.80 0.06343
1104.90 0.06346
1105.00 0.0635
1105.10 0.06353
1105.20 0.06356
1105.30 0.0636
1105.40 0.06363
1105.50 0.06366
1105.60 0.06368
1105.70 0.0637
1105.80 0.06372
1105.90 0.06374
1106.00 0.06376
1106.10 0.06378
1106.20 0.0638
1106.30 0.06382
1106.40 0.06384
1106.50 0.06386
1106.60 0.06388
1106.70 0.0639
1106.80 0.06392
1106.90 0.06394
1107.00 0.06396
1107.10 0.06397
1107.20 0.06398
1107.30 0.06399
1107.40 0.06401
1107.50 0.06402
1107.60 0.06402
1107.70 0.06403
1107.80 0.06404
1107.90 0.06404
1108.00 0.06405
1108.10 0.06406
1108.20 0.06406
1108.30 0.06407
1108.40 0.06407
1108.50 0.06408
1108.60 0.06409
1108.70 0.06409
1108.80 0.0641
1108.90 0.06411
1109.00 0.06411
1109.10 0.06412
1109.20 0.06413
1109.30 0.06413
1109.40 0.06414
1109.50 0.06414
1109.60 0.06414
1109.70 0.06414
1109.80 0.06414
1109.90 0.06413
1110.00 0.06413
1110.10 0.06413
1110.20 0.06413
1110.30 0.06412
1110.40 0.06412
1110.50 0.06412
1110.60 0.06412
1110.70 0.06412
1110.80 0.06411
1110.90 0.06411
1111.00 0.06411
1111.10 0.06411
1111.20 0.0641
1111.30 0.0641
1111.40 0.0641
1111.50 0.0641
1111.60 0.0641
1111.70 0.06409
1111.80 0.06409
1111.90 0.06409
1112.00 0.06409
1112.10 0.06408
1112.20 0.06407
1112.30 0.06407
1112.40 0.06406
1112.50 0.06405
1112.60 0.06404
1112.70 0.06404
1112.80 0.06403
1112.90 0.06402
1113.00 0.06402
1113.10 0.06401
1113.20 0.064
1113.30 0.06399
1113.40 0.06399
1113.50 0.06398
1113.60 0.06397
1113.70 0.06395
1113.80 0.06394
1113.90 0.06393
1114.00 0.06392
1114.10 0.06391
1114.20 0.06389
1114.30 0.06388
1114.40 0.06387
1114.50 0.06386
1114.60 0.06385
1114.70 0.06383
1114.80 0.06382
1114.90 0.06381
1115.00 0.0638
1115.10 0.06379
1115.20 0.06378
1115.30 0.06376
1115.40 0.06375
1115.50 0.06374
1115.60 0.06373
1115.70 0.06372
1115.80 0.0637
1115.90 0.06369
1116.00 0.06368
1116.10 0.06367
1116.20 0.06366
1116.30 0.06364
1116.40 0.06363
1116.50 0.06362
1116.60 0.06361
1116.70 0.0636
1116.80 0.06359
1116.90 0.06357
1117.00 0.06356
1117.10 0.06355
1117.20 0.06353
1117.30 0.06351
1117.40 0.0635
1117.50 0.06348
1117.60 0.06347
1117.70 0.06345
1117.80 0.06343
1117.90 0.06342
1118.00 0.0634
1118.10 0.06339
1118.20 0.06337
1118.30 0.06336
1118.40 0.06334
1118.50 0.06332
1118.60 0.06331
1118.70 0.06329
1118.80 0.06328
1118.90 0.06326
1119.00 0.06324
1119.10 0.06323
1119.20 0.06321
1119.30 0.0632
1119.40 0.06318
1119.50 0.06316
1119.60 0.06315
1119.70 0.06313
1119.80 0.06312
1119.90 0.0631
1120.00 0.06309
1120.10 0.06307
1120.20 0.06305
1120.30 0.06304
1120.40 0.06302
1120.50 0.06301
1120.60 0.06299
1120.70 0.06298
1120.80 0.06296
1120.90 0.06294
1121.00 0.06293
1121.10 0.06291
1121.20 0.0629
1121.30 0.06288
1121.40 0.06286
1121.50 0.06285
1121.60 0.06283
1121.70 0.06282
1121.80 0.0628
1121.90 0.06279
1122.00 0.06277
1122.10 0.06275
1122.20 0.06273
1122.30 0.06272
1122.40 0.0627
1122.50 0.06268
1122.60 0.06266
1122.70 0.06264
1122.80 0.06263
1122.90 0.06261
1123.00 0.06259
1123.10 0.06257
1123.20 0.06255
1123.30 0.06254
1123.40 0.06252
1123.50 0.0625
1123.60 0.06248
1123.70 0.06246
1123.80 0.06245
1123.90 0.06243
1124.00 0.06241
1124.10 0.06239
1124.20 0.06237
1124.30 0.06236
1124.40 0.06234
1124.50 0.06232
1124.60 0.0623
1124.70 0.06228
1124.80 0.06227
1124.90 0.06225
1125.00 0.06223
1125.10 0.06221
1125.20 0.06219
1125.30 0.06218
1125.40 0.06216
1125.50 0.06214
1125.60 0.06212
1125.70 0.0621
1125.80 0.06209
1125.90 0.06207
1126.00 0.06205
1126.10 0.06203
1126.20 0.06201
1126.30 0.062
1126.40 0.06198
1126.50 0.06196
1126.60 0.06194
1126.70 0.06192
1126.80 0.06191
1126.90 0.06189
1127.00 0.06187
1127.10 0.06185
1127.20 0.06183
1127.30 0.06181
1127.40 0.0618
1127.50 0.06178
1127.60 0.06176
1127.70 0.06174
1127.80 0.06172
1127.90 0.0617
1128.00 0.06168
1128.10 0.06166
1128.20 0.06164
1128.30 0.06163
1128.40 0.06161
1128.50 0.06159
1128.60 0.06157
1128.70 0.06155
1128.80 0.06153
1128.90 0.06151
1129.00 0.06149
1129.10 0.06148
1129.20 0.06146
1129.30 0.06144
1129.40 0.06142
1129.50 0.0614
1129.60 0.06138
1129.70 0.06136
1129.80 0.06134
1129.90 0.06133
1130.00 0.06131
1130.10 0.06129
1130.20 0.06127
1130.30 0.06125
1130.40 0.06123
1130.50 0.06121
1130.60 0.06119
1130.70 0.06118
1130.80 0.06116
1130.90 0.06114
1131.00 0.06112
1131.10 0.0611
1131.20 0.06108
1131.30 0.06106
1131.40 0.06105
1131.50 0.06103
1131.60 0.06101
1131.70 0.06099
1131.80 0.06097
1131.90 0.06095
1132.00 0.06093
1132.10 0.06091
1132.20 0.0609
1132.30 0.06088
1132.40 0.06086
1132.50 0.06084
1132.60 0.06082
1132.70 0.0608
1132.80 0.06078
1132.90 0.06076
1133.00 0.06074
1133.10 0.06072
1133.20 0.0607
1133.30 0.06069
1133.40 0.06067
1133.50 0.06065
1133.60 0.06063
1133.70 0.06061
1133.80 0.06059
1133.90 0.06057
1134.00 0.06055
1134.10 0.06053
1134.20 0.06051
1134.30 0.0605
1134.40 0.06048
1134.50 0.06046
1134.60 0.06044
1134.70 0.06042
1134.80 0.0604
1134.90 0.06038
1135.00 0.06036
1135.10 0.06034
1135.20 0.06032
1135.30 0.06031
1135.40 0.06029
1135.50 0.06027
1135.60 0.06025
1135.70 0.06023
1135.80 0.06021
1135.90 0.06019
1136.00 0.06017
1136.10 0.06015
1136.20 0.06014
1136.30 0.06012
1136.40 0.0601
1136.50 0.06008
1136.60 0.06006
1136.70 0.06004
1136.80 0.06002
1136.90 0.06
1137.00 0.05999
1137.10 0.05997
1137.20 0.05995
1137.30 0.05993
1137.40 0.05991
1137.50 0.05989
1137.60 0.05987
1137.70 0.05985
1137.80 0.05983
1137.90 0.05981
1138.00 0.05979
1138.10 0.05978
1138.20 0.05976
1138.30 0.05974
1138.40 0.05972
1138.50 0.0597
1138.60 0.05968
1138.70 0.05966
1138.80 0.05964
1138.90 0.05962
1139.00 0.05961
1139.10 0.05959
1139.20 0.05957
1139.30 0.05955
1139.40 0.05953
1139.50 0.05951
1139.60 0.05949
1139.70 0.05947
1139.80 0.05945
1139.90 0.05944
1140.00 0.05942
1140.10 0.0594
1140.20 0.05938
1140.30 0.05936
1140.40 0.05934
1140.50 0.05932
1140.60 0.0593
1140.70 0.05928
1140.80 0.05927
1140.90 0.05925
1141.00 0.05923
1141.10 0.05921
1141.20 0.05919
1141.30 0.05917
1141.40 0.05915
1141.50 0.05913
1141.60 0.05912
1141.70 0.0591
1141.80 0.05908
1141.90 0.05906
1142.00 0.05904
1142.10 0.05902
1142.20 0.059
1142.30 0.05898
1142.40 0.05896
1142.50 0.05895
1142.60 0.05893
1142.70 0.05891
1142.80 0.05889
1142.90 0.05887
1143.00 0.05885
1143.10 0.05883
1143.20 0.05881
1143.30 0.0588
1143.40 0.05878
1143.50 0.05876
1143.60 0.05874
1143.70 0.05872
1143.80 0.0587
1143.90 0.05868
1144.00 0.05866
1144.10 0.05865
1144.20 0.05863
1144.30 0.05861
1144.40 0.05859
1144.50 0.05857
1144.60 0.05855
1144.70 0.05853
1144.80 0.05851
1144.90 0.0585
1145.00 0.05848
1145.10 0.05846
1145.20 0.05844
1145.30 0.05842
1145.40 0.0584
1145.50 0.05838
1145.60 0.05836
1145.70 0.05835
1145.80 0.05833
1145.90 0.05831
1146.00 0.05829
1146.10 0.05827
1146.20 0.05825
1146.30 0.05823
1146.40 0.05822
1146.50 0.0582
1146.60 0.05818
1146.70 0.05816
1146.80 0.05814
1146.90 0.05812
1147.00 0.0581
1147.10 0.05809
1147.20 0.05807
1147.30 0.05805
1147.40 0.05803
1147.50 0.05801
1147.60 0.05799
1147.70 0.05797
1147.80 0.05796
1147.90 0.05794
1148.00 0.05792
1148.10 0.0579
1148.20 0.05788
1148.30 0.05786
1148.40 0.05784
1148.50 0.05783
1148.60 0.05781
1148.70 0.05779
1148.80 0.05777
1148.90 0.05775
1149.00 0.05773
1149.10 0.05772
1149.20 0.0577
1149.30 0.05768
1149.40 0.05766
1149.50 0.05764
1149.60 0.05762
1149.70 0.0576
1149.80 0.05759
1149.90 0.05757
1150.00 0.05755
1150.10 0.05753
1150.20 0.05751
1150.30 0.05749
1150.40 0.05748
1150.50 0.05746
1150.60 0.05744
1150.70 0.05742
1150.80 0.0574
1150.90 0.05738
1151.00 0.05737
1151.10 0.05735
1151.20 0.05733
1151.30 0.05731
1151.40 0.05729
1151.50 0.05727
1151.60 0.05726
1151.70 0.05724
1151.80 0.05722
1151.90 0.0572
1152.00 0.05718
1152.10 0.05716
1152.20 0.05715
1152.30 0.05713
1152.40 0.05711
1152.50 0.05709
1152.60 0.05707
1152.70 0.05705
1152.80 0.05704
1152.90 0.05702
1153.00 0.057
1153.10 0.05698
1153.20 0.05696
1153.30 0.05694
1153.40 0.05693
1153.50 0.05691
1153.60 0.05689
1153.70 0.05687
1153.80 0.05685
1153.90 0.05683
1154.00 0.05682
1154.10 0.0568
1154.20 0.05678
1154.30 0.05676
1154.40 0.05674
1154.50 0.05673
1154.60 0.05671
1154.70 0.05669
1154.80 0.05667
1154.90 0.05665
1155.00 0.05663
1155.10 0.05662
1155.20 0.0566
1155.30 0.05658
1155.40 0.05656
1155.50 0.05654
1155.60 0.05653
1155.70 0.05651
1155.80 0.05649
1155.90 0.05647
1156.00 0.05645
1156.10 0.05644
1156.20 0.05642
1156.30 0.0564
1156.40 0.05638
1156.50 0.05636
1156.60 0.05634
1156.70 0.05633
1156.80 0.05631
1156.90 0.05629
1157.00 0.05627
1157.10 0.05625
1157.20 0.05624
1157.30 0.05622
1157.40 0.0562
1157.50 0.05618
1157.60 0.05616
1157.70 0.05615
1157.80 0.05613
1157.90 0.05611
1158.00 0.05609
1158.10 0.05607
1158.20 0.05606
1158.30 0.05604
1158.40 0.05602
1158.50 0.056
1158.60 0.05598
1158.70 0.05597
1158.80 0.05595
1158.90 0.05593
1159.00 0.05591
1159.10 0.0559
1159.20 0.05588
1159.30 0.05586
1159.40 0.05584
1159.50 0.05582
1159.60 0.05581
1159.70 0.05579
1159.80 0.05577
1159.90 0.05575
1160.00 0.05573
1160.10 0.05572
1160.20 0.0557
1160.30 0.05568
1160.40 0.05566
1160.50 0.05565
1160.60 0.05563
1160.70 0.05561
1160.80 0.05559
1160.90 0.05557
1161.00 0.05556
1161.10 0.05554
1161.20 0.05552
1161.30 0.0555
1161.40 0.05549
1161.50 0.05547
1161.60 0.05545
1161.70 0.05543
1161.80 0.05541
1161.90 0.0554
1162.00 0.05538
1162.10 0.05536
1162.20 0.05534
1162.30 0.05533
1162.40 0.05531
1162.50 0.05529
1162.60 0.05527
1162.70 0.05525
1162.80 0.05524
1162.90 0.05522
1163.00 0.0552
1163.10 0.05518
1163.20 0.05517
1163.30 0.05515
1163.40 0.05513
1163.50 0.05511
1163.60 0.0551
1163.70 0.05508
1163.80 0.05506
1163.90 0.05504
1164.00 0.05503
1164.10 0.05501
1164.20 0.05499
1164.30 0.05497
1164.40 0.05496
1164.50 0.05494
1164.60 0.05492
1164.70 0.0549
1164.80 0.05488
1164.90 0.05487
1165.00 0.05485
1165.10 0.05483
1165.20 0.05481
1165.30 0.0548
1165.40 0.05478
1165.50 0.05476
1165.60 0.05474
1165.70 0.05473
1165.80 0.05471
1165.90 0.05469
1166.00 0.05467
1166.10 0.05466
1166.20 0.05464
1166.30 0.05462
1166.40 0.0546
1166.50 0.05459
1166.60 0.05457
1166.70 0.05455
1166.80 0.05453
1166.90 0.05452
1167.00 0.0545
1167.10 0.05448
1167.20 0.05446
1167.30 0.05445
1167.40 0.05443
1167.50 0.05441
1167.60 0.0544
1167.70 0.05438
1167.80 0.05436
1167.90 0.05434
1168.00 0.05433
1168.10 0.05431
1168.20 0.05429
1168.30 0.05427
1168.40 0.05426
1168.50 0.05424
1168.60 0.05422
1168.70 0.05421
1168.80 0.05419
1168.90 0.05417
1169.00 0.05415
1169.10 0.05414
1169.20 0.05412
1169.30 0.0541
1169.40 0.05408
1169.50 0.05407
1169.60 0.05405
1169.70 0.05403
1169.80 0.05402
1169.90 0.054
1170.00 0.05398
1170.10 0.05396
1170.20 0.05395
1170.30 0.05393
1170.40 0.05391
1170.50 0.05389
1170.60 0.05388
1170.70 0.05386
1170.80 0.05384
1170.90 0.05383
1171.00 0.05381
1171.10 0.05379
1171.20 0.05377
1171.30 0.05376
1171.40 0.05374
1171.50 0.05372
1171.60 0.05371
1171.70 0.05369
1171.80 0.05367
1171.90 0.05365
1172.00 0.05364
1172.10 0.05362
1172.20 0.0536
1172.30 0.05359
1172.40 0.05357
1172.50 0.05355
1172.60 0.05354
1172.70 0.05352
1172.80 0.0535
1172.90 0.05348
1173.00 0.05347
1173.10 0.05345
1173.20 0.05343
1173.30 0.05342
1173.40 0.0534
1173.50 0.05338
1173.60 0.05337
1173.70 0.05335
1173.80 0.05333
1173.90 0.05331
1174.00 0.0533
1174.10 0.05328
1174.20 0.05326
1174.30 0.05325
1174.40 0.05323
1174.50 0.05321
1174.60 0.0532
1174.70 0.05318
1174.80 0.05316
1174.90 0.05315
1175.00 0.05313
1175.10 0.05311
1175.20 0.05309
1175.30 0.05308
1175.40 0.05306
1175.50 0.05304
1175.60 0.05303
1175.70 0.05301
1175.80 0.05299
1175.90 0.05298
1176.00 0.05296
1176.10 0.05294
1176.20 0.05293
1176.30 0.05291
1176.40 0.05289
1176.50 0.05288
1176.60 0.05286
1176.70 0.05284
1176.80 0.05283
1176.90 0.05281
1177.00 0.05279
1177.10 0.05277
1177.20 0.05276
1177.30 0.05274
1177.40 0.05272
1177.50 0.05271
1177.60 0.05269
1177.70 0.05267
1177.80 0.05266
1177.90 0.05264
1178.00 0.05262
1178.10 0.05261
1178.20 0.05259
1178.30 0.05257
1178.40 0.05256
1178.50 0.05254
1178.60 0.05252
1178.70 0.05251
1178.80 0.05249
1178.90 0.05247
1179.00 0.05246
1179.10 0.05244
1179.20 0.05242
1179.30 0.05241
1179.40 0.05239
1179.50 0.05237
1179.60 0.05236
1179.70 0.05234
1179.80 0.05232
1179.90 0.05231
1180.00 0.05229
1180.10 0.05227
1180.20 0.05226
1180.30 0.05224
1180.40 0.05222
1180.50 0.05221
1180.60 0.05219
1180.70 0.05217
1180.80 0.05216
1180.90 0.05214
1181.00 0.05212
1181.10 0.05211
1181.20 0.05209
1181.30 0.05208
1181.40 0.05206
1181.50 0.05204
1181.60 0.05203
1181.70 0.05201
1181.80 0.05199
1181.90 0.05198
1182.00 0.05196
1182.10 0.05194
1182.20 0.05193
1182.30 0.05191
1182.40 0.05189
1182.50 0.05188
1182.60 0.05186
1182.70 0.05184
1182.80 0.05183
1182.90 0.05181
1183.00 0.0518
1183.10 0.05178
1183.20 0.05176
1183.30 0.05175
1183.40 0.05173
1183.50 0.05171
1183.60 0.0517
1183.70 0.05168
1183.80 0.05166
1183.90 0.05165
1184.00 0.05163
1184.10 0.05162
1184.20 0.0516
1184.30 0.05158
1184.40 0.05157
1184.50 0.05155
1184.60 0.05153
1184.70 0.05152
1184.80 0.0515
1184.90 0.05149
1185.00 0.05147
1185.10 0.05145
1185.20 0.05144
1185.30 0.05142
1185.40 0.0514
1185.50 0.05139
1185.60 0.05137
1185.70 0.05136
1185.80 0.05134
1185.90 0.05132
1186.00 0.05131
1186.10 0.05129
1186.20 0.05127
1186.30 0.05126
1186.40 0.05124
1186.50 0.05123
1186.60 0.05121
1186.70 0.05119
1186.80 0.05118
1186.90 0.05116
1187.00 0.05114
1187.10 0.05113
1187.20 0.05111
1187.30 0.0511
1187.40 0.05108
1187.50 0.05106
1187.60 0.05105
1187.70 0.05103
1187.80 0.05102
1187.90 0.051
1188.00 0.05098
1188.10 0.05097
1188.20 0.05095
1188.30 0.05093
1188.40 0.05092
1188.50 0.0509
1188.60 0.05089
1188.70 0.05087
1188.80 0.05085
1188.90 0.05084
1189.00 0.05082
1189.10 0.05081
1189.20 0.05079
1189.30 0.05077
1189.40 0.05076
1189.50 0.05074
1189.60 0.05073
1189.70 0.05071
1189.80 0.05069
1189.90 0.05068
1190.00 0.05066
1190.10 0.05065
1190.20 0.05063
1190.30 0.05061
1190.40 0.0506
1190.50 0.05058
1190.60 0.05057
1190.70 0.05055
1190.80 0.05053
1190.90 0.05052
1191.00 0.0505
1191.10 0.05049
1191.20 0.05047
1191.30 0.05045
1191.40 0.05044
1191.50 0.05042
1191.60 0.05041
1191.70 0.05039
1191.80 0.05037
1191.90 0.05036
1192.00 0.05034
1192.10 0.05033
1192.20 0.05031
1192.30 0.05029
1192.40 0.05028
1192.50 0.05026
1192.60 0.05025
1192.70 0.05023
1192.80 0.05022
1192.90 0.0502
1193.00 0.05018
1193.10 0.05017
1193.20 0.05015
1193.30 0.05014
1193.40 0.05012
1193.50 0.05011
1193.60 0.05009
1193.70 0.05007
1193.80 0.05006
1193.90 0.05004
1194.00 0.05003
1194.10 0.05001
1194.20 0.04999
1194.30 0.04998
1194.40 0.04996
1194.50 0.04995
1194.60 0.04993
1194.70 0.04992
1194.80 0.0499
1194.90 0.04988
1195.00 0.04987
1195.10 0.04985
1195.20 0.04984
1195.30 0.04982
1195.40 0.04981
1195.50 0.04979
1195.60 0.04977
1195.70 0.04976
1195.80 0.04974
1195.90 0.04973
1196.00 0.04971
1196.10 0.0497
1196.20 0.04968
1196.30 0.04967
1196.40 0.04965
1196.50 0.04963
1196.60 0.04962
1196.70 0.0496
1196.80 0.04959
1196.90 0.04957
1197.00 0.04956
1197.10 0.04954
1197.20 0.04952
1197.30 0.04951
1197.40 0.04949
1197.50 0.04948
1197.60 0.04946
1197.70 0.04945
1197.80 0.04943
1197.90 0.04942
1198.00 0.0494
1198.10 0.04938
1198.20 0.04937
1198.30 0.04935
1198.40 0.04934
1198.50 0.04932
1198.60 0.04931
1198.70 0.04929
1198.80 0.04928
1198.90 0.04926
1199.00 0.04925
1199.10 0.04923
1199.20 0.04921
1199.30 0.0492
1199.40 0.04918
1199.50 0.04917
1199.60 0.04915
1199.70 0.04914
1199.80 0.04912
1199.90 0.04911
1200.00 0
