# Version 2.1 - nm, norm@500 to 1, cut digits, bergeron_25000_90.dat_25000
# Wavelength(nm)  Flambda(ergs/cm^s/s/nm)
300.00 4.36
300.10 4.355
300.20 4.35
300.30 4.345
300.40 4.341
300.50 4.336
300.60 4.331
300.70 4.327
300.80 4.322
300.90 4.317
301.00 4.313
301.10 4.308
301.20 4.303
301.30 4.299
301.40 4.294
301.50 4.29
301.60 4.285
301.70 4.28
301.80 4.276
301.90 4.271
302.00 4.267
302.10 4.262
302.20 4.257
302.30 4.253
302.40 4.248
302.50 4.244
302.60 4.239
302.70 4.235
302.80 4.23
302.90 4.226
303.00 4.221
303.10 4.216
303.20 4.212
303.30 4.207
303.40 4.203
303.50 4.198
303.60 4.194
303.70 4.189
303.80 4.185
303.90 4.181
304.00 4.176
304.10 4.172
304.20 4.167
304.30 4.163
304.40 4.158
304.50 4.154
304.60 4.149
304.70 4.145
304.80 4.141
304.90 4.136
305.00 4.132
305.10 4.127
305.20 4.123
305.30 4.119
305.40 4.114
305.50 4.11
305.60 4.105
305.70 4.101
305.80 4.097
305.90 4.092
306.00 4.088
306.10 4.084
306.20 4.079
306.30 4.075
306.40 4.071
306.50 4.066
306.60 4.062
306.70 4.058
306.80 4.054
306.90 4.049
307.00 4.045
307.10 4.041
307.20 4.036
307.30 4.032
307.40 4.028
307.50 4.024
307.60 4.019
307.70 4.015
307.80 4.011
307.90 4.007
308.00 4.002
308.10 3.998
308.20 3.994
308.30 3.99
308.40 3.986
308.50 3.981
308.60 3.977
308.70 3.973
308.80 3.969
308.90 3.965
309.00 3.96
309.10 3.956
309.20 3.952
309.30 3.948
309.40 3.944
309.50 3.94
309.60 3.936
309.70 3.931
309.80 3.927
309.90 3.923
310.00 3.919
310.10 3.915
310.20 3.911
310.30 3.907
310.40 3.903
310.50 3.899
310.60 3.895
310.70 3.89
310.80 3.886
310.90 3.882
311.00 3.878
311.10 3.874
311.20 3.87
311.30 3.866
311.40 3.862
311.50 3.858
311.60 3.854
311.70 3.85
311.80 3.846
311.90 3.842
312.00 3.838
312.10 3.834
312.20 3.83
312.30 3.826
312.40 3.822
312.50 3.818
312.60 3.814
312.70 3.81
312.80 3.806
312.90 3.802
313.00 3.798
313.10 3.794
313.20 3.79
313.30 3.786
313.40 3.782
313.50 3.779
313.60 3.775
313.70 3.771
313.80 3.767
313.90 3.763
314.00 3.759
314.10 3.755
314.20 3.751
314.30 3.747
314.40 3.743
314.50 3.74
314.60 3.736
314.70 3.732
314.80 3.728
314.90 3.724
315.00 3.72
315.10 3.716
315.20 3.713
315.30 3.709
315.40 3.705
315.50 3.701
315.60 3.697
315.70 3.693
315.80 3.69
315.90 3.686
316.00 3.682
316.10 3.678
316.20 3.674
316.30 3.671
316.40 3.667
316.50 3.663
316.60 3.659
316.70 3.656
316.80 3.652
316.90 3.648
317.00 3.644
317.10 3.641
317.20 3.637
317.30 3.633
317.40 3.629
317.50 3.626
317.60 3.622
317.70 3.618
317.80 3.615
317.90 3.611
318.00 3.607
318.10 3.603
318.20 3.6
318.30 3.596
318.40 3.592
318.50 3.589
318.60 3.585
318.70 3.581
318.80 3.578
318.90 3.574
319.00 3.57
319.10 3.567
319.20 3.563
319.30 3.56
319.40 3.556
319.50 3.552
319.60 3.549
319.70 3.545
319.80 3.541
319.90 3.538
320.00 3.534
320.10 3.531
320.20 3.527
320.30 3.523
320.40 3.52
320.50 3.516
320.60 3.513
320.70 3.509
320.80 3.506
320.90 3.502
321.00 3.498
321.10 3.495
321.20 3.491
321.30 3.488
321.40 3.484
321.50 3.481
321.60 3.477
321.70 3.474
321.80 3.47
321.90 3.467
322.00 3.463
322.10 3.46
322.20 3.456
322.30 3.453
322.40 3.449
322.50 3.446
322.60 3.442
322.70 3.439
322.80 3.435
322.90 3.432
323.00 3.428
323.10 3.425
323.20 3.421
323.30 3.418
323.40 3.414
323.50 3.411
323.60 3.408
323.70 3.404
323.80 3.401
323.90 3.397
324.00 3.394
324.10 3.39
324.20 3.387
324.30 3.384
324.40 3.38
324.50 3.377
324.60 3.373
324.70 3.37
324.80 3.367
324.90 3.363
325.00 3.36
325.10 3.357
325.20 3.353
325.30 3.35
325.40 3.346
325.50 3.343
325.60 3.34
325.70 3.336
325.80 3.333
325.90 3.33
326.00 3.326
326.10 3.323
326.20 3.32
326.30 3.316
326.40 3.313
326.50 3.31
326.60 3.306
326.70 3.303
326.80 3.3
326.90 3.297
327.00 3.293
327.10 3.29
327.20 3.287
327.30 3.283
327.40 3.28
327.50 3.277
327.60 3.274
327.70 3.27
327.80 3.267
327.90 3.264
328.00 3.261
328.10 3.257
328.20 3.254
328.30 3.251
328.40 3.248
328.50 3.244
328.60 3.241
328.70 3.238
328.80 3.235
328.90 3.232
329.00 3.228
329.10 3.225
329.20 3.222
329.30 3.219
329.40 3.216
329.50 3.212
329.60 3.209
329.70 3.206
329.80 3.203
329.90 3.2
330.00 3.197
330.10 3.193
330.20 3.19
330.30 3.187
330.40 3.184
330.50 3.181
330.60 3.178
330.70 3.175
330.80 3.171
330.90 3.168
331.00 3.165
331.10 3.162
331.20 3.159
331.30 3.156
331.40 3.153
331.50 3.15
331.60 3.146
331.70 3.143
331.80 3.14
331.90 3.137
332.00 3.134
332.10 3.131
332.20 3.128
332.30 3.125
332.40 3.122
332.50 3.119
332.60 3.116
332.70 3.113
332.80 3.109
332.90 3.106
333.00 3.103
333.10 3.1
333.20 3.097
333.30 3.094
333.40 3.091
333.50 3.088
333.60 3.085
333.70 3.082
333.80 3.079
333.90 3.076
334.00 3.073
334.10 3.07
334.20 3.067
334.30 3.064
334.40 3.061
334.50 3.058
334.60 3.055
334.70 3.052
334.80 3.049
334.90 3.046
335.00 3.043
335.10 3.04
335.20 3.037
335.30 3.034
335.40 3.031
335.50 3.028
335.60 3.025
335.70 3.022
335.80 3.02
335.90 3.017
336.00 3.014
336.10 3.011
336.20 3.008
336.30 3.005
336.40 3.002
336.50 2.999
336.60 2.996
336.70 2.993
336.80 2.99
336.90 2.987
337.00 2.984
337.10 2.982
337.20 2.979
337.30 2.976
337.40 2.973
337.50 2.97
337.60 2.967
337.70 2.964
337.80 2.961
337.90 2.959
338.00 2.956
338.10 2.953
338.20 2.95
338.30 2.947
338.40 2.944
338.50 2.941
338.60 2.939
338.70 2.936
338.80 2.933
338.90 2.93
339.00 2.927
339.10 2.924
339.20 2.922
339.30 2.919
339.40 2.916
339.50 2.913
339.60 2.91
339.70 2.908
339.80 2.905
339.90 2.902
340.00 2.899
340.10 2.896
340.20 2.894
340.30 2.891
340.40 2.888
340.50 2.885
340.60 2.882
340.70 2.88
340.80 2.877
340.90 2.874
341.00 2.871
341.10 2.869
341.20 2.866
341.30 2.863
341.40 2.86
341.50 2.858
341.60 2.855
341.70 2.852
341.80 2.849
341.90 2.847
342.00 2.844
342.10 2.841
342.20 2.838
342.30 2.836
342.40 2.833
342.50 2.83
342.60 2.828
342.70 2.825
342.80 2.822
342.90 2.82
343.00 2.817
343.10 2.814
343.20 2.812
343.30 2.809
343.40 2.806
343.50 2.803
343.60 2.801
343.70 2.798
343.80 2.795
343.90 2.793
344.00 2.79
344.10 2.787
344.20 2.785
344.30 2.782
344.40 2.78
344.50 2.777
344.60 2.774
344.70 2.772
344.80 2.769
344.90 2.766
345.00 2.764
345.10 2.761
345.20 2.758
345.30 2.756
345.40 2.753
345.50 2.751
345.60 2.748
345.70 2.745
345.80 2.743
345.90 2.74
346.00 2.738
346.10 2.735
346.20 2.732
346.30 2.73
346.40 2.727
346.50 2.725
346.60 2.722
346.70 2.719
346.80 2.717
346.90 2.714
347.00 2.712
347.10 2.709
347.20 2.707
347.30 2.704
347.40 2.702
347.50 2.699
347.60 2.696
347.70 2.694
347.80 2.691
347.90 2.689
348.00 2.686
348.10 2.684
348.20 2.681
348.30 2.679
348.40 2.676
348.50 2.674
348.60 2.671
348.70 2.669
348.80 2.666
348.90 2.664
349.00 2.661
349.10 2.659
349.20 2.656
349.30 2.654
349.40 2.651
349.50 2.649
349.60 2.646
349.70 2.644
349.80 2.641
349.90 2.639
350.00 2.636
350.10 2.634
350.20 2.631
350.30 2.629
350.40 2.626
350.50 2.624
350.60 2.621
350.70 2.619
350.80 2.617
350.90 2.614
351.00 2.612
351.10 2.609
351.20 2.607
351.30 2.604
351.40 2.602
351.50 2.599
351.60 2.597
351.70 2.595
351.80 2.592
351.90 2.59
352.00 2.587
352.10 2.585
352.20 2.583
352.30 2.58
352.40 2.578
352.50 2.575
352.60 2.573
352.70 2.571
352.80 2.568
352.90 2.566
353.00 2.563
353.10 2.561
353.20 2.559
353.30 2.556
353.40 2.554
353.50 2.551
353.60 2.549
353.70 2.547
353.80 2.544
353.90 2.542
354.00 2.54
354.10 2.537
354.20 2.535
354.30 2.533
354.40 2.53
354.50 2.528
354.60 2.526
354.70 2.523
354.80 2.521
354.90 2.519
355.00 2.516
355.10 2.514
355.20 2.512
355.30 2.509
355.40 2.507
355.50 2.505
355.60 2.502
355.70 2.5
355.80 2.498
355.90 2.495
356.00 2.493
356.10 2.491
356.20 2.488
356.30 2.486
356.40 2.484
356.50 2.482
356.60 2.479
356.70 2.477
356.80 2.475
356.90 2.472
357.00 2.47
357.10 2.468
357.20 2.466
357.30 2.463
357.40 2.461
357.50 2.459
357.60 2.457
357.70 2.454
357.80 2.452
357.90 2.45
358.00 2.447
358.10 2.445
358.20 2.443
358.30 2.441
358.40 2.439
358.50 2.436
358.60 2.434
358.70 2.432
358.80 2.43
358.90 2.427
359.00 2.425
359.10 2.423
359.20 2.421
359.30 2.418
359.40 2.416
359.50 2.414
359.60 2.412
359.70 2.41
359.80 2.407
359.90 2.405
360.00 2.403
360.10 2.401
360.20 2.399
360.30 2.396
360.40 2.394
360.50 2.392
360.60 2.39
360.70 2.388
360.80 2.386
360.90 2.383
361.00 2.381
361.10 2.379
361.20 2.377
361.30 2.375
361.40 2.373
361.50 2.37
361.60 2.368
361.70 2.366
361.80 2.364
361.90 2.362
362.00 2.36
362.10 2.357
362.20 2.355
362.30 2.353
362.40 2.351
362.50 2.349
362.60 2.347
362.70 2.345
362.80 2.343
362.90 2.34
363.00 2.338
363.10 2.336
363.20 2.334
363.30 2.332
363.40 2.33
363.50 2.328
363.60 2.326
363.70 2.323
363.80 2.321
363.90 2.319
364.00 2.317
364.10 2.315
364.20 2.313
364.30 2.311
364.40 2.309
364.50 2.307
364.60 2.305
364.70 2.303
364.80 2.3
364.90 2.298
365.00 2.296
365.10 2.294
365.20 2.292
365.30 2.29
365.40 2.288
365.50 2.286
365.60 2.284
365.70 2.282
365.80 2.28
365.90 2.278
366.00 2.276
366.10 2.273
366.20 2.271
366.30 2.269
366.40 2.267
366.50 2.264
366.60 2.262
366.70 2.26
366.80 2.258
366.90 2.256
367.00 2.253
367.10 2.251
367.20 2.249
367.30 2.247
367.40 2.244
367.50 2.242
367.60 2.24
367.70 2.238
367.80 2.236
367.90 2.233
368.00 2.231
368.10 2.229
368.20 2.226
368.30 2.224
368.40 2.222
368.50 2.219
368.60 2.217
368.70 2.215
368.80 2.213
368.90 2.21
369.00 2.208
369.10 2.206
369.20 2.203
369.30 2.201
369.40 2.199
369.50 2.196
369.60 2.194
369.70 2.192
369.80 2.19
369.90 2.187
370.00 2.185
370.10 2.183
370.20 2.181
370.30 2.178
370.40 2.176
370.50 2.174
370.60 2.172
370.70 2.17
370.80 2.167
370.90 2.165
371.00 2.163
371.10 2.161
371.20 2.159
371.30 2.157
371.40 2.154
371.50 2.152
371.60 2.15
371.70 2.148
371.80 2.146
371.90 2.144
372.00 2.141
372.10 2.139
372.20 2.138
372.30 2.136
372.40 2.134
372.50 2.132
372.60 2.13
372.70 2.128
372.80 2.126
372.90 2.124
373.00 2.122
373.10 2.12
373.20 2.118
373.30 2.116
373.40 2.114
373.50 2.112
373.60 2.11
373.70 2.108
373.80 2.106
373.90 2.104
374.00 2.103
374.10 2.101
374.20 2.099
374.30 2.097
374.40 2.095
374.50 2.093
374.60 2.091
374.70 2.089
374.80 2.087
374.90 2.085
375.00 2.083
375.10 2.081
375.20 2.079
375.30 2.077
375.40 2.075
375.50 2.073
375.60 2.071
375.70 2.069
375.80 2.067
375.90 2.065
376.00 2.063
376.10 2.061
376.20 2.059
376.30 2.057
376.40 2.055
376.50 2.053
376.60 2.051
376.70 2.05
376.80 2.048
376.90 2.046
377.00 2.044
377.10 2.042
377.20 2.041
377.30 2.039
377.40 2.038
377.50 2.036
377.60 2.034
377.70 2.033
377.80 2.031
377.90 2.03
378.00 2.028
378.10 2.026
378.20 2.025
378.30 2.023
378.40 2.021
378.50 2.02
378.60 2.018
378.70 2.016
378.80 2.015
378.90 2.013
379.00 2.011
379.10 2.01
379.20 2.008
379.30 2.006
379.40 2.005
379.50 2.003
379.60 2.001
379.70 2
379.80 1.998
379.90 1.997
380.00 1.995
380.10 1.994
380.20 1.993
380.30 1.992
380.40 1.991
380.50 1.99
380.60 1.989
380.70 1.988
380.80 1.987
380.90 1.985
381.00 1.984
381.10 1.983
381.20 1.982
381.30 1.98
381.40 1.979
381.50 1.978
381.60 1.976
381.70 1.975
381.80 1.973
381.90 1.971
382.00 1.969
382.10 1.968
382.20 1.966
382.30 1.963
382.40 1.961
382.50 1.959
382.60 1.957
382.70 1.955
382.80 1.953
382.90 1.95
383.00 1.948
383.10 1.946
383.20 1.944
383.30 1.942
383.40 1.94
383.50 1.938
383.60 1.937
383.70 1.937
383.80 1.937
383.90 1.937
384.00 1.938
384.10 1.938
384.20 1.938
384.30 1.938
384.40 1.938
384.50 1.939
384.60 1.939
384.70 1.938
384.80 1.938
384.90 1.938
385.00 1.938
385.10 1.937
385.20 1.937
385.30 1.936
385.40 1.935
385.50 1.934
385.60 1.933
385.70 1.932
385.80 1.931
385.90 1.929
386.00 1.928
386.10 1.926
386.20 1.924
386.30 1.922
386.40 1.92
386.50 1.918
386.60 1.916
386.70 1.913
386.80 1.91
386.90 1.908
387.00 1.905
387.10 1.902
387.20 1.899
387.30 1.895
387.40 1.892
387.50 1.888
387.60 1.885
387.70 1.881
387.80 1.877
387.90 1.873
388.00 1.869
388.10 1.865
388.20 1.861
388.30 1.856
388.40 1.852
388.50 1.848
388.60 1.844
388.70 1.841
388.80 1.838
388.90 1.836
389.00 1.837
389.10 1.838
389.20 1.84
389.30 1.843
389.40 1.845
389.50 1.848
389.60 1.851
389.70 1.854
389.80 1.857
389.90 1.859
390.00 1.862
390.10 1.864
390.20 1.867
390.30 1.869
390.40 1.871
390.50 1.873
390.60 1.875
390.70 1.877
390.80 1.878
390.90 1.88
391.00 1.881
391.10 1.882
391.20 1.883
391.30 1.884
391.40 1.884
391.50 1.884
391.60 1.884
391.70 1.884
391.80 1.884
391.90 1.884
392.00 1.883
392.10 1.882
392.20 1.881
392.30 1.88
392.40 1.879
392.50 1.877
392.60 1.875
392.70 1.873
392.80 1.871
392.90 1.869
393.00 1.866
393.10 1.863
393.20 1.86
393.30 1.857
393.40 1.854
393.50 1.85
393.60 1.846
393.70 1.842
393.80 1.837
393.90 1.833
394.00 1.828
394.10 1.823
394.20 1.818
394.30 1.812
394.40 1.807
394.50 1.801
394.60 1.795
394.70 1.788
394.80 1.782
394.90 1.775
395.00 1.768
395.10 1.76
395.20 1.753
395.30 1.745
395.40 1.737
395.50 1.729
395.60 1.72
395.70 1.711
395.80 1.702
395.90 1.693
396.00 1.684
396.10 1.674
396.20 1.664
396.30 1.654
396.40 1.644
396.50 1.634
396.60 1.623
396.70 1.613
396.80 1.603
396.90 1.593
397.00 1.583
397.10 1.591
397.20 1.599
397.30 1.607
397.40 1.616
397.50 1.625
397.60 1.634
397.70 1.643
397.80 1.652
397.90 1.66
398.00 1.668
398.10 1.677
398.20 1.685
398.30 1.692
398.40 1.7
398.50 1.707
398.60 1.714
398.70 1.721
398.80 1.728
398.90 1.734
399.00 1.74
399.10 1.746
399.20 1.752
399.30 1.758
399.40 1.763
399.50 1.768
399.60 1.773
399.70 1.778
399.80 1.783
399.90 1.787
400.00 1.792
400.10 1.796
400.20 1.799
400.30 1.803
400.40 1.807
400.50 1.81
400.60 1.813
400.70 1.816
400.80 1.818
400.90 1.821
401.00 1.823
401.10 1.825
401.20 1.827
401.30 1.829
401.40 1.831
401.50 1.832
401.60 1.833
401.70 1.834
401.80 1.835
401.90 1.836
402.00 1.837
402.10 1.837
402.20 1.837
402.30 1.837
402.40 1.837
402.50 1.836
402.60 1.836
402.70 1.835
402.80 1.834
402.90 1.833
403.00 1.832
403.10 1.831
403.20 1.829
403.30 1.827
403.40 1.825
403.50 1.823
403.60 1.821
403.70 1.818
403.80 1.815
403.90 1.813
404.00 1.81
404.10 1.806
404.20 1.803
404.30 1.799
404.40 1.795
404.50 1.792
404.60 1.787
404.70 1.783
404.80 1.778
404.90 1.774
405.00 1.769
405.10 1.763
405.20 1.758
405.30 1.753
405.40 1.747
405.50 1.741
405.60 1.735
405.70 1.728
405.80 1.722
405.90 1.715
406.00 1.708
406.10 1.701
406.20 1.693
406.30 1.686
406.40 1.678
406.50 1.669
406.60 1.661
406.70 1.653
406.80 1.644
406.90 1.635
407.00 1.626
407.10 1.616
407.20 1.607
407.30 1.597
407.40 1.586
407.50 1.576
407.60 1.566
407.70 1.555
407.80 1.544
407.90 1.532
408.00 1.521
408.10 1.509
408.20 1.497
408.30 1.484
408.40 1.472
408.50 1.459
408.60 1.446
408.70 1.432
408.80 1.419
408.90 1.405
409.00 1.39
409.10 1.376
409.20 1.361
409.30 1.346
409.40 1.331
409.50 1.315
409.60 1.3
409.70 1.284
409.80 1.269
409.90 1.254
410.00 1.242
410.10 1.236
410.20 1.234
410.30 1.237
410.40 1.245
410.50 1.256
410.60 1.27
410.70 1.284
410.80 1.298
410.90 1.311
411.00 1.325
411.10 1.339
411.20 1.351
411.30 1.364
411.40 1.377
411.50 1.389
411.60 1.401
411.70 1.412
411.80 1.424
411.90 1.435
412.00 1.445
412.10 1.456
412.20 1.466
412.30 1.476
412.40 1.486
412.50 1.495
412.60 1.504
412.70 1.513
412.80 1.522
412.90 1.531
413.00 1.539
413.10 1.547
413.20 1.555
413.30 1.563
413.40 1.57
413.50 1.578
413.60 1.585
413.70 1.592
413.80 1.598
413.90 1.605
414.00 1.611
414.10 1.617
414.20 1.623
414.30 1.629
414.40 1.635
414.50 1.64
414.60 1.646
414.70 1.651
414.80 1.656
414.90 1.661
415.00 1.665
415.10 1.67
415.20 1.674
415.30 1.678
415.40 1.682
415.50 1.686
415.60 1.69
415.70 1.694
415.80 1.697
415.90 1.701
416.00 1.704
416.10 1.707
416.20 1.71
416.30 1.713
416.40 1.716
416.50 1.718
416.60 1.721
416.70 1.723
416.80 1.726
416.90 1.728
417.00 1.73
417.10 1.732
417.20 1.734
417.30 1.736
417.40 1.738
417.50 1.739
417.60 1.741
417.70 1.742
417.80 1.743
417.90 1.745
418.00 1.746
418.10 1.747
418.20 1.748
418.30 1.749
418.40 1.75
418.50 1.751
418.60 1.751
418.70 1.752
418.80 1.752
418.90 1.753
419.00 1.753
419.10 1.754
419.20 1.754
419.30 1.754
419.40 1.754
419.50 1.754
419.60 1.754
419.70 1.754
419.80 1.754
419.90 1.754
420.00 1.754
420.10 1.753
420.20 1.753
420.30 1.753
420.40 1.752
420.50 1.751
420.60 1.751
420.70 1.75
420.80 1.749
420.90 1.749
421.00 1.748
421.10 1.747
421.20 1.746
421.30 1.745
421.40 1.744
421.50 1.743
421.60 1.742
421.70 1.741
421.80 1.739
421.90 1.738
422.00 1.737
422.10 1.735
422.20 1.734
422.30 1.732
422.40 1.73
422.50 1.729
422.60 1.727
422.70 1.725
422.80 1.724
422.90 1.722
423.00 1.72
423.10 1.718
423.20 1.716
423.30 1.714
423.40 1.711
423.50 1.709
423.60 1.707
423.70 1.705
423.80 1.702
423.90 1.7
424.00 1.697
424.10 1.695
424.20 1.692
424.30 1.689
424.40 1.687
424.50 1.684
424.60 1.681
424.70 1.678
424.80 1.675
424.90 1.672
425.00 1.668
425.10 1.665
425.20 1.662
425.30 1.658
425.40 1.655
425.50 1.651
425.60 1.648
425.70 1.644
425.80 1.64
425.90 1.636
426.00 1.632
426.10 1.628
426.20 1.624
426.30 1.62
426.40 1.616
426.50 1.611
426.60 1.607
426.70 1.602
426.80 1.598
426.90 1.593
427.00 1.588
427.10 1.583
427.20 1.578
427.30 1.573
427.40 1.567
427.50 1.562
427.60 1.557
427.70 1.551
427.80 1.545
427.90 1.539
428.00 1.533
428.10 1.527
428.20 1.521
428.30 1.515
428.40 1.509
428.50 1.502
428.60 1.495
428.70 1.489
428.80 1.482
428.90 1.475
429.00 1.468
429.10 1.461
429.20 1.453
429.30 1.446
429.40 1.438
429.50 1.43
429.60 1.422
429.70 1.415
429.80 1.406
429.90 1.398
430.00 1.39
430.10 1.381
430.20 1.372
430.30 1.364
430.40 1.355
430.50 1.345
430.60 1.336
430.70 1.327
430.80 1.317
430.90 1.307
431.00 1.298
431.10 1.288
431.20 1.277
431.30 1.267
431.40 1.256
431.50 1.246
431.60 1.235
431.70 1.224
431.80 1.212
431.90 1.201
432.00 1.189
432.10 1.177
432.20 1.165
432.30 1.152
432.40 1.14
432.50 1.127
432.60 1.113
432.70 1.1
432.80 1.086
432.90 1.071
433.00 1.057
433.10 1.041
433.20 1.026
433.30 1.009
433.40 0.9918
433.50 0.9737
433.60 0.9548
433.70 0.934
433.80 0.9113
433.90 0.8869
434.00 0.8498
434.10 0.85
434.20 0.8873
434.30 0.9103
434.40 0.9315
434.50 0.9509
434.60 0.9684
434.70 0.9851
434.80 1.001
434.90 1.016
435.00 1.03
435.10 1.044
435.20 1.057
435.30 1.07
435.40 1.082
435.50 1.094
435.60 1.105
435.70 1.117
435.80 1.128
435.90 1.138
436.00 1.149
436.10 1.159
436.20 1.169
436.30 1.178
436.40 1.188
436.50 1.197
436.60 1.206
436.70 1.215
436.80 1.223
436.90 1.232
437.00 1.24
437.10 1.248
437.20 1.256
437.30 1.263
437.40 1.271
437.50 1.278
437.60 1.285
437.70 1.292
437.80 1.299
437.90 1.305
438.00 1.312
438.10 1.318
438.20 1.325
438.30 1.331
438.40 1.336
438.50 1.342
438.60 1.348
438.70 1.353
438.80 1.359
438.90 1.364
439.00 1.369
439.10 1.374
439.20 1.379
439.30 1.383
439.40 1.388
439.50 1.392
439.60 1.397
439.70 1.401
439.80 1.405
439.90 1.409
440.00 1.413
440.10 1.417
440.20 1.42
440.30 1.424
440.40 1.427
440.50 1.43
440.60 1.434
440.70 1.437
440.80 1.44
440.90 1.443
441.00 1.445
441.10 1.448
441.20 1.451
441.30 1.453
441.40 1.456
441.50 1.458
441.60 1.46
441.70 1.462
441.80 1.465
441.90 1.467
442.00 1.468
442.10 1.47
442.20 1.472
442.30 1.474
442.40 1.475
442.50 1.477
442.60 1.478
442.70 1.48
442.80 1.481
442.90 1.483
443.00 1.484
443.10 1.485
443.20 1.486
443.30 1.487
443.40 1.488
443.50 1.489
443.60 1.49
443.70 1.491
443.80 1.492
443.90 1.492
444.00 1.493
444.10 1.494
444.20 1.494
444.30 1.495
444.40 1.495
444.50 1.496
444.60 1.496
444.70 1.496
444.80 1.497
444.90 1.497
445.00 1.497
445.10 1.498
445.20 1.498
445.30 1.498
445.40 1.498
445.50 1.498
445.60 1.498
445.70 1.498
445.80 1.498
445.90 1.498
446.00 1.498
446.10 1.498
446.20 1.498
446.30 1.498
446.40 1.498
446.50 1.498
446.60 1.497
446.70 1.497
446.80 1.497
446.90 1.497
447.00 1.496
447.10 1.496
447.20 1.496
447.30 1.495
447.40 1.495
447.50 1.495
447.60 1.494
447.70 1.494
447.80 1.493
447.90 1.493
448.00 1.493
448.10 1.492
448.20 1.492
448.30 1.491
448.40 1.49
448.50 1.49
448.60 1.489
448.70 1.489
448.80 1.488
448.90 1.488
449.00 1.487
449.10 1.486
449.20 1.486
449.30 1.485
449.40 1.484
449.50 1.484
449.60 1.483
449.70 1.482
449.80 1.482
449.90 1.481
450.00 1.48
450.10 1.48
450.20 1.479
450.30 1.478
450.40 1.477
450.50 1.477
450.60 1.476
450.70 1.475
450.80 1.474
450.90 1.473
451.00 1.473
451.10 1.472
451.20 1.471
451.30 1.47
451.40 1.469
451.50 1.468
451.60 1.468
451.70 1.467
451.80 1.466
451.90 1.465
452.00 1.464
452.10 1.463
452.20 1.462
452.30 1.461
452.40 1.461
452.50 1.46
452.60 1.459
452.70 1.458
452.80 1.457
452.90 1.456
453.00 1.455
453.10 1.454
453.20 1.453
453.30 1.452
453.40 1.451
453.50 1.45
453.60 1.449
453.70 1.448
453.80 1.447
453.90 1.446
454.00 1.445
454.10 1.445
454.20 1.444
454.30 1.443
454.40 1.442
454.50 1.441
454.60 1.44
454.70 1.439
454.80 1.438
454.90 1.437
455.00 1.436
455.10 1.435
455.20 1.434
455.30 1.432
455.40 1.431
455.50 1.43
455.60 1.429
455.70 1.428
455.80 1.427
455.90 1.426
456.00 1.425
456.10 1.424
456.20 1.423
456.30 1.422
456.40 1.421
456.50 1.42
456.60 1.419
456.70 1.418
456.80 1.417
456.90 1.416
457.00 1.415
457.10 1.414
457.20 1.413
457.30 1.411
457.40 1.41
457.50 1.409
457.60 1.408
457.70 1.407
457.80 1.406
457.90 1.405
458.00 1.404
458.10 1.403
458.20 1.402
458.30 1.401
458.40 1.399
458.50 1.398
458.60 1.397
458.70 1.396
458.80 1.395
458.90 1.394
459.00 1.393
459.10 1.392
459.20 1.391
459.30 1.389
459.40 1.388
459.50 1.387
459.60 1.386
459.70 1.385
459.80 1.384
459.90 1.383
460.00 1.382
460.10 1.38
460.20 1.379
460.30 1.378
460.40 1.377
460.50 1.376
460.60 1.375
460.70 1.374
460.80 1.372
460.90 1.371
461.00 1.37
461.10 1.369
461.20 1.368
461.30 1.367
461.40 1.365
461.50 1.364
461.60 1.363
461.70 1.362
461.80 1.361
461.90 1.36
462.00 1.358
462.10 1.357
462.20 1.356
462.30 1.355
462.40 1.354
462.50 1.352
462.60 1.351
462.70 1.35
462.80 1.349
462.90 1.348
463.00 1.347
463.10 1.345
463.20 1.344
463.30 1.343
463.40 1.342
463.50 1.34
463.60 1.339
463.70 1.338
463.80 1.337
463.90 1.336
464.00 1.334
464.10 1.333
464.20 1.332
464.30 1.331
464.40 1.33
464.50 1.328
464.60 1.327
464.70 1.326
464.80 1.325
464.90 1.323
465.00 1.322
465.10 1.321
465.20 1.32
465.30 1.318
465.40 1.317
465.50 1.316
465.60 1.315
465.70 1.313
465.80 1.312
465.90 1.311
466.00 1.309
466.10 1.308
466.20 1.307
466.30 1.306
466.40 1.304
466.50 1.303
466.60 1.302
466.70 1.3
466.80 1.299
466.90 1.298
467.00 1.296
467.10 1.295
467.20 1.294
467.30 1.292
467.40 1.291
467.50 1.29
467.60 1.288
467.70 1.287
467.80 1.286
467.90 1.284
468.00 1.283
468.10 1.282
468.20 1.28
468.30 1.279
468.40 1.278
468.50 1.276
468.60 1.275
468.70 1.273
468.80 1.272
468.90 1.271
469.00 1.269
469.10 1.268
469.20 1.266
469.30 1.265
469.40 1.263
469.50 1.262
469.60 1.26
469.70 1.259
469.80 1.258
469.90 1.256
470.00 1.255
470.10 1.253
470.20 1.252
470.30 1.25
470.40 1.249
470.50 1.247
470.60 1.245
470.70 1.244
470.80 1.242
470.90 1.241
471.00 1.239
471.10 1.238
471.20 1.236
471.30 1.235
471.40 1.233
471.50 1.231
471.60 1.23
471.70 1.228
471.80 1.226
471.90 1.225
472.00 1.223
472.10 1.222
472.20 1.22
472.30 1.218
472.40 1.216
472.50 1.215
472.60 1.213
472.70 1.211
472.80 1.209
472.90 1.208
473.00 1.206
473.10 1.204
473.20 1.202
473.30 1.2
473.40 1.199
473.50 1.197
473.60 1.195
473.70 1.193
473.80 1.191
473.90 1.189
474.00 1.187
474.10 1.185
474.20 1.183
474.30 1.181
474.40 1.179
474.50 1.177
474.60 1.175
474.70 1.173
474.80 1.171
474.90 1.169
475.00 1.167
475.10 1.165
475.20 1.163
475.30 1.16
475.40 1.158
475.50 1.156
475.60 1.153
475.70 1.151
475.80 1.149
475.90 1.147
476.00 1.144
476.10 1.142
476.20 1.14
476.30 1.137
476.40 1.135
476.50 1.132
476.60 1.13
476.70 1.127
476.80 1.124
476.90 1.122
477.00 1.119
477.10 1.117
477.20 1.114
477.30 1.111
477.40 1.108
477.50 1.105
477.60 1.103
477.70 1.1
477.80 1.097
477.90 1.094
478.00 1.091
478.10 1.088
478.20 1.085
478.30 1.082
478.40 1.079
478.50 1.075
478.60 1.072
478.70 1.069
478.80 1.066
478.90 1.062
479.00 1.059
479.10 1.056
479.20 1.052
479.30 1.049
479.40 1.045
479.50 1.041
479.60 1.037
479.70 1.034
479.80 1.03
479.90 1.026
480.00 1.022
480.10 1.019
480.20 1.015
480.30 1.01
480.40 1.006
480.50 1.002
480.60 0.9974
480.70 0.9931
480.80 0.9889
480.90 0.9846
481.00 0.9803
481.10 0.976
481.20 0.9712
481.30 0.9663
481.40 0.9613
481.50 0.9563
481.60 0.9513
481.70 0.9463
481.80 0.9414
481.90 0.9364
482.00 0.9314
482.10 0.9265
482.20 0.9209
482.30 0.9151
482.40 0.9093
482.50 0.9035
482.60 0.8977
482.70 0.8919
482.80 0.8861
482.90 0.8803
483.00 0.8746
483.10 0.8688
483.20 0.8622
483.30 0.8554
483.40 0.8485
483.50 0.8416
483.60 0.8347
483.70 0.8278
483.80 0.821
483.90 0.8141
484.00 0.8072
484.10 0.8004
484.20 0.7927
484.30 0.7846
484.40 0.7765
484.50 0.7684
484.60 0.7604
484.70 0.7513
484.80 0.7417
484.90 0.7322
485.00 0.7227
485.10 0.7132
485.20 0.7024
485.30 0.691
485.40 0.6784
485.50 0.6652
485.60 0.65
485.70 0.6339
485.80 0.614
485.90 0.5924
486.00 0.5671
486.10 0.5482
486.20 0.5494
486.30 0.5755
486.40 0.5979
486.50 0.6188
486.60 0.6359
486.70 0.6513
486.80 0.6646
486.90 0.6769
487.00 0.6878
487.10 0.6982
487.20 0.7074
487.30 0.7159
487.40 0.7244
487.50 0.733
487.60 0.7415
487.70 0.749
487.80 0.7559
487.90 0.7629
488.00 0.7698
488.10 0.7768
488.20 0.7828
488.30 0.7885
488.40 0.7941
488.50 0.7997
488.60 0.8053
488.70 0.811
488.80 0.8166
488.90 0.8222
489.00 0.8278
489.10 0.8334
489.20 0.8382
489.30 0.8426
489.40 0.847
489.50 0.8514
489.60 0.8558
489.70 0.8602
489.80 0.8646
489.90 0.869
490.00 0.8734
490.10 0.8778
490.20 0.8815
490.30 0.885
490.40 0.8885
490.50 0.8919
490.60 0.8954
490.70 0.8988
490.80 0.9023
490.90 0.9057
491.00 0.9092
491.10 0.9126
491.20 0.9156
491.30 0.9182
491.40 0.9209
491.50 0.9236
491.60 0.9263
491.70 0.929
491.80 0.9316
491.90 0.9343
492.00 0.937
492.10 0.9397
492.20 0.9419
492.30 0.9439
492.40 0.946
492.50 0.948
492.60 0.9501
492.70 0.9521
492.80 0.9541
492.90 0.9562
493.00 0.9582
493.10 0.9602
493.20 0.9619
493.30 0.9634
493.40 0.9649
493.50 0.9664
493.60 0.9679
493.70 0.9694
493.80 0.9709
493.90 0.9724
494.00 0.9739
494.10 0.9754
494.20 0.9766
494.30 0.9777
494.40 0.9788
494.50 0.9798
494.60 0.9809
494.70 0.982
494.80 0.983
494.90 0.9841
495.00 0.9852
495.10 0.9862
495.20 0.9871
495.30 0.9878
495.40 0.9885
495.50 0.9892
495.60 0.99
495.70 0.9907
495.80 0.9914
495.90 0.9921
496.00 0.9929
496.10 0.9936
496.20 0.9941
496.30 0.9945
496.40 0.995
496.50 0.9954
496.60 0.9959
496.70 0.9963
496.80 0.9968
496.90 0.9972
497.00 0.9976
497.10 0.9981
497.20 0.9984
497.30 0.9986
497.40 0.9988
497.50 0.999
497.60 0.9992
497.70 0.9995
497.80 0.9997
497.90 0.9999
498.00 1
498.10 1
498.20 1
498.30 1
498.40 1.001
498.50 1.001
498.60 1.001
498.70 1.001
498.80 1.001
498.90 1.001
499.00 1.001
499.10 1.001
499.20 1.001
499.30 1.001
499.40 1.001
499.50 1
499.60 1
499.70 1
499.80 1
499.90 1
500.00 1
500.10 0.9999
500.20 0.9997
500.30 0.9995
500.40 0.9993
500.50 0.9991
500.60 0.9989
500.70 0.9987
500.80 0.9985
500.90 0.9983
501.00 0.9981
501.10 0.9979
501.20 0.9976
501.30 0.9973
501.40 0.997
501.50 0.9967
501.60 0.9964
501.70 0.9961
501.80 0.9958
501.90 0.9955
502.00 0.9952
502.10 0.9949
502.20 0.9946
502.30 0.9942
502.40 0.9939
502.50 0.9935
502.60 0.9931
502.70 0.9928
502.80 0.9924
502.90 0.992
503.00 0.9917
503.10 0.9913
503.20 0.9909
503.30 0.9905
503.40 0.9901
503.50 0.9896
503.60 0.9892
503.70 0.9888
503.80 0.9884
503.90 0.988
504.00 0.9875
504.10 0.9871
504.20 0.9867
504.30 0.9862
504.40 0.9857
504.50 0.9853
504.60 0.9848
504.70 0.9844
504.80 0.9839
504.90 0.9834
505.00 0.983
505.10 0.9825
505.20 0.982
505.30 0.9815
505.40 0.981
505.50 0.9805
505.60 0.98
505.70 0.9795
505.80 0.979
505.90 0.9785
506.00 0.978
506.10 0.9775
506.20 0.977
506.30 0.9765
506.40 0.976
506.50 0.9754
506.60 0.9749
506.70 0.9744
506.80 0.9739
506.90 0.9733
507.00 0.9728
507.10 0.9723
507.20 0.9717
507.30 0.9712
507.40 0.9706
507.50 0.9701
507.60 0.9696
507.70 0.969
507.80 0.9685
507.90 0.9679
508.00 0.9674
508.10 0.9668
508.20 0.9663
508.30 0.9657
508.40 0.9651
508.50 0.9646
508.60 0.964
508.70 0.9634
508.80 0.9629
508.90 0.9623
509.00 0.9618
509.10 0.9612
509.20 0.9606
509.30 0.96
509.40 0.9595
509.50 0.9589
509.60 0.9583
509.70 0.9577
509.80 0.9572
509.90 0.9566
510.00 0.956
510.10 0.9554
510.20 0.9548
510.30 0.9543
510.40 0.9537
510.50 0.9531
510.60 0.9525
510.70 0.9519
510.80 0.9513
510.90 0.9507
511.00 0.9501
511.10 0.9496
511.20 0.949
511.30 0.9484
511.40 0.9478
511.50 0.9472
511.60 0.9466
511.70 0.946
511.80 0.9454
511.90 0.9448
512.00 0.9442
512.10 0.9436
512.20 0.943
512.30 0.9424
512.40 0.9418
512.50 0.9412
512.60 0.9406
512.70 0.94
512.80 0.9394
512.90 0.9388
513.00 0.9382
513.10 0.9376
513.20 0.937
513.30 0.9364
513.40 0.9358
513.50 0.9352
513.60 0.9346
513.70 0.934
513.80 0.9334
513.90 0.9328
514.00 0.9322
514.10 0.9316
514.20 0.931
514.30 0.9304
514.40 0.9298
514.50 0.9292
514.60 0.9286
514.70 0.928
514.80 0.9274
514.90 0.9267
515.00 0.9261
515.10 0.9255
515.20 0.9249
515.30 0.9243
515.40 0.9237
515.50 0.9231
515.60 0.9225
515.70 0.9219
515.80 0.9213
515.90 0.9207
516.00 0.9201
516.10 0.9195
516.20 0.9189
516.30 0.9183
516.40 0.9176
516.50 0.917
516.60 0.9164
516.70 0.9158
516.80 0.9152
516.90 0.9146
517.00 0.914
517.10 0.9134
517.20 0.9128
517.30 0.9122
517.40 0.9116
517.50 0.911
517.60 0.9104
517.70 0.9097
517.80 0.9091
517.90 0.9085
518.00 0.9079
518.10 0.9073
518.20 0.9067
518.30 0.9061
518.40 0.9055
518.50 0.9049
518.60 0.9043
518.70 0.9037
518.80 0.9031
518.90 0.9025
519.00 0.9019
519.10 0.9013
519.20 0.9007
519.30 0.9001
519.40 0.8995
519.50 0.8988
519.60 0.8982
519.70 0.8976
519.80 0.897
519.90 0.8964
520.00 0.8958
520.10 0.8952
520.20 0.8946
520.30 0.894
520.40 0.8934
520.50 0.8928
520.60 0.8922
520.70 0.8916
520.80 0.891
520.90 0.8904
521.00 0.8898
521.10 0.8892
521.20 0.8886
521.30 0.888
521.40 0.8874
521.50 0.8868
521.60 0.8862
521.70 0.8856
521.80 0.885
521.90 0.8844
522.00 0.8838
522.10 0.8832
522.20 0.8826
522.30 0.882
522.40 0.8814
522.50 0.8808
522.60 0.8802
522.70 0.8796
522.80 0.879
522.90 0.8784
523.00 0.8778
523.10 0.8772
523.20 0.8766
523.30 0.8761
523.40 0.8755
523.50 0.8749
523.60 0.8743
523.70 0.8737
523.80 0.8731
523.90 0.8725
524.00 0.8719
524.10 0.8713
524.20 0.8707
524.30 0.8701
524.40 0.8695
524.50 0.8689
524.60 0.8683
524.70 0.8678
524.80 0.8672
524.90 0.8666
525.00 0.866
525.10 0.8654
525.20 0.8648
525.30 0.8642
525.40 0.8636
525.50 0.863
525.60 0.8625
525.70 0.8619
525.80 0.8613
525.90 0.8607
526.00 0.8601
526.10 0.8595
526.20 0.8589
526.30 0.8584
526.40 0.8578
526.50 0.8572
526.60 0.8566
526.70 0.856
526.80 0.8554
526.90 0.8549
527.00 0.8543
527.10 0.8537
527.20 0.8531
527.30 0.8525
527.40 0.8519
527.50 0.8514
527.60 0.8508
527.70 0.8502
527.80 0.8496
527.90 0.8491
528.00 0.8485
528.10 0.8479
528.20 0.8473
528.30 0.8467
528.40 0.8462
528.50 0.8456
528.60 0.845
528.70 0.8444
528.80 0.8439
528.90 0.8433
529.00 0.8427
529.10 0.8421
529.20 0.8416
529.30 0.841
529.40 0.8404
529.50 0.8398
529.60 0.8393
529.70 0.8387
529.80 0.8381
529.90 0.8376
530.00 0.837
530.10 0.8364
530.20 0.8358
530.30 0.8353
530.40 0.8347
530.50 0.8341
530.60 0.8336
530.70 0.833
530.80 0.8324
530.90 0.8319
531.00 0.8313
531.10 0.8307
531.20 0.8302
531.30 0.8296
531.40 0.829
531.50 0.8285
531.60 0.8279
531.70 0.8274
531.80 0.8268
531.90 0.8262
532.00 0.8257
532.10 0.8251
532.20 0.8245
532.30 0.824
532.40 0.8234
532.50 0.8229
532.60 0.8223
532.70 0.8217
532.80 0.8212
532.90 0.8206
533.00 0.8201
533.10 0.8195
533.20 0.8189
533.30 0.8184
533.40 0.8178
533.50 0.8173
533.60 0.8167
533.70 0.8162
533.80 0.8156
533.90 0.8151
534.00 0.8145
534.10 0.8139
534.20 0.8134
534.30 0.8128
534.40 0.8123
534.50 0.8117
534.60 0.8112
534.70 0.8106
534.80 0.8101
534.90 0.8095
535.00 0.809
535.10 0.8084
535.20 0.8079
535.30 0.8073
535.40 0.8068
535.50 0.8062
535.60 0.8057
535.70 0.8051
535.80 0.8046
535.90 0.804
536.00 0.8035
536.10 0.803
536.20 0.8024
536.30 0.8019
536.40 0.8013
536.50 0.8008
536.60 0.8002
536.70 0.7997
536.80 0.7992
536.90 0.7986
537.00 0.7981
537.10 0.7975
537.20 0.797
537.30 0.7964
537.40 0.7959
537.50 0.7954
537.60 0.7948
537.70 0.7943
537.80 0.7937
537.90 0.7932
538.00 0.7927
538.10 0.7921
538.20 0.7916
538.30 0.7911
538.40 0.7905
538.50 0.79
538.60 0.7895
538.70 0.7889
538.80 0.7884
538.90 0.7879
539.00 0.7873
539.10 0.7868
539.20 0.7863
539.30 0.7857
539.40 0.7852
539.50 0.7847
539.60 0.7841
539.70 0.7836
539.80 0.7831
539.90 0.7825
540.00 0.782
540.10 0.7815
540.20 0.781
540.30 0.7804
540.40 0.7799
540.50 0.7794
540.60 0.7788
540.70 0.7783
540.80 0.7778
540.90 0.7773
541.00 0.7767
541.10 0.7762
541.20 0.7757
541.30 0.7752
541.40 0.7746
541.50 0.7741
541.60 0.7736
541.70 0.7731
541.80 0.7726
541.90 0.772
542.00 0.7715
542.10 0.771
542.20 0.7705
542.30 0.77
542.40 0.7694
542.50 0.7689
542.60 0.7684
542.70 0.7679
542.80 0.7674
542.90 0.7668
543.00 0.7663
543.10 0.7658
543.20 0.7653
543.30 0.7648
543.40 0.7643
543.50 0.7638
543.60 0.7632
543.70 0.7627
543.80 0.7622
543.90 0.7617
544.00 0.7612
544.10 0.7607
544.20 0.7602
544.30 0.7596
544.40 0.7591
544.50 0.7586
544.60 0.7581
544.70 0.7576
544.80 0.7571
544.90 0.7566
545.00 0.7561
545.10 0.7556
545.20 0.7551
545.30 0.7546
545.40 0.7541
545.50 0.7535
545.60 0.753
545.70 0.7525
545.80 0.752
545.90 0.7515
546.00 0.751
546.10 0.7505
546.20 0.75
546.30 0.7495
546.40 0.749
546.50 0.7485
546.60 0.748
546.70 0.7475
546.80 0.747
546.90 0.7465
547.00 0.746
547.10 0.7455
547.20 0.745
547.30 0.7445
547.40 0.744
547.50 0.7435
547.60 0.743
547.70 0.7425
547.80 0.742
547.90 0.7415
548.00 0.741
548.10 0.7405
548.20 0.74
548.30 0.7395
548.40 0.739
548.50 0.7385
548.60 0.738
548.70 0.7375
548.80 0.7371
548.90 0.7366
549.00 0.7361
549.10 0.7356
549.20 0.7351
549.30 0.7346
549.40 0.7341
549.50 0.7336
549.60 0.7331
549.70 0.7326
549.80 0.7321
549.90 0.7317
550.00 0.7312
550.10 0.7307
550.20 0.7302
550.30 0.7297
550.40 0.7292
550.50 0.7287
550.60 0.7282
550.70 0.7278
550.80 0.7273
550.90 0.7268
551.00 0.7263
551.10 0.7258
551.20 0.7253
551.30 0.7249
551.40 0.7244
551.50 0.7239
551.60 0.7234
551.70 0.7229
551.80 0.7224
551.90 0.722
552.00 0.7215
552.10 0.721
552.20 0.7205
552.30 0.72
552.40 0.7196
552.50 0.7191
552.60 0.7186
552.70 0.7181
552.80 0.7177
552.90 0.7172
553.00 0.7167
553.10 0.7162
553.20 0.7157
553.30 0.7153
553.40 0.7148
553.50 0.7143
553.60 0.7138
553.70 0.7134
553.80 0.7129
553.90 0.7124
554.00 0.7119
554.10 0.7115
554.20 0.711
554.30 0.7105
554.40 0.7101
554.50 0.7096
554.60 0.7091
554.70 0.7086
554.80 0.7082
554.90 0.7077
555.00 0.7072
555.10 0.7068
555.20 0.7063
555.30 0.7058
555.40 0.7054
555.50 0.7049
555.60 0.7044
555.70 0.704
555.80 0.7035
555.90 0.703
556.00 0.7026
556.10 0.7021
556.20 0.7016
556.30 0.7012
556.40 0.7007
556.50 0.7003
556.60 0.6998
556.70 0.6993
556.80 0.6989
556.90 0.6984
557.00 0.6979
557.10 0.6975
557.20 0.697
557.30 0.6966
557.40 0.6961
557.50 0.6956
557.60 0.6952
557.70 0.6947
557.80 0.6943
557.90 0.6938
558.00 0.6933
558.10 0.6929
558.20 0.6924
558.30 0.692
558.40 0.6915
558.50 0.6911
558.60 0.6906
558.70 0.6901
558.80 0.6897
558.90 0.6892
559.00 0.6888
559.10 0.6883
559.20 0.6879
559.30 0.6874
559.40 0.687
559.50 0.6865
559.60 0.6861
559.70 0.6856
559.80 0.6852
559.90 0.6847
560.00 0.6843
560.10 0.6838
560.20 0.6834
560.30 0.6829
560.40 0.6825
560.50 0.682
560.60 0.6816
560.70 0.6811
560.80 0.6807
560.90 0.6802
561.00 0.6798
561.10 0.6793
561.20 0.6789
561.30 0.6784
561.40 0.678
561.50 0.6775
561.60 0.6771
561.70 0.6767
561.80 0.6762
561.90 0.6758
562.00 0.6753
562.10 0.6749
562.20 0.6744
562.30 0.674
562.40 0.6736
562.50 0.6731
562.60 0.6727
562.70 0.6722
562.80 0.6718
562.90 0.6714
563.00 0.6709
563.10 0.6705
563.20 0.67
563.30 0.6696
563.40 0.6692
563.50 0.6687
563.60 0.6683
563.70 0.6678
563.80 0.6674
563.90 0.667
564.00 0.6665
564.10 0.6661
564.20 0.6657
564.30 0.6652
564.40 0.6648
564.50 0.6644
564.60 0.6639
564.70 0.6635
564.80 0.6631
564.90 0.6626
565.00 0.6622
565.10 0.6618
565.20 0.6613
565.30 0.6609
565.40 0.6605
565.50 0.66
565.60 0.6596
565.70 0.6592
565.80 0.6587
565.90 0.6583
566.00 0.6579
566.10 0.6575
566.20 0.657
566.30 0.6566
566.40 0.6562
566.50 0.6557
566.60 0.6553
566.70 0.6549
566.80 0.6545
566.90 0.654
567.00 0.6536
567.10 0.6532
567.20 0.6528
567.30 0.6523
567.40 0.6519
567.50 0.6515
567.60 0.6511
567.70 0.6506
567.80 0.6502
567.90 0.6498
568.00 0.6494
568.10 0.6489
568.20 0.6485
568.30 0.6481
568.40 0.6477
568.50 0.6473
568.60 0.6468
568.70 0.6464
568.80 0.646
568.90 0.6456
569.00 0.6452
569.10 0.6447
569.20 0.6443
569.30 0.6439
569.40 0.6435
569.50 0.6431
569.60 0.6427
569.70 0.6422
569.80 0.6418
569.90 0.6414
570.00 0.641
570.10 0.6406
570.20 0.6402
570.30 0.6397
570.40 0.6393
570.50 0.6389
570.60 0.6385
570.70 0.6381
570.80 0.6377
570.90 0.6373
571.00 0.6368
571.10 0.6364
571.20 0.636
571.30 0.6356
571.40 0.6352
571.50 0.6348
571.60 0.6344
571.70 0.634
571.80 0.6336
571.90 0.6331
572.00 0.6327
572.10 0.6323
572.20 0.6319
572.30 0.6315
572.40 0.6311
572.50 0.6307
572.60 0.6303
572.70 0.6299
572.80 0.6295
572.90 0.6291
573.00 0.6287
573.10 0.6283
573.20 0.6279
573.30 0.6274
573.40 0.627
573.50 0.6266
573.60 0.6262
573.70 0.6258
573.80 0.6254
573.90 0.625
574.00 0.6246
574.10 0.6242
574.20 0.6238
574.30 0.6234
574.40 0.623
574.50 0.6226
574.60 0.6222
574.70 0.6218
574.80 0.6214
574.90 0.621
575.00 0.6206
575.10 0.6202
575.20 0.6198
575.30 0.6194
575.40 0.619
575.50 0.6186
575.60 0.6182
575.70 0.6178
575.80 0.6174
575.90 0.617
576.00 0.6166
576.10 0.6162
576.20 0.6158
576.30 0.6154
576.40 0.615
576.50 0.6147
576.60 0.6143
576.70 0.6139
576.80 0.6135
576.90 0.6131
577.00 0.6127
577.10 0.6123
577.20 0.6119
577.30 0.6115
577.40 0.6111
577.50 0.6107
577.60 0.6103
577.70 0.6099
577.80 0.6095
577.90 0.6092
578.00 0.6088
578.10 0.6084
578.20 0.608
578.30 0.6076
578.40 0.6072
578.50 0.6068
578.60 0.6064
578.70 0.606
578.80 0.6057
578.90 0.6053
579.00 0.6049
579.10 0.6045
579.20 0.6041
579.30 0.6037
579.40 0.6033
579.50 0.6029
579.60 0.6026
579.70 0.6022
579.80 0.6018
579.90 0.6014
580.00 0.601
580.10 0.6006
580.20 0.6003
580.30 0.5999
580.40 0.5995
580.50 0.5991
580.60 0.5987
580.70 0.5983
580.80 0.598
580.90 0.5976
581.00 0.5972
581.10 0.5968
581.20 0.5964
581.30 0.5961
581.40 0.5957
581.50 0.5953
581.60 0.5949
581.70 0.5945
581.80 0.5942
581.90 0.5938
582.00 0.5934
582.10 0.593
582.20 0.5926
582.30 0.5923
582.40 0.5919
582.50 0.5915
582.60 0.5911
582.70 0.5908
582.80 0.5904
582.90 0.59
583.00 0.5896
583.10 0.5893
583.20 0.5889
583.30 0.5885
583.40 0.5881
583.50 0.5878
583.60 0.5874
583.70 0.587
583.80 0.5866
583.90 0.5863
584.00 0.5859
584.10 0.5855
584.20 0.5851
584.30 0.5848
584.40 0.5844
584.50 0.584
584.60 0.5837
584.70 0.5833
584.80 0.5829
584.90 0.5826
585.00 0.5822
585.10 0.5818
585.20 0.5814
585.30 0.5811
585.40 0.5807
585.50 0.5803
585.60 0.58
585.70 0.5796
585.80 0.5792
585.90 0.5789
586.00 0.5785
586.10 0.5781
586.20 0.5778
586.30 0.5774
586.40 0.577
586.50 0.5767
586.60 0.5763
586.70 0.5759
586.80 0.5756
586.90 0.5752
587.00 0.5748
587.10 0.5745
587.20 0.5741
587.30 0.5738
587.40 0.5734
587.50 0.573
587.60 0.5727
587.70 0.5723
587.80 0.5719
587.90 0.5716
588.00 0.5712
588.10 0.5709
588.20 0.5705
588.30 0.5701
588.40 0.5698
588.50 0.5694
588.60 0.5691
588.70 0.5687
588.80 0.5683
588.90 0.568
589.00 0.5676
589.10 0.5673
589.20 0.5669
589.30 0.5665
589.40 0.5662
589.50 0.5658
589.60 0.5655
589.70 0.5651
589.80 0.5648
589.90 0.5644
590.00 0.5641
590.10 0.5637
590.20 0.5633
590.30 0.563
590.40 0.5626
590.50 0.5623
590.60 0.5619
590.70 0.5616
590.80 0.5612
590.90 0.5609
591.00 0.5605
591.10 0.5602
591.20 0.5598
591.30 0.5594
591.40 0.5591
591.50 0.5587
591.60 0.5584
591.70 0.558
591.80 0.5577
591.90 0.5573
592.00 0.557
592.10 0.5566
592.20 0.5563
592.30 0.5559
592.40 0.5556
592.50 0.5552
592.60 0.5549
592.70 0.5545
592.80 0.5542
592.90 0.5538
593.00 0.5535
593.10 0.5531
593.20 0.5528
593.30 0.5525
593.40 0.5521
593.50 0.5518
593.60 0.5514
593.70 0.5511
593.80 0.5507
593.90 0.5504
594.00 0.55
594.10 0.5497
594.20 0.5493
594.30 0.549
594.40 0.5487
594.50 0.5483
594.60 0.548
594.70 0.5476
594.80 0.5473
594.90 0.5469
595.00 0.5466
595.10 0.5462
595.20 0.5459
595.30 0.5456
595.40 0.5452
595.50 0.5449
595.60 0.5445
595.70 0.5442
595.80 0.5439
595.90 0.5435
596.00 0.5432
596.10 0.5428
596.20 0.5425
596.30 0.5422
596.40 0.5418
596.50 0.5415
596.60 0.5411
596.70 0.5408
596.80 0.5405
596.90 0.5401
597.00 0.5398
597.10 0.5394
597.20 0.5391
597.30 0.5388
597.40 0.5384
597.50 0.5381
597.60 0.5378
597.70 0.5374
597.80 0.5371
597.90 0.5368
598.00 0.5364
598.10 0.5361
598.20 0.5358
598.30 0.5354
598.40 0.5351
598.50 0.5347
598.60 0.5344
598.70 0.5341
598.80 0.5337
598.90 0.5334
599.00 0.5331
599.10 0.5327
599.20 0.5324
599.30 0.5321
599.40 0.5318
599.50 0.5314
599.60 0.5311
599.70 0.5308
599.80 0.5304
599.90 0.5301
600.00 0.5298
600.10 0.5294
600.20 0.5291
600.30 0.5288
600.40 0.5284
600.50 0.5281
600.60 0.5278
600.70 0.5275
600.80 0.5271
600.90 0.5268
601.00 0.5265
601.10 0.5261
601.20 0.5258
601.30 0.5255
601.40 0.5252
601.50 0.5248
601.60 0.5245
601.70 0.5242
601.80 0.5239
601.90 0.5235
602.00 0.5232
602.10 0.5229
602.20 0.5225
602.30 0.5222
602.40 0.5219
602.50 0.5216
602.60 0.5212
602.70 0.5209
602.80 0.5206
602.90 0.5203
603.00 0.52
603.10 0.5196
603.20 0.5193
603.30 0.519
603.40 0.5187
603.50 0.5183
603.60 0.518
603.70 0.5177
603.80 0.5174
603.90 0.517
604.00 0.5167
604.10 0.5164
604.20 0.5161
604.30 0.5158
604.40 0.5154
604.50 0.5151
604.60 0.5148
604.70 0.5145
604.80 0.5142
604.90 0.5138
605.00 0.5135
605.10 0.5132
605.20 0.5129
605.30 0.5126
605.40 0.5122
605.50 0.5119
605.60 0.5116
605.70 0.5113
605.80 0.511
605.90 0.5107
606.00 0.5103
606.10 0.51
606.20 0.5097
606.30 0.5094
606.40 0.5091
606.50 0.5088
606.60 0.5084
606.70 0.5081
606.80 0.5078
606.90 0.5075
607.00 0.5072
607.10 0.5069
607.20 0.5066
607.30 0.5062
607.40 0.5059
607.50 0.5056
607.60 0.5053
607.70 0.505
607.80 0.5047
607.90 0.5044
608.00 0.504
608.10 0.5037
608.20 0.5034
608.30 0.5031
608.40 0.5028
608.50 0.5025
608.60 0.5022
608.70 0.5019
608.80 0.5015
608.90 0.5012
609.00 0.5009
609.10 0.5006
609.20 0.5003
609.30 0.5
609.40 0.4997
609.50 0.4994
609.60 0.4991
609.70 0.4987
609.80 0.4984
609.90 0.4981
610.00 0.4978
610.10 0.4975
610.20 0.4972
610.30 0.4969
610.40 0.4966
610.50 0.4963
610.60 0.496
610.70 0.4957
610.80 0.4954
610.90 0.495
611.00 0.4947
611.10 0.4944
611.20 0.4941
611.30 0.4938
611.40 0.4935
611.50 0.4932
611.60 0.4929
611.70 0.4926
611.80 0.4923
611.90 0.492
612.00 0.4917
612.10 0.4914
612.20 0.4911
612.30 0.4908
612.40 0.4905
612.50 0.4902
612.60 0.4898
612.70 0.4895
612.80 0.4892
612.90 0.4889
613.00 0.4886
613.10 0.4883
613.20 0.488
613.30 0.4877
613.40 0.4874
613.50 0.4871
613.60 0.4868
613.70 0.4865
613.80 0.4862
613.90 0.4859
614.00 0.4856
614.10 0.4853
614.20 0.485
614.30 0.4847
614.40 0.4844
614.50 0.4841
614.60 0.4838
614.70 0.4835
614.80 0.4832
614.90 0.4829
615.00 0.4826
615.10 0.4823
615.20 0.482
615.30 0.4817
615.40 0.4814
615.50 0.4811
615.60 0.4808
615.70 0.4805
615.80 0.4802
615.90 0.4799
616.00 0.4796
616.10 0.4793
616.20 0.479
616.30 0.4787
616.40 0.4784
616.50 0.4781
616.60 0.4778
616.70 0.4775
616.80 0.4772
616.90 0.4769
617.00 0.4766
617.10 0.4763
617.20 0.476
617.30 0.4757
617.40 0.4754
617.50 0.4751
617.60 0.4748
617.70 0.4745
617.80 0.4743
617.90 0.474
618.00 0.4737
618.10 0.4734
618.20 0.4731
618.30 0.4728
618.40 0.4725
618.50 0.4722
618.60 0.4719
618.70 0.4716
618.80 0.4713
618.90 0.471
619.00 0.4707
619.10 0.4704
619.20 0.4701
619.30 0.4698
619.40 0.4695
619.50 0.4692
619.60 0.4689
619.70 0.4686
619.80 0.4684
619.90 0.4681
620.00 0.4678
620.10 0.4675
620.20 0.4672
620.30 0.4669
620.40 0.4666
620.50 0.4663
620.60 0.466
620.70 0.4657
620.80 0.4654
620.90 0.4651
621.00 0.4648
621.10 0.4645
621.20 0.4643
621.30 0.464
621.40 0.4637
621.50 0.4634
621.60 0.4631
621.70 0.4628
621.80 0.4625
621.90 0.4622
622.00 0.4619
622.10 0.4616
622.20 0.4613
622.30 0.461
622.40 0.4608
622.50 0.4605
622.60 0.4602
622.70 0.4599
622.80 0.4596
622.90 0.4593
623.00 0.459
623.10 0.4587
623.20 0.4584
623.30 0.4581
623.40 0.4578
623.50 0.4576
623.60 0.4573
623.70 0.457
623.80 0.4567
623.90 0.4564
624.00 0.4561
624.10 0.4558
624.20 0.4555
624.30 0.4552
624.40 0.4549
624.50 0.4546
624.60 0.4544
624.70 0.4541
624.80 0.4538
624.90 0.4535
625.00 0.4532
625.10 0.4529
625.20 0.4526
625.30 0.4523
625.40 0.452
625.50 0.4517
625.60 0.4515
625.70 0.4512
625.80 0.4509
625.90 0.4506
626.00 0.4503
626.10 0.45
626.20 0.4497
626.30 0.4494
626.40 0.4491
626.50 0.4488
626.60 0.4486
626.70 0.4483
626.80 0.448
626.90 0.4477
627.00 0.4474
627.10 0.4471
627.20 0.4468
627.30 0.4465
627.40 0.4462
627.50 0.4459
627.60 0.4457
627.70 0.4454
627.80 0.4451
627.90 0.4448
628.00 0.4445
628.10 0.4442
628.20 0.4439
628.30 0.4436
628.40 0.4433
628.50 0.443
628.60 0.4427
628.70 0.4425
628.80 0.4422
628.90 0.4419
629.00 0.4416
629.10 0.4413
629.20 0.441
629.30 0.4407
629.40 0.4404
629.50 0.4401
629.60 0.4398
629.70 0.4395
629.80 0.4392
629.90 0.4389
630.00 0.4387
630.10 0.4384
630.20 0.4381
630.30 0.4378
630.40 0.4375
630.50 0.4372
630.60 0.4369
630.70 0.4366
630.80 0.4363
630.90 0.436
631.00 0.4357
631.10 0.4354
631.20 0.4351
631.30 0.4348
631.40 0.4345
631.50 0.4342
631.60 0.4339
631.70 0.4336
631.80 0.4333
631.90 0.433
632.00 0.4327
632.10 0.4325
632.20 0.4322
632.30 0.4319
632.40 0.4316
632.50 0.4313
632.60 0.431
632.70 0.4307
632.80 0.4304
632.90 0.4301
633.00 0.4298
633.10 0.4295
633.20 0.4292
633.30 0.4289
633.40 0.4285
633.50 0.4282
633.60 0.4279
633.70 0.4276
633.80 0.4273
633.90 0.427
634.00 0.4267
634.10 0.4264
634.20 0.4261
634.30 0.4258
634.40 0.4255
634.50 0.4252
634.60 0.4249
634.70 0.4246
634.80 0.4243
634.90 0.424
635.00 0.4236
635.10 0.4233
635.20 0.423
635.30 0.4227
635.40 0.4224
635.50 0.4221
635.60 0.4218
635.70 0.4215
635.80 0.4211
635.90 0.4208
636.00 0.4205
636.10 0.4202
636.20 0.4199
636.30 0.4196
636.40 0.4192
636.50 0.4189
636.60 0.4186
636.70 0.4183
636.80 0.4179
636.90 0.4176
637.00 0.4173
637.10 0.417
637.20 0.4167
637.30 0.4163
637.40 0.416
637.50 0.4157
637.60 0.4153
637.70 0.415
637.80 0.4147
637.90 0.4143
638.00 0.414
638.10 0.4137
638.20 0.4133
638.30 0.413
638.40 0.4127
638.50 0.4123
638.60 0.412
638.70 0.4116
638.80 0.4113
638.90 0.4109
639.00 0.4106
639.10 0.4102
639.20 0.4099
639.30 0.4096
639.40 0.4092
639.50 0.4088
639.60 0.4085
639.70 0.4081
639.80 0.4078
639.90 0.4074
640.00 0.407
640.10 0.4067
640.20 0.4063
640.30 0.406
640.40 0.4056
640.50 0.4052
640.60 0.4048
640.70 0.4044
640.80 0.4041
640.90 0.4037
641.00 0.4033
641.10 0.4029
641.20 0.4026
641.30 0.4022
641.40 0.4018
641.50 0.4014
641.60 0.401
641.70 0.4006
641.80 0.4002
641.90 0.3998
642.00 0.3994
642.10 0.399
642.20 0.3986
642.30 0.3982
642.40 0.3978
642.50 0.3973
642.60 0.3969
642.70 0.3965
642.80 0.396
642.90 0.3956
643.00 0.3952
643.10 0.3948
643.20 0.3943
643.30 0.3939
643.40 0.3934
643.50 0.393
643.60 0.3925
643.70 0.3921
643.80 0.3916
643.90 0.3911
644.00 0.3907
644.10 0.3902
644.20 0.3898
644.30 0.3893
644.40 0.3888
644.50 0.3883
644.60 0.3878
644.70 0.3873
644.80 0.3868
644.90 0.3863
645.00 0.3858
645.10 0.3853
645.20 0.3848
645.30 0.3843
645.40 0.3837
645.50 0.3832
645.60 0.3826
645.70 0.3821
645.80 0.3815
645.90 0.381
646.00 0.3804
646.10 0.3798
646.20 0.3793
646.30 0.3787
646.40 0.3781
646.50 0.3775
646.60 0.3769
646.70 0.3763
646.80 0.3756
646.90 0.375
647.00 0.3744
647.10 0.3738
647.20 0.3732
647.30 0.3726
647.40 0.3719
647.50 0.3712
647.60 0.3705
647.70 0.3698
647.80 0.3691
647.90 0.3684
648.00 0.3677
648.10 0.367
648.20 0.3663
648.30 0.3656
648.40 0.3648
648.50 0.364
648.60 0.3633
648.70 0.3625
648.80 0.3617
648.90 0.3609
649.00 0.3601
649.10 0.3593
649.20 0.3585
649.30 0.3577
649.40 0.3568
649.50 0.3559
649.60 0.355
649.70 0.3541
649.80 0.3532
649.90 0.3523
650.00 0.3514
650.10 0.3505
650.20 0.3496
650.30 0.3487
650.40 0.3476
650.50 0.3466
650.60 0.3455
650.70 0.3445
650.80 0.3434
650.90 0.3424
651.00 0.3413
651.10 0.3403
651.20 0.3392
651.30 0.3382
651.40 0.3369
651.50 0.3357
651.60 0.3345
651.70 0.3332
651.80 0.332
651.90 0.3308
652.00 0.3296
652.10 0.3283
652.20 0.3271
652.30 0.3258
652.40 0.3244
652.50 0.3229
652.60 0.3214
652.70 0.32
652.80 0.3185
652.90 0.3171
653.00 0.3156
653.10 0.3141
653.20 0.3127
653.30 0.3111
653.40 0.3093
653.50 0.3075
653.60 0.3057
653.70 0.3039
653.80 0.3021
653.90 0.3003
654.00 0.2985
654.10 0.2967
654.20 0.2949
654.30 0.293
654.40 0.2908
654.50 0.2886
654.60 0.2863
654.70 0.2841
654.80 0.2818
654.90 0.279
655.00 0.2762
655.10 0.2734
655.20 0.2707
655.30 0.2678
655.40 0.2643
655.50 0.2607
655.60 0.2565
655.70 0.2522
655.80 0.2469
655.90 0.2413
656.00 0.2341
656.10 0.2265
656.20 0.2141
656.30 0.1982
656.40 0.2194
656.50 0.229
656.60 0.2361
656.70 0.2427
656.80 0.2477
656.90 0.2524
657.00 0.2563
657.10 0.26
657.20 0.2632
657.30 0.2663
657.40 0.2688
657.50 0.2712
657.60 0.2737
657.70 0.2762
657.80 0.2786
657.90 0.2805
658.00 0.2824
658.10 0.2843
658.20 0.2862
658.30 0.288
658.40 0.2895
658.50 0.2909
658.60 0.2924
658.70 0.2938
658.80 0.2953
658.90 0.2968
659.00 0.2982
659.10 0.2997
659.20 0.3011
659.30 0.3025
659.40 0.3036
659.50 0.3047
659.60 0.3058
659.70 0.3069
659.80 0.308
659.90 0.3091
660.00 0.3102
660.10 0.3113
660.20 0.3123
660.30 0.3134
660.40 0.3142
660.50 0.3151
660.60 0.3159
660.70 0.3167
660.80 0.3176
660.90 0.3184
661.00 0.3192
661.10 0.3201
661.20 0.3209
661.30 0.3217
661.40 0.3223
661.50 0.323
661.60 0.3236
661.70 0.3242
661.80 0.3249
661.90 0.3255
662.00 0.3262
662.10 0.3268
662.20 0.3274
662.30 0.328
662.40 0.3285
662.50 0.329
662.60 0.3295
662.70 0.3299
662.80 0.3304
662.90 0.3309
663.00 0.3314
663.10 0.3319
663.20 0.3323
663.30 0.3328
663.40 0.3331
663.50 0.3335
663.60 0.3338
663.70 0.3342
663.80 0.3345
663.90 0.3349
664.00 0.3352
664.10 0.3356
664.20 0.3359
664.30 0.3363
664.40 0.3365
664.50 0.3368
664.60 0.337
664.70 0.3373
664.80 0.3375
664.90 0.3378
665.00 0.338
665.10 0.3383
665.20 0.3385
665.30 0.3388
665.40 0.3389
665.50 0.3391
665.60 0.3393
665.70 0.3394
665.80 0.3396
665.90 0.3398
666.00 0.3399
666.10 0.3401
666.20 0.3403
666.30 0.3404
666.40 0.3405
666.50 0.3406
666.60 0.3407
666.70 0.3408
666.80 0.3409
666.90 0.341
667.00 0.3411
667.10 0.3412
667.20 0.3413
667.30 0.3414
667.40 0.3415
667.50 0.3415
667.60 0.3416
667.70 0.3416
667.80 0.3417
667.90 0.3417
668.00 0.3418
668.10 0.3418
668.20 0.3419
668.30 0.3419
668.40 0.3419
668.50 0.3419
668.60 0.3419
668.70 0.3419
668.80 0.3419
668.90 0.3419
669.00 0.3419
669.10 0.342
669.20 0.342
669.30 0.342
669.40 0.3419
669.50 0.3419
669.60 0.3419
669.70 0.3418
669.80 0.3418
669.90 0.3418
670.00 0.3418
670.10 0.3417
670.20 0.3417
670.30 0.3417
670.40 0.3416
670.50 0.3416
670.60 0.3415
670.70 0.3414
670.80 0.3414
670.90 0.3413
671.00 0.3413
671.10 0.3412
671.20 0.3412
671.30 0.3411
671.40 0.341
671.50 0.341
671.60 0.3409
671.70 0.3408
671.80 0.3407
671.90 0.3407
672.00 0.3406
672.10 0.3405
672.20 0.3404
672.30 0.3403
672.40 0.3402
672.50 0.3402
672.60 0.3401
672.70 0.34
672.80 0.3399
672.90 0.3398
673.00 0.3397
673.10 0.3396
673.20 0.3395
673.30 0.3394
673.40 0.3393
673.50 0.3392
673.60 0.3391
673.70 0.339
673.80 0.3389
673.90 0.3387
674.00 0.3386
674.10 0.3385
674.20 0.3384
674.30 0.3383
674.40 0.3382
674.50 0.3381
674.60 0.338
674.70 0.3378
674.80 0.3377
674.90 0.3376
675.00 0.3375
675.10 0.3374
675.20 0.3372
675.30 0.3371
675.40 0.337
675.50 0.3369
675.60 0.3367
675.70 0.3366
675.80 0.3365
675.90 0.3363
676.00 0.3362
676.10 0.3361
676.20 0.336
676.30 0.3358
676.40 0.3357
676.50 0.3356
676.60 0.3354
676.70 0.3353
676.80 0.3351
676.90 0.335
677.00 0.3349
677.10 0.3347
677.20 0.3346
677.30 0.3345
677.40 0.3343
677.50 0.3342
677.60 0.334
677.70 0.3339
677.80 0.3338
677.90 0.3336
678.00 0.3335
678.10 0.3333
678.20 0.3332
678.30 0.333
678.40 0.3329
678.50 0.3328
678.60 0.3326
678.70 0.3325
678.80 0.3323
678.90 0.3322
679.00 0.332
679.10 0.3319
679.20 0.3317
679.30 0.3316
679.40 0.3314
679.50 0.3313
679.60 0.3311
679.70 0.331
679.80 0.3308
679.90 0.3307
680.00 0.3305
680.10 0.3304
680.20 0.3302
680.30 0.3301
680.40 0.3299
680.50 0.3298
680.60 0.3296
680.70 0.3295
680.80 0.3293
680.90 0.3292
681.00 0.329
681.10 0.3289
681.20 0.3287
681.30 0.3286
681.40 0.3284
681.50 0.3282
681.60 0.3281
681.70 0.3279
681.80 0.3278
681.90 0.3276
682.00 0.3275
682.10 0.3273
682.20 0.3272
682.30 0.327
682.40 0.3268
682.50 0.3267
682.60 0.3265
682.70 0.3264
682.80 0.3262
682.90 0.3261
683.00 0.3259
683.10 0.3257
683.20 0.3256
683.30 0.3254
683.40 0.3253
683.50 0.3251
683.60 0.325
683.70 0.3248
683.80 0.3246
683.90 0.3245
684.00 0.3243
684.10 0.3242
684.20 0.324
684.30 0.3238
684.40 0.3237
684.50 0.3235
684.60 0.3234
684.70 0.3232
684.80 0.323
684.90 0.3229
685.00 0.3227
685.10 0.3226
685.20 0.3224
685.30 0.3222
685.40 0.3221
685.50 0.3219
685.60 0.3218
685.70 0.3216
685.80 0.3214
685.90 0.3213
686.00 0.3211
686.10 0.321
686.20 0.3208
686.30 0.3206
686.40 0.3205
686.50 0.3203
686.60 0.3202
686.70 0.32
686.80 0.3198
686.90 0.3197
687.00 0.3195
687.10 0.3194
687.20 0.3192
687.30 0.319
687.40 0.3189
687.50 0.3187
687.60 0.3185
687.70 0.3184
687.80 0.3182
687.90 0.3181
688.00 0.3179
688.10 0.3177
688.20 0.3176
688.30 0.3174
688.40 0.3173
688.50 0.3171
688.60 0.3169
688.70 0.3168
688.80 0.3166
688.90 0.3165
689.00 0.3163
689.10 0.3161
689.20 0.316
689.30 0.3158
689.40 0.3156
689.50 0.3155
689.60 0.3153
689.70 0.3152
689.80 0.315
689.90 0.3148
690.00 0.3147
690.10 0.3145
690.20 0.3143
690.30 0.3142
690.40 0.314
690.50 0.3139
690.60 0.3137
690.70 0.3135
690.80 0.3134
690.90 0.3132
691.00 0.3131
691.10 0.3129
691.20 0.3127
691.30 0.3126
691.40 0.3124
691.50 0.3122
691.60 0.3121
691.70 0.3119
691.80 0.3118
691.90 0.3116
692.00 0.3114
692.10 0.3113
692.20 0.3111
692.30 0.311
692.40 0.3108
692.50 0.3106
692.60 0.3105
692.70 0.3103
692.80 0.3102
692.90 0.31
693.00 0.3098
693.10 0.3097
693.20 0.3095
693.30 0.3094
693.40 0.3092
693.50 0.309
693.60 0.3089
693.70 0.3087
693.80 0.3086
693.90 0.3084
694.00 0.3082
694.10 0.3081
694.20 0.3079
694.30 0.3078
694.40 0.3076
694.50 0.3075
694.60 0.3073
694.70 0.3071
694.80 0.307
694.90 0.3068
695.00 0.3067
695.10 0.3065
695.20 0.3063
695.30 0.3062
695.40 0.306
695.50 0.3059
695.60 0.3057
695.70 0.3055
695.80 0.3054
695.90 0.3052
696.00 0.3051
696.10 0.3049
696.20 0.3048
696.30 0.3046
696.40 0.3044
696.50 0.3043
696.60 0.3041
696.70 0.304
696.80 0.3038
696.90 0.3036
697.00 0.3035
697.10 0.3033
697.20 0.3032
697.30 0.303
697.40 0.3029
697.50 0.3027
697.60 0.3025
697.70 0.3024
697.80 0.3022
697.90 0.3021
698.00 0.3019
698.10 0.3018
698.20 0.3016
698.30 0.3014
698.40 0.3013
698.50 0.3011
698.60 0.301
698.70 0.3008
698.80 0.3007
698.90 0.3005
699.00 0.3003
699.10 0.3002
699.20 0.3
699.30 0.2999
699.40 0.2997
699.50 0.2996
699.60 0.2994
699.70 0.2992
699.80 0.2991
699.90 0.2989
700.00 0.2988
700.10 0.2986
700.20 0.2985
700.30 0.2983
700.40 0.2982
700.50 0.298
700.60 0.2978
700.70 0.2977
700.80 0.2975
700.90 0.2974
701.00 0.2972
701.10 0.2971
701.20 0.2969
701.30 0.2968
701.40 0.2966
701.50 0.2965
701.60 0.2963
701.70 0.2961
701.80 0.296
701.90 0.2958
702.00 0.2957
702.10 0.2955
702.20 0.2954
702.30 0.2952
702.40 0.2951
702.50 0.2949
702.60 0.2948
702.70 0.2946
702.80 0.2944
702.90 0.2943
703.00 0.2941
703.10 0.294
703.20 0.2938
703.30 0.2937
703.40 0.2935
703.50 0.2934
703.60 0.2932
703.70 0.2931
703.80 0.2929
703.90 0.2928
704.00 0.2926
704.10 0.2925
704.20 0.2923
704.30 0.2921
704.40 0.292
704.50 0.2918
704.60 0.2917
704.70 0.2915
704.80 0.2914
704.90 0.2912
705.00 0.2911
705.10 0.2909
705.20 0.2908
705.30 0.2906
705.40 0.2905
705.50 0.2903
705.60 0.2902
705.70 0.29
705.80 0.2899
705.90 0.2897
706.00 0.2896
706.10 0.2894
706.20 0.2893
706.30 0.2891
706.40 0.289
706.50 0.2888
706.60 0.2887
706.70 0.2885
706.80 0.2884
706.90 0.2882
707.00 0.2881
707.10 0.2879
707.20 0.2878
707.30 0.2876
707.40 0.2875
707.50 0.2873
707.60 0.2872
707.70 0.287
707.80 0.2869
707.90 0.2867
708.00 0.2866
708.10 0.2864
708.20 0.2863
708.30 0.2861
708.40 0.286
708.50 0.2858
708.60 0.2857
708.70 0.2855
708.80 0.2854
708.90 0.2852
709.00 0.2851
709.10 0.2849
709.20 0.2848
709.30 0.2846
709.40 0.2845
709.50 0.2843
709.60 0.2842
709.70 0.284
709.80 0.2839
709.90 0.2837
710.00 0.2836
710.10 0.2834
710.20 0.2833
710.30 0.2832
710.40 0.283
710.50 0.2829
710.60 0.2827
710.70 0.2826
710.80 0.2824
710.90 0.2823
711.00 0.2821
711.10 0.282
711.20 0.2818
711.30 0.2817
711.40 0.2815
711.50 0.2814
711.60 0.2812
711.70 0.2811
711.80 0.281
711.90 0.2808
712.00 0.2807
712.10 0.2805
712.20 0.2804
712.30 0.2802
712.40 0.2801
712.50 0.2799
712.60 0.2798
712.70 0.2796
712.80 0.2795
712.90 0.2794
713.00 0.2792
713.10 0.2791
713.20 0.2789
713.30 0.2788
713.40 0.2786
713.50 0.2785
713.60 0.2783
713.70 0.2782
713.80 0.2781
713.90 0.2779
714.00 0.2778
714.10 0.2776
714.20 0.2775
714.30 0.2773
714.40 0.2772
714.50 0.277
714.60 0.2769
714.70 0.2768
714.80 0.2766
714.90 0.2765
715.00 0.2763
715.10 0.2762
715.20 0.276
715.30 0.2759
715.40 0.2757
715.50 0.2756
715.60 0.2755
715.70 0.2753
715.80 0.2752
715.90 0.275
716.00 0.2749
716.10 0.2748
716.20 0.2746
716.30 0.2745
716.40 0.2743
716.50 0.2742
716.60 0.274
716.70 0.2739
716.80 0.2738
716.90 0.2736
717.00 0.2735
717.10 0.2733
717.20 0.2732
717.30 0.2731
717.40 0.2729
717.50 0.2728
717.60 0.2726
717.70 0.2725
717.80 0.2723
717.90 0.2722
718.00 0.2721
718.10 0.2719
718.20 0.2718
718.30 0.2716
718.40 0.2715
718.50 0.2714
718.60 0.2712
718.70 0.2711
718.80 0.2709
718.90 0.2708
719.00 0.2707
719.10 0.2705
719.20 0.2704
719.30 0.2702
719.40 0.2701
719.50 0.27
719.60 0.2698
719.70 0.2697
719.80 0.2695
719.90 0.2694
720.00 0.2693
720.10 0.2691
720.20 0.269
720.30 0.2688
720.40 0.2687
720.50 0.2686
720.60 0.2684
720.70 0.2683
720.80 0.2682
720.90 0.268
721.00 0.2679
721.10 0.2677
721.20 0.2676
721.30 0.2675
721.40 0.2673
721.50 0.2672
721.60 0.2671
721.70 0.2669
721.80 0.2668
721.90 0.2666
722.00 0.2665
722.10 0.2664
722.20 0.2662
722.30 0.2661
722.40 0.266
722.50 0.2658
722.60 0.2657
722.70 0.2655
722.80 0.2654
722.90 0.2653
723.00 0.2651
723.10 0.265
723.20 0.2649
723.30 0.2647
723.40 0.2646
723.50 0.2645
723.60 0.2643
723.70 0.2642
723.80 0.264
723.90 0.2639
724.00 0.2638
724.10 0.2636
724.20 0.2635
724.30 0.2634
724.40 0.2632
724.50 0.2631
724.60 0.263
724.70 0.2628
724.80 0.2627
724.90 0.2626
725.00 0.2624
725.10 0.2623
725.20 0.2622
725.30 0.262
725.40 0.2619
725.50 0.2617
725.60 0.2616
725.70 0.2615
725.80 0.2613
725.90 0.2612
726.00 0.2611
726.10 0.2609
726.20 0.2608
726.30 0.2607
726.40 0.2605
726.50 0.2604
726.60 0.2603
726.70 0.2601
726.80 0.26
726.90 0.2599
727.00 0.2597
727.10 0.2596
727.20 0.2595
727.30 0.2593
727.40 0.2592
727.50 0.2591
727.60 0.259
727.70 0.2588
727.80 0.2587
727.90 0.2586
728.00 0.2584
728.10 0.2583
728.20 0.2582
728.30 0.258
728.40 0.2579
728.50 0.2578
728.60 0.2576
728.70 0.2575
728.80 0.2574
728.90 0.2572
729.00 0.2571
729.10 0.257
729.20 0.2568
729.30 0.2567
729.40 0.2566
729.50 0.2564
729.60 0.2563
729.70 0.2562
729.80 0.256
729.90 0.2559
730.00 0.2558
730.10 0.2557
730.20 0.2555
730.30 0.2554
730.40 0.2553
730.50 0.2551
730.60 0.255
730.70 0.2549
730.80 0.2548
730.90 0.2546
731.00 0.2545
731.10 0.2544
731.20 0.2542
731.30 0.2541
731.40 0.254
731.50 0.2538
731.60 0.2537
731.70 0.2536
731.80 0.2535
731.90 0.2533
732.00 0.2532
732.10 0.2531
732.20 0.2529
732.30 0.2528
732.40 0.2527
732.50 0.2526
732.60 0.2524
732.70 0.2523
732.80 0.2522
732.90 0.2521
733.00 0.2519
733.10 0.2518
733.20 0.2517
733.30 0.2515
733.40 0.2514
733.50 0.2513
733.60 0.2512
733.70 0.251
733.80 0.2509
733.90 0.2508
734.00 0.2506
734.10 0.2505
734.20 0.2504
734.30 0.2503
734.40 0.2501
734.50 0.25
734.60 0.2499
734.70 0.2498
734.80 0.2496
734.90 0.2495
735.00 0.2494
735.10 0.2493
735.20 0.2491
735.30 0.249
735.40 0.2489
735.50 0.2487
735.60 0.2486
735.70 0.2485
735.80 0.2484
735.90 0.2482
736.00 0.2481
736.10 0.248
736.20 0.2479
736.30 0.2477
736.40 0.2476
736.50 0.2475
736.60 0.2474
736.70 0.2472
736.80 0.2471
736.90 0.247
737.00 0.2469
737.10 0.2467
737.20 0.2466
737.30 0.2465
737.40 0.2464
737.50 0.2462
737.60 0.2461
737.70 0.246
737.80 0.2459
737.90 0.2457
738.00 0.2456
738.10 0.2455
738.20 0.2454
738.30 0.2452
738.40 0.2451
738.50 0.245
738.60 0.2449
738.70 0.2447
738.80 0.2446
738.90 0.2445
739.00 0.2444
739.10 0.2442
739.20 0.2441
739.30 0.244
739.40 0.2439
739.50 0.2437
739.60 0.2436
739.70 0.2435
739.80 0.2434
739.90 0.2432
740.00 0.2431
740.10 0.243
740.20 0.2429
740.30 0.2428
740.40 0.2426
740.50 0.2425
740.60 0.2424
740.70 0.2423
740.80 0.2422
740.90 0.242
741.00 0.2419
741.10 0.2418
741.20 0.2417
741.30 0.2415
741.40 0.2414
741.50 0.2413
741.60 0.2412
741.70 0.2411
741.80 0.2409
741.90 0.2408
742.00 0.2407
742.10 0.2406
742.20 0.2405
742.30 0.2403
742.40 0.2402
742.50 0.2401
742.60 0.24
742.70 0.2399
742.80 0.2397
742.90 0.2396
743.00 0.2395
743.10 0.2394
743.20 0.2393
743.30 0.2391
743.40 0.239
743.50 0.2389
743.60 0.2388
743.70 0.2387
743.80 0.2385
743.90 0.2384
744.00 0.2383
744.10 0.2382
744.20 0.2381
744.30 0.2379
744.40 0.2378
744.50 0.2377
744.60 0.2376
744.70 0.2375
744.80 0.2373
744.90 0.2372
745.00 0.2371
745.10 0.237
745.20 0.2369
745.30 0.2367
745.40 0.2366
745.50 0.2365
745.60 0.2364
745.70 0.2363
745.80 0.2362
745.90 0.236
746.00 0.2359
746.10 0.2358
746.20 0.2357
746.30 0.2356
746.40 0.2354
746.50 0.2353
746.60 0.2352
746.70 0.2351
746.80 0.235
746.90 0.2349
747.00 0.2347
747.10 0.2346
747.20 0.2345
747.30 0.2344
747.40 0.2343
747.50 0.2342
747.60 0.234
747.70 0.2339
747.80 0.2338
747.90 0.2337
748.00 0.2336
748.10 0.2334
748.20 0.2333
748.30 0.2332
748.40 0.2331
748.50 0.233
748.60 0.2329
748.70 0.2327
748.80 0.2326
748.90 0.2325
749.00 0.2324
749.10 0.2323
749.20 0.2322
749.30 0.232
749.40 0.2319
749.50 0.2318
749.60 0.2317
749.70 0.2316
749.80 0.2315
749.90 0.2313
750.00 0.2312
750.10 0.2311
750.20 0.231
750.30 0.2309
750.40 0.2308
750.50 0.2307
750.60 0.2305
750.70 0.2304
750.80 0.2303
750.90 0.2302
751.00 0.2301
751.10 0.23
751.20 0.2299
751.30 0.2297
751.40 0.2296
751.50 0.2295
751.60 0.2294
751.70 0.2293
751.80 0.2292
751.90 0.2291
752.00 0.229
752.10 0.2288
752.20 0.2287
752.30 0.2286
752.40 0.2285
752.50 0.2284
752.60 0.2283
752.70 0.2282
752.80 0.228
752.90 0.2279
753.00 0.2278
753.10 0.2277
753.20 0.2276
753.30 0.2275
753.40 0.2274
753.50 0.2273
753.60 0.2271
753.70 0.227
753.80 0.2269
753.90 0.2268
754.00 0.2267
754.10 0.2266
754.20 0.2265
754.30 0.2264
754.40 0.2262
754.50 0.2261
754.60 0.226
754.70 0.2259
754.80 0.2258
754.90 0.2257
755.00 0.2256
755.10 0.2255
755.20 0.2253
755.30 0.2252
755.40 0.2251
755.50 0.225
755.60 0.2249
755.70 0.2248
755.80 0.2247
755.90 0.2246
756.00 0.2245
756.10 0.2243
756.20 0.2242
756.30 0.2241
756.40 0.224
756.50 0.2239
756.60 0.2238
756.70 0.2237
756.80 0.2236
756.90 0.2235
757.00 0.2233
757.10 0.2232
757.20 0.2231
757.30 0.223
757.40 0.2229
757.50 0.2228
757.60 0.2227
757.70 0.2226
757.80 0.2225
757.90 0.2224
758.00 0.2222
758.10 0.2221
758.20 0.222
758.30 0.2219
758.40 0.2218
758.50 0.2217
758.60 0.2216
758.70 0.2215
758.80 0.2214
758.90 0.2213
759.00 0.2211
759.10 0.221
759.20 0.2209
759.30 0.2208
759.40 0.2207
759.50 0.2206
759.60 0.2205
759.70 0.2204
759.80 0.2203
759.90 0.2202
760.00 0.22
760.10 0.2199
760.20 0.2198
760.30 0.2197
760.40 0.2196
760.50 0.2195
760.60 0.2194
760.70 0.2193
760.80 0.2192
760.90 0.2191
761.00 0.219
761.10 0.2189
761.20 0.2188
761.30 0.2187
761.40 0.2185
761.50 0.2184
761.60 0.2183
761.70 0.2182
761.80 0.2181
761.90 0.218
762.00 0.2179
762.10 0.2178
762.20 0.2177
762.30 0.2176
762.40 0.2175
762.50 0.2174
762.60 0.2173
762.70 0.2172
762.80 0.2171
762.90 0.2169
763.00 0.2168
763.10 0.2167
763.20 0.2166
763.30 0.2165
763.40 0.2164
763.50 0.2163
763.60 0.2162
763.70 0.2161
763.80 0.216
763.90 0.2159
764.00 0.2158
764.10 0.2157
764.20 0.2156
764.30 0.2155
764.40 0.2154
764.50 0.2153
764.60 0.2152
764.70 0.215
764.80 0.2149
764.90 0.2148
765.00 0.2147
765.10 0.2146
765.20 0.2145
765.30 0.2144
765.40 0.2143
765.50 0.2142
765.60 0.2141
765.70 0.214
765.80 0.2139
765.90 0.2138
766.00 0.2137
766.10 0.2136
766.20 0.2135
766.30 0.2134
766.40 0.2133
766.50 0.2132
766.60 0.2131
766.70 0.2129
766.80 0.2128
766.90 0.2127
767.00 0.2126
767.10 0.2125
767.20 0.2124
767.30 0.2123
767.40 0.2122
767.50 0.2121
767.60 0.212
767.70 0.2119
767.80 0.2118
767.90 0.2117
768.00 0.2116
768.10 0.2115
768.20 0.2114
768.30 0.2113
768.40 0.2112
768.50 0.2111
768.60 0.211
768.70 0.2109
768.80 0.2108
768.90 0.2107
769.00 0.2106
769.10 0.2105
769.20 0.2104
769.30 0.2103
769.40 0.2101
769.50 0.21
769.60 0.2099
769.70 0.2098
769.80 0.2097
769.90 0.2096
770.00 0.2095
770.10 0.2094
770.20 0.2093
770.30 0.2092
770.40 0.2091
770.50 0.209
770.60 0.2089
770.70 0.2088
770.80 0.2087
770.90 0.2086
771.00 0.2085
771.10 0.2084
771.20 0.2083
771.30 0.2082
771.40 0.2081
771.50 0.208
771.60 0.2079
771.70 0.2078
771.80 0.2077
771.90 0.2076
772.00 0.2075
772.10 0.2074
772.20 0.2073
772.30 0.2072
772.40 0.2071
772.50 0.207
772.60 0.2069
772.70 0.2068
772.80 0.2067
772.90 0.2066
773.00 0.2065
773.10 0.2064
773.20 0.2063
773.30 0.2062
773.40 0.2061
773.50 0.206
773.60 0.2059
773.70 0.2058
773.80 0.2057
773.90 0.2056
774.00 0.2055
774.10 0.2054
774.20 0.2053
774.30 0.2052
774.40 0.2051
774.50 0.205
774.60 0.2049
774.70 0.2048
774.80 0.2047
774.90 0.2046
775.00 0.2045
775.10 0.2044
775.20 0.2043
775.30 0.2042
775.40 0.2041
775.50 0.204
775.60 0.2039
775.70 0.2038
775.80 0.2037
775.90 0.2036
776.00 0.2035
776.10 0.2034
776.20 0.2033
776.30 0.2032
776.40 0.2031
776.50 0.2031
776.60 0.203
776.70 0.2029
776.80 0.2028
776.90 0.2027
777.00 0.2026
777.10 0.2025
777.20 0.2024
777.30 0.2023
777.40 0.2022
777.50 0.2021
777.60 0.202
777.70 0.2019
777.80 0.2018
777.90 0.2017
778.00 0.2016
778.10 0.2015
778.20 0.2014
778.30 0.2013
778.40 0.2012
778.50 0.2011
778.60 0.201
778.70 0.2009
778.80 0.2008
778.90 0.2007
779.00 0.2006
779.10 0.2005
779.20 0.2004
779.30 0.2003
779.40 0.2002
779.50 0.2001
779.60 0.2
779.70 0.1999
779.80 0.1998
779.90 0.1997
780.00 0.1996
780.10 0.1995
780.20 0.1994
780.30 0.1994
780.40 0.1993
780.50 0.1992
780.60 0.1991
780.70 0.199
780.80 0.1989
780.90 0.1988
781.00 0.1987
781.10 0.1986
781.20 0.1985
781.30 0.1984
781.40 0.1983
781.50 0.1982
781.60 0.1981
781.70 0.198
781.80 0.1979
781.90 0.1978
782.00 0.1977
782.10 0.1976
782.20 0.1976
782.30 0.1975
782.40 0.1974
782.50 0.1973
782.60 0.1972
782.70 0.1971
782.80 0.197
782.90 0.1969
783.00 0.1968
783.10 0.1967
783.20 0.1966
783.30 0.1965
783.40 0.1964
783.50 0.1963
783.60 0.1962
783.70 0.1961
783.80 0.196
783.90 0.196
784.00 0.1959
784.10 0.1958
784.20 0.1957
784.30 0.1956
784.40 0.1955
784.50 0.1954
784.60 0.1953
784.70 0.1952
784.80 0.1951
784.90 0.195
785.00 0.1949
785.10 0.1948
785.20 0.1947
785.30 0.1946
785.40 0.1946
785.50 0.1945
785.60 0.1944
785.70 0.1943
785.80 0.1942
785.90 0.1941
786.00 0.194
786.10 0.1939
786.20 0.1938
786.30 0.1937
786.40 0.1936
786.50 0.1935
786.60 0.1934
786.70 0.1933
786.80 0.1933
786.90 0.1932
787.00 0.1931
787.10 0.193
787.20 0.1929
787.30 0.1928
787.40 0.1927
787.50 0.1926
787.60 0.1925
787.70 0.1924
787.80 0.1923
787.90 0.1922
788.00 0.1922
788.10 0.1921
788.20 0.192
788.30 0.1919
788.40 0.1918
788.50 0.1917
788.60 0.1916
788.70 0.1915
788.80 0.1914
788.90 0.1913
789.00 0.1912
789.10 0.1911
789.20 0.1911
789.30 0.191
789.40 0.1909
789.50 0.1908
789.60 0.1907
789.70 0.1906
789.80 0.1905
789.90 0.1904
790.00 0.1903
790.10 0.1902
790.20 0.1901
790.30 0.1901
790.40 0.19
790.50 0.1899
790.60 0.1898
790.70 0.1897
790.80 0.1896
790.90 0.1895
791.00 0.1894
791.10 0.1893
791.20 0.1892
791.30 0.1892
791.40 0.1891
791.50 0.189
791.60 0.1889
791.70 0.1888
791.80 0.1887
791.90 0.1886
792.00 0.1885
792.10 0.1884
792.20 0.1884
792.30 0.1883
792.40 0.1882
792.50 0.1881
792.60 0.188
792.70 0.1879
792.80 0.1878
792.90 0.1877
793.00 0.1876
793.10 0.1876
793.20 0.1875
793.30 0.1874
793.40 0.1873
793.50 0.1872
793.60 0.1871
793.70 0.187
793.80 0.1869
793.90 0.1869
794.00 0.1868
794.10 0.1867
794.20 0.1866
794.30 0.1865
794.40 0.1864
794.50 0.1863
794.60 0.1862
794.70 0.1861
794.80 0.1861
794.90 0.186
795.00 0.1859
795.10 0.1858
795.20 0.1857
795.30 0.1856
795.40 0.1855
795.50 0.1854
795.60 0.1854
795.70 0.1853
795.80 0.1852
795.90 0.1851
796.00 0.185
796.10 0.1849
796.20 0.1848
796.30 0.1847
796.40 0.1847
796.50 0.1846
796.60 0.1845
796.70 0.1844
796.80 0.1843
796.90 0.1842
797.00 0.1841
797.10 0.184
797.20 0.184
797.30 0.1839
797.40 0.1838
797.50 0.1837
797.60 0.1836
797.70 0.1835
797.80 0.1834
797.90 0.1834
798.00 0.1833
798.10 0.1832
798.20 0.1831
798.30 0.183
798.40 0.1829
798.50 0.1828
798.60 0.1827
798.70 0.1827
798.80 0.1826
798.90 0.1825
799.00 0.1824
799.10 0.1823
799.20 0.1822
799.30 0.1821
799.40 0.1821
799.50 0.182
799.60 0.1819
799.70 0.1818
799.80 0.1817
799.90 0.1816
800.00 0.1815
800.10 0.1815
800.20 0.1814
800.30 0.1813
800.40 0.1812
800.50 0.1811
800.60 0.181
800.70 0.181
800.80 0.1809
800.90 0.1808
801.00 0.1807
801.10 0.1806
801.20 0.1805
801.30 0.1804
801.40 0.1804
801.50 0.1803
801.60 0.1802
801.70 0.1801
801.80 0.18
801.90 0.1799
802.00 0.1799
802.10 0.1798
802.20 0.1797
802.30 0.1796
802.40 0.1795
802.50 0.1794
802.60 0.1794
802.70 0.1793
802.80 0.1792
802.90 0.1791
803.00 0.179
803.10 0.1789
803.20 0.1789
803.30 0.1788
803.40 0.1787
803.50 0.1786
803.60 0.1785
803.70 0.1784
803.80 0.1784
803.90 0.1783
804.00 0.1782
804.10 0.1781
804.20 0.178
804.30 0.1779
804.40 0.1779
804.50 0.1778
804.60 0.1777
804.70 0.1776
804.80 0.1775
804.90 0.1774
805.00 0.1774
805.10 0.1773
805.20 0.1772
805.30 0.1771
805.40 0.177
805.50 0.1769
805.60 0.1769
805.70 0.1768
805.80 0.1767
805.90 0.1766
806.00 0.1765
806.10 0.1764
806.20 0.1764
806.30 0.1763
806.40 0.1762
806.50 0.1761
806.60 0.176
806.70 0.176
806.80 0.1759
806.90 0.1758
807.00 0.1757
807.10 0.1756
807.20 0.1755
807.30 0.1755
807.40 0.1754
807.50 0.1753
807.60 0.1752
807.70 0.1751
807.80 0.1751
807.90 0.175
808.00 0.1749
808.10 0.1748
808.20 0.1747
808.30 0.1746
808.40 0.1746
808.50 0.1745
808.60 0.1744
808.70 0.1743
808.80 0.1742
808.90 0.1742
809.00 0.1741
809.10 0.174
809.20 0.1739
809.30 0.1738
809.40 0.1738
809.50 0.1737
809.60 0.1736
809.70 0.1735
809.80 0.1734
809.90 0.1733
810.00 0.1733
810.10 0.1732
810.20 0.1731
810.30 0.173
810.40 0.1729
810.50 0.1729
810.60 0.1728
810.70 0.1727
810.80 0.1726
810.90 0.1725
811.00 0.1725
811.10 0.1724
811.20 0.1723
811.30 0.1722
811.40 0.1722
811.50 0.1721
811.60 0.172
811.70 0.1719
811.80 0.1718
811.90 0.1718
812.00 0.1717
812.10 0.1716
812.20 0.1715
812.30 0.1714
812.40 0.1714
812.50 0.1713
812.60 0.1712
812.70 0.1711
812.80 0.171
812.90 0.171
813.00 0.1709
813.10 0.1708
813.20 0.1707
813.30 0.1707
813.40 0.1706
813.50 0.1705
813.60 0.1704
813.70 0.1703
813.80 0.1703
813.90 0.1702
814.00 0.1701
814.10 0.17
814.20 0.1699
814.30 0.1699
814.40 0.1698
814.50 0.1697
814.60 0.1696
814.70 0.1696
814.80 0.1695
814.90 0.1694
815.00 0.1693
815.10 0.1692
815.20 0.1692
815.30 0.1691
815.40 0.169
815.50 0.1689
815.60 0.1689
815.70 0.1688
815.80 0.1687
815.90 0.1686
816.00 0.1685
816.10 0.1685
816.20 0.1684
816.30 0.1683
816.40 0.1682
816.50 0.1682
816.60 0.1681
816.70 0.168
816.80 0.1679
816.90 0.1678
817.00 0.1678
817.10 0.1677
817.20 0.1676
817.30 0.1675
817.40 0.1675
817.50 0.1674
817.60 0.1673
817.70 0.1672
817.80 0.1671
817.90 0.1671
818.00 0.167
818.10 0.1669
818.20 0.1668
818.30 0.1668
818.40 0.1667
818.50 0.1666
818.60 0.1665
818.70 0.1665
818.80 0.1664
818.90 0.1663
819.00 0.1662
819.10 0.1661
819.20 0.1661
819.30 0.166
819.40 0.1659
819.50 0.1658
819.60 0.1658
819.70 0.1657
819.80 0.1656
819.90 0.1655
820.00 0.1655
820.10 0.1654
820.20 0.1653
820.30 0.1652
820.40 0.1652
820.50 0.1651
820.60 0.165
820.70 0.1649
820.80 0.1649
820.90 0.1648
821.00 0.1647
821.10 0.1646
821.20 0.1645
821.30 0.1645
821.40 0.1644
821.50 0.1643
821.60 0.1642
821.70 0.1642
821.80 0.1641
821.90 0.164
822.00 0.1639
822.10 0.1639
822.20 0.1638
822.30 0.1637
822.40 0.1636
822.50 0.1636
822.60 0.1635
822.70 0.1634
822.80 0.1634
822.90 0.1633
823.00 0.1632
823.10 0.1631
823.20 0.1631
823.30 0.163
823.40 0.1629
823.50 0.1628
823.60 0.1628
823.70 0.1627
823.80 0.1626
823.90 0.1625
824.00 0.1625
824.10 0.1624
824.20 0.1623
824.30 0.1622
824.40 0.1622
824.50 0.1621
824.60 0.162
824.70 0.1619
824.80 0.1619
824.90 0.1618
825.00 0.1617
825.10 0.1616
825.20 0.1616
825.30 0.1615
825.40 0.1614
825.50 0.1614
825.60 0.1613
825.70 0.1612
825.80 0.1611
825.90 0.1611
826.00 0.161
826.10 0.1609
826.20 0.1608
826.30 0.1608
826.40 0.1607
826.50 0.1606
826.60 0.1605
826.70 0.1605
826.80 0.1604
826.90 0.1603
827.00 0.1603
827.10 0.1602
827.20 0.1601
827.30 0.16
827.40 0.16
827.50 0.1599
827.60 0.1598
827.70 0.1597
827.80 0.1597
827.90 0.1596
828.00 0.1595
828.10 0.1595
828.20 0.1594
828.30 0.1593
828.40 0.1592
828.50 0.1592
828.60 0.1591
828.70 0.159
828.80 0.1589
828.90 0.1589
829.00 0.1588
829.10 0.1587
829.20 0.1587
829.30 0.1586
829.40 0.1585
829.50 0.1584
829.60 0.1584
829.70 0.1583
829.80 0.1582
829.90 0.1582
830.00 0.1581
830.10 0.158
830.20 0.1579
830.30 0.1579
830.40 0.1578
830.50 0.1577
830.60 0.1577
830.70 0.1576
830.80 0.1575
830.90 0.1574
831.00 0.1574
831.10 0.1573
831.20 0.1572
831.30 0.1572
831.40 0.1571
831.50 0.157
831.60 0.1569
831.70 0.1569
831.80 0.1568
831.90 0.1567
832.00 0.1567
832.10 0.1566
832.20 0.1565
832.30 0.1564
832.40 0.1564
832.50 0.1563
832.60 0.1562
832.70 0.1562
832.80 0.1561
832.90 0.156
833.00 0.1559
833.10 0.1559
833.20 0.1558
833.30 0.1557
833.40 0.1557
833.50 0.1556
833.60 0.1555
833.70 0.1554
833.80 0.1554
833.90 0.1553
834.00 0.1552
834.10 0.1552
834.20 0.1551
834.30 0.155
834.40 0.1549
834.50 0.1549
834.60 0.1548
834.70 0.1547
834.80 0.1547
834.90 0.1546
835.00 0.1545
835.10 0.1544
835.20 0.1544
835.30 0.1543
835.40 0.1542
835.50 0.1542
835.60 0.1541
835.70 0.154
835.80 0.1539
835.90 0.1539
836.00 0.1538
836.10 0.1537
836.20 0.1537
836.30 0.1536
836.40 0.1535
836.50 0.1535
836.60 0.1534
836.70 0.1533
836.80 0.1532
836.90 0.1532
837.00 0.1531
837.10 0.153
837.20 0.153
837.30 0.1529
837.40 0.1528
837.50 0.1528
837.60 0.1527
837.70 0.1526
837.80 0.1525
837.90 0.1525
838.00 0.1524
838.10 0.1523
838.20 0.1523
838.30 0.1522
838.40 0.1521
838.50 0.1521
838.60 0.152
838.70 0.1519
838.80 0.1518
838.90 0.1518
839.00 0.1517
839.10 0.1516
839.20 0.1516
839.30 0.1515
839.40 0.1514
839.50 0.1514
839.60 0.1513
839.70 0.1512
839.80 0.1512
839.90 0.1511
840.00 0.151
840.10 0.1509
840.20 0.1509
840.30 0.1508
840.40 0.1507
840.50 0.1507
840.60 0.1506
840.70 0.1505
840.80 0.1505
840.90 0.1504
841.00 0.1503
841.10 0.1503
841.20 0.1502
841.30 0.1501
841.40 0.1501
841.50 0.15
841.60 0.1499
841.70 0.1499
841.80 0.1498
841.90 0.1497
842.00 0.1496
842.10 0.1496
842.20 0.1495
842.30 0.1494
842.40 0.1494
842.50 0.1493
842.60 0.1492
842.70 0.1492
842.80 0.1491
842.90 0.149
843.00 0.149
843.10 0.1489
843.20 0.1488
843.30 0.1488
843.40 0.1487
843.50 0.1486
843.60 0.1486
843.70 0.1485
843.80 0.1484
843.90 0.1484
844.00 0.1483
844.10 0.1482
844.20 0.1481
844.30 0.1481
844.40 0.148
844.50 0.1479
844.60 0.1479
844.70 0.1478
844.80 0.1477
844.90 0.1477
845.00 0.1476
845.10 0.1475
845.20 0.1475
845.30 0.1474
845.40 0.1473
845.50 0.1473
845.60 0.1472
845.70 0.1471
845.80 0.1471
845.90 0.147
846.00 0.1469
846.10 0.1469
846.20 0.1468
846.30 0.1467
846.40 0.1467
846.50 0.1466
846.60 0.1465
846.70 0.1465
846.80 0.1464
846.90 0.1463
847.00 0.1463
847.10 0.1462
847.20 0.1461
847.30 0.1461
847.40 0.146
847.50 0.1459
847.60 0.1459
847.70 0.1458
847.80 0.1457
847.90 0.1457
848.00 0.1456
848.10 0.1455
848.20 0.1455
848.30 0.1454
848.40 0.1453
848.50 0.1453
848.60 0.1452
848.70 0.1451
848.80 0.1451
848.90 0.145
849.00 0.1449
849.10 0.1449
849.20 0.1448
849.30 0.1447
849.40 0.1447
849.50 0.1446
849.60 0.1445
849.70 0.1445
849.80 0.1444
849.90 0.1444
850.00 0.1443
850.10 0.1442
850.20 0.1442
850.30 0.1441
850.40 0.144
850.50 0.144
850.60 0.1439
850.70 0.1438
850.80 0.1438
850.90 0.1437
851.00 0.1436
851.10 0.1436
851.20 0.1435
851.30 0.1434
851.40 0.1434
851.50 0.1433
851.60 0.1432
851.70 0.1432
851.80 0.1431
851.90 0.143
852.00 0.143
852.10 0.1429
852.20 0.1429
852.30 0.1428
852.40 0.1427
852.50 0.1427
852.60 0.1426
852.70 0.1425
852.80 0.1425
852.90 0.1424
853.00 0.1423
853.10 0.1423
853.20 0.1422
853.30 0.1422
853.40 0.1421
853.50 0.142
853.60 0.142
853.70 0.1419
853.80 0.1418
853.90 0.1418
854.00 0.1417
854.10 0.1416
854.20 0.1416
854.30 0.1415
854.40 0.1415
854.50 0.1414
854.60 0.1413
854.70 0.1413
854.80 0.1412
854.90 0.1411
855.00 0.1411
855.10 0.141
855.20 0.1409
855.30 0.1409
855.40 0.1408
855.50 0.1408
855.60 0.1407
855.70 0.1406
855.80 0.1406
855.90 0.1405
856.00 0.1404
856.10 0.1404
856.20 0.1403
856.30 0.1402
856.40 0.1402
856.50 0.1401
856.60 0.1401
856.70 0.14
856.80 0.1399
856.90 0.1399
857.00 0.1398
857.10 0.1397
857.20 0.1397
857.30 0.1396
857.40 0.1396
857.50 0.1395
857.60 0.1394
857.70 0.1394
857.80 0.1393
857.90 0.1393
858.00 0.1392
858.10 0.1391
858.20 0.1391
858.30 0.139
858.40 0.139
858.50 0.1389
858.60 0.1388
858.70 0.1388
858.80 0.1387
858.90 0.1387
859.00 0.1386
859.10 0.1385
859.20 0.1385
859.30 0.1384
859.40 0.1384
859.50 0.1383
859.60 0.1382
859.70 0.1382
859.80 0.1381
859.90 0.1381
860.00 0.138
860.10 0.1379
860.20 0.1379
860.30 0.1378
860.40 0.1378
860.50 0.1377
860.60 0.1376
860.70 0.1376
860.80 0.1375
860.90 0.1375
861.00 0.1374
861.10 0.1374
861.20 0.1373
861.30 0.1372
861.40 0.1372
861.50 0.1371
861.60 0.1371
861.70 0.137
861.80 0.1369
861.90 0.1369
862.00 0.1368
862.10 0.1368
862.20 0.1367
862.30 0.1366
862.40 0.1366
862.50 0.1365
862.60 0.1365
862.70 0.1364
862.80 0.1363
862.90 0.1363
863.00 0.1362
863.10 0.1361
863.20 0.1361
863.30 0.136
863.40 0.136
863.50 0.1359
863.60 0.1358
863.70 0.1358
863.80 0.1357
863.90 0.1357
864.00 0.1356
864.10 0.1355
864.20 0.1355
864.30 0.1354
864.40 0.1354
864.50 0.1353
864.60 0.1352
864.70 0.1352
864.80 0.1351
864.90 0.1351
865.00 0.135
865.10 0.1349
865.20 0.1349
865.30 0.1348
865.40 0.1348
865.50 0.1347
865.60 0.1346
865.70 0.1346
865.80 0.1345
865.90 0.1345
866.00 0.1344
866.10 0.1343
866.20 0.1343
866.30 0.1342
866.40 0.1342
866.50 0.1341
866.60 0.134
866.70 0.134
866.80 0.1339
866.90 0.1339
867.00 0.1338
867.10 0.1337
867.20 0.1337
867.30 0.1336
867.40 0.1336
867.50 0.1335
867.60 0.1334
867.70 0.1334
867.80 0.1333
867.90 0.1333
868.00 0.1332
868.10 0.1332
868.20 0.1331
868.30 0.133
868.40 0.133
868.50 0.1329
868.60 0.1329
868.70 0.1328
868.80 0.1327
868.90 0.1327
869.00 0.1326
869.10 0.1326
869.20 0.1325
869.30 0.1325
869.40 0.1324
869.50 0.1323
869.60 0.1323
869.70 0.1322
869.80 0.1322
869.90 0.1321
870.00 0.1321
870.10 0.132
870.20 0.1319
870.30 0.1319
870.40 0.1318
870.50 0.1318
870.60 0.1317
870.70 0.1317
870.80 0.1316
870.90 0.1315
871.00 0.1315
871.10 0.1314
871.20 0.1314
871.30 0.1313
871.40 0.1313
871.50 0.1312
871.60 0.1311
871.70 0.1311
871.80 0.131
871.90 0.131
872.00 0.1309
872.10 0.1309
872.20 0.1308
872.30 0.1307
872.40 0.1307
872.50 0.1306
872.60 0.1306
872.70 0.1305
872.80 0.1305
872.90 0.1304
873.00 0.1303
873.10 0.1303
873.20 0.1302
873.30 0.1302
873.40 0.1301
873.50 0.1301
873.60 0.13
873.70 0.1299
873.80 0.1299
873.90 0.1298
874.00 0.1298
874.10 0.1297
874.20 0.1297
874.30 0.1296
874.40 0.1295
874.50 0.1295
874.60 0.1294
874.70 0.1294
874.80 0.1293
874.90 0.1293
875.00 0.1292
875.10 0.1292
875.20 0.1291
875.30 0.129
875.40 0.129
875.50 0.1289
875.60 0.1289
875.70 0.1288
875.80 0.1288
875.90 0.1287
876.00 0.1286
876.10 0.1286
876.20 0.1285
876.30 0.1285
876.40 0.1284
876.50 0.1284
876.60 0.1283
876.70 0.1283
876.80 0.1282
876.90 0.1281
877.00 0.1281
877.10 0.128
877.20 0.128
877.30 0.1279
877.40 0.1279
877.50 0.1278
877.60 0.1278
877.70 0.1277
877.80 0.1276
877.90 0.1276
878.00 0.1275
878.10 0.1275
878.20 0.1274
878.30 0.1274
878.40 0.1273
878.50 0.1273
878.60 0.1272
878.70 0.1272
878.80 0.1271
878.90 0.127
879.00 0.127
879.10 0.1269
879.20 0.1269
879.30 0.1268
879.40 0.1268
879.50 0.1267
879.60 0.1267
879.70 0.1266
879.80 0.1266
879.90 0.1265
880.00 0.1265
880.10 0.1264
880.20 0.1263
880.30 0.1263
880.40 0.1262
880.50 0.1262
880.60 0.1261
880.70 0.1261
880.80 0.126
880.90 0.126
881.00 0.1259
881.10 0.1259
881.20 0.1258
881.30 0.1257
881.40 0.1257
881.50 0.1256
881.60 0.1256
881.70 0.1255
881.80 0.1255
881.90 0.1254
882.00 0.1254
882.10 0.1253
882.20 0.1253
882.30 0.1252
882.40 0.1252
882.50 0.1251
882.60 0.1251
882.70 0.125
882.80 0.1249
882.90 0.1249
883.00 0.1248
883.10 0.1248
883.20 0.1247
883.30 0.1247
883.40 0.1246
883.50 0.1246
883.60 0.1245
883.70 0.1245
883.80 0.1244
883.90 0.1244
884.00 0.1243
884.10 0.1243
884.20 0.1242
884.30 0.1241
884.40 0.1241
884.50 0.124
884.60 0.124
884.70 0.1239
884.80 0.1239
884.90 0.1238
885.00 0.1238
885.10 0.1237
885.20 0.1237
885.30 0.1236
885.40 0.1236
885.50 0.1235
885.60 0.1235
885.70 0.1234
885.80 0.1234
885.90 0.1233
886.00 0.1232
886.10 0.1232
886.20 0.1231
886.30 0.1231
886.40 0.123
886.50 0.123
886.60 0.1229
886.70 0.1229
886.80 0.1228
886.90 0.1228
887.00 0.1227
887.10 0.1227
887.20 0.1226
887.30 0.1226
887.40 0.1225
887.50 0.1225
887.60 0.1224
887.70 0.1224
887.80 0.1223
887.90 0.1223
888.00 0.1222
888.10 0.1222
888.20 0.1221
888.30 0.1221
888.40 0.122
888.50 0.122
888.60 0.1219
888.70 0.1219
888.80 0.1218
888.90 0.1218
889.00 0.1217
889.10 0.1217
889.20 0.1216
889.30 0.1216
889.40 0.1215
889.50 0.1215
889.60 0.1214
889.70 0.1214
889.80 0.1213
889.90 0.1213
890.00 0.1212
890.10 0.1212
890.20 0.1211
890.30 0.1211
890.40 0.121
890.50 0.121
890.60 0.1209
890.70 0.1209
890.80 0.1208
890.90 0.1208
891.00 0.1207
891.10 0.1206
891.20 0.1206
891.30 0.1205
891.40 0.1205
891.50 0.1204
891.60 0.1204
891.70 0.1203
891.80 0.1203
891.90 0.1202
892.00 0.1202
892.10 0.1201
892.20 0.1201
892.30 0.12
892.40 0.12
892.50 0.1199
892.60 0.1199
892.70 0.1198
892.80 0.1198
892.90 0.1197
893.00 0.1197
893.10 0.1196
893.20 0.1196
893.30 0.1195
893.40 0.1195
893.50 0.1194
893.60 0.1194
893.70 0.1193
893.80 0.1193
893.90 0.1192
894.00 0.1192
894.10 0.1191
894.20 0.1191
894.30 0.119
894.40 0.119
894.50 0.1189
894.60 0.1189
894.70 0.1188
894.80 0.1188
894.90 0.1187
895.00 0.1187
895.10 0.1186
895.20 0.1186
895.30 0.1185
895.40 0.1185
895.50 0.1184
895.60 0.1184
895.70 0.1183
895.80 0.1183
895.90 0.1182
896.00 0.1182
896.10 0.1181
896.20 0.1181
896.30 0.118
896.40 0.118
896.50 0.1179
896.60 0.1179
896.70 0.1178
896.80 0.1178
896.90 0.1177
897.00 0.1177
897.10 0.1177
897.20 0.1176
897.30 0.1176
897.40 0.1175
897.50 0.1175
897.60 0.1174
897.70 0.1174
897.80 0.1173
897.90 0.1173
898.00 0.1172
898.10 0.1172
898.20 0.1171
898.30 0.1171
898.40 0.117
898.50 0.117
898.60 0.1169
898.70 0.1169
898.80 0.1168
898.90 0.1168
899.00 0.1167
899.10 0.1167
899.20 0.1166
899.30 0.1166
899.40 0.1165
899.50 0.1165
899.60 0.1164
899.70 0.1164
899.80 0.1163
899.90 0.1163
900.00 0.1162
900.10 0.1162
900.20 0.1161
900.30 0.1161
900.40 0.116
900.50 0.116
900.60 0.1159
900.70 0.1159
900.80 0.1158
900.90 0.1158
901.00 0.1157
901.10 0.1157
901.20 0.1156
901.30 0.1156
901.40 0.1155
901.50 0.1155
901.60 0.1154
901.70 0.1154
901.80 0.1153
901.90 0.1153
902.00 0.1153
902.10 0.1152
902.20 0.1152
902.30 0.1151
902.40 0.1151
902.50 0.115
902.60 0.115
902.70 0.1149
902.80 0.1149
902.90 0.1148
903.00 0.1148
903.10 0.1148
903.20 0.1147
903.30 0.1147
903.40 0.1146
903.50 0.1146
903.60 0.1145
903.70 0.1145
903.80 0.1144
903.90 0.1144
904.00 0.1144
904.10 0.1143
904.20 0.1143
904.30 0.1142
904.40 0.1142
904.50 0.1141
904.60 0.1141
904.70 0.114
904.80 0.114
904.90 0.114
905.00 0.1139
905.10 0.1139
905.20 0.1138
905.30 0.1138
905.40 0.1137
905.50 0.1137
905.60 0.1136
905.70 0.1136
905.80 0.1136
905.90 0.1135
906.00 0.1135
906.10 0.1134
906.20 0.1134
906.30 0.1133
906.40 0.1133
906.50 0.1132
906.60 0.1132
906.70 0.1132
906.80 0.1131
906.90 0.1131
907.00 0.113
907.10 0.113
907.20 0.1129
907.30 0.1129
907.40 0.1128
907.50 0.1128
907.60 0.1127
907.70 0.1127
907.80 0.1127
907.90 0.1126
908.00 0.1126
908.10 0.1125
908.20 0.1125
908.30 0.1124
908.40 0.1124
908.50 0.1123
908.60 0.1123
908.70 0.1123
908.80 0.1122
908.90 0.1122
909.00 0.1121
909.10 0.1121
909.20 0.112
909.30 0.112
909.40 0.1119
909.50 0.1119
909.60 0.1118
909.70 0.1118
909.80 0.1118
909.90 0.1117
910.00 0.1117
910.10 0.1116
910.20 0.1116
910.30 0.1115
910.40 0.1115
910.50 0.1114
910.60 0.1114
910.70 0.1113
910.80 0.1113
910.90 0.1113
911.00 0.1112
911.10 0.1112
911.20 0.1111
911.30 0.1111
911.40 0.111
911.50 0.111
911.60 0.1109
911.70 0.1109
911.80 0.1109
911.90 0.1108
912.00 0.1108
912.10 0.1107
912.20 0.1107
912.30 0.1106
912.40 0.1106
912.50 0.1105
912.60 0.1105
912.70 0.1104
912.80 0.1104
912.90 0.1103
913.00 0.1103
913.10 0.1103
913.20 0.1102
913.30 0.1102
913.40 0.1101
913.50 0.1101
913.60 0.11
913.70 0.11
913.80 0.1099
913.90 0.1099
914.00 0.1098
914.10 0.1098
914.20 0.1097
914.30 0.1097
914.40 0.1096
914.50 0.1096
914.60 0.1096
914.70 0.1095
914.80 0.1095
914.90 0.1094
915.00 0.1094
915.10 0.1093
915.20 0.1093
915.30 0.1092
915.40 0.1092
915.50 0.1091
915.60 0.1091
915.70 0.109
915.80 0.109
915.90 0.109
916.00 0.1089
916.10 0.1089
916.20 0.1088
916.30 0.1088
916.40 0.1087
916.50 0.1087
916.60 0.1086
916.70 0.1086
916.80 0.1085
916.90 0.1085
917.00 0.1084
917.10 0.1084
917.20 0.1084
917.30 0.1083
917.40 0.1083
917.50 0.1082
917.60 0.1082
917.70 0.1081
917.80 0.1081
917.90 0.108
918.00 0.108
918.10 0.1079
918.20 0.1079
918.30 0.1078
918.40 0.1078
918.50 0.1077
918.60 0.1077
918.70 0.1076
918.80 0.1076
918.90 0.1076
919.00 0.1075
919.10 0.1075
919.20 0.1074
919.30 0.1074
919.40 0.1073
919.50 0.1073
919.60 0.1072
919.70 0.1072
919.80 0.1071
919.90 0.1071
920.00 0.107
920.10 0.107
920.20 0.1069
920.30 0.1069
920.40 0.1069
920.50 0.1068
920.60 0.1068
920.70 0.1067
920.80 0.1067
920.90 0.1066
921.00 0.1066
921.10 0.1065
921.20 0.1065
921.30 0.1064
921.40 0.1064
921.50 0.1063
921.60 0.1063
921.70 0.1063
921.80 0.1062
921.90 0.1062
922.00 0.1061
922.10 0.1061
922.20 0.106
922.30 0.106
922.40 0.106
922.50 0.1059
922.60 0.1059
922.70 0.1058
922.80 0.1058
922.90 0.1058
923.00 0.1057
923.10 0.1057
923.20 0.1057
923.30 0.1056
923.40 0.1056
923.50 0.1055
923.60 0.1055
923.70 0.1055
923.80 0.1054
923.90 0.1054
924.00 0.1054
924.10 0.1053
924.20 0.1053
924.30 0.1052
924.40 0.1052
924.50 0.1052
924.60 0.1051
924.70 0.1051
924.80 0.1051
924.90 0.105
925.00 0.105
925.10 0.1049
925.20 0.1049
925.30 0.1049
925.40 0.1048
925.50 0.1048
925.60 0.1048
925.70 0.1047
925.80 0.1047
925.90 0.1046
926.00 0.1046
926.10 0.1046
926.20 0.1045
926.30 0.1045
926.40 0.1045
926.50 0.1044
926.60 0.1044
926.70 0.1043
926.80 0.1043
926.90 0.1043
927.00 0.1042
927.10 0.1042
927.20 0.1042
927.30 0.1041
927.40 0.1041
927.50 0.1041
927.60 0.104
927.70 0.104
927.80 0.1039
927.90 0.1039
928.00 0.1039
928.10 0.1038
928.20 0.1038
928.30 0.1038
928.40 0.1037
928.50 0.1037
928.60 0.1036
928.70 0.1036
928.80 0.1036
928.90 0.1035
929.00 0.1035
929.10 0.1035
929.20 0.1034
929.30 0.1034
929.40 0.1034
929.50 0.1033
929.60 0.1033
929.70 0.1032
929.80 0.1032
929.90 0.1032
930.00 0.1031
930.10 0.1031
930.20 0.1031
930.30 0.103
930.40 0.103
930.50 0.103
930.60 0.1029
930.70 0.1029
930.80 0.1029
930.90 0.1028
931.00 0.1028
931.10 0.1027
931.20 0.1027
931.30 0.1027
931.40 0.1026
931.50 0.1026
931.60 0.1026
931.70 0.1025
931.80 0.1025
931.90 0.1025
932.00 0.1024
932.10 0.1024
932.20 0.1023
932.30 0.1023
932.40 0.1023
932.50 0.1022
932.60 0.1022
932.70 0.1022
932.80 0.1021
932.90 0.1021
933.00 0.102
933.10 0.102
933.20 0.102
933.30 0.1019
933.40 0.1019
933.50 0.1018
933.60 0.1018
933.70 0.1018
933.80 0.1017
933.90 0.1017
934.00 0.1017
934.10 0.1016
934.20 0.1016
934.30 0.1015
934.40 0.1015
934.50 0.1015
934.60 0.1014
934.70 0.1014
934.80 0.1013
934.90 0.1013
935.00 0.1013
935.10 0.1012
935.20 0.1012
935.30 0.1011
935.40 0.1011
935.50 0.1011
935.60 0.101
935.70 0.101
935.80 0.1009
935.90 0.1009
936.00 0.1009
936.10 0.1008
936.20 0.1008
936.30 0.1007
936.40 0.1007
936.50 0.1007
936.60 0.1006
936.70 0.1006
936.80 0.1005
936.90 0.1005
937.00 0.1005
937.10 0.1004
937.20 0.1004
937.30 0.1003
937.40 0.1003
937.50 0.1003
937.60 0.1002
937.70 0.1002
937.80 0.1001
937.90 0.1001
938.00 0.1001
938.10 0.1
938.20 0.09997
938.30 0.09993
938.40 0.09989
938.50 0.09985
938.60 0.09981
938.70 0.09976
938.80 0.09972
938.90 0.09968
939.00 0.09964
939.10 0.09959
939.20 0.09955
939.30 0.09951
939.40 0.09947
939.50 0.09943
939.60 0.09938
939.70 0.09934
939.80 0.0993
939.90 0.09926
940.00 0.09921
940.10 0.09917
940.20 0.09913
940.30 0.09909
940.40 0.09904
940.50 0.099
940.60 0.09896
940.70 0.09891
940.80 0.09887
940.90 0.09883
941.00 0.09878
941.10 0.09874
941.20 0.0987
941.30 0.09865
941.40 0.09861
941.50 0.09857
941.60 0.09852
941.70 0.09848
941.80 0.09844
941.90 0.09839
942.00 0.09835
942.10 0.0983
942.20 0.09826
942.30 0.09822
942.40 0.09817
942.50 0.09813
942.60 0.09808
942.70 0.09803
942.80 0.09799
942.90 0.09794
943.00 0.0979
943.10 0.09785
943.20 0.09781
943.30 0.09776
943.40 0.09772
943.50 0.09767
943.60 0.09763
943.70 0.09758
943.80 0.09754
943.90 0.09749
944.00 0.09745
944.10 0.0974
944.20 0.09736
944.30 0.09731
944.40 0.09727
944.50 0.09722
944.60 0.09717
944.70 0.09713
944.80 0.09708
944.90 0.09704
945.00 0.09699
945.10 0.09694
945.20 0.0969
945.30 0.09685
945.40 0.0968
945.50 0.09676
945.60 0.09671
945.70 0.09666
945.80 0.09661
945.90 0.09657
946.00 0.09652
946.10 0.09647
946.20 0.09643
946.30 0.09638
946.40 0.09633
946.50 0.09628
946.60 0.09624
946.70 0.09619
946.80 0.09614
946.90 0.0961
947.00 0.09605
947.10 0.096
947.20 0.09595
947.30 0.0959
947.40 0.09586
947.50 0.09581
947.60 0.09576
947.70 0.09571
947.80 0.09566
947.90 0.09561
948.00 0.09556
948.10 0.09551
948.20 0.09547
948.30 0.09542
948.40 0.09537
948.50 0.09532
948.60 0.09527
948.70 0.09522
948.80 0.09517
948.90 0.09512
949.00 0.09508
949.10 0.09503
949.20 0.09498
949.30 0.09493
949.40 0.09488
949.50 0.09483
949.60 0.09478
949.70 0.09473
949.80 0.09468
949.90 0.09463
950.00 0.09458
950.10 0.09453
950.20 0.09448
950.30 0.09443
950.40 0.09438
950.50 0.09433
950.60 0.09428
950.70 0.09423
950.80 0.09418
950.90 0.09413
951.00 0.09408
951.10 0.09403
951.20 0.09398
951.30 0.09393
951.40 0.09388
951.50 0.09383
951.60 0.09378
951.70 0.09374
951.80 0.09369
951.90 0.09364
952.00 0.09359
952.10 0.09354
952.20 0.09349
952.30 0.09344
952.40 0.09339
952.50 0.09334
952.60 0.09329
952.70 0.09324
952.80 0.09319
952.90 0.09314
953.00 0.09309
953.10 0.09304
953.20 0.093
953.30 0.09295
953.40 0.0929
953.50 0.09285
953.60 0.0928
953.70 0.09276
953.80 0.09271
953.90 0.09266
954.00 0.09262
954.10 0.09257
954.20 0.09253
954.30 0.09249
954.40 0.09245
954.50 0.09241
954.60 0.09237
954.70 0.09234
954.80 0.09231
954.90 0.09229
955.00 0.09226
955.10 0.09224
955.20 0.09221
955.30 0.09219
955.40 0.09217
955.50 0.09215
955.60 0.09213
955.70 0.09211
955.80 0.09208
955.90 0.09206
956.00 0.09205
956.10 0.09203
956.20 0.09201
956.30 0.09199
956.40 0.09197
956.50 0.09195
956.60 0.09193
956.70 0.09191
956.80 0.09189
956.90 0.09187
957.00 0.09185
957.10 0.09183
957.20 0.09181
957.30 0.0918
957.40 0.09178
957.50 0.09176
957.60 0.09174
957.70 0.09172
957.80 0.0917
957.90 0.09168
958.00 0.09166
958.10 0.09164
958.20 0.09162
958.30 0.09161
958.40 0.09159
958.50 0.09157
958.60 0.09155
958.70 0.09153
958.80 0.09151
958.90 0.09149
959.00 0.09147
959.10 0.09145
959.20 0.09143
959.30 0.09142
959.40 0.0914
959.50 0.09138
959.60 0.09135
959.70 0.09133
959.80 0.09131
959.90 0.09129
960.00 0.09127
960.10 0.09125
960.20 0.09123
960.30 0.09121
960.40 0.09119
960.50 0.09117
960.60 0.09115
960.70 0.09113
960.80 0.09111
960.90 0.09109
961.00 0.09107
961.10 0.09105
961.20 0.09103
961.30 0.09101
961.40 0.09099
961.50 0.09097
961.60 0.09095
961.70 0.09092
961.80 0.0909
961.90 0.09088
962.00 0.09086
962.10 0.09084
962.20 0.09082
962.30 0.09079
962.40 0.09077
962.50 0.09075
962.60 0.09073
962.70 0.0907
962.80 0.09068
962.90 0.09066
963.00 0.09064
963.10 0.09061
963.20 0.09059
963.30 0.09057
963.40 0.09055
963.50 0.09052
963.60 0.0905
963.70 0.09048
963.80 0.09045
963.90 0.09043
964.00 0.09041
964.10 0.09038
964.20 0.09036
964.30 0.09034
964.40 0.09031
964.50 0.09029
964.60 0.09026
964.70 0.09024
964.80 0.09021
964.90 0.09019
965.00 0.09016
965.10 0.09014
965.20 0.09011
965.30 0.09009
965.40 0.09006
965.50 0.09004
965.60 0.09001
965.70 0.08999
965.80 0.08996
965.90 0.08994
966.00 0.08991
966.10 0.08989
966.20 0.08987
966.30 0.08984
966.40 0.08981
966.50 0.08979
966.60 0.08976
966.70 0.08974
966.80 0.08971
966.90 0.08968
967.00 0.08966
967.10 0.08963
967.20 0.08961
967.30 0.08958
967.40 0.08955
967.50 0.08952
967.60 0.0895
967.70 0.08947
967.80 0.08944
967.90 0.08942
968.00 0.08939
968.10 0.08936
968.20 0.08934
968.30 0.08931
968.40 0.08928
968.50 0.08925
968.60 0.08923
968.70 0.0892
968.80 0.08917
968.90 0.08914
969.00 0.08911
969.10 0.08909
969.20 0.08906
969.30 0.08903
969.40 0.089
969.50 0.08897
969.60 0.08894
969.70 0.08892
969.80 0.08889
969.90 0.08886
970.00 0.08883
970.10 0.0888
970.20 0.08878
970.30 0.08875
970.40 0.08872
970.50 0.08869
970.60 0.08866
970.70 0.08863
970.80 0.0886
970.90 0.08857
971.00 0.08854
971.10 0.08851
971.20 0.08848
971.30 0.08845
971.40 0.08842
971.50 0.08839
971.60 0.08836
971.70 0.08833
971.80 0.0883
971.90 0.08827
972.00 0.08825
972.10 0.08821
972.20 0.08818
972.30 0.08815
972.40 0.08812
972.50 0.08809
972.60 0.08806
972.70 0.08803
972.80 0.088
972.90 0.08796
973.00 0.08793
973.10 0.0879
973.20 0.08787
973.30 0.08784
973.40 0.08781
973.50 0.08778
973.60 0.08775
973.70 0.08772
973.80 0.08769
973.90 0.08765
974.00 0.08762
974.10 0.08759
974.20 0.08756
974.30 0.08753
974.40 0.0875
974.50 0.08746
974.60 0.08743
974.70 0.0874
974.80 0.08736
974.90 0.08733
975.00 0.0873
975.10 0.08727
975.20 0.08723
975.30 0.0872
975.40 0.08717
975.50 0.08713
975.60 0.0871
975.70 0.08707
975.80 0.08704
975.90 0.087
976.00 0.08697
976.10 0.08694
976.20 0.0869
976.30 0.08687
976.40 0.08684
976.50 0.08681
976.60 0.08677
976.70 0.08674
976.80 0.08671
976.90 0.08667
977.00 0.08664
977.10 0.08661
977.20 0.08657
977.30 0.08653
977.40 0.0865
977.50 0.08646
977.60 0.08642
977.70 0.08639
977.80 0.08635
977.90 0.08632
978.00 0.08628
978.10 0.08624
978.20 0.08621
978.30 0.08617
978.40 0.08614
978.50 0.0861
978.60 0.08606
978.70 0.08603
978.80 0.08599
978.90 0.08596
979.00 0.08592
979.10 0.08589
979.20 0.08585
979.30 0.08581
979.40 0.08578
979.50 0.08574
979.60 0.08571
979.70 0.08567
979.80 0.08563
979.90 0.0856
980.00 0.08556
980.10 0.08553
980.20 0.08549
980.30 0.08546
980.40 0.08542
980.50 0.08538
980.60 0.08535
980.70 0.08531
980.80 0.08528
980.90 0.08524
981.00 0.08521
981.10 0.08517
981.20 0.08513
981.30 0.0851
981.40 0.08506
981.50 0.08503
981.60 0.08499
981.70 0.08496
981.80 0.08492
981.90 0.08489
982.00 0.08485
982.10 0.08481
982.20 0.08477
982.30 0.08473
982.40 0.08469
982.50 0.08466
982.60 0.08462
982.70 0.08458
982.80 0.08454
982.90 0.0845
983.00 0.08446
983.10 0.08442
983.20 0.08438
983.30 0.08434
983.40 0.0843
983.50 0.08427
983.60 0.08423
983.70 0.08419
983.80 0.08415
983.90 0.08411
984.00 0.08407
984.10 0.08403
984.20 0.08399
984.30 0.08395
984.40 0.08392
984.50 0.08388
984.60 0.08384
984.70 0.0838
984.80 0.08376
984.90 0.08372
985.00 0.08367
985.10 0.08363
985.20 0.08359
985.30 0.08355
985.40 0.08351
985.50 0.08347
985.60 0.08343
985.70 0.08338
985.80 0.08334
985.90 0.0833
986.00 0.08326
986.10 0.08322
986.20 0.08318
986.30 0.08314
986.40 0.0831
986.50 0.08306
986.60 0.08301
986.70 0.08297
986.80 0.08293
986.90 0.08289
987.00 0.08285
987.10 0.08281
987.20 0.08276
987.30 0.08272
987.40 0.08268
987.50 0.08263
987.60 0.08259
987.70 0.08255
987.80 0.0825
987.90 0.08246
988.00 0.08242
988.10 0.08237
988.20 0.08233
988.30 0.08229
988.40 0.08224
988.50 0.0822
988.60 0.08216
988.70 0.08211
988.80 0.08207
988.90 0.08202
989.00 0.08198
989.10 0.08193
989.20 0.08189
989.30 0.08184
989.40 0.0818
989.50 0.08175
989.60 0.0817
989.70 0.08166
989.80 0.08161
989.90 0.08157
990.00 0.08152
990.10 0.08148
990.20 0.08143
990.30 0.08139
990.40 0.08134
990.50 0.0813
990.60 0.08125
990.70 0.0812
990.80 0.08116
990.90 0.08111
991.00 0.08106
991.10 0.08101
991.20 0.08097
991.30 0.08092
991.40 0.08087
991.50 0.08082
991.60 0.08078
991.70 0.08073
991.80 0.08068
991.90 0.08064
992.00 0.08059
992.10 0.08054
992.20 0.08049
992.30 0.08044
992.40 0.08039
992.50 0.08034
992.60 0.0803
992.70 0.08024
992.80 0.08019
992.90 0.08014
993.00 0.08009
993.10 0.08004
993.20 0.07999
993.30 0.07994
993.40 0.07989
993.50 0.07984
993.60 0.07979
993.70 0.07974
993.80 0.07969
993.90 0.07964
994.00 0.07958
994.10 0.07953
994.20 0.07948
994.30 0.07943
994.40 0.07938
994.50 0.07933
994.60 0.07928
994.70 0.07923
994.80 0.07918
994.90 0.07912
995.00 0.07907
995.10 0.07902
995.20 0.07896
995.30 0.07891
995.40 0.07886
995.50 0.0788
995.60 0.07875
995.70 0.0787
995.80 0.07864
995.90 0.07859
996.00 0.07853
996.10 0.07848
996.20 0.07842
996.30 0.07837
996.40 0.07831
996.50 0.07826
996.60 0.0782
996.70 0.07815
996.80 0.07809
996.90 0.07804
997.00 0.07798
997.10 0.07793
997.20 0.07787
997.30 0.07781
997.40 0.07776
997.50 0.0777
997.60 0.07764
997.70 0.07758
997.80 0.07753
997.90 0.07747
998.00 0.07741
998.10 0.07735
998.20 0.07729
998.30 0.07723
998.40 0.07717
998.50 0.07711
998.60 0.07706
998.70 0.077
998.80 0.07694
998.90 0.07688
999.00 0.07682
999.10 0.07676
999.20 0.0767
999.30 0.07665
999.40 0.07659
999.50 0.07653
999.60 0.07647
999.70 0.07641
999.80 0.07635
999.90 0.07629
1000.00 0.07623
1000.10 0.07617
1000.20 0.07611
1000.30 0.07605
1000.40 0.07598
1000.50 0.07592
1000.60 0.07586
1000.70 0.0758
1000.80 0.07574
1000.90 0.07568
1001.00 0.07562
1001.10 0.07556
1001.20 0.0755
1001.30 0.07544
1001.40 0.07538
1001.50 0.07532
1001.60 0.07526
1001.70 0.0752
1001.80 0.07514
1001.90 0.07508
1002.00 0.07502
1002.10 0.07496
1002.20 0.0749
1002.30 0.07484
1002.40 0.07478
1002.50 0.07472
1002.60 0.07467
1002.70 0.07461
1002.80 0.07455
1002.90 0.07449
1003.00 0.07443
1003.10 0.07438
1003.20 0.07432
1003.30 0.07427
1003.40 0.07422
1003.50 0.07417
1003.60 0.07412
1003.70 0.07407
1003.80 0.07401
1003.90 0.07397
1004.00 0.07393
1004.10 0.07389
1004.20 0.07385
1004.30 0.07381
1004.40 0.07378
1004.50 0.07375
1004.60 0.07373
1004.70 0.07372
1004.80 0.07371
1004.90 0.07368
1005.00 0.07366
1005.10 0.07363
1005.20 0.07359
1005.30 0.07356
1005.40 0.07352
1005.50 0.0735
1005.60 0.07349
1005.70 0.07348
1005.80 0.07346
1005.90 0.07345
1006.00 0.07344
1006.10 0.07342
1006.20 0.07342
1006.30 0.07342
1006.40 0.07342
1006.50 0.07342
1006.60 0.07342
1006.70 0.07343
1006.80 0.07343
1006.90 0.07343
1007.00 0.07343
1007.10 0.07343
1007.20 0.07344
1007.30 0.07344
1007.40 0.07345
1007.50 0.07345
1007.60 0.07346
1007.70 0.07347
1007.80 0.07347
1007.90 0.07348
1008.00 0.07349
1008.10 0.07349
1008.20 0.0735
1008.30 0.07351
1008.40 0.07352
1008.50 0.07352
1008.60 0.07353
1008.70 0.07354
1008.80 0.07354
1008.90 0.07355
1009.00 0.07356
1009.10 0.07356
1009.20 0.07357
1009.30 0.07358
1009.40 0.07359
1009.50 0.07359
1009.60 0.0736
1009.70 0.0736
1009.80 0.07361
1009.90 0.07361
1010.00 0.07362
1010.10 0.07362
1010.20 0.07363
1010.30 0.07363
1010.40 0.07364
1010.50 0.07364
1010.60 0.07365
1010.70 0.07365
1010.80 0.07366
1010.90 0.07366
1011.00 0.07367
1011.10 0.07367
1011.20 0.07368
1011.30 0.07368
1011.40 0.07368
1011.50 0.07369
1011.60 0.07369
1011.70 0.0737
1011.80 0.0737
1011.90 0.0737
1012.00 0.0737
1012.10 0.0737
1012.20 0.07371
1012.30 0.07371
1012.40 0.07371
1012.50 0.07371
1012.60 0.07371
1012.70 0.07371
1012.80 0.07371
1012.90 0.07371
1013.00 0.07371
1013.10 0.07371
1013.20 0.07371
1013.30 0.07371
1013.40 0.07371
1013.50 0.07371
1013.60 0.07371
1013.70 0.07371
1013.80 0.07371
1013.90 0.07371
1014.00 0.0737
1014.10 0.0737
1014.20 0.0737
1014.30 0.0737
1014.40 0.0737
1014.50 0.07369
1014.60 0.07369
1014.70 0.07369
1014.80 0.07368
1014.90 0.07368
1015.00 0.07367
1015.10 0.07367
1015.20 0.07366
1015.30 0.07366
1015.40 0.07365
1015.50 0.07365
1015.60 0.07364
1015.70 0.07364
1015.80 0.07363
1015.90 0.07363
1016.00 0.07362
1016.10 0.07362
1016.20 0.07361
1016.30 0.07361
1016.40 0.0736
1016.50 0.0736
1016.60 0.0736
1016.70 0.07359
1016.80 0.07358
1016.90 0.07358
1017.00 0.07357
1017.10 0.07356
1017.20 0.07355
1017.30 0.07354
1017.40 0.07353
1017.50 0.07353
1017.60 0.07352
1017.70 0.07351
1017.80 0.0735
1017.90 0.07349
1018.00 0.07348
1018.10 0.07348
1018.20 0.07347
1018.30 0.07346
1018.40 0.07345
1018.50 0.07344
1018.60 0.07343
1018.70 0.07342
1018.80 0.07341
1018.90 0.0734
1019.00 0.07339
1019.10 0.07338
1019.20 0.07337
1019.30 0.07336
1019.40 0.07335
1019.50 0.07334
1019.60 0.07333
1019.70 0.07332
1019.80 0.0733
1019.90 0.07329
1020.00 0.07328
1020.10 0.07327
1020.20 0.07326
1020.30 0.07325
1020.40 0.07324
1020.50 0.07323
1020.60 0.07322
1020.70 0.07321
1020.80 0.07319
1020.90 0.07318
1021.00 0.07317
1021.10 0.07315
1021.20 0.07314
1021.30 0.07313
1021.40 0.07311
1021.50 0.0731
1021.60 0.07309
1021.70 0.07308
1021.80 0.07306
1021.90 0.07305
1022.00 0.07304
1022.10 0.07302
1022.20 0.07301
1022.30 0.07299
1022.40 0.07298
1022.50 0.07296
1022.60 0.07295
1022.70 0.07293
1022.80 0.07292
1022.90 0.0729
1023.00 0.07289
1023.10 0.07287
1023.20 0.07286
1023.30 0.07284
1023.40 0.07283
1023.50 0.07281
1023.60 0.0728
1023.70 0.07278
1023.80 0.07277
1023.90 0.07275
1024.00 0.07274
1024.10 0.07272
1024.20 0.07271
1024.30 0.07269
1024.40 0.07268
1024.50 0.07266
1024.60 0.07265
1024.70 0.07263
1024.80 0.07261
1024.90 0.0726
1025.00 0.07258
1025.10 0.07256
1025.20 0.07255
1025.30 0.07253
1025.40 0.07251
1025.50 0.07249
1025.60 0.07248
1025.70 0.07246
1025.80 0.07244
1025.90 0.07243
1026.00 0.07241
1026.10 0.07239
1026.20 0.07237
1026.30 0.07236
1026.40 0.07234
1026.50 0.07232
1026.60 0.07231
1026.70 0.07229
1026.80 0.07227
1026.90 0.07225
1027.00 0.07224
1027.10 0.07222
1027.20 0.0722
1027.30 0.07218
1027.40 0.07216
1027.50 0.07214
1027.60 0.07212
1027.70 0.0721
1027.80 0.07208
1027.90 0.07206
1028.00 0.07204
1028.10 0.07202
1028.20 0.072
1028.30 0.07198
1028.40 0.07196
1028.50 0.07194
1028.60 0.07192
1028.70 0.0719
1028.80 0.07189
1028.90 0.07187
1029.00 0.07185
1029.10 0.07183
1029.20 0.07181
1029.30 0.07179
1029.40 0.07177
1029.50 0.07175
1029.60 0.07173
1029.70 0.07171
1029.80 0.07169
1029.90 0.07167
1030.00 0.07165
1030.10 0.07163
1030.20 0.07161
1030.30 0.07159
1030.40 0.07157
1030.50 0.07155
1030.60 0.07153
1030.70 0.07152
1030.80 0.0715
1030.90 0.07148
1031.00 0.07146
1031.10 0.07144
1031.20 0.07142
1031.30 0.0714
1031.40 0.07138
1031.50 0.07136
1031.60 0.07134
1031.70 0.07132
1031.80 0.0713
1031.90 0.07128
1032.00 0.07126
1032.10 0.07124
1032.20 0.07122
1032.30 0.0712
1032.40 0.07118
1032.50 0.07115
1032.60 0.07113
1032.70 0.07111
1032.80 0.07109
1032.90 0.07107
1033.00 0.07104
1033.10 0.07102
1033.20 0.071
1033.30 0.07098
1033.40 0.07096
1033.50 0.07094
1033.60 0.07091
1033.70 0.07089
1033.80 0.07087
1033.90 0.07085
1034.00 0.07083
1034.10 0.0708
1034.20 0.07078
1034.30 0.07076
1034.40 0.07074
1034.50 0.07072
1034.60 0.0707
1034.70 0.07067
1034.80 0.07065
1034.90 0.07063
1035.00 0.07061
1035.10 0.07059
1035.20 0.07057
1035.30 0.07054
1035.40 0.07052
1035.50 0.0705
1035.60 0.07048
1035.70 0.07046
1035.80 0.07044
1035.90 0.07041
1036.00 0.07039
1036.10 0.07037
1036.20 0.07035
1036.30 0.07033
1036.40 0.07031
1036.50 0.07028
1036.60 0.07026
1036.70 0.07024
1036.80 0.07022
1036.90 0.0702
1037.00 0.07018
1037.10 0.07015
1037.20 0.07013
1037.30 0.07011
1037.40 0.07008
1037.50 0.07006
1037.60 0.07004
1037.70 0.07001
1037.80 0.06999
1037.90 0.06996
1038.00 0.06994
1038.10 0.06992
1038.20 0.06989
1038.30 0.06987
1038.40 0.06985
1038.50 0.06982
1038.60 0.0698
1038.70 0.06978
1038.80 0.06975
1038.90 0.06973
1039.00 0.06971
1039.10 0.06968
1039.20 0.06966
1039.30 0.06964
1039.40 0.06962
1039.50 0.06959
1039.60 0.06957
1039.70 0.06955
1039.80 0.06952
1039.90 0.0695
1040.00 0.06948
1040.10 0.06945
1040.20 0.06943
1040.30 0.06941
1040.40 0.06938
1040.50 0.06936
1040.60 0.06934
1040.70 0.06931
1040.80 0.06929
1040.90 0.06927
1041.00 0.06924
1041.10 0.06922
1041.20 0.0692
1041.30 0.06917
1041.40 0.06915
1041.50 0.06913
1041.60 0.06911
1041.70 0.06908
1041.80 0.06906
1041.90 0.06904
1042.00 0.06901
1042.10 0.06899
1042.20 0.06896
1042.30 0.06894
1042.40 0.06891
1042.50 0.06889
1042.60 0.06887
1042.70 0.06884
1042.80 0.06882
1042.90 0.06879
1043.00 0.06877
1043.10 0.06874
1043.20 0.06872
1043.30 0.06869
1043.40 0.06867
1043.50 0.06865
1043.60 0.06862
1043.70 0.0686
1043.80 0.06857
1043.90 0.06855
1044.00 0.06852
1044.10 0.0685
1044.20 0.06847
1044.30 0.06845
1044.40 0.06843
1044.50 0.0684
1044.60 0.06838
1044.70 0.06835
1044.80 0.06833
1044.90 0.0683
1045.00 0.06828
1045.10 0.06826
1045.20 0.06823
1045.30 0.06821
1045.40 0.06818
1045.50 0.06816
1045.60 0.06813
1045.70 0.06811
1045.80 0.06809
1045.90 0.06806
1046.00 0.06804
1046.10 0.06801
1046.20 0.06799
1046.30 0.06796
1046.40 0.06794
1046.50 0.06792
1046.60 0.06789
1046.70 0.06787
1046.80 0.06784
1046.90 0.06782
1047.00 0.0678
1047.10 0.06777
1047.20 0.06774
1047.30 0.06772
1047.40 0.06769
1047.50 0.06767
1047.60 0.06764
1047.70 0.06762
1047.80 0.06759
1047.90 0.06757
1048.00 0.06754
1048.10 0.06752
1048.20 0.06749
1048.30 0.06746
1048.40 0.06744
1048.50 0.06741
1048.60 0.06739
1048.70 0.06736
1048.80 0.06734
1048.90 0.06731
1049.00 0.06729
1049.10 0.06726
1049.20 0.06724
1049.30 0.06721
1049.40 0.06719
1049.50 0.06716
1049.60 0.06714
1049.70 0.06711
1049.80 0.06709
1049.90 0.06706
1050.00 0.06703
1050.10 0.06701
1050.20 0.06698
1050.30 0.06696
1050.40 0.06693
1050.50 0.06691
1050.60 0.06688
1050.70 0.06686
1050.80 0.06683
1050.90 0.06681
1051.00 0.06678
1051.10 0.06676
1051.20 0.06673
1051.30 0.06671
1051.40 0.06668
1051.50 0.06666
1051.60 0.06663
1051.70 0.06661
1051.80 0.06658
1051.90 0.06656
1052.00 0.06653
1052.10 0.06651
1052.20 0.06648
1052.30 0.06645
1052.40 0.06643
1052.50 0.0664
1052.60 0.06637
1052.70 0.06635
1052.80 0.06632
1052.90 0.06629
1053.00 0.06627
1053.10 0.06624
1053.20 0.06622
1053.30 0.06619
1053.40 0.06616
1053.50 0.06614
1053.60 0.06611
1053.70 0.06608
1053.80 0.06606
1053.90 0.06603
1054.00 0.06601
1054.10 0.06598
1054.20 0.06595
1054.30 0.06593
1054.40 0.0659
1054.50 0.06587
1054.60 0.06585
1054.70 0.06582
1054.80 0.0658
1054.90 0.06577
1055.00 0.06574
1055.10 0.06572
1055.20 0.06569
1055.30 0.06566
1055.40 0.06564
1055.50 0.06561
1055.60 0.06559
1055.70 0.06556
1055.80 0.06553
1055.90 0.06551
1056.00 0.06548
1056.10 0.06546
1056.20 0.06543
1056.30 0.0654
1056.40 0.06538
1056.50 0.06535
1056.60 0.06532
1056.70 0.0653
1056.80 0.06527
1056.90 0.06525
1057.00 0.06522
1057.10 0.06519
1057.20 0.06517
1057.30 0.06514
1057.40 0.06511
1057.50 0.06508
1057.60 0.06505
1057.70 0.06503
1057.80 0.065
1057.90 0.06497
1058.00 0.06494
1058.10 0.06492
1058.20 0.06489
1058.30 0.06486
1058.40 0.06483
1058.50 0.06481
1058.60 0.06478
1058.70 0.06475
1058.80 0.06472
1058.90 0.0647
1059.00 0.06467
1059.10 0.06464
1059.20 0.06461
1059.30 0.06459
1059.40 0.06456
1059.50 0.06453
1059.60 0.0645
1059.70 0.06448
1059.80 0.06445
1059.90 0.06442
1060.00 0.06439
1060.10 0.06437
1060.20 0.06434
1060.30 0.06431
1060.40 0.06428
1060.50 0.06426
1060.60 0.06423
1060.70 0.0642
1060.80 0.06417
1060.90 0.06415
1061.00 0.06412
1061.10 0.06409
1061.20 0.06406
1061.30 0.06404
1061.40 0.06401
1061.50 0.06398
1061.60 0.06396
1061.70 0.06393
1061.80 0.0639
1061.90 0.06387
1062.00 0.06385
1062.10 0.06382
1062.20 0.06379
1062.30 0.06376
1062.40 0.06373
1062.50 0.0637
1062.60 0.06367
1062.70 0.06364
1062.80 0.06361
1062.90 0.06358
1063.00 0.06355
1063.10 0.06352
1063.20 0.06349
1063.30 0.06346
1063.40 0.06343
1063.50 0.0634
1063.60 0.06337
1063.70 0.06335
1063.80 0.06332
1063.90 0.06329
1064.00 0.06326
1064.10 0.06323
1064.20 0.0632
1064.30 0.06317
1064.40 0.06314
1064.50 0.06311
1064.60 0.06308
1064.70 0.06305
1064.80 0.06302
1064.90 0.06299
1065.00 0.06296
1065.10 0.06293
1065.20 0.06291
1065.30 0.06288
1065.40 0.06285
1065.50 0.06282
1065.60 0.06279
1065.70 0.06276
1065.80 0.06273
1065.90 0.0627
1066.00 0.06267
1066.10 0.06264
1066.20 0.06261
1066.30 0.06258
1066.40 0.06256
1066.50 0.06253
1066.60 0.0625
1066.70 0.06247
1066.80 0.06244
1066.90 0.06241
1067.00 0.06238
1067.10 0.06235
1067.20 0.06232
1067.30 0.06228
1067.40 0.06225
1067.50 0.06222
1067.60 0.06219
1067.70 0.06215
1067.80 0.06212
1067.90 0.06209
1068.00 0.06206
1068.10 0.06203
1068.20 0.06199
1068.30 0.06196
1068.40 0.06193
1068.50 0.0619
1068.60 0.06187
1068.70 0.06183
1068.80 0.0618
1068.90 0.06177
1069.00 0.06174
1069.10 0.0617
1069.20 0.06167
1069.30 0.06164
1069.40 0.06161
1069.50 0.06158
1069.60 0.06154
1069.70 0.06151
1069.80 0.06148
1069.90 0.06145
1070.00 0.06142
1070.10 0.06138
1070.20 0.06135
1070.30 0.06132
1070.40 0.06129
1070.50 0.06126
1070.60 0.06122
1070.70 0.06119
1070.80 0.06116
1070.90 0.06113
1071.00 0.0611
1071.10 0.06106
1071.20 0.06103
1071.30 0.061
1071.40 0.06097
1071.50 0.06094
1071.60 0.06091
1071.70 0.06087
1071.80 0.06084
1071.90 0.06081
1072.00 0.06078
1072.10 0.06074
1072.20 0.06071
1072.30 0.06067
1072.40 0.06064
1072.50 0.06061
1072.60 0.06057
1072.70 0.06054
1072.80 0.0605
1072.90 0.06047
1073.00 0.06043
1073.10 0.0604
1073.20 0.06036
1073.30 0.06033
1073.40 0.06029
1073.50 0.06026
1073.60 0.06022
1073.70 0.06018
1073.80 0.06015
1073.90 0.06011
1074.00 0.06007
1074.10 0.06004
1074.20 0.06
1074.30 0.05996
1074.40 0.05992
1074.50 0.05989
1074.60 0.05985
1074.70 0.05981
1074.80 0.05978
1074.90 0.05974
1075.00 0.0597
1075.10 0.05967
1075.20 0.05963
1075.30 0.05959
1075.40 0.05955
1075.50 0.05952
1075.60 0.05948
1075.70 0.05944
1075.80 0.05941
1075.90 0.05937
1076.00 0.05933
1076.10 0.0593
1076.20 0.05926
1076.30 0.05922
1076.40 0.05918
1076.50 0.05915
1076.60 0.05911
1076.70 0.05907
1076.80 0.05904
1076.90 0.059
1077.00 0.05896
1077.10 0.05892
1077.20 0.05889
1077.30 0.05885
1077.40 0.05881
1077.50 0.05877
1077.60 0.05873
1077.70 0.05868
1077.80 0.05864
1077.90 0.0586
1078.00 0.05856
1078.10 0.05852
1078.20 0.05848
1078.30 0.05844
1078.40 0.0584
1078.50 0.05836
1078.60 0.05832
1078.70 0.05827
1078.80 0.05823
1078.90 0.05819
1079.00 0.05815
1079.10 0.05811
1079.20 0.05807
1079.30 0.05803
1079.40 0.05799
1079.50 0.05795
1079.60 0.0579
1079.70 0.05786
1079.80 0.05781
1079.90 0.05777
1080.00 0.05772
1080.10 0.05768
1080.20 0.05764
1080.30 0.05759
1080.40 0.05755
1080.50 0.0575
1080.60 0.05746
1080.70 0.05742
1080.80 0.05737
1080.90 0.05733
1081.00 0.05728
1081.10 0.05724
1081.20 0.0572
1081.30 0.05715
1081.40 0.05711
1081.50 0.05706
1081.60 0.05702
1081.70 0.05697
1081.80 0.05692
1081.90 0.05688
1082.00 0.05683
1082.10 0.05678
1082.20 0.05673
1082.30 0.05669
1082.40 0.05664
1082.50 0.05659
1082.60 0.05654
1082.70 0.05649
1082.80 0.05645
1082.90 0.0564
1083.00 0.05635
1083.10 0.0563
1083.20 0.05625
1083.30 0.0562
1083.40 0.05616
1083.50 0.05611
1083.60 0.05606
1083.70 0.05601
1083.80 0.05595
1083.90 0.0559
1084.00 0.05585
1084.10 0.0558
1084.20 0.05575
1084.30 0.0557
1084.40 0.05565
1084.50 0.0556
1084.60 0.05554
1084.70 0.05549
1084.80 0.05543
1084.90 0.05538
1085.00 0.05533
1085.10 0.05527
1085.20 0.05522
1085.30 0.05516
1085.40 0.05511
1085.50 0.05505
1085.60 0.055
1085.70 0.05494
1085.80 0.05489
1085.90 0.05484
1086.00 0.05478
1086.10 0.05473
1086.20 0.05467
1086.30 0.05462
1086.40 0.05456
1086.50 0.05451
1086.60 0.05445
1086.70 0.05439
1086.80 0.05433
1086.90 0.05428
1087.00 0.05422
1087.10 0.05416
1087.20 0.0541
1087.30 0.05404
1087.40 0.05398
1087.50 0.05391
1087.60 0.05385
1087.70 0.05379
1087.80 0.05373
1087.90 0.05367
1088.00 0.05361
1088.10 0.05355
1088.20 0.05349
1088.30 0.05343
1088.40 0.05337
1088.50 0.0533
1088.60 0.05324
1088.70 0.05317
1088.80 0.0531
1088.90 0.05303
1089.00 0.05296
1089.10 0.0529
1089.20 0.05283
1089.30 0.05276
1089.40 0.05269
1089.50 0.05263
1089.60 0.05256
1089.70 0.05249
1089.80 0.05242
1089.90 0.05236
1090.00 0.05229
1090.10 0.05222
1090.20 0.05216
1090.30 0.05209
1090.40 0.05202
1090.50 0.05195
1090.60 0.05187
1090.70 0.05179
1090.80 0.05172
1090.90 0.05164
1091.00 0.05156
1091.10 0.05148
1091.20 0.0514
1091.30 0.05133
1091.40 0.05125
1091.50 0.05117
1091.60 0.05109
1091.70 0.05101
1091.80 0.05094
1091.90 0.05086
1092.00 0.05078
1092.10 0.05069
1092.20 0.0506
1092.30 0.0505
1092.40 0.05041
1092.50 0.05032
1092.60 0.05023
1092.70 0.05014
1092.80 0.05003
1092.90 0.04993
1093.00 0.04982
1093.10 0.04971
1093.20 0.04959
1093.30 0.04947
1093.40 0.04935
1093.50 0.04921
1093.60 0.04907
1093.70 0.04897
1093.80 0.04892
1093.90 0.04891
1094.00 0.04901
1094.10 0.04911
1094.20 0.04922
1094.30 0.04931
1094.40 0.04939
1094.50 0.04947
1094.60 0.04954
1094.70 0.04962
1094.80 0.0497
1094.90 0.04978
1095.00 0.04985
1095.10 0.0499
1095.20 0.04995
1095.30 0.05
1095.40 0.05005
1095.50 0.0501
1095.60 0.05016
1095.70 0.05021
1095.80 0.05026
1095.90 0.05031
1096.00 0.05036
1096.10 0.05041
1096.20 0.05046
1096.30 0.05052
1096.40 0.05057
1096.50 0.05061
1096.60 0.05066
1096.70 0.0507
1096.80 0.05074
1096.90 0.05078
1097.00 0.05082
1097.10 0.05085
1097.20 0.05089
1097.30 0.05092
1097.40 0.05095
1097.50 0.05099
1097.60 0.05102
1097.70 0.05106
1097.80 0.05109
1097.90 0.05112
1098.00 0.05116
1098.10 0.05119
1098.20 0.05123
1098.30 0.05126
1098.40 0.05129
1098.50 0.05132
1098.60 0.05135
1098.70 0.05138
1098.80 0.0514
1098.90 0.05143
1099.00 0.05145
1099.10 0.05148
1099.20 0.05151
1099.30 0.05153
1099.40 0.05156
1099.50 0.05158
1099.60 0.05161
1099.70 0.05164
1099.80 0.05166
1099.90 0.05169
1100.00 0.05171
1100.10 0.05174
1100.20 0.05176
1100.30 0.05179
1100.40 0.05182
1100.50 0.05184
1100.60 0.05186
1100.70 0.05188
1100.80 0.0519
1100.90 0.05192
1101.00 0.05194
1101.10 0.05196
1101.20 0.05198
1101.30 0.052
1101.40 0.05201
1101.50 0.05203
1101.60 0.05205
1101.70 0.05207
1101.80 0.05209
1101.90 0.05211
1102.00 0.05213
1102.10 0.05215
1102.20 0.05216
1102.30 0.05218
1102.40 0.0522
1102.50 0.05221
1102.60 0.05223
1102.70 0.05224
1102.80 0.05225
1102.90 0.05227
1103.00 0.05228
1103.10 0.0523
1103.20 0.05231
1103.30 0.05233
1103.40 0.05234
1103.50 0.05235
1103.60 0.05236
1103.70 0.05237
1103.80 0.05238
1103.90 0.05239
1104.00 0.0524
1104.10 0.05241
1104.20 0.05242
1104.30 0.05244
1104.40 0.05245
1104.50 0.05246
1104.60 0.05247
1104.70 0.05248
1104.80 0.05249
1104.90 0.0525
1105.00 0.05251
1105.10 0.05252
1105.20 0.05253
1105.30 0.05254
1105.40 0.05255
1105.50 0.05256
1105.60 0.05256
1105.70 0.05257
1105.80 0.05258
1105.90 0.05258
1106.00 0.05259
1106.10 0.0526
1106.20 0.0526
1106.30 0.05261
1106.40 0.05261
1106.50 0.05262
1106.60 0.05263
1106.70 0.05263
1106.80 0.05264
1106.90 0.05265
1107.00 0.05265
1107.10 0.05266
1107.20 0.05266
1107.30 0.05267
1107.40 0.05267
1107.50 0.05267
1107.60 0.05268
1107.70 0.05268
1107.80 0.05268
1107.90 0.05268
1108.00 0.05268
1108.10 0.05269
1108.20 0.05269
1108.30 0.05269
1108.40 0.05269
1108.50 0.05269
1108.60 0.0527
1108.70 0.0527
1108.80 0.0527
1108.90 0.0527
1109.00 0.0527
1109.10 0.05271
1109.20 0.05271
1109.30 0.05271
1109.40 0.05271
1109.50 0.05271
1109.60 0.05271
1109.70 0.05271
1109.80 0.05271
1109.90 0.05271
1110.00 0.05271
1110.10 0.0527
1110.20 0.0527
1110.30 0.0527
1110.40 0.0527
1110.50 0.0527
1110.60 0.0527
1110.70 0.0527
1110.80 0.05269
1110.90 0.05269
1111.00 0.05269
1111.10 0.05269
1111.20 0.05269
1111.30 0.05269
1111.40 0.05269
1111.50 0.05268
1111.60 0.05268
1111.70 0.05268
1111.80 0.05268
1111.90 0.05268
1112.00 0.05268
1112.10 0.05267
1112.20 0.05267
1112.30 0.05267
1112.40 0.05266
1112.50 0.05266
1112.60 0.05265
1112.70 0.05265
1112.80 0.05265
1112.90 0.05264
1113.00 0.05264
1113.10 0.05263
1113.20 0.05263
1113.30 0.05263
1113.40 0.05262
1113.50 0.05262
1113.60 0.05261
1113.70 0.0526
1113.80 0.0526
1113.90 0.05259
1114.00 0.05258
1114.10 0.05258
1114.20 0.05257
1114.30 0.05256
1114.40 0.05256
1114.50 0.05255
1114.60 0.05254
1114.70 0.05254
1114.80 0.05253
1114.90 0.05252
1115.00 0.05252
1115.10 0.05251
1115.20 0.0525
1115.30 0.0525
1115.40 0.05249
1115.50 0.05248
1115.60 0.05248
1115.70 0.05247
1115.80 0.05246
1115.90 0.05246
1116.00 0.05245
1116.10 0.05244
1116.20 0.05244
1116.30 0.05243
1116.40 0.05242
1116.50 0.05242
1116.60 0.05241
1116.70 0.0524
1116.80 0.0524
1116.90 0.05239
1117.00 0.05238
1117.10 0.05237
1117.20 0.05236
1117.30 0.05235
1117.40 0.05234
1117.50 0.05234
1117.60 0.05233
1117.70 0.05232
1117.80 0.05231
1117.90 0.0523
1118.00 0.05229
1118.10 0.05228
1118.20 0.05227
1118.30 0.05226
1118.40 0.05225
1118.50 0.05224
1118.60 0.05223
1118.70 0.05222
1118.80 0.05221
1118.90 0.0522
1119.00 0.05219
1119.10 0.05218
1119.20 0.05217
1119.30 0.05216
1119.40 0.05215
1119.50 0.05214
1119.60 0.05213
1119.70 0.05212
1119.80 0.05211
1119.90 0.0521
1120.00 0.05209
1120.10 0.05208
1120.20 0.05207
1120.30 0.05206
1120.40 0.05205
1120.50 0.05204
1120.60 0.05203
1120.70 0.05202
1120.80 0.05201
1120.90 0.052
1121.00 0.05199
1121.10 0.05198
1121.20 0.05197
1121.30 0.05196
1121.40 0.05195
1121.50 0.05194
1121.60 0.05193
1121.70 0.05192
1121.80 0.05191
1121.90 0.0519
1122.00 0.05189
1122.10 0.05188
1122.20 0.05187
1122.30 0.05185
1122.40 0.05184
1122.50 0.05183
1122.60 0.05182
1122.70 0.0518
1122.80 0.05179
1122.90 0.05178
1123.00 0.05177
1123.10 0.05175
1123.20 0.05174
1123.30 0.05173
1123.40 0.05172
1123.50 0.05171
1123.60 0.05169
1123.70 0.05168
1123.80 0.05167
1123.90 0.05166
1124.00 0.05164
1124.10 0.05163
1124.20 0.05162
1124.30 0.05161
1124.40 0.05159
1124.50 0.05158
1124.60 0.05157
1124.70 0.05156
1124.80 0.05154
1124.90 0.05153
1125.00 0.05152
1125.10 0.05151
1125.20 0.0515
1125.30 0.05148
1125.40 0.05147
1125.50 0.05146
1125.60 0.05145
1125.70 0.05143
1125.80 0.05142
1125.90 0.05141
1126.00 0.0514
1126.10 0.05139
1126.20 0.05137
1126.30 0.05136
1126.40 0.05135
1126.50 0.05134
1126.60 0.05132
1126.70 0.05131
1126.80 0.0513
1126.90 0.05129
1127.00 0.05127
1127.10 0.05126
1127.20 0.05125
1127.30 0.05123
1127.40 0.05122
1127.50 0.05121
1127.60 0.05119
1127.70 0.05118
1127.80 0.05116
1127.90 0.05115
1128.00 0.05114
1128.10 0.05112
1128.20 0.05111
1128.30 0.05109
1128.40 0.05108
1128.50 0.05107
1128.60 0.05105
1128.70 0.05104
1128.80 0.05103
1128.90 0.05101
1129.00 0.051
1129.10 0.05098
1129.20 0.05097
1129.30 0.05096
1129.40 0.05094
1129.50 0.05093
1129.60 0.05091
1129.70 0.0509
1129.80 0.05089
1129.90 0.05087
1130.00 0.05086
1130.10 0.05085
1130.20 0.05083
1130.30 0.05082
1130.40 0.0508
1130.50 0.05079
1130.60 0.05078
1130.70 0.05076
1130.80 0.05075
1130.90 0.05074
1131.00 0.05072
1131.10 0.05071
1131.20 0.05069
1131.30 0.05068
1131.40 0.05067
1131.50 0.05065
1131.60 0.05064
1131.70 0.05063
1131.80 0.05061
1131.90 0.0506
1132.00 0.05059
1132.10 0.05057
1132.20 0.05056
1132.30 0.05054
1132.40 0.05053
1132.50 0.05051
1132.60 0.0505
1132.70 0.05048
1132.80 0.05047
1132.90 0.05045
1133.00 0.05044
1133.10 0.05042
1133.20 0.05041
1133.30 0.05039
1133.40 0.05038
1133.50 0.05036
1133.60 0.05035
1133.70 0.05034
1133.80 0.05032
1133.90 0.05031
1134.00 0.05029
1134.10 0.05028
1134.20 0.05026
1134.30 0.05025
1134.40 0.05023
1134.50 0.05022
1134.60 0.0502
1134.70 0.05019
1134.80 0.05017
1134.90 0.05016
1135.00 0.05015
1135.10 0.05013
1135.20 0.05012
1135.30 0.0501
1135.40 0.05009
1135.50 0.05007
1135.60 0.05006
1135.70 0.05004
1135.80 0.05003
1135.90 0.05001
1136.00 0.05
1136.10 0.04998
1136.20 0.04997
1136.30 0.04996
1136.40 0.04994
1136.50 0.04993
1136.60 0.04991
1136.70 0.0499
1136.80 0.04988
1136.90 0.04987
1137.00 0.04985
1137.10 0.04984
1137.20 0.04982
1137.30 0.04981
1137.40 0.04979
1137.50 0.04978
1137.60 0.04976
1137.70 0.04975
1137.80 0.04973
1137.90 0.04972
1138.00 0.0497
1138.10 0.04969
1138.20 0.04967
1138.30 0.04966
1138.40 0.04964
1138.50 0.04963
1138.60 0.04961
1138.70 0.0496
1138.80 0.04958
1138.90 0.04957
1139.00 0.04955
1139.10 0.04954
1139.20 0.04952
1139.30 0.04951
1139.40 0.04949
1139.50 0.04948
1139.60 0.04946
1139.70 0.04945
1139.80 0.04943
1139.90 0.04942
1140.00 0.0494
1140.10 0.04939
1140.20 0.04937
1140.30 0.04936
1140.40 0.04934
1140.50 0.04933
1140.60 0.04931
1140.70 0.0493
1140.80 0.04928
1140.90 0.04927
1141.00 0.04925
1141.10 0.04924
1141.20 0.04922
1141.30 0.04921
1141.40 0.04919
1141.50 0.04918
1141.60 0.04916
1141.70 0.04915
1141.80 0.04913
1141.90 0.04912
1142.00 0.0491
1142.10 0.04909
1142.20 0.04907
1142.30 0.04906
1142.40 0.04904
1142.50 0.04902
1142.60 0.04901
1142.70 0.04899
1142.80 0.04898
1142.90 0.04896
1143.00 0.04895
1143.10 0.04893
1143.20 0.04892
1143.30 0.0489
1143.40 0.04889
1143.50 0.04887
1143.60 0.04886
1143.70 0.04884
1143.80 0.04883
1143.90 0.04881
1144.00 0.04879
1144.10 0.04878
1144.20 0.04876
1144.30 0.04875
1144.40 0.04873
1144.50 0.04872
1144.60 0.0487
1144.70 0.04869
1144.80 0.04867
1144.90 0.04866
1145.00 0.04864
1145.10 0.04863
1145.20 0.04861
1145.30 0.0486
1145.40 0.04858
1145.50 0.04857
1145.60 0.04855
1145.70 0.04854
1145.80 0.04852
1145.90 0.04851
1146.00 0.04849
1146.10 0.04848
1146.20 0.04846
1146.30 0.04844
1146.40 0.04843
1146.50 0.04841
1146.60 0.0484
1146.70 0.04838
1146.80 0.04837
1146.90 0.04835
1147.00 0.04834
1147.10 0.04832
1147.20 0.04831
1147.30 0.04829
1147.40 0.04828
1147.50 0.04826
1147.60 0.04825
1147.70 0.04823
1147.80 0.04822
1147.90 0.0482
1148.00 0.04819
1148.10 0.04817
1148.20 0.04815
1148.30 0.04814
1148.40 0.04812
1148.50 0.04811
1148.60 0.04809
1148.70 0.04808
1148.80 0.04806
1148.90 0.04805
1149.00 0.04803
1149.10 0.04802
1149.20 0.048
1149.30 0.04799
1149.40 0.04797
1149.50 0.04796
1149.60 0.04794
1149.70 0.04793
1149.80 0.04791
1149.90 0.04789
1150.00 0.04788
1150.10 0.04786
1150.20 0.04785
1150.30 0.04783
1150.40 0.04782
1150.50 0.0478
1150.60 0.04779
1150.70 0.04777
1150.80 0.04776
1150.90 0.04774
1151.00 0.04773
1151.10 0.04771
1151.20 0.0477
1151.30 0.04768
1151.40 0.04767
1151.50 0.04765
1151.60 0.04764
1151.70 0.04762
1151.80 0.04761
1151.90 0.04759
1152.00 0.04758
1152.10 0.04756
1152.20 0.04754
1152.30 0.04753
1152.40 0.04751
1152.50 0.0475
1152.60 0.04748
1152.70 0.04747
1152.80 0.04745
1152.90 0.04744
1153.00 0.04742
1153.10 0.04741
1153.20 0.04739
1153.30 0.04738
1153.40 0.04736
1153.50 0.04735
1153.60 0.04733
1153.70 0.04732
1153.80 0.0473
1153.90 0.04729
1154.00 0.04727
1154.10 0.04725
1154.20 0.04724
1154.30 0.04722
1154.40 0.04721
1154.50 0.04719
1154.60 0.04718
1154.70 0.04716
1154.80 0.04715
1154.90 0.04713
1155.00 0.04712
1155.10 0.0471
1155.20 0.04709
1155.30 0.04707
1155.40 0.04706
1155.50 0.04704
1155.60 0.04703
1155.70 0.04701
1155.80 0.047
1155.90 0.04698
1156.00 0.04697
1156.10 0.04695
1156.20 0.04694
1156.30 0.04692
1156.40 0.04691
1156.50 0.04689
1156.60 0.04688
1156.70 0.04686
1156.80 0.04685
1156.90 0.04683
1157.00 0.04682
1157.10 0.0468
1157.20 0.04679
1157.30 0.04677
1157.40 0.04676
1157.50 0.04674
1157.60 0.04672
1157.70 0.04671
1157.80 0.04669
1157.90 0.04668
1158.00 0.04666
1158.10 0.04665
1158.20 0.04663
1158.30 0.04662
1158.40 0.0466
1158.50 0.04659
1158.60 0.04657
1158.70 0.04656
1158.80 0.04654
1158.90 0.04653
1159.00 0.04651
1159.10 0.0465
1159.20 0.04648
1159.30 0.04647
1159.40 0.04645
1159.50 0.04644
1159.60 0.04642
1159.70 0.04641
1159.80 0.04639
1159.90 0.04638
1160.00 0.04636
1160.10 0.04635
1160.20 0.04633
1160.30 0.04632
1160.40 0.0463
1160.50 0.04629
1160.60 0.04627
1160.70 0.04626
1160.80 0.04624
1160.90 0.04623
1161.00 0.04621
1161.10 0.0462
1161.20 0.04618
1161.30 0.04617
1161.40 0.04615
1161.50 0.04614
1161.60 0.04612
1161.70 0.04611
1161.80 0.04609
1161.90 0.04608
1162.00 0.04606
1162.10 0.04605
1162.20 0.04603
1162.30 0.04602
1162.40 0.046
1162.50 0.04599
1162.60 0.04597
1162.70 0.04596
1162.80 0.04594
1162.90 0.04593
1163.00 0.04591
1163.10 0.0459
1163.20 0.04588
1163.30 0.04587
1163.40 0.04585
1163.50 0.04584
1163.60 0.04582
1163.70 0.04581
1163.80 0.04579
1163.90 0.04578
1164.00 0.04576
1164.10 0.04575
1164.20 0.04573
1164.30 0.04572
1164.40 0.0457
1164.50 0.04569
1164.60 0.04567
1164.70 0.04566
1164.80 0.04564
1164.90 0.04563
1165.00 0.04562
1165.10 0.0456
1165.20 0.04559
1165.30 0.04557
1165.40 0.04556
1165.50 0.04554
1165.60 0.04553
1165.70 0.04551
1165.80 0.0455
1165.90 0.04548
1166.00 0.04547
1166.10 0.04545
1166.20 0.04544
1166.30 0.04542
1166.40 0.04541
1166.50 0.04539
1166.60 0.04538
1166.70 0.04536
1166.80 0.04535
1166.90 0.04533
1167.00 0.04532
1167.10 0.0453
1167.20 0.04529
1167.30 0.04527
1167.40 0.04526
1167.50 0.04525
1167.60 0.04523
1167.70 0.04522
1167.80 0.0452
1167.90 0.04519
1168.00 0.04517
1168.10 0.04516
1168.20 0.04514
1168.30 0.04513
1168.40 0.04511
1168.50 0.0451
1168.60 0.04508
1168.70 0.04507
1168.80 0.04505
1168.90 0.04504
1169.00 0.04502
1169.10 0.04501
1169.20 0.04499
1169.30 0.04498
1169.40 0.04497
1169.50 0.04495
1169.60 0.04494
1169.70 0.04492
1169.80 0.04491
1169.90 0.04489
1170.00 0.04488
1170.10 0.04486
1170.20 0.04485
1170.30 0.04483
1170.40 0.04482
1170.50 0.0448
1170.60 0.04479
1170.70 0.04477
1170.80 0.04476
1170.90 0.04475
1171.00 0.04473
1171.10 0.04472
1171.20 0.0447
1171.30 0.04469
1171.40 0.04467
1171.50 0.04466
1171.60 0.04464
1171.70 0.04463
1171.80 0.04461
1171.90 0.0446
1172.00 0.04459
1172.10 0.04457
1172.20 0.04456
1172.30 0.04454
1172.40 0.04453
1172.50 0.04451
1172.60 0.0445
1172.70 0.04448
1172.80 0.04447
1172.90 0.04445
1173.00 0.04444
1173.10 0.04443
1173.20 0.04441
1173.30 0.0444
1173.40 0.04438
1173.50 0.04437
1173.60 0.04435
1173.70 0.04434
1173.80 0.04432
1173.90 0.04431
1174.00 0.04429
1174.10 0.04428
1174.20 0.04427
1174.30 0.04425
1174.40 0.04424
1174.50 0.04422
1174.60 0.04421
1174.70 0.04419
1174.80 0.04418
1174.90 0.04416
1175.00 0.04415
1175.10 0.04414
1175.20 0.04412
1175.30 0.04411
1175.40 0.04409
1175.50 0.04408
1175.60 0.04406
1175.70 0.04405
1175.80 0.04403
1175.90 0.04402
1176.00 0.04401
1176.10 0.04399
1176.20 0.04398
1176.30 0.04396
1176.40 0.04395
1176.50 0.04393
1176.60 0.04392
1176.70 0.04391
1176.80 0.04389
1176.90 0.04388
1177.00 0.04386
1177.10 0.04385
1177.20 0.04383
1177.30 0.04382
1177.40 0.04381
1177.50 0.04379
1177.60 0.04378
1177.70 0.04376
1177.80 0.04375
1177.90 0.04373
1178.00 0.04372
1178.10 0.0437
1178.20 0.04369
1178.30 0.04368
1178.40 0.04366
1178.50 0.04365
1178.60 0.04363
1178.70 0.04362
1178.80 0.0436
1178.90 0.04359
1179.00 0.04358
1179.10 0.04356
1179.20 0.04355
1179.30 0.04353
1179.40 0.04352
1179.50 0.04351
1179.60 0.04349
1179.70 0.04348
1179.80 0.04346
1179.90 0.04345
1180.00 0.04343
1180.10 0.04342
1180.20 0.04341
1180.30 0.04339
1180.40 0.04338
1180.50 0.04336
1180.60 0.04335
1180.70 0.04333
1180.80 0.04332
1180.90 0.04331
1181.00 0.04329
1181.10 0.04328
1181.20 0.04326
1181.30 0.04325
1181.40 0.04324
1181.50 0.04322
1181.60 0.04321
1181.70 0.04319
1181.80 0.04318
1181.90 0.04316
1182.00 0.04315
1182.10 0.04314
1182.20 0.04312
1182.30 0.04311
1182.40 0.04309
1182.50 0.04308
1182.60 0.04307
1182.70 0.04305
1182.80 0.04304
1182.90 0.04302
1183.00 0.04301
1183.10 0.043
1183.20 0.04298
1183.30 0.04297
1183.40 0.04295
1183.50 0.04294
1183.60 0.04293
1183.70 0.04291
1183.80 0.0429
1183.90 0.04288
1184.00 0.04287
1184.10 0.04286
1184.20 0.04284
1184.30 0.04283
1184.40 0.04281
1184.50 0.0428
1184.60 0.04279
1184.70 0.04277
1184.80 0.04276
1184.90 0.04274
1185.00 0.04273
1185.10 0.04272
1185.20 0.0427
1185.30 0.04269
1185.40 0.04267
1185.50 0.04266
1185.60 0.04265
1185.70 0.04263
1185.80 0.04262
1185.90 0.0426
1186.00 0.04259
1186.10 0.04258
1186.20 0.04256
1186.30 0.04255
1186.40 0.04253
1186.50 0.04252
1186.60 0.04251
1186.70 0.04249
1186.80 0.04248
1186.90 0.04246
1187.00 0.04245
1187.10 0.04244
1187.20 0.04242
1187.30 0.04241
1187.40 0.04239
1187.50 0.04238
1187.60 0.04237
1187.70 0.04235
1187.80 0.04234
1187.90 0.04233
1188.00 0.04231
1188.10 0.0423
1188.20 0.04228
1188.30 0.04227
1188.40 0.04226
1188.50 0.04224
1188.60 0.04223
1188.70 0.04221
1188.80 0.0422
1188.90 0.04219
1189.00 0.04217
1189.10 0.04216
1189.20 0.04215
1189.30 0.04213
1189.40 0.04212
1189.50 0.0421
1189.60 0.04209
1189.70 0.04208
1189.80 0.04206
1189.90 0.04205
1190.00 0.04204
1190.10 0.04202
1190.20 0.04201
1190.30 0.04199
1190.40 0.04198
1190.50 0.04197
1190.60 0.04195
1190.70 0.04194
1190.80 0.04193
1190.90 0.04191
1191.00 0.0419
1191.10 0.04188
1191.20 0.04187
1191.30 0.04186
1191.40 0.04184
1191.50 0.04183
1191.60 0.04182
1191.70 0.0418
1191.80 0.04179
1191.90 0.04177
1192.00 0.04176
1192.10 0.04175
1192.20 0.04173
1192.30 0.04172
1192.40 0.04171
1192.50 0.04169
1192.60 0.04168
1192.70 0.04167
1192.80 0.04165
1192.90 0.04164
1193.00 0.04162
1193.10 0.04161
1193.20 0.0416
1193.30 0.04158
1193.40 0.04157
1193.50 0.04156
1193.60 0.04154
1193.70 0.04153
1193.80 0.04152
1193.90 0.0415
1194.00 0.04149
1194.10 0.04147
1194.20 0.04146
1194.30 0.04145
1194.40 0.04143
1194.50 0.04142
1194.60 0.04141
1194.70 0.04139
1194.80 0.04138
1194.90 0.04137
1195.00 0.04135
1195.10 0.04134
1195.20 0.04133
1195.30 0.04131
1195.40 0.0413
1195.50 0.04128
1195.60 0.04127
1195.70 0.04126
1195.80 0.04124
1195.90 0.04123
1196.00 0.04122
1196.10 0.0412
1196.20 0.04119
1196.30 0.04118
1196.40 0.04116
1196.50 0.04115
1196.60 0.04114
1196.70 0.04112
1196.80 0.04111
1196.90 0.0411
1197.00 0.04108
1197.10 0.04107
1197.20 0.04105
1197.30 0.04104
1197.40 0.04103
1197.50 0.04101
1197.60 0.041
1197.70 0.04099
1197.80 0.04097
1197.90 0.04096
1198.00 0.04095
1198.10 0.04093
1198.20 0.04092
1198.30 0.04091
1198.40 0.04089
1198.50 0.04088
1198.60 0.04087
1198.70 0.04085
1198.80 0.04084
1198.90 0.04083
1199.00 0.04081
1199.10 0.0408
1199.20 0.04079
1199.30 0.04077
1199.40 0.04076
1199.50 0.04075
1199.60 0.04073
1199.70 0.04072
1199.80 0.04071
1199.90 0.04069
1200.00 0
