# Version 2.1 - nm, norm@500 to 1, cut digits, bergeron_3500_80.dat_3500
# Wavelength(nm)  Flambda(ergs/cm^s/s/nm)
300.00 0.133
300.10 0.1333
300.20 0.1336
300.30 0.1338
300.40 0.1341
300.50 0.1344
300.60 0.1347
300.70 0.135
300.80 0.1353
300.90 0.1356
301.00 0.1359
301.10 0.1361
301.20 0.1364
301.30 0.1367
301.40 0.137
301.50 0.1373
301.60 0.1376
301.70 0.1379
301.80 0.1381
301.90 0.1384
302.00 0.1387
302.10 0.139
302.20 0.1393
302.30 0.1396
302.40 0.1399
302.50 0.1402
302.60 0.1405
302.70 0.1408
302.80 0.1411
302.90 0.1414
303.00 0.1416
303.10 0.1419
303.20 0.1422
303.30 0.1425
303.40 0.1428
303.50 0.1431
303.60 0.1434
303.70 0.1437
303.80 0.144
303.90 0.1443
304.00 0.1446
304.10 0.1449
304.20 0.1452
304.30 0.1455
304.40 0.1458
304.50 0.1461
304.60 0.1464
304.70 0.1467
304.80 0.147
304.90 0.1473
305.00 0.1476
305.10 0.1479
305.20 0.1482
305.30 0.1485
305.40 0.1488
305.50 0.1491
305.60 0.1494
305.70 0.1497
305.80 0.1499
305.90 0.1502
306.00 0.1505
306.10 0.1509
306.20 0.1512
306.30 0.1515
306.40 0.1518
306.50 0.1521
306.60 0.1524
306.70 0.1527
306.80 0.153
306.90 0.1533
307.00 0.1536
307.10 0.1539
307.20 0.1542
307.30 0.1545
307.40 0.1548
307.50 0.1551
307.60 0.1554
307.70 0.1557
307.80 0.1561
307.90 0.1564
308.00 0.1567
308.10 0.157
308.20 0.1573
308.30 0.1576
308.40 0.1579
308.50 0.1582
308.60 0.1585
308.70 0.1589
308.80 0.1592
308.90 0.1595
309.00 0.1598
309.10 0.1601
309.20 0.1604
309.30 0.1607
309.40 0.161
309.50 0.1614
309.60 0.1617
309.70 0.162
309.80 0.1623
309.90 0.1626
310.00 0.1629
310.10 0.1632
310.20 0.1635
310.30 0.1639
310.40 0.1642
310.50 0.1645
310.60 0.1648
310.70 0.1652
310.80 0.1655
310.90 0.1658
311.00 0.1661
311.10 0.1664
311.20 0.1668
311.30 0.1671
311.40 0.1674
311.50 0.1677
311.60 0.168
311.70 0.1683
311.80 0.1687
311.90 0.169
312.00 0.1693
312.10 0.1696
312.20 0.1699
312.30 0.1702
312.40 0.1706
312.50 0.1709
312.60 0.1712
312.70 0.1716
312.80 0.1719
312.90 0.1722
313.00 0.1725
313.10 0.1729
313.20 0.1732
313.30 0.1735
313.40 0.1738
313.50 0.1742
313.60 0.1745
313.70 0.1748
313.80 0.1751
313.90 0.1755
314.00 0.1758
314.10 0.1761
314.20 0.1764
314.30 0.1768
314.40 0.1771
314.50 0.1774
314.60 0.1778
314.70 0.1781
314.80 0.1784
314.90 0.1788
315.00 0.1791
315.10 0.1794
315.20 0.1798
315.30 0.1801
315.40 0.1804
315.50 0.1808
315.60 0.1811
315.70 0.1814
315.80 0.1817
315.90 0.1821
316.00 0.1824
316.10 0.1827
316.20 0.1831
316.30 0.1834
316.40 0.1838
316.50 0.1841
316.60 0.1844
316.70 0.1848
316.80 0.1851
316.90 0.1855
317.00 0.1858
317.10 0.1861
317.20 0.1865
317.30 0.1868
317.40 0.1871
317.50 0.1875
317.60 0.1878
317.70 0.1881
317.80 0.1885
317.90 0.1888
318.00 0.1892
318.10 0.1895
318.20 0.1898
318.30 0.1902
318.40 0.1905
318.50 0.1909
318.60 0.1912
318.70 0.1916
318.80 0.1919
318.90 0.1923
319.00 0.1926
319.10 0.193
319.20 0.1933
319.30 0.1936
319.40 0.194
319.50 0.1943
319.60 0.1947
319.70 0.195
319.80 0.1953
319.90 0.1957
320.00 0.196
320.10 0.1964
320.20 0.1967
320.30 0.1971
320.40 0.1974
320.50 0.1978
320.60 0.1981
320.70 0.1985
320.80 0.1988
320.90 0.1992
321.00 0.1995
321.10 0.1999
321.20 0.2002
321.30 0.2006
321.40 0.2009
321.50 0.2013
321.60 0.2016
321.70 0.202
321.80 0.2023
321.90 0.2027
322.00 0.203
322.10 0.2034
322.20 0.2037
322.30 0.2041
322.40 0.2044
322.50 0.2048
322.60 0.2052
322.70 0.2055
322.80 0.2059
322.90 0.2062
323.00 0.2066
323.10 0.2069
323.20 0.2073
323.30 0.2077
323.40 0.208
323.50 0.2084
323.60 0.2087
323.70 0.2091
323.80 0.2094
323.90 0.2098
324.00 0.2101
324.10 0.2105
324.20 0.2108
324.30 0.2112
324.40 0.2116
324.50 0.2119
324.60 0.2123
324.70 0.2127
324.80 0.213
324.90 0.2134
325.00 0.2138
325.10 0.2141
325.20 0.2145
325.30 0.2148
325.40 0.2152
325.50 0.2156
325.60 0.2159
325.70 0.2163
325.80 0.2166
325.90 0.217
326.00 0.2174
326.10 0.2177
326.20 0.2181
326.30 0.2185
326.40 0.2188
326.50 0.2192
326.60 0.2196
326.70 0.2199
326.80 0.2203
326.90 0.2207
327.00 0.221
327.10 0.2214
327.20 0.2218
327.30 0.2221
327.40 0.2225
327.50 0.2229
327.60 0.2232
327.70 0.2236
327.80 0.224
327.90 0.2243
328.00 0.2247
328.10 0.2251
328.20 0.2254
328.30 0.2258
328.40 0.2262
328.50 0.2266
328.60 0.2269
328.70 0.2273
328.80 0.2277
328.90 0.2281
329.00 0.2284
329.10 0.2288
329.20 0.2292
329.30 0.2295
329.40 0.2299
329.50 0.2303
329.60 0.2307
329.70 0.231
329.80 0.2314
329.90 0.2318
330.00 0.2321
330.10 0.2325
330.20 0.2329
330.30 0.2333
330.40 0.2337
330.50 0.234
330.60 0.2344
330.70 0.2348
330.80 0.2352
330.90 0.2356
331.00 0.2359
331.10 0.2363
331.20 0.2367
331.30 0.2371
331.40 0.2374
331.50 0.2378
331.60 0.2382
331.70 0.2386
331.80 0.2389
331.90 0.2393
332.00 0.2397
332.10 0.2401
332.20 0.2405
332.30 0.2409
332.40 0.2412
332.50 0.2416
332.60 0.242
332.70 0.2424
332.80 0.2428
332.90 0.2432
333.00 0.2436
333.10 0.2439
333.20 0.2443
333.30 0.2447
333.40 0.2451
333.50 0.2455
333.60 0.2458
333.70 0.2462
333.80 0.2466
333.90 0.247
334.00 0.2474
334.10 0.2478
334.20 0.2481
334.30 0.2485
334.40 0.2489
334.50 0.2493
334.60 0.2497
334.70 0.2501
334.80 0.2505
334.90 0.2509
335.00 0.2513
335.10 0.2517
335.20 0.2521
335.30 0.2524
335.40 0.2528
335.50 0.2532
335.60 0.2536
335.70 0.254
335.80 0.2544
335.90 0.2548
336.00 0.2551
336.10 0.2555
336.20 0.2559
336.30 0.2563
336.40 0.2567
336.50 0.2571
336.60 0.2575
336.70 0.2579
336.80 0.2583
336.90 0.2587
337.00 0.2591
337.10 0.2595
337.20 0.2599
337.30 0.2603
337.40 0.2607
337.50 0.2611
337.60 0.2615
337.70 0.2618
337.80 0.2622
337.90 0.2626
338.00 0.263
338.10 0.2634
338.20 0.2638
338.30 0.2642
338.40 0.2646
338.50 0.265
338.60 0.2654
338.70 0.2658
338.80 0.2662
338.90 0.2666
339.00 0.267
339.10 0.2674
339.20 0.2678
339.30 0.2682
339.40 0.2686
339.50 0.269
339.60 0.2694
339.70 0.2698
339.80 0.2702
339.90 0.2706
340.00 0.271
340.10 0.2714
340.20 0.2718
340.30 0.2722
340.40 0.2726
340.50 0.273
340.60 0.2734
340.70 0.2738
340.80 0.2742
340.90 0.2746
341.00 0.2751
341.10 0.2755
341.20 0.2759
341.30 0.2763
341.40 0.2767
341.50 0.2771
341.60 0.2775
341.70 0.2779
341.80 0.2783
341.90 0.2787
342.00 0.2791
342.10 0.2795
342.20 0.2799
342.30 0.2803
342.40 0.2807
342.50 0.2811
342.60 0.2815
342.70 0.2819
342.80 0.2824
342.90 0.2828
343.00 0.2832
343.10 0.2836
343.20 0.284
343.30 0.2844
343.40 0.2848
343.50 0.2852
343.60 0.2856
343.70 0.286
343.80 0.2864
343.90 0.2868
344.00 0.2872
344.10 0.2877
344.20 0.2881
344.30 0.2885
344.40 0.2889
344.50 0.2893
344.60 0.2897
344.70 0.2902
344.80 0.2906
344.90 0.291
345.00 0.2914
345.10 0.2918
345.20 0.2922
345.30 0.2926
345.40 0.293
345.50 0.2935
345.60 0.2939
345.70 0.2943
345.80 0.2947
345.90 0.2951
346.00 0.2955
346.10 0.2959
346.20 0.2963
346.30 0.2968
346.40 0.2972
346.50 0.2976
346.60 0.298
346.70 0.2984
346.80 0.2989
346.90 0.2993
347.00 0.2997
347.10 0.3001
347.20 0.3005
347.30 0.301
347.40 0.3014
347.50 0.3018
347.60 0.3022
347.70 0.3026
347.80 0.303
347.90 0.3034
348.00 0.3038
348.10 0.3043
348.20 0.3047
348.30 0.3051
348.40 0.3056
348.50 0.306
348.60 0.3064
348.70 0.3068
348.80 0.3073
348.90 0.3077
349.00 0.3081
349.10 0.3085
349.20 0.3089
349.30 0.3094
349.40 0.3098
349.50 0.3102
349.60 0.3106
349.70 0.311
349.80 0.3115
349.90 0.3119
350.00 0.3123
350.10 0.3127
350.20 0.3132
350.30 0.3136
350.40 0.314
350.50 0.3144
350.60 0.3149
350.70 0.3153
350.80 0.3157
350.90 0.3162
351.00 0.3166
351.10 0.317
351.20 0.3174
351.30 0.3179
351.40 0.3183
351.50 0.3187
351.60 0.3191
351.70 0.3196
351.80 0.32
351.90 0.3204
352.00 0.3208
352.10 0.3213
352.20 0.3217
352.30 0.3221
352.40 0.3226
352.50 0.323
352.60 0.3234
352.70 0.3239
352.80 0.3243
352.90 0.3247
353.00 0.3251
353.10 0.3256
353.20 0.326
353.30 0.3264
353.40 0.3269
353.50 0.3273
353.60 0.3277
353.70 0.3281
353.80 0.3286
353.90 0.329
354.00 0.3294
354.10 0.3299
354.20 0.3303
354.30 0.3307
354.40 0.3312
354.50 0.3316
354.60 0.332
354.70 0.3325
354.80 0.3329
354.90 0.3334
355.00 0.3338
355.10 0.3342
355.20 0.3347
355.30 0.3351
355.40 0.3355
355.50 0.336
355.60 0.3364
355.70 0.3368
355.80 0.3372
355.90 0.3377
356.00 0.3381
356.10 0.3386
356.20 0.339
356.30 0.3394
356.40 0.3399
356.50 0.3403
356.60 0.3408
356.70 0.3412
356.80 0.3416
356.90 0.3421
357.00 0.3425
357.10 0.343
357.20 0.3434
357.30 0.3438
357.40 0.3443
357.50 0.3447
357.60 0.3451
357.70 0.3456
357.80 0.346
357.90 0.3464
358.00 0.3469
358.10 0.3473
358.20 0.3478
358.30 0.3482
358.40 0.3487
358.50 0.3491
358.60 0.3495
358.70 0.35
358.80 0.3504
358.90 0.3509
359.00 0.3513
359.10 0.3518
359.20 0.3522
359.30 0.3526
359.40 0.3531
359.50 0.3535
359.60 0.354
359.70 0.3544
359.80 0.3548
359.90 0.3553
360.00 0.3557
360.10 0.3562
360.20 0.3566
360.30 0.3571
360.40 0.3575
360.50 0.358
360.60 0.3584
360.70 0.3589
360.80 0.3593
360.90 0.3597
361.00 0.3602
361.10 0.3606
361.20 0.3611
361.30 0.3615
361.40 0.362
361.50 0.3624
361.60 0.3629
361.70 0.3633
361.80 0.3637
361.90 0.3642
362.00 0.3646
362.10 0.3651
362.20 0.3655
362.30 0.366
362.40 0.3664
362.50 0.3669
362.60 0.3673
362.70 0.3678
362.80 0.3682
362.90 0.3687
363.00 0.3691
363.10 0.3696
363.20 0.37
363.30 0.3705
363.40 0.3709
363.50 0.3714
363.60 0.3718
363.70 0.3723
363.80 0.3727
363.90 0.3732
364.00 0.3736
364.10 0.3741
364.20 0.3745
364.30 0.375
364.40 0.3754
364.50 0.3759
364.60 0.3763
364.70 0.3768
364.80 0.3772
364.90 0.3777
365.00 0.3781
365.10 0.3786
365.20 0.379
365.30 0.3795
365.40 0.3799
365.50 0.3804
365.60 0.3808
365.70 0.3813
365.80 0.3817
365.90 0.3822
366.00 0.3826
366.10 0.3831
366.20 0.3836
366.30 0.384
366.40 0.3845
366.50 0.3849
366.60 0.3854
366.70 0.3859
366.80 0.3863
366.90 0.3868
367.00 0.3872
367.10 0.3877
367.20 0.3881
367.30 0.3886
367.40 0.389
367.50 0.3895
367.60 0.3899
367.70 0.3904
367.80 0.3908
367.90 0.3913
368.00 0.3917
368.10 0.3922
368.20 0.3927
368.30 0.3931
368.40 0.3936
368.50 0.3941
368.60 0.3945
368.70 0.395
368.80 0.3954
368.90 0.3959
369.00 0.3964
369.10 0.3968
369.20 0.3973
369.30 0.3977
369.40 0.3982
369.50 0.3986
369.60 0.3991
369.70 0.3995
369.80 0.4
369.90 0.4005
370.00 0.4009
370.10 0.4014
370.20 0.4018
370.30 0.4023
370.40 0.4028
370.50 0.4032
370.60 0.4037
370.70 0.4042
370.80 0.4046
370.90 0.4051
371.00 0.4055
371.10 0.406
371.20 0.4065
371.30 0.4069
371.40 0.4074
371.50 0.4078
371.60 0.4083
371.70 0.4087
371.80 0.4092
371.90 0.4097
372.00 0.4101
372.10 0.4106
372.20 0.4111
372.30 0.4115
372.40 0.412
372.50 0.4125
372.60 0.4129
372.70 0.4134
372.80 0.4139
372.90 0.4143
373.00 0.4148
373.10 0.4152
373.20 0.4157
373.30 0.4162
373.40 0.4166
373.50 0.4171
373.60 0.4176
373.70 0.418
373.80 0.4185
373.90 0.4189
374.00 0.4194
374.10 0.4199
374.20 0.4203
374.30 0.4208
374.40 0.4213
374.50 0.4217
374.60 0.4222
374.70 0.4227
374.80 0.4232
374.90 0.4236
375.00 0.4241
375.10 0.4246
375.20 0.425
375.30 0.4255
375.40 0.4259
375.50 0.4264
375.60 0.4269
375.70 0.4273
375.80 0.4278
375.90 0.4283
376.00 0.4287
376.10 0.4292
376.20 0.4297
376.30 0.4301
376.40 0.4306
376.50 0.4311
376.60 0.4315
376.70 0.432
376.80 0.4325
376.90 0.4329
377.00 0.4334
377.10 0.4339
377.20 0.4343
377.30 0.4348
377.40 0.4353
377.50 0.4358
377.60 0.4362
377.70 0.4367
377.80 0.4372
377.90 0.4376
378.00 0.4381
378.10 0.4386
378.20 0.439
378.30 0.4395
378.40 0.44
378.50 0.4404
378.60 0.4409
378.70 0.4414
378.80 0.4419
378.90 0.4423
379.00 0.4428
379.10 0.4433
379.20 0.4437
379.30 0.4442
379.40 0.4447
379.50 0.4452
379.60 0.4456
379.70 0.4461
379.80 0.4466
379.90 0.447
380.00 0.4475
380.10 0.448
380.20 0.4485
380.30 0.4489
380.40 0.4494
380.50 0.4499
380.60 0.4503
380.70 0.4508
380.80 0.4513
380.90 0.4518
381.00 0.4522
381.10 0.4527
381.20 0.4532
381.30 0.4536
381.40 0.4541
381.50 0.4546
381.60 0.4551
381.70 0.4555
381.80 0.456
381.90 0.4565
382.00 0.457
382.10 0.4574
382.20 0.4579
382.30 0.4584
382.40 0.4589
382.50 0.4593
382.60 0.4598
382.70 0.4603
382.80 0.4608
382.90 0.4612
383.00 0.4617
383.10 0.4622
383.20 0.4627
383.30 0.4631
383.40 0.4636
383.50 0.4641
383.60 0.4646
383.70 0.465
383.80 0.4655
383.90 0.466
384.00 0.4665
384.10 0.4669
384.20 0.4674
384.30 0.4679
384.40 0.4683
384.50 0.4688
384.60 0.4693
384.70 0.4698
384.80 0.4703
384.90 0.4707
385.00 0.4712
385.10 0.4717
385.20 0.4722
385.30 0.4726
385.40 0.4731
385.50 0.4736
385.60 0.4741
385.70 0.4746
385.80 0.475
385.90 0.4755
386.00 0.476
386.10 0.4765
386.20 0.4769
386.30 0.4774
386.40 0.4779
386.50 0.4784
386.60 0.4789
386.70 0.4793
386.80 0.4798
386.90 0.4803
387.00 0.4808
387.10 0.4813
387.20 0.4817
387.30 0.4822
387.40 0.4827
387.50 0.4832
387.60 0.4836
387.70 0.4841
387.80 0.4846
387.90 0.4851
388.00 0.4856
388.10 0.486
388.20 0.4865
388.30 0.487
388.40 0.4875
388.50 0.488
388.60 0.4884
388.70 0.4889
388.80 0.4894
388.90 0.4899
389.00 0.4904
389.10 0.4908
389.20 0.4913
389.30 0.4918
389.40 0.4923
389.50 0.4927
389.60 0.4932
389.70 0.4937
389.80 0.4942
389.90 0.4947
390.00 0.4952
390.10 0.4956
390.20 0.4961
390.30 0.4966
390.40 0.4971
390.50 0.4976
390.60 0.498
390.70 0.4985
390.80 0.499
390.90 0.4995
391.00 0.5
391.10 0.5005
391.20 0.5009
391.30 0.5014
391.40 0.5019
391.50 0.5024
391.60 0.5029
391.70 0.5033
391.80 0.5038
391.90 0.5043
392.00 0.5048
392.10 0.5053
392.20 0.5057
392.30 0.5062
392.40 0.5067
392.50 0.5072
392.60 0.5077
392.70 0.5082
392.80 0.5086
392.90 0.5091
393.00 0.5096
393.10 0.5101
393.20 0.5106
393.30 0.5111
393.40 0.5115
393.50 0.512
393.60 0.5125
393.70 0.513
393.80 0.5135
393.90 0.5139
394.00 0.5144
394.10 0.5149
394.20 0.5154
394.30 0.5159
394.40 0.5164
394.50 0.5168
394.60 0.5173
394.70 0.5178
394.80 0.5183
394.90 0.5188
395.00 0.5193
395.10 0.5198
395.20 0.5202
395.30 0.5207
395.40 0.5212
395.50 0.5217
395.60 0.5222
395.70 0.5227
395.80 0.5231
395.90 0.5236
396.00 0.5241
396.10 0.5246
396.20 0.5251
396.30 0.5256
396.40 0.526
396.50 0.5265
396.60 0.527
396.70 0.5275
396.80 0.528
396.90 0.5285
397.00 0.5289
397.10 0.5294
397.20 0.5299
397.30 0.5304
397.40 0.5309
397.50 0.5314
397.60 0.5318
397.70 0.5323
397.80 0.5328
397.90 0.5333
398.00 0.5338
398.10 0.5343
398.20 0.5348
398.30 0.5352
398.40 0.5357
398.50 0.5362
398.60 0.5367
398.70 0.5372
398.80 0.5377
398.90 0.5382
399.00 0.5387
399.10 0.5391
399.20 0.5396
399.30 0.5401
399.40 0.5406
399.50 0.5411
399.60 0.5416
399.70 0.542
399.80 0.5425
399.90 0.543
400.00 0.5435
400.10 0.544
400.20 0.5445
400.30 0.545
400.40 0.5455
400.50 0.5459
400.60 0.5464
400.70 0.5469
400.80 0.5474
400.90 0.5479
401.00 0.5484
401.10 0.5488
401.20 0.5493
401.30 0.5498
401.40 0.5503
401.50 0.5508
401.60 0.5513
401.70 0.5518
401.80 0.5523
401.90 0.5527
402.00 0.5532
402.10 0.5537
402.20 0.5542
402.30 0.5547
402.40 0.5552
402.50 0.5557
402.60 0.5561
402.70 0.5566
402.80 0.5571
402.90 0.5576
403.00 0.5581
403.10 0.5586
403.20 0.5591
403.30 0.5595
403.40 0.56
403.50 0.5605
403.60 0.561
403.70 0.5615
403.80 0.562
403.90 0.5625
404.00 0.563
404.10 0.5634
404.20 0.5639
404.30 0.5644
404.40 0.5649
404.50 0.5654
404.60 0.5659
404.70 0.5664
404.80 0.5669
404.90 0.5673
405.00 0.5678
405.10 0.5683
405.20 0.5688
405.30 0.5693
405.40 0.5698
405.50 0.5703
405.60 0.5708
405.70 0.5713
405.80 0.5717
405.90 0.5722
406.00 0.5727
406.10 0.5732
406.20 0.5737
406.30 0.5742
406.40 0.5747
406.50 0.5752
406.60 0.5756
406.70 0.5761
406.80 0.5766
406.90 0.5771
407.00 0.5776
407.10 0.5781
407.20 0.5786
407.30 0.579
407.40 0.5795
407.50 0.58
407.60 0.5805
407.70 0.581
407.80 0.5815
407.90 0.582
408.00 0.5825
408.10 0.5829
408.20 0.5834
408.30 0.5839
408.40 0.5844
408.50 0.5849
408.60 0.5854
408.70 0.5859
408.80 0.5864
408.90 0.5868
409.00 0.5873
409.10 0.5878
409.20 0.5883
409.30 0.5888
409.40 0.5893
409.50 0.5898
409.60 0.5903
409.70 0.5908
409.80 0.5912
409.90 0.5917
410.00 0.5922
410.10 0.5927
410.20 0.5932
410.30 0.5937
410.40 0.5942
410.50 0.5947
410.60 0.5951
410.70 0.5956
410.80 0.5961
410.90 0.5966
411.00 0.5971
411.10 0.5976
411.20 0.5981
411.30 0.5985
411.40 0.599
411.50 0.5995
411.60 0.6
411.70 0.6005
411.80 0.601
411.90 0.6015
412.00 0.602
412.10 0.6024
412.20 0.6029
412.30 0.6034
412.40 0.6039
412.50 0.6044
412.60 0.6049
412.70 0.6054
412.80 0.6059
412.90 0.6063
413.00 0.6068
413.10 0.6073
413.20 0.6078
413.30 0.6083
413.40 0.6088
413.50 0.6093
413.60 0.6098
413.70 0.6102
413.80 0.6107
413.90 0.6112
414.00 0.6117
414.10 0.6122
414.20 0.6127
414.30 0.6132
414.40 0.6137
414.50 0.6142
414.60 0.6146
414.70 0.6151
414.80 0.6156
414.90 0.6161
415.00 0.6166
415.10 0.6171
415.20 0.6176
415.30 0.618
415.40 0.6185
415.50 0.619
415.60 0.6195
415.70 0.62
415.80 0.6205
415.90 0.621
416.00 0.6215
416.10 0.6219
416.20 0.6224
416.30 0.6229
416.40 0.6234
416.50 0.6239
416.60 0.6244
416.70 0.6249
416.80 0.6254
416.90 0.6258
417.00 0.6263
417.10 0.6268
417.20 0.6273
417.30 0.6278
417.40 0.6283
417.50 0.6288
417.60 0.6293
417.70 0.6298
417.80 0.6302
417.90 0.6307
418.00 0.6312
418.10 0.6317
418.20 0.6322
418.30 0.6327
418.40 0.6331
418.50 0.6336
418.60 0.6341
418.70 0.6346
418.80 0.6351
418.90 0.6356
419.00 0.6361
419.10 0.6366
419.20 0.637
419.30 0.6375
419.40 0.638
419.50 0.6385
419.60 0.639
419.70 0.6395
419.80 0.64
419.90 0.6404
420.00 0.6409
420.10 0.6414
420.20 0.6419
420.30 0.6424
420.40 0.6429
420.50 0.6434
420.60 0.6439
420.70 0.6443
420.80 0.6448
420.90 0.6453
421.00 0.6458
421.10 0.6463
421.20 0.6468
421.30 0.6472
421.40 0.6477
421.50 0.6482
421.60 0.6487
421.70 0.6492
421.80 0.6497
421.90 0.6502
422.00 0.6507
422.10 0.6511
422.20 0.6516
422.30 0.6521
422.40 0.6526
422.50 0.6531
422.60 0.6536
422.70 0.654
422.80 0.6545
422.90 0.655
423.00 0.6555
423.10 0.656
423.20 0.6565
423.30 0.657
423.40 0.6574
423.50 0.6579
423.60 0.6584
423.70 0.6589
423.80 0.6594
423.90 0.6599
424.00 0.6604
424.10 0.6608
424.20 0.6613
424.30 0.6618
424.40 0.6623
424.50 0.6628
424.60 0.6633
424.70 0.6638
424.80 0.6642
424.90 0.6647
425.00 0.6652
425.10 0.6657
425.20 0.6662
425.30 0.6667
425.40 0.6671
425.50 0.6676
425.60 0.6681
425.70 0.6686
425.80 0.6691
425.90 0.6696
426.00 0.6701
426.10 0.6705
426.20 0.671
426.30 0.6715
426.40 0.672
426.50 0.6725
426.60 0.673
426.70 0.6734
426.80 0.6739
426.90 0.6744
427.00 0.6749
427.10 0.6754
427.20 0.6759
427.30 0.6763
427.40 0.6768
427.50 0.6773
427.60 0.6778
427.70 0.6783
427.80 0.6788
427.90 0.6792
428.00 0.6797
428.10 0.6802
428.20 0.6807
428.30 0.6812
428.40 0.6817
428.50 0.6821
428.60 0.6826
428.70 0.6831
428.80 0.6836
428.90 0.6841
429.00 0.6846
429.10 0.685
429.20 0.6855
429.30 0.686
429.40 0.6865
429.50 0.687
429.60 0.6875
429.70 0.6879
429.80 0.6884
429.90 0.6889
430.00 0.6894
430.10 0.6899
430.20 0.6903
430.30 0.6908
430.40 0.6913
430.50 0.6918
430.60 0.6923
430.70 0.6928
430.80 0.6932
430.90 0.6937
431.00 0.6942
431.10 0.6947
431.20 0.6951
431.30 0.6956
431.40 0.6961
431.50 0.6966
431.60 0.6971
431.70 0.6976
431.80 0.698
431.90 0.6985
432.00 0.699
432.10 0.6995
432.20 0.7
432.30 0.7004
432.40 0.7009
432.50 0.7014
432.60 0.7019
432.70 0.7024
432.80 0.7028
432.90 0.7033
433.00 0.7038
433.10 0.7043
433.20 0.7048
433.30 0.7053
433.40 0.7057
433.50 0.7062
433.60 0.7067
433.70 0.7072
433.80 0.7077
433.90 0.7081
434.00 0.7086
434.10 0.7091
434.20 0.7096
434.30 0.7101
434.40 0.7105
434.50 0.711
434.60 0.7115
434.70 0.712
434.80 0.7125
434.90 0.7129
435.00 0.7134
435.10 0.7139
435.20 0.7144
435.30 0.7148
435.40 0.7153
435.50 0.7158
435.60 0.7163
435.70 0.7168
435.80 0.7172
435.90 0.7177
436.00 0.7182
436.10 0.7187
436.20 0.7191
436.30 0.7196
436.40 0.7201
436.50 0.7206
436.60 0.7211
436.70 0.7215
436.80 0.722
436.90 0.7225
437.00 0.723
437.10 0.7235
437.20 0.7239
437.30 0.7244
437.40 0.7249
437.50 0.7254
437.60 0.7258
437.70 0.7263
437.80 0.7268
437.90 0.7273
438.00 0.7277
438.10 0.7282
438.20 0.7287
438.30 0.7292
438.40 0.7296
438.50 0.7301
438.60 0.7306
438.70 0.7311
438.80 0.7315
438.90 0.732
439.00 0.7325
439.10 0.733
439.20 0.7335
439.30 0.7339
439.40 0.7344
439.50 0.7349
439.60 0.7354
439.70 0.7358
439.80 0.7363
439.90 0.7368
440.00 0.7373
440.10 0.7377
440.20 0.7382
440.30 0.7387
440.40 0.7392
440.50 0.7396
440.60 0.7401
440.70 0.7406
440.80 0.7411
440.90 0.7415
441.00 0.742
441.10 0.7425
441.20 0.743
441.30 0.7434
441.40 0.7439
441.50 0.7444
441.60 0.7448
441.70 0.7453
441.80 0.7458
441.90 0.7463
442.00 0.7467
442.10 0.7472
442.20 0.7477
442.30 0.7482
442.40 0.7486
442.50 0.7491
442.60 0.7496
442.70 0.7501
442.80 0.7505
442.90 0.751
443.00 0.7515
443.10 0.7519
443.20 0.7524
443.30 0.7529
443.40 0.7534
443.50 0.7538
443.60 0.7543
443.70 0.7548
443.80 0.7552
443.90 0.7557
444.00 0.7562
444.10 0.7567
444.20 0.7571
444.30 0.7576
444.40 0.7581
444.50 0.7585
444.60 0.759
444.70 0.7595
444.80 0.76
444.90 0.7604
445.00 0.7609
445.10 0.7614
445.20 0.7618
445.30 0.7623
445.40 0.7628
445.50 0.7633
445.60 0.7637
445.70 0.7642
445.80 0.7647
445.90 0.7651
446.00 0.7656
446.10 0.7661
446.20 0.7665
446.30 0.767
446.40 0.7675
446.50 0.7679
446.60 0.7684
446.70 0.7689
446.80 0.7694
446.90 0.7698
447.00 0.7703
447.10 0.7708
447.20 0.7712
447.30 0.7717
447.40 0.7722
447.50 0.7726
447.60 0.7731
447.70 0.7736
447.80 0.7741
447.90 0.7745
448.00 0.775
448.10 0.7755
448.20 0.7759
448.30 0.7764
448.40 0.7769
448.50 0.7773
448.60 0.7778
448.70 0.7782
448.80 0.7787
448.90 0.7792
449.00 0.7797
449.10 0.7801
449.20 0.7806
449.30 0.7811
449.40 0.7815
449.50 0.782
449.60 0.7825
449.70 0.7829
449.80 0.7834
449.90 0.7839
450.00 0.7843
450.10 0.7848
450.20 0.7852
450.30 0.7857
450.40 0.7862
450.50 0.7866
450.60 0.7871
450.70 0.7876
450.80 0.788
450.90 0.7885
451.00 0.789
451.10 0.7894
451.20 0.7899
451.30 0.7904
451.40 0.7908
451.50 0.7913
451.60 0.7917
451.70 0.7922
451.80 0.7927
451.90 0.7931
452.00 0.7936
452.10 0.7941
452.20 0.7945
452.30 0.795
452.40 0.7954
452.50 0.7959
452.60 0.7964
452.70 0.7968
452.80 0.7973
452.90 0.7978
453.00 0.7982
453.10 0.7987
453.20 0.7992
453.30 0.7996
453.40 0.8001
453.50 0.8005
453.60 0.801
453.70 0.8015
453.80 0.8019
453.90 0.8024
454.00 0.8029
454.10 0.8033
454.20 0.8038
454.30 0.8042
454.40 0.8047
454.50 0.8052
454.60 0.8056
454.70 0.8061
454.80 0.8065
454.90 0.807
455.00 0.8075
455.10 0.8079
455.20 0.8084
455.30 0.8088
455.40 0.8093
455.50 0.8098
455.60 0.8102
455.70 0.8107
455.80 0.8111
455.90 0.8116
456.00 0.8121
456.10 0.8125
456.20 0.813
456.30 0.8134
456.40 0.8139
456.50 0.8144
456.60 0.8148
456.70 0.8153
456.80 0.8157
456.90 0.8162
457.00 0.8166
457.10 0.8171
457.20 0.8176
457.30 0.818
457.40 0.8185
457.50 0.8189
457.60 0.8194
457.70 0.8198
457.80 0.8203
457.90 0.8208
458.00 0.8212
458.10 0.8217
458.20 0.8221
458.30 0.8226
458.40 0.823
458.50 0.8235
458.60 0.8239
458.70 0.8244
458.80 0.8249
458.90 0.8253
459.00 0.8258
459.10 0.8262
459.20 0.8267
459.30 0.8271
459.40 0.8276
459.50 0.828
459.60 0.8285
459.70 0.829
459.80 0.8294
459.90 0.8299
460.00 0.8303
460.10 0.8308
460.20 0.8312
460.30 0.8317
460.40 0.8321
460.50 0.8326
460.60 0.833
460.70 0.8335
460.80 0.8339
460.90 0.8344
461.00 0.8348
461.10 0.8353
461.20 0.8358
461.30 0.8362
461.40 0.8367
461.50 0.8371
461.60 0.8376
461.70 0.838
461.80 0.8385
461.90 0.8389
462.00 0.8394
462.10 0.8398
462.20 0.8403
462.30 0.8407
462.40 0.8412
462.50 0.8416
462.60 0.8421
462.70 0.8425
462.80 0.843
462.90 0.8434
463.00 0.8439
463.10 0.8443
463.20 0.8448
463.30 0.8452
463.40 0.8457
463.50 0.8461
463.60 0.8466
463.70 0.847
463.80 0.8475
463.90 0.8479
464.00 0.8484
464.10 0.8488
464.20 0.8493
464.30 0.8497
464.40 0.8502
464.50 0.8506
464.60 0.8511
464.70 0.8515
464.80 0.852
464.90 0.8524
465.00 0.8529
465.10 0.8533
465.20 0.8538
465.30 0.8542
465.40 0.8547
465.50 0.8551
465.60 0.8555
465.70 0.856
465.80 0.8564
465.90 0.8569
466.00 0.8573
466.10 0.8578
466.20 0.8582
466.30 0.8587
466.40 0.8591
466.50 0.8595
466.60 0.86
466.70 0.8604
466.80 0.8609
466.90 0.8613
467.00 0.8618
467.10 0.8622
467.20 0.8627
467.30 0.8631
467.40 0.8635
467.50 0.864
467.60 0.8644
467.70 0.8649
467.80 0.8653
467.90 0.8658
468.00 0.8662
468.10 0.8667
468.20 0.8671
468.30 0.8675
468.40 0.868
468.50 0.8684
468.60 0.8689
468.70 0.8693
468.80 0.8698
468.90 0.8702
469.00 0.8706
469.10 0.8711
469.20 0.8715
469.30 0.872
469.40 0.8724
469.50 0.8728
469.60 0.8733
469.70 0.8737
469.80 0.8742
469.90 0.8746
470.00 0.8751
470.10 0.8755
470.20 0.8759
470.30 0.8764
470.40 0.8768
470.50 0.8773
470.60 0.8777
470.70 0.8781
470.80 0.8786
470.90 0.879
471.00 0.8795
471.10 0.8799
471.20 0.8803
471.30 0.8808
471.40 0.8812
471.50 0.8816
471.60 0.8821
471.70 0.8825
471.80 0.883
471.90 0.8834
472.00 0.8838
472.10 0.8843
472.20 0.8847
472.30 0.8851
472.40 0.8856
472.50 0.886
472.60 0.8865
472.70 0.8869
472.80 0.8873
472.90 0.8878
473.00 0.8882
473.10 0.8886
473.20 0.8891
473.30 0.8895
473.40 0.8899
473.50 0.8904
473.60 0.8908
473.70 0.8912
473.80 0.8917
473.90 0.8921
474.00 0.8925
474.10 0.893
474.20 0.8934
474.30 0.8939
474.40 0.8943
474.50 0.8947
474.60 0.8952
474.70 0.8956
474.80 0.896
474.90 0.8965
475.00 0.8969
475.10 0.8973
475.20 0.8978
475.30 0.8982
475.40 0.8986
475.50 0.8991
475.60 0.8995
475.70 0.8999
475.80 0.9003
475.90 0.9008
476.00 0.9012
476.10 0.9016
476.20 0.9021
476.30 0.9025
476.40 0.9029
476.50 0.9034
476.60 0.9038
476.70 0.9042
476.80 0.9047
476.90 0.9051
477.00 0.9055
477.10 0.9059
477.20 0.9064
477.30 0.9068
477.40 0.9072
477.50 0.9077
477.60 0.9081
477.70 0.9085
477.80 0.909
477.90 0.9094
478.00 0.9098
478.10 0.9102
478.20 0.9107
478.30 0.9111
478.40 0.9115
478.50 0.912
478.60 0.9124
478.70 0.9128
478.80 0.9132
478.90 0.9137
479.00 0.9141
479.10 0.9145
479.20 0.9149
479.30 0.9154
479.40 0.9158
479.50 0.9162
479.60 0.9166
479.70 0.9171
479.80 0.9175
479.90 0.9179
480.00 0.9183
480.10 0.9188
480.20 0.9192
480.30 0.9196
480.40 0.92
480.50 0.9205
480.60 0.9209
480.70 0.9213
480.80 0.9217
480.90 0.9222
481.00 0.9226
481.10 0.923
481.20 0.9234
481.30 0.9239
481.40 0.9243
481.50 0.9247
481.60 0.9251
481.70 0.9255
481.80 0.926
481.90 0.9264
482.00 0.9268
482.10 0.9272
482.20 0.9277
482.30 0.9281
482.40 0.9285
482.50 0.9289
482.60 0.9293
482.70 0.9298
482.80 0.9302
482.90 0.9306
483.00 0.931
483.10 0.9314
483.20 0.9319
483.30 0.9323
483.40 0.9327
483.50 0.9331
483.60 0.9335
483.70 0.934
483.80 0.9344
483.90 0.9348
484.00 0.9352
484.10 0.9356
484.20 0.936
484.30 0.9365
484.40 0.9369
484.50 0.9373
484.60 0.9377
484.70 0.9382
484.80 0.9386
484.90 0.939
485.00 0.9394
485.10 0.9398
485.20 0.9402
485.30 0.9406
485.40 0.9411
485.50 0.9415
485.60 0.9419
485.70 0.9423
485.80 0.9427
485.90 0.9431
486.00 0.9436
486.10 0.944
486.20 0.9444
486.30 0.9448
486.40 0.9452
486.50 0.9456
486.60 0.946
486.70 0.9465
486.80 0.9469
486.90 0.9473
487.00 0.9477
487.10 0.9481
487.20 0.9485
487.30 0.9489
487.40 0.9494
487.50 0.9498
487.60 0.9502
487.70 0.9506
487.80 0.951
487.90 0.9514
488.00 0.9518
488.10 0.9522
488.20 0.9527
488.30 0.9531
488.40 0.9535
488.50 0.9539
488.60 0.9543
488.70 0.9547
488.80 0.9551
488.90 0.9555
489.00 0.9559
489.10 0.9563
489.20 0.9568
489.30 0.9572
489.40 0.9576
489.50 0.958
489.60 0.9584
489.70 0.9588
489.80 0.9592
489.90 0.9596
490.00 0.96
490.10 0.9604
490.20 0.9608
490.30 0.9613
490.40 0.9617
490.50 0.9621
490.60 0.9625
490.70 0.9629
490.80 0.9633
490.90 0.9637
491.00 0.9641
491.10 0.9645
491.20 0.9649
491.30 0.9653
491.40 0.9657
491.50 0.9661
491.60 0.9665
491.70 0.967
491.80 0.9674
491.90 0.9678
492.00 0.9682
492.10 0.9686
492.20 0.969
492.30 0.9694
492.40 0.9698
492.50 0.9702
492.60 0.9706
492.70 0.971
492.80 0.9714
492.90 0.9718
493.00 0.9722
493.10 0.9726
493.20 0.973
493.30 0.9734
493.40 0.9738
493.50 0.9742
493.60 0.9746
493.70 0.975
493.80 0.9754
493.90 0.9758
494.00 0.9762
494.10 0.9766
494.20 0.977
494.30 0.9774
494.40 0.9778
494.50 0.9782
494.60 0.9786
494.70 0.979
494.80 0.9794
494.90 0.9798
495.00 0.9802
495.10 0.9806
495.20 0.981
495.30 0.9814
495.40 0.9818
495.50 0.9822
495.60 0.9826
495.70 0.983
495.80 0.9834
495.90 0.9838
496.00 0.9842
496.10 0.9846
496.20 0.985
496.30 0.9854
496.40 0.9858
496.50 0.9862
496.60 0.9866
496.70 0.987
496.80 0.9874
496.90 0.9878
497.00 0.9882
497.10 0.9886
497.20 0.989
497.30 0.9894
497.40 0.9898
497.50 0.9902
497.60 0.9906
497.70 0.991
497.80 0.9914
497.90 0.9917
498.00 0.9921
498.10 0.9925
498.20 0.9929
498.30 0.9933
498.40 0.9937
498.50 0.9941
498.60 0.9945
498.70 0.9949
498.80 0.9953
498.90 0.9957
499.00 0.9961
499.10 0.9965
499.20 0.9969
499.30 0.9973
499.40 0.9977
499.50 0.998
499.60 0.9984
499.70 0.9988
499.80 0.9992
499.90 0.9996
500.00 1
500.10 1
500.20 1.001
500.30 1.001
500.40 1.002
500.50 1.002
500.60 1.002
500.70 1.003
500.80 1.003
500.90 1.004
501.00 1.004
501.10 1.004
501.20 1.005
501.30 1.005
501.40 1.005
501.50 1.006
501.60 1.006
501.70 1.007
501.80 1.007
501.90 1.007
502.00 1.008
502.10 1.008
502.20 1.009
502.30 1.009
502.40 1.009
502.50 1.01
502.60 1.01
502.70 1.01
502.80 1.011
502.90 1.011
503.00 1.012
503.10 1.012
503.20 1.012
503.30 1.013
503.40 1.013
503.50 1.014
503.60 1.014
503.70 1.014
503.80 1.015
503.90 1.015
504.00 1.015
504.10 1.016
504.20 1.016
504.30 1.017
504.40 1.017
504.50 1.017
504.60 1.018
504.70 1.018
504.80 1.019
504.90 1.019
505.00 1.019
505.10 1.02
505.20 1.02
505.30 1.02
505.40 1.021
505.50 1.021
505.60 1.022
505.70 1.022
505.80 1.022
505.90 1.023
506.00 1.023
506.10 1.023
506.20 1.024
506.30 1.024
506.40 1.025
506.50 1.025
506.60 1.025
506.70 1.026
506.80 1.026
506.90 1.026
507.00 1.027
507.10 1.027
507.20 1.028
507.30 1.028
507.40 1.028
507.50 1.029
507.60 1.029
507.70 1.03
507.80 1.03
507.90 1.03
508.00 1.031
508.10 1.031
508.20 1.031
508.30 1.032
508.40 1.032
508.50 1.033
508.60 1.033
508.70 1.033
508.80 1.034
508.90 1.034
509.00 1.034
509.10 1.035
509.20 1.035
509.30 1.036
509.40 1.036
509.50 1.036
509.60 1.037
509.70 1.037
509.80 1.037
509.90 1.038
510.00 1.038
510.10 1.038
510.20 1.039
510.30 1.039
510.40 1.04
510.50 1.04
510.60 1.04
510.70 1.041
510.80 1.041
510.90 1.041
511.00 1.042
511.10 1.042
511.20 1.043
511.30 1.043
511.40 1.043
511.50 1.044
511.60 1.044
511.70 1.044
511.80 1.045
511.90 1.045
512.00 1.046
512.10 1.046
512.20 1.046
512.30 1.047
512.40 1.047
512.50 1.047
512.60 1.048
512.70 1.048
512.80 1.048
512.90 1.049
513.00 1.049
513.10 1.05
513.20 1.05
513.30 1.05
513.40 1.051
513.50 1.051
513.60 1.051
513.70 1.052
513.80 1.052
513.90 1.052
514.00 1.053
514.10 1.053
514.20 1.054
514.30 1.054
514.40 1.054
514.50 1.055
514.60 1.055
514.70 1.055
514.80 1.056
514.90 1.056
515.00 1.056
515.10 1.057
515.20 1.057
515.30 1.058
515.40 1.058
515.50 1.058
515.60 1.059
515.70 1.059
515.80 1.059
515.90 1.06
516.00 1.06
516.10 1.06
516.20 1.061
516.30 1.061
516.40 1.062
516.50 1.062
516.60 1.062
516.70 1.063
516.80 1.063
516.90 1.063
517.00 1.064
517.10 1.064
517.20 1.064
517.30 1.065
517.40 1.065
517.50 1.065
517.60 1.066
517.70 1.066
517.80 1.067
517.90 1.067
518.00 1.067
518.10 1.068
518.20 1.068
518.30 1.068
518.40 1.069
518.50 1.069
518.60 1.069
518.70 1.07
518.80 1.07
518.90 1.07
519.00 1.071
519.10 1.071
519.20 1.071
519.30 1.072
519.40 1.072
519.50 1.073
519.60 1.073
519.70 1.073
519.80 1.074
519.90 1.074
520.00 1.074
520.10 1.075
520.20 1.075
520.30 1.075
520.40 1.076
520.50 1.076
520.60 1.076
520.70 1.077
520.80 1.077
520.90 1.077
521.00 1.078
521.10 1.078
521.20 1.079
521.30 1.079
521.40 1.079
521.50 1.08
521.60 1.08
521.70 1.08
521.80 1.081
521.90 1.081
522.00 1.081
522.10 1.082
522.20 1.082
522.30 1.082
522.40 1.083
522.50 1.083
522.60 1.083
522.70 1.084
522.80 1.084
522.90 1.084
523.00 1.085
523.10 1.085
523.20 1.085
523.30 1.086
523.40 1.086
523.50 1.087
523.60 1.087
523.70 1.087
523.80 1.088
523.90 1.088
524.00 1.088
524.10 1.089
524.20 1.089
524.30 1.089
524.40 1.09
524.50 1.09
524.60 1.09
524.70 1.091
524.80 1.091
524.90 1.091
525.00 1.092
525.10 1.092
525.20 1.092
525.30 1.093
525.40 1.093
525.50 1.093
525.60 1.094
525.70 1.094
525.80 1.094
525.90 1.095
526.00 1.095
526.10 1.095
526.20 1.096
526.30 1.096
526.40 1.096
526.50 1.097
526.60 1.097
526.70 1.097
526.80 1.098
526.90 1.098
527.00 1.098
527.10 1.099
527.20 1.099
527.30 1.099
527.40 1.1
527.50 1.1
527.60 1.1
527.70 1.101
527.80 1.101
527.90 1.101
528.00 1.102
528.10 1.102
528.20 1.103
528.30 1.103
528.40 1.103
528.50 1.104
528.60 1.104
528.70 1.104
528.80 1.105
528.90 1.105
529.00 1.105
529.10 1.106
529.20 1.106
529.30 1.106
529.40 1.107
529.50 1.107
529.60 1.107
529.70 1.108
529.80 1.108
529.90 1.108
530.00 1.109
530.10 1.109
530.20 1.109
530.30 1.109
530.40 1.11
530.50 1.11
530.60 1.11
530.70 1.111
530.80 1.111
530.90 1.111
531.00 1.112
531.10 1.112
531.20 1.112
531.30 1.113
531.40 1.113
531.50 1.113
531.60 1.114
531.70 1.114
531.80 1.114
531.90 1.115
532.00 1.115
532.10 1.115
532.20 1.116
532.30 1.116
532.40 1.116
532.50 1.117
532.60 1.117
532.70 1.117
532.80 1.118
532.90 1.118
533.00 1.118
533.10 1.119
533.20 1.119
533.30 1.119
533.40 1.12
533.50 1.12
533.60 1.12
533.70 1.121
533.80 1.121
533.90 1.121
534.00 1.122
534.10 1.122
534.20 1.122
534.30 1.123
534.40 1.123
534.50 1.123
534.60 1.124
534.70 1.124
534.80 1.124
534.90 1.125
535.00 1.125
535.10 1.125
535.20 1.125
535.30 1.126
535.40 1.126
535.50 1.126
535.60 1.127
535.70 1.127
535.80 1.127
535.90 1.128
536.00 1.128
536.10 1.128
536.20 1.129
536.30 1.129
536.40 1.129
536.50 1.13
536.60 1.13
536.70 1.13
536.80 1.131
536.90 1.131
537.00 1.131
537.10 1.132
537.20 1.132
537.30 1.132
537.40 1.132
537.50 1.133
537.60 1.133
537.70 1.133
537.80 1.134
537.90 1.134
538.00 1.134
538.10 1.135
538.20 1.135
538.30 1.135
538.40 1.136
538.50 1.136
538.60 1.136
538.70 1.137
538.80 1.137
538.90 1.137
539.00 1.138
539.10 1.138
539.20 1.138
539.30 1.138
539.40 1.139
539.50 1.139
539.60 1.139
539.70 1.14
539.80 1.14
539.90 1.14
540.00 1.141
540.10 1.141
540.20 1.141
540.30 1.142
540.40 1.142
540.50 1.142
540.60 1.143
540.70 1.143
540.80 1.143
540.90 1.143
541.00 1.144
541.10 1.144
541.20 1.144
541.30 1.145
541.40 1.145
541.50 1.145
541.60 1.146
541.70 1.146
541.80 1.146
541.90 1.147
542.00 1.147
542.10 1.147
542.20 1.147
542.30 1.148
542.40 1.148
542.50 1.148
542.60 1.149
542.70 1.149
542.80 1.149
542.90 1.15
543.00 1.15
543.10 1.15
543.20 1.151
543.30 1.151
543.40 1.151
543.50 1.151
543.60 1.152
543.70 1.152
543.80 1.152
543.90 1.153
544.00 1.153
544.10 1.153
544.20 1.154
544.30 1.154
544.40 1.154
544.50 1.154
544.60 1.155
544.70 1.155
544.80 1.155
544.90 1.156
545.00 1.156
545.10 1.156
545.20 1.157
545.30 1.157
545.40 1.157
545.50 1.157
545.60 1.158
545.70 1.158
545.80 1.158
545.90 1.159
546.00 1.159
546.10 1.159
546.20 1.16
546.30 1.16
546.40 1.16
546.50 1.16
546.60 1.161
546.70 1.161
546.80 1.161
546.90 1.162
547.00 1.162
547.10 1.162
547.20 1.163
547.30 1.163
547.40 1.163
547.50 1.163
547.60 1.164
547.70 1.164
547.80 1.164
547.90 1.165
548.00 1.165
548.10 1.165
548.20 1.165
548.30 1.166
548.40 1.166
548.50 1.166
548.60 1.167
548.70 1.167
548.80 1.167
548.90 1.168
549.00 1.168
549.10 1.168
549.20 1.168
549.30 1.169
549.40 1.169
549.50 1.169
549.60 1.17
549.70 1.17
549.80 1.17
549.90 1.17
550.00 1.171
550.10 1.171
550.20 1.171
550.30 1.172
550.40 1.172
550.50 1.172
550.60 1.172
550.70 1.173
550.80 1.173
550.90 1.173
551.00 1.174
551.10 1.174
551.20 1.174
551.30 1.174
551.40 1.175
551.50 1.175
551.60 1.175
551.70 1.176
551.80 1.176
551.90 1.176
552.00 1.177
552.10 1.177
552.20 1.177
552.30 1.177
552.40 1.178
552.50 1.178
552.60 1.178
552.70 1.179
552.80 1.179
552.90 1.179
553.00 1.179
553.10 1.18
553.20 1.18
553.30 1.18
553.40 1.18
553.50 1.181
553.60 1.181
553.70 1.181
553.80 1.182
553.90 1.182
554.00 1.182
554.10 1.182
554.20 1.183
554.30 1.183
554.40 1.183
554.50 1.184
554.60 1.184
554.70 1.184
554.80 1.184
554.90 1.185
555.00 1.185
555.10 1.185
555.20 1.186
555.30 1.186
555.40 1.186
555.50 1.186
555.60 1.187
555.70 1.187
555.80 1.187
555.90 1.188
556.00 1.188
556.10 1.188
556.20 1.188
556.30 1.189
556.40 1.189
556.50 1.189
556.60 1.189
556.70 1.19
556.80 1.19
556.90 1.19
557.00 1.191
557.10 1.191
557.20 1.191
557.30 1.191
557.40 1.192
557.50 1.192
557.60 1.192
557.70 1.192
557.80 1.193
557.90 1.193
558.00 1.193
558.10 1.194
558.20 1.194
558.30 1.194
558.40 1.194
558.50 1.195
558.60 1.195
558.70 1.195
558.80 1.195
558.90 1.196
559.00 1.196
559.10 1.196
559.20 1.197
559.30 1.197
559.40 1.197
559.50 1.197
559.60 1.198
559.70 1.198
559.80 1.198
559.90 1.198
560.00 1.199
560.10 1.199
560.20 1.199
560.30 1.2
560.40 1.2
560.50 1.2
560.60 1.2
560.70 1.201
560.80 1.201
560.90 1.201
561.00 1.201
561.10 1.202
561.20 1.202
561.30 1.202
561.40 1.202
561.50 1.203
561.60 1.203
561.70 1.203
561.80 1.204
561.90 1.204
562.00 1.204
562.10 1.204
562.20 1.205
562.30 1.205
562.40 1.205
562.50 1.205
562.60 1.206
562.70 1.206
562.80 1.206
562.90 1.206
563.00 1.207
563.10 1.207
563.20 1.207
563.30 1.207
563.40 1.208
563.50 1.208
563.60 1.208
563.70 1.209
563.80 1.209
563.90 1.209
564.00 1.209
564.10 1.21
564.20 1.21
564.30 1.21
564.40 1.21
564.50 1.211
564.60 1.211
564.70 1.211
564.80 1.211
564.90 1.212
565.00 1.212
565.10 1.212
565.20 1.212
565.30 1.213
565.40 1.213
565.50 1.213
565.60 1.213
565.70 1.214
565.80 1.214
565.90 1.214
566.00 1.214
566.10 1.215
566.20 1.215
566.30 1.215
566.40 1.216
566.50 1.216
566.60 1.216
566.70 1.216
566.80 1.217
566.90 1.217
567.00 1.217
567.10 1.217
567.20 1.218
567.30 1.218
567.40 1.218
567.50 1.218
567.60 1.219
567.70 1.219
567.80 1.219
567.90 1.219
568.00 1.22
568.10 1.22
568.20 1.22
568.30 1.22
568.40 1.221
568.50 1.221
568.60 1.221
568.70 1.221
568.80 1.222
568.90 1.222
569.00 1.222
569.10 1.222
569.20 1.223
569.30 1.223
569.40 1.223
569.50 1.223
569.60 1.224
569.70 1.224
569.80 1.224
569.90 1.224
570.00 1.225
570.10 1.225
570.20 1.225
570.30 1.225
570.40 1.226
570.50 1.226
570.60 1.226
570.70 1.226
570.80 1.227
570.90 1.227
571.00 1.227
571.10 1.227
571.20 1.228
571.30 1.228
571.40 1.228
571.50 1.228
571.60 1.229
571.70 1.229
571.80 1.229
571.90 1.229
572.00 1.23
572.10 1.23
572.20 1.23
572.30 1.23
572.40 1.23
572.50 1.231
572.60 1.231
572.70 1.231
572.80 1.231
572.90 1.232
573.00 1.232
573.10 1.232
573.20 1.232
573.30 1.233
573.40 1.233
573.50 1.233
573.60 1.233
573.70 1.234
573.80 1.234
573.90 1.234
574.00 1.234
574.10 1.235
574.20 1.235
574.30 1.235
574.40 1.235
574.50 1.236
574.60 1.236
574.70 1.236
574.80 1.236
574.90 1.237
575.00 1.237
575.10 1.237
575.20 1.237
575.30 1.237
575.40 1.238
575.50 1.238
575.60 1.238
575.70 1.238
575.80 1.239
575.90 1.239
576.00 1.239
576.10 1.239
576.20 1.24
576.30 1.24
576.40 1.24
576.50 1.24
576.60 1.241
576.70 1.241
576.80 1.241
576.90 1.241
577.00 1.241
577.10 1.242
577.20 1.242
577.30 1.242
577.40 1.242
577.50 1.243
577.60 1.243
577.70 1.243
577.80 1.243
577.90 1.244
578.00 1.244
578.10 1.244
578.20 1.244
578.30 1.244
578.40 1.245
578.50 1.245
578.60 1.245
578.70 1.245
578.80 1.246
578.90 1.246
579.00 1.246
579.10 1.246
579.20 1.247
579.30 1.247
579.40 1.247
579.50 1.247
579.60 1.247
579.70 1.248
579.80 1.248
579.90 1.248
580.00 1.248
580.10 1.249
580.20 1.249
580.30 1.249
580.40 1.249
580.50 1.25
580.60 1.25
580.70 1.25
580.80 1.25
580.90 1.25
581.00 1.251
581.10 1.251
581.20 1.251
581.30 1.251
581.40 1.252
581.50 1.252
581.60 1.252
581.70 1.252
581.80 1.252
581.90 1.253
582.00 1.253
582.10 1.253
582.20 1.253
582.30 1.254
582.40 1.254
582.50 1.254
582.60 1.254
582.70 1.254
582.80 1.255
582.90 1.255
583.00 1.255
583.10 1.255
583.20 1.256
583.30 1.256
583.40 1.256
583.50 1.256
583.60 1.256
583.70 1.257
583.80 1.257
583.90 1.257
584.00 1.257
584.10 1.258
584.20 1.258
584.30 1.258
584.40 1.258
584.50 1.258
584.60 1.259
584.70 1.259
584.80 1.259
584.90 1.259
585.00 1.259
585.10 1.26
585.20 1.26
585.30 1.26
585.40 1.26
585.50 1.261
585.60 1.261
585.70 1.261
585.80 1.261
585.90 1.261
586.00 1.262
586.10 1.262
586.20 1.262
586.30 1.262
586.40 1.262
586.50 1.263
586.60 1.263
586.70 1.263
586.80 1.263
586.90 1.264
587.00 1.264
587.10 1.264
587.20 1.264
587.30 1.264
587.40 1.265
587.50 1.265
587.60 1.265
587.70 1.265
587.80 1.265
587.90 1.266
588.00 1.266
588.10 1.266
588.20 1.266
588.30 1.267
588.40 1.267
588.50 1.267
588.60 1.267
588.70 1.267
588.80 1.268
588.90 1.268
589.00 1.268
589.10 1.268
589.20 1.268
589.30 1.269
589.40 1.269
589.50 1.269
589.60 1.269
589.70 1.269
589.80 1.27
589.90 1.27
590.00 1.27
590.10 1.27
590.20 1.27
590.30 1.271
590.40 1.271
590.50 1.271
590.60 1.271
590.70 1.271
590.80 1.272
590.90 1.272
591.00 1.272
591.10 1.272
591.20 1.273
591.30 1.273
591.40 1.273
591.50 1.273
591.60 1.273
591.70 1.274
591.80 1.274
591.90 1.274
592.00 1.274
592.10 1.274
592.20 1.275
592.30 1.275
592.40 1.275
592.50 1.275
592.60 1.275
592.70 1.276
592.80 1.276
592.90 1.276
593.00 1.276
593.10 1.276
593.20 1.277
593.30 1.277
593.40 1.277
593.50 1.277
593.60 1.277
593.70 1.278
593.80 1.278
593.90 1.278
594.00 1.278
594.10 1.278
594.20 1.278
594.30 1.279
594.40 1.279
594.50 1.279
594.60 1.279
594.70 1.279
594.80 1.28
594.90 1.28
595.00 1.28
595.10 1.28
595.20 1.28
595.30 1.281
595.40 1.281
595.50 1.281
595.60 1.281
595.70 1.281
595.80 1.282
595.90 1.282
596.00 1.282
596.10 1.282
596.20 1.282
596.30 1.283
596.40 1.283
596.50 1.283
596.60 1.283
596.70 1.283
596.80 1.284
596.90 1.284
597.00 1.284
597.10 1.284
597.20 1.284
597.30 1.285
597.40 1.285
597.50 1.285
597.60 1.285
597.70 1.285
597.80 1.286
597.90 1.286
598.00 1.286
598.10 1.286
598.20 1.286
598.30 1.286
598.40 1.287
598.50 1.287
598.60 1.287
598.70 1.287
598.80 1.287
598.90 1.288
599.00 1.288
599.10 1.288
599.20 1.288
599.30 1.288
599.40 1.288
599.50 1.289
599.60 1.289
599.70 1.289
599.80 1.289
599.90 1.289
600.00 1.29
600.10 1.29
600.20 1.29
600.30 1.29
600.40 1.29
600.50 1.291
600.60 1.291
600.70 1.291
600.80 1.291
600.90 1.291
601.00 1.291
601.10 1.292
601.20 1.292
601.30 1.292
601.40 1.292
601.50 1.292
601.60 1.293
601.70 1.293
601.80 1.293
601.90 1.293
602.00 1.293
602.10 1.294
602.20 1.294
602.30 1.294
602.40 1.294
602.50 1.294
602.60 1.294
602.70 1.295
602.80 1.295
602.90 1.295
603.00 1.295
603.10 1.295
603.20 1.295
603.30 1.296
603.40 1.296
603.50 1.296
603.60 1.296
603.70 1.296
603.80 1.297
603.90 1.297
604.00 1.297
604.10 1.297
604.20 1.297
604.30 1.297
604.40 1.298
604.50 1.298
604.60 1.298
604.70 1.298
604.80 1.298
604.90 1.298
605.00 1.299
605.10 1.299
605.20 1.299
605.30 1.299
605.40 1.299
605.50 1.3
605.60 1.3
605.70 1.3
605.80 1.3
605.90 1.3
606.00 1.3
606.10 1.301
606.20 1.301
606.30 1.301
606.40 1.301
606.50 1.301
606.60 1.301
606.70 1.302
606.80 1.302
606.90 1.302
607.00 1.302
607.10 1.302
607.20 1.302
607.30 1.303
607.40 1.303
607.50 1.303
607.60 1.303
607.70 1.303
607.80 1.303
607.90 1.304
608.00 1.304
608.10 1.304
608.20 1.304
608.30 1.304
608.40 1.305
608.50 1.305
608.60 1.305
608.70 1.305
608.80 1.305
608.90 1.305
609.00 1.306
609.10 1.306
609.20 1.306
609.30 1.306
609.40 1.306
609.50 1.306
609.60 1.307
609.70 1.307
609.80 1.307
609.90 1.307
610.00 1.307
610.10 1.307
610.20 1.307
610.30 1.308
610.40 1.308
610.50 1.308
610.60 1.308
610.70 1.308
610.80 1.308
610.90 1.309
611.00 1.309
611.10 1.309
611.20 1.309
611.30 1.309
611.40 1.309
611.50 1.31
611.60 1.31
611.70 1.31
611.80 1.31
611.90 1.31
612.00 1.31
612.10 1.311
612.20 1.311
612.30 1.311
612.40 1.311
612.50 1.311
612.60 1.311
612.70 1.312
612.80 1.312
612.90 1.312
613.00 1.312
613.10 1.312
613.20 1.312
613.30 1.312
613.40 1.313
613.50 1.313
613.60 1.313
613.70 1.313
613.80 1.313
613.90 1.313
614.00 1.314
614.10 1.314
614.20 1.314
614.30 1.314
614.40 1.314
614.50 1.314
614.60 1.315
614.70 1.315
614.80 1.315
614.90 1.315
615.00 1.315
615.10 1.315
615.20 1.315
615.30 1.316
615.40 1.316
615.50 1.316
615.60 1.316
615.70 1.316
615.80 1.316
615.90 1.317
616.00 1.317
616.10 1.317
616.20 1.317
616.30 1.317
616.40 1.317
616.50 1.317
616.60 1.318
616.70 1.318
616.80 1.318
616.90 1.318
617.00 1.318
617.10 1.318
617.20 1.319
617.30 1.319
617.40 1.319
617.50 1.319
617.60 1.319
617.70 1.319
617.80 1.319
617.90 1.32
618.00 1.32
618.10 1.32
618.20 1.32
618.30 1.32
618.40 1.32
618.50 1.32
618.60 1.321
618.70 1.321
618.80 1.321
618.90 1.321
619.00 1.321
619.10 1.321
619.20 1.321
619.30 1.322
619.40 1.322
619.50 1.322
619.60 1.322
619.70 1.322
619.80 1.322
619.90 1.322
620.00 1.323
620.10 1.323
620.20 1.323
620.30 1.323
620.40 1.323
620.50 1.323
620.60 1.324
620.70 1.324
620.80 1.324
620.90 1.324
621.00 1.324
621.10 1.324
621.20 1.324
621.30 1.325
621.40 1.325
621.50 1.325
621.60 1.325
621.70 1.325
621.80 1.325
621.90 1.325
622.00 1.326
622.10 1.326
622.20 1.326
622.30 1.326
622.40 1.326
622.50 1.326
622.60 1.326
622.70 1.326
622.80 1.327
622.90 1.327
623.00 1.327
623.10 1.327
623.20 1.327
623.30 1.327
623.40 1.327
623.50 1.328
623.60 1.328
623.70 1.328
623.80 1.328
623.90 1.328
624.00 1.328
624.10 1.328
624.20 1.329
624.30 1.329
624.40 1.329
624.50 1.329
624.60 1.329
624.70 1.329
624.80 1.329
624.90 1.33
625.00 1.33
625.10 1.33
625.20 1.33
625.30 1.33
625.40 1.33
625.50 1.33
625.60 1.33
625.70 1.331
625.80 1.331
625.90 1.331
626.00 1.331
626.10 1.331
626.20 1.331
626.30 1.331
626.40 1.332
626.50 1.332
626.60 1.332
626.70 1.332
626.80 1.332
626.90 1.332
627.00 1.332
627.10 1.332
627.20 1.333
627.30 1.333
627.40 1.333
627.50 1.333
627.60 1.333
627.70 1.333
627.80 1.333
627.90 1.333
628.00 1.334
628.10 1.334
628.20 1.334
628.30 1.334
628.40 1.334
628.50 1.334
628.60 1.334
628.70 1.334
628.80 1.335
628.90 1.335
629.00 1.335
629.10 1.335
629.20 1.335
629.30 1.335
629.40 1.335
629.50 1.335
629.60 1.336
629.70 1.336
629.80 1.336
629.90 1.336
630.00 1.336
630.10 1.336
630.20 1.336
630.30 1.336
630.40 1.337
630.50 1.337
630.60 1.337
630.70 1.337
630.80 1.337
630.90 1.337
631.00 1.337
631.10 1.337
631.20 1.338
631.30 1.338
631.40 1.338
631.50 1.338
631.60 1.338
631.70 1.338
631.80 1.338
631.90 1.338
632.00 1.338
632.10 1.339
632.20 1.339
632.30 1.339
632.40 1.339
632.50 1.339
632.60 1.339
632.70 1.339
632.80 1.339
632.90 1.34
633.00 1.34
633.10 1.34
633.20 1.34
633.30 1.34
633.40 1.34
633.50 1.34
633.60 1.34
633.70 1.341
633.80 1.341
633.90 1.341
634.00 1.341
634.10 1.341
634.20 1.341
634.30 1.341
634.40 1.341
634.50 1.341
634.60 1.342
634.70 1.342
634.80 1.342
634.90 1.342
635.00 1.342
635.10 1.342
635.20 1.342
635.30 1.342
635.40 1.343
635.50 1.343
635.60 1.343
635.70 1.343
635.80 1.343
635.90 1.343
636.00 1.343
636.10 1.343
636.20 1.343
636.30 1.343
636.40 1.344
636.50 1.344
636.60 1.344
636.70 1.344
636.80 1.344
636.90 1.344
637.00 1.344
637.10 1.344
637.20 1.345
637.30 1.345
637.40 1.345
637.50 1.345
637.60 1.345
637.70 1.345
637.80 1.345
637.90 1.345
638.00 1.345
638.10 1.345
638.20 1.346
638.30 1.346
638.40 1.346
638.50 1.346
638.60 1.346
638.70 1.346
638.80 1.346
638.90 1.346
639.00 1.346
639.10 1.346
639.20 1.347
639.30 1.347
639.40 1.347
639.50 1.347
639.60 1.347
639.70 1.347
639.80 1.347
639.90 1.347
640.00 1.347
640.10 1.348
640.20 1.348
640.30 1.348
640.40 1.348
640.50 1.348
640.60 1.348
640.70 1.348
640.80 1.348
640.90 1.348
641.00 1.349
641.10 1.349
641.20 1.349
641.30 1.349
641.40 1.349
641.50 1.349
641.60 1.349
641.70 1.349
641.80 1.349
641.90 1.349
642.00 1.349
642.10 1.35
642.20 1.35
642.30 1.35
642.40 1.35
642.50 1.35
642.60 1.35
642.70 1.35
642.80 1.35
642.90 1.35
643.00 1.35
643.10 1.351
643.20 1.351
643.30 1.351
643.40 1.351
643.50 1.351
643.60 1.351
643.70 1.351
643.80 1.351
643.90 1.351
644.00 1.351
644.10 1.352
644.20 1.352
644.30 1.352
644.40 1.352
644.50 1.352
644.60 1.352
644.70 1.352
644.80 1.352
644.90 1.352
645.00 1.352
645.10 1.352
645.20 1.353
645.30 1.353
645.40 1.353
645.50 1.353
645.60 1.353
645.70 1.353
645.80 1.353
645.90 1.353
646.00 1.353
646.10 1.353
646.20 1.353
646.30 1.354
646.40 1.354
646.50 1.354
646.60 1.354
646.70 1.354
646.80 1.354
646.90 1.354
647.00 1.354
647.10 1.354
647.20 1.354
647.30 1.354
647.40 1.355
647.50 1.355
647.60 1.355
647.70 1.355
647.80 1.355
647.90 1.355
648.00 1.355
648.10 1.355
648.20 1.355
648.30 1.355
648.40 1.355
648.50 1.355
648.60 1.356
648.70 1.356
648.80 1.356
648.90 1.356
649.00 1.356
649.10 1.356
649.20 1.356
649.30 1.356
649.40 1.356
649.50 1.356
649.60 1.356
649.70 1.357
649.80 1.357
649.90 1.357
650.00 1.357
650.10 1.357
650.20 1.357
650.30 1.357
650.40 1.357
650.50 1.357
650.60 1.357
650.70 1.357
650.80 1.357
650.90 1.357
651.00 1.358
651.10 1.358
651.20 1.358
651.30 1.358
651.40 1.358
651.50 1.358
651.60 1.358
651.70 1.358
651.80 1.358
651.90 1.358
652.00 1.358
652.10 1.358
652.20 1.359
652.30 1.359
652.40 1.359
652.50 1.359
652.60 1.359
652.70 1.359
652.80 1.359
652.90 1.359
653.00 1.359
653.10 1.359
653.20 1.359
653.30 1.359
653.40 1.359
653.50 1.359
653.60 1.36
653.70 1.36
653.80 1.36
653.90 1.36
654.00 1.36
654.10 1.36
654.20 1.36
654.30 1.36
654.40 1.36
654.50 1.36
654.60 1.36
654.70 1.36
654.80 1.36
654.90 1.361
655.00 1.361
655.10 1.361
655.20 1.361
655.30 1.361
655.40 1.361
655.50 1.361
655.60 1.361
655.70 1.361
655.80 1.361
655.90 1.361
656.00 1.361
656.10 1.361
656.20 1.361
656.30 1.362
656.40 1.362
656.50 1.362
656.60 1.362
656.70 1.362
656.80 1.362
656.90 1.362
657.00 1.362
657.10 1.362
657.20 1.362
657.30 1.362
657.40 1.362
657.50 1.362
657.60 1.362
657.70 1.362
657.80 1.363
657.90 1.363
658.00 1.363
658.10 1.363
658.20 1.363
658.30 1.363
658.40 1.363
658.50 1.363
658.60 1.363
658.70 1.363
658.80 1.363
658.90 1.363
659.00 1.363
659.10 1.363
659.20 1.363
659.30 1.363
659.40 1.364
659.50 1.364
659.60 1.364
659.70 1.364
659.80 1.364
659.90 1.364
660.00 1.364
660.10 1.364
660.20 1.364
660.30 1.364
660.40 1.364
660.50 1.364
660.60 1.364
660.70 1.364
660.80 1.364
660.90 1.364
661.00 1.365
661.10 1.365
661.20 1.365
661.30 1.365
661.40 1.365
661.50 1.365
661.60 1.365
661.70 1.365
661.80 1.365
661.90 1.365
662.00 1.365
662.10 1.365
662.20 1.365
662.30 1.365
662.40 1.365
662.50 1.365
662.60 1.365
662.70 1.365
662.80 1.366
662.90 1.366
663.00 1.366
663.10 1.366
663.20 1.366
663.30 1.366
663.40 1.366
663.50 1.366
663.60 1.366
663.70 1.366
663.80 1.366
663.90 1.366
664.00 1.366
664.10 1.366
664.20 1.366
664.30 1.366
664.40 1.366
664.50 1.366
664.60 1.366
664.70 1.367
664.80 1.367
664.90 1.367
665.00 1.367
665.10 1.367
665.20 1.367
665.30 1.367
665.40 1.367
665.50 1.367
665.60 1.367
665.70 1.367
665.80 1.367
665.90 1.367
666.00 1.367
666.10 1.367
666.20 1.367
666.30 1.367
666.40 1.367
666.50 1.367
666.60 1.367
666.70 1.367
666.80 1.368
666.90 1.368
667.00 1.368
667.10 1.368
667.20 1.368
667.30 1.368
667.40 1.368
667.50 1.368
667.60 1.368
667.70 1.368
667.80 1.368
667.90 1.368
668.00 1.368
668.10 1.368
668.20 1.368
668.30 1.368
668.40 1.368
668.50 1.368
668.60 1.368
668.70 1.368
668.80 1.368
668.90 1.368
669.00 1.368
669.10 1.368
669.20 1.368
669.30 1.369
669.40 1.369
669.50 1.369
669.60 1.369
669.70 1.369
669.80 1.369
669.90 1.369
670.00 1.369
670.10 1.369
670.20 1.369
670.30 1.369
670.40 1.369
670.50 1.369
670.60 1.369
670.70 1.369
670.80 1.369
670.90 1.369
671.00 1.369
671.10 1.369
671.20 1.369
671.30 1.369
671.40 1.369
671.50 1.369
671.60 1.369
671.70 1.369
671.80 1.369
671.90 1.369
672.00 1.369
672.10 1.369
672.20 1.37
672.30 1.37
672.40 1.37
672.50 1.37
672.60 1.37
672.70 1.37
672.80 1.37
672.90 1.37
673.00 1.37
673.10 1.37
673.20 1.37
673.30 1.37
673.40 1.37
673.50 1.37
673.60 1.37
673.70 1.37
673.80 1.37
673.90 1.37
674.00 1.37
674.10 1.37
674.20 1.37
674.30 1.37
674.40 1.37
674.50 1.37
674.60 1.37
674.70 1.37
674.80 1.37
674.90 1.37
675.00 1.37
675.10 1.37
675.20 1.37
675.30 1.37
675.40 1.37
675.50 1.37
675.60 1.37
675.70 1.37
675.80 1.37
675.90 1.371
676.00 1.371
676.10 1.371
676.20 1.371
676.30 1.371
676.40 1.371
676.50 1.371
676.60 1.371
676.70 1.371
676.80 1.371
676.90 1.371
677.00 1.371
677.10 1.371
677.20 1.371
677.30 1.371
677.40 1.371
677.50 1.371
677.60 1.371
677.70 1.371
677.80 1.371
677.90 1.371
678.00 1.371
678.10 1.371
678.20 1.371
678.30 1.371
678.40 1.371
678.50 1.371
678.60 1.371
678.70 1.371
678.80 1.371
678.90 1.371
679.00 1.371
679.10 1.371
679.20 1.371
679.30 1.371
679.40 1.371
679.50 1.371
679.60 1.371
679.70 1.371
679.80 1.371
679.90 1.371
680.00 1.371
680.10 1.371
680.20 1.371
680.30 1.371
680.40 1.371
680.50 1.371
680.60 1.371
680.70 1.371
680.80 1.371
680.90 1.371
681.00 1.371
681.10 1.371
681.20 1.371
681.30 1.371
681.40 1.371
681.50 1.371
681.60 1.371
681.70 1.371
681.80 1.371
681.90 1.371
682.00 1.371
682.10 1.371
682.20 1.371
682.30 1.371
682.40 1.371
682.50 1.371
682.60 1.371
682.70 1.371
682.80 1.371
682.90 1.371
683.00 1.371
683.10 1.371
683.20 1.371
683.30 1.371
683.40 1.371
683.50 1.371
683.60 1.371
683.70 1.371
683.80 1.371
683.90 1.371
684.00 1.371
684.10 1.371
684.20 1.371
684.30 1.371
684.40 1.371
684.50 1.371
684.60 1.371
684.70 1.371
684.80 1.371
684.90 1.371
685.00 1.371
685.10 1.371
685.20 1.371
685.30 1.371
685.40 1.371
685.50 1.371
685.60 1.371
685.70 1.371
685.80 1.371
685.90 1.371
686.00 1.371
686.10 1.371
686.20 1.371
686.30 1.371
686.40 1.371
686.50 1.371
686.60 1.371
686.70 1.371
686.80 1.371
686.90 1.371
687.00 1.371
687.10 1.371
687.20 1.371
687.30 1.371
687.40 1.371
687.50 1.371
687.60 1.371
687.70 1.371
687.80 1.371
687.90 1.371
688.00 1.371
688.10 1.371
688.20 1.371
688.30 1.371
688.40 1.371
688.50 1.371
688.60 1.371
688.70 1.371
688.80 1.371
688.90 1.371
689.00 1.371
689.10 1.371
689.20 1.371
689.30 1.371
689.40 1.371
689.50 1.371
689.60 1.371
689.70 1.371
689.80 1.371
689.90 1.371
690.00 1.371
690.10 1.371
690.20 1.371
690.30 1.371
690.40 1.371
690.50 1.371
690.60 1.371
690.70 1.371
690.80 1.371
690.90 1.371
691.00 1.371
691.10 1.371
691.20 1.371
691.30 1.371
691.40 1.37
691.50 1.37
691.60 1.37
691.70 1.37
691.80 1.37
691.90 1.37
692.00 1.37
692.10 1.37
692.20 1.37
692.30 1.37
692.40 1.37
692.50 1.37
692.60 1.37
692.70 1.37
692.80 1.37
692.90 1.37
693.00 1.37
693.10 1.37
693.20 1.37
693.30 1.37
693.40 1.37
693.50 1.37
693.60 1.37
693.70 1.37
693.80 1.37
693.90 1.37
694.00 1.37
694.10 1.37
694.20 1.37
694.30 1.37
694.40 1.37
694.50 1.37
694.60 1.37
694.70 1.37
694.80 1.37
694.90 1.37
695.00 1.37
695.10 1.369
695.20 1.369
695.30 1.369
695.40 1.369
695.50 1.369
695.60 1.369
695.70 1.369
695.80 1.369
695.90 1.369
696.00 1.369
696.10 1.369
696.20 1.369
696.30 1.369
696.40 1.369
696.50 1.369
696.60 1.369
696.70 1.369
696.80 1.369
696.90 1.369
697.00 1.369
697.10 1.369
697.20 1.369
697.30 1.369
697.40 1.369
697.50 1.368
697.60 1.368
697.70 1.368
697.80 1.368
697.90 1.368
698.00 1.368
698.10 1.368
698.20 1.368
698.30 1.368
698.40 1.368
698.50 1.368
698.60 1.368
698.70 1.368
698.80 1.368
698.90 1.368
699.00 1.368
699.10 1.368
699.20 1.368
699.30 1.368
699.40 1.368
699.50 1.368
699.60 1.368
699.70 1.368
699.80 1.367
699.90 1.367
700.00 1.367
700.10 1.367
700.20 1.367
700.30 1.367
700.40 1.367
700.50 1.367
700.60 1.367
700.70 1.367
700.80 1.367
700.90 1.367
701.00 1.367
701.10 1.367
701.20 1.367
701.30 1.367
701.40 1.367
701.50 1.366
701.60 1.366
701.70 1.366
701.80 1.366
701.90 1.366
702.00 1.366
702.10 1.366
702.20 1.366
702.30 1.366
702.40 1.366
702.50 1.366
702.60 1.366
702.70 1.366
702.80 1.366
702.90 1.366
703.00 1.366
703.10 1.366
703.20 1.365
703.30 1.365
703.40 1.365
703.50 1.365
703.60 1.365
703.70 1.365
703.80 1.365
703.90 1.365
704.00 1.365
704.10 1.365
704.20 1.365
704.30 1.365
704.40 1.365
704.50 1.365
704.60 1.365
704.70 1.365
704.80 1.364
704.90 1.364
705.00 1.364
705.10 1.364
705.20 1.364
705.30 1.364
705.40 1.364
705.50 1.364
705.60 1.364
705.70 1.364
705.80 1.364
705.90 1.364
706.00 1.364
706.10 1.364
706.20 1.363
706.30 1.363
706.40 1.363
706.50 1.363
706.60 1.363
706.70 1.363
706.80 1.363
706.90 1.363
707.00 1.363
707.10 1.363
707.20 1.363
707.30 1.363
707.40 1.363
707.50 1.362
707.60 1.362
707.70 1.362
707.80 1.362
707.90 1.362
708.00 1.362
708.10 1.362
708.20 1.362
708.30 1.362
708.40 1.362
708.50 1.362
708.60 1.362
708.70 1.362
708.80 1.361
708.90 1.361
709.00 1.361
709.10 1.361
709.20 1.361
709.30 1.361
709.40 1.361
709.50 1.361
709.60 1.361
709.70 1.361
709.80 1.361
709.90 1.361
710.00 1.361
710.10 1.36
710.20 1.36
710.30 1.36
710.40 1.36
710.50 1.36
710.60 1.36
710.70 1.36
710.80 1.36
710.90 1.36
711.00 1.36
711.10 1.36
711.20 1.359
711.30 1.359
711.40 1.359
711.50 1.359
711.60 1.359
711.70 1.359
711.80 1.359
711.90 1.359
712.00 1.359
712.10 1.359
712.20 1.359
712.30 1.358
712.40 1.358
712.50 1.358
712.60 1.358
712.70 1.358
712.80 1.358
712.90 1.358
713.00 1.358
713.10 1.358
713.20 1.358
713.30 1.358
713.40 1.358
713.50 1.357
713.60 1.357
713.70 1.357
713.80 1.357
713.90 1.357
714.00 1.357
714.10 1.357
714.20 1.357
714.30 1.357
714.40 1.357
714.50 1.357
714.60 1.356
714.70 1.356
714.80 1.356
714.90 1.356
715.00 1.356
715.10 1.356
715.20 1.356
715.30 1.356
715.40 1.356
715.50 1.356
715.60 1.355
715.70 1.355
715.80 1.355
715.90 1.355
716.00 1.355
716.10 1.355
716.20 1.355
716.30 1.355
716.40 1.355
716.50 1.354
716.60 1.354
716.70 1.354
716.80 1.354
716.90 1.354
717.00 1.354
717.10 1.354
717.20 1.354
717.30 1.354
717.40 1.354
717.50 1.353
717.60 1.353
717.70 1.353
717.80 1.353
717.90 1.353
718.00 1.353
718.10 1.353
718.20 1.353
718.30 1.353
718.40 1.352
718.50 1.352
718.60 1.352
718.70 1.352
718.80 1.352
718.90 1.352
719.00 1.352
719.10 1.352
719.20 1.352
719.30 1.352
719.40 1.351
719.50 1.351
719.60 1.351
719.70 1.351
719.80 1.351
719.90 1.351
720.00 1.351
720.10 1.351
720.20 1.351
720.30 1.35
720.40 1.35
720.50 1.35
720.60 1.35
720.70 1.35
720.80 1.35
720.90 1.35
721.00 1.35
721.10 1.349
721.20 1.349
721.30 1.349
721.40 1.349
721.50 1.349
721.60 1.349
721.70 1.349
721.80 1.349
721.90 1.349
722.00 1.348
722.10 1.348
722.20 1.348
722.30 1.348
722.40 1.348
722.50 1.348
722.60 1.348
722.70 1.348
722.80 1.348
722.90 1.347
723.00 1.347
723.10 1.347
723.20 1.347
723.30 1.347
723.40 1.347
723.50 1.347
723.60 1.347
723.70 1.346
723.80 1.346
723.90 1.346
724.00 1.346
724.10 1.346
724.20 1.346
724.30 1.346
724.40 1.346
724.50 1.346
724.60 1.345
724.70 1.345
724.80 1.345
724.90 1.345
725.00 1.345
725.10 1.345
725.20 1.345
725.30 1.345
725.40 1.344
725.50 1.344
725.60 1.344
725.70 1.344
725.80 1.344
725.90 1.344
726.00 1.344
726.10 1.344
726.20 1.344
726.30 1.343
726.40 1.343
726.50 1.343
726.60 1.343
726.70 1.343
726.80 1.343
726.90 1.343
727.00 1.343
727.10 1.342
727.20 1.342
727.30 1.342
727.40 1.342
727.50 1.342
727.60 1.342
727.70 1.342
727.80 1.342
727.90 1.341
728.00 1.341
728.10 1.341
728.20 1.341
728.30 1.341
728.40 1.341
728.50 1.341
728.60 1.341
728.70 1.34
728.80 1.34
728.90 1.34
729.00 1.34
729.10 1.34
729.20 1.34
729.30 1.34
729.40 1.34
729.50 1.34
729.60 1.339
729.70 1.339
729.80 1.339
729.90 1.339
730.00 1.339
730.10 1.339
730.20 1.339
730.30 1.339
730.40 1.338
730.50 1.338
730.60 1.338
730.70 1.338
730.80 1.338
730.90 1.338
731.00 1.338
731.10 1.338
731.20 1.337
731.30 1.337
731.40 1.337
731.50 1.337
731.60 1.337
731.70 1.337
731.80 1.337
731.90 1.337
732.00 1.336
732.10 1.336
732.20 1.336
732.30 1.336
732.40 1.336
732.50 1.336
732.60 1.336
732.70 1.336
732.80 1.335
732.90 1.335
733.00 1.335
733.10 1.335
733.20 1.335
733.30 1.335
733.40 1.335
733.50 1.335
733.60 1.334
733.70 1.334
733.80 1.334
733.90 1.334
734.00 1.334
734.10 1.334
734.20 1.334
734.30 1.334
734.40 1.333
734.50 1.333
734.60 1.333
734.70 1.333
734.80 1.333
734.90 1.333
735.00 1.333
735.10 1.333
735.20 1.332
735.30 1.332
735.40 1.332
735.50 1.332
735.60 1.332
735.70 1.332
735.80 1.332
735.90 1.332
736.00 1.331
736.10 1.331
736.20 1.331
736.30 1.331
736.40 1.331
736.50 1.331
736.60 1.331
736.70 1.331
736.80 1.33
736.90 1.33
737.00 1.33
737.10 1.33
737.20 1.33
737.30 1.33
737.40 1.33
737.50 1.33
737.60 1.329
737.70 1.329
737.80 1.329
737.90 1.329
738.00 1.329
738.10 1.329
738.20 1.329
738.30 1.329
738.40 1.328
738.50 1.328
738.60 1.328
738.70 1.328
738.80 1.328
738.90 1.328
739.00 1.328
739.10 1.328
739.20 1.328
739.30 1.327
739.40 1.327
739.50 1.327
739.60 1.327
739.70 1.327
739.80 1.327
739.90 1.327
740.00 1.327
740.10 1.326
740.20 1.326
740.30 1.326
740.40 1.326
740.50 1.326
740.60 1.326
740.70 1.326
740.80 1.326
740.90 1.325
741.00 1.325
741.10 1.325
741.20 1.325
741.30 1.325
741.40 1.325
741.50 1.325
741.60 1.325
741.70 1.324
741.80 1.324
741.90 1.324
742.00 1.324
742.10 1.324
742.20 1.324
742.30 1.324
742.40 1.324
742.50 1.324
742.60 1.323
742.70 1.323
742.80 1.323
742.90 1.323
743.00 1.323
743.10 1.323
743.20 1.323
743.30 1.323
743.40 1.322
743.50 1.322
743.60 1.322
743.70 1.322
743.80 1.322
743.90 1.322
744.00 1.322
744.10 1.322
744.20 1.322
744.30 1.321
744.40 1.321
744.50 1.321
744.60 1.321
744.70 1.321
744.80 1.321
744.90 1.321
745.00 1.321
745.10 1.32
745.20 1.32
745.30 1.32
745.40 1.32
745.50 1.32
745.60 1.32
745.70 1.32
745.80 1.32
745.90 1.319
746.00 1.319
746.10 1.319
746.20 1.319
746.30 1.319
746.40 1.319
746.50 1.319
746.60 1.319
746.70 1.319
746.80 1.318
746.90 1.318
747.00 1.318
747.10 1.318
747.20 1.318
747.30 1.318
747.40 1.318
747.50 1.318
747.60 1.317
747.70 1.317
747.80 1.317
747.90 1.317
748.00 1.317
748.10 1.317
748.20 1.317
748.30 1.317
748.40 1.317
748.50 1.316
748.60 1.316
748.70 1.316
748.80 1.316
748.90 1.316
749.00 1.316
749.10 1.316
749.20 1.316
749.30 1.315
749.40 1.315
749.50 1.315
749.60 1.315
749.70 1.315
749.80 1.315
749.90 1.315
750.00 1.315
750.10 1.315
750.20 1.314
750.30 1.314
750.40 1.314
750.50 1.314
750.60 1.314
750.70 1.314
750.80 1.314
750.90 1.314
751.00 1.314
751.10 1.313
751.20 1.313
751.30 1.313
751.40 1.313
751.50 1.313
751.60 1.313
751.70 1.313
751.80 1.313
751.90 1.312
752.00 1.312
752.10 1.312
752.20 1.312
752.30 1.312
752.40 1.312
752.50 1.312
752.60 1.312
752.70 1.312
752.80 1.311
752.90 1.311
753.00 1.311
753.10 1.311
753.20 1.311
753.30 1.311
753.40 1.311
753.50 1.311
753.60 1.311
753.70 1.31
753.80 1.31
753.90 1.31
754.00 1.31
754.10 1.31
754.20 1.31
754.30 1.31
754.40 1.31
754.50 1.31
754.60 1.309
754.70 1.309
754.80 1.309
754.90 1.309
755.00 1.309
755.10 1.309
755.20 1.309
755.30 1.309
755.40 1.309
755.50 1.308
755.60 1.308
755.70 1.308
755.80 1.308
755.90 1.308
756.00 1.308
756.10 1.308
756.20 1.308
756.30 1.307
756.40 1.307
756.50 1.307
756.60 1.307
756.70 1.307
756.80 1.307
756.90 1.307
757.00 1.307
757.10 1.307
757.20 1.306
757.30 1.306
757.40 1.306
757.50 1.306
757.60 1.306
757.70 1.306
757.80 1.306
757.90 1.306
758.00 1.306
758.10 1.305
758.20 1.305
758.30 1.305
758.40 1.305
758.50 1.305
758.60 1.305
758.70 1.305
758.80 1.305
758.90 1.305
759.00 1.304
759.10 1.304
759.20 1.304
759.30 1.304
759.40 1.304
759.50 1.304
759.60 1.304
759.70 1.304
759.80 1.304
759.90 1.303
760.00 1.303
760.10 1.303
760.20 1.303
760.30 1.303
760.40 1.303
760.50 1.303
760.60 1.303
760.70 1.303
760.80 1.302
760.90 1.302
761.00 1.302
761.10 1.302
761.20 1.302
761.30 1.302
761.40 1.302
761.50 1.302
761.60 1.302
761.70 1.301
761.80 1.301
761.90 1.301
762.00 1.301
762.10 1.301
762.20 1.301
762.30 1.301
762.40 1.301
762.50 1.301
762.60 1.3
762.70 1.3
762.80 1.3
762.90 1.3
763.00 1.3
763.10 1.3
763.20 1.3
763.30 1.3
763.40 1.3
763.50 1.299
763.60 1.299
763.70 1.299
763.80 1.299
763.90 1.299
764.00 1.299
764.10 1.299
764.20 1.299
764.30 1.299
764.40 1.298
764.50 1.298
764.60 1.298
764.70 1.298
764.80 1.298
764.90 1.298
765.00 1.298
765.10 1.298
765.20 1.298
765.30 1.297
765.40 1.297
765.50 1.297
765.60 1.297
765.70 1.297
765.80 1.297
765.90 1.297
766.00 1.297
766.10 1.297
766.20 1.296
766.30 1.296
766.40 1.296
766.50 1.296
766.60 1.296
766.70 1.296
766.80 1.296
766.90 1.296
767.00 1.296
767.10 1.295
767.20 1.295
767.30 1.295
767.40 1.295
767.50 1.295
767.60 1.295
767.70 1.295
767.80 1.295
767.90 1.295
768.00 1.294
768.10 1.294
768.20 1.294
768.30 1.294
768.40 1.294
768.50 1.294
768.60 1.294
768.70 1.294
768.80 1.294
768.90 1.293
769.00 1.293
769.10 1.293
769.20 1.293
769.30 1.293
769.40 1.293
769.50 1.293
769.60 1.293
769.70 1.293
769.80 1.292
769.90 1.292
770.00 1.292
770.10 1.292
770.20 1.292
770.30 1.292
770.40 1.292
770.50 1.292
770.60 1.292
770.70 1.291
770.80 1.291
770.90 1.291
771.00 1.291
771.10 1.291
771.20 1.291
771.30 1.291
771.40 1.291
771.50 1.291
771.60 1.291
771.70 1.29
771.80 1.29
771.90 1.29
772.00 1.29
772.10 1.29
772.20 1.29
772.30 1.29
772.40 1.29
772.50 1.29
772.60 1.289
772.70 1.289
772.80 1.289
772.90 1.289
773.00 1.289
773.10 1.289
773.20 1.289
773.30 1.289
773.40 1.289
773.50 1.289
773.60 1.288
773.70 1.288
773.80 1.288
773.90 1.288
774.00 1.288
774.10 1.288
774.20 1.288
774.30 1.288
774.40 1.288
774.50 1.287
774.60 1.287
774.70 1.287
774.80 1.287
774.90 1.287
775.00 1.287
775.10 1.287
775.20 1.287
775.30 1.287
775.40 1.287
775.50 1.286
775.60 1.286
775.70 1.286
775.80 1.286
775.90 1.286
776.00 1.286
776.10 1.286
776.20 1.286
776.30 1.286
776.40 1.285
776.50 1.285
776.60 1.285
776.70 1.285
776.80 1.285
776.90 1.285
777.00 1.285
777.10 1.285
777.20 1.285
777.30 1.285
777.40 1.284
777.50 1.284
777.60 1.284
777.70 1.284
777.80 1.284
777.90 1.284
778.00 1.284
778.10 1.284
778.20 1.284
778.30 1.284
778.40 1.283
778.50 1.283
778.60 1.283
778.70 1.283
778.80 1.283
778.90 1.283
779.00 1.283
779.10 1.283
779.20 1.283
779.30 1.282
779.40 1.282
779.50 1.282
779.60 1.282
779.70 1.282
779.80 1.282
779.90 1.282
780.00 1.282
780.10 1.282
780.20 1.282
780.30 1.281
780.40 1.281
780.50 1.281
780.60 1.281
780.70 1.281
780.80 1.281
780.90 1.281
781.00 1.281
781.10 1.281
781.20 1.281
781.30 1.28
781.40 1.28
781.50 1.28
781.60 1.28
781.70 1.28
781.80 1.28
781.90 1.28
782.00 1.28
782.10 1.28
782.20 1.28
782.30 1.28
782.40 1.279
782.50 1.279
782.60 1.279
782.70 1.279
782.80 1.279
782.90 1.279
783.00 1.279
783.10 1.279
783.20 1.279
783.30 1.279
783.40 1.278
783.50 1.278
783.60 1.278
783.70 1.278
783.80 1.278
783.90 1.278
784.00 1.278
784.10 1.278
784.20 1.278
784.30 1.278
784.40 1.278
784.50 1.277
784.60 1.277
784.70 1.277
784.80 1.277
784.90 1.277
785.00 1.277
785.10 1.277
785.20 1.277
785.30 1.277
785.40 1.277
785.50 1.276
785.60 1.276
785.70 1.276
785.80 1.276
785.90 1.276
786.00 1.276
786.10 1.276
786.20 1.276
786.30 1.276
786.40 1.276
786.50 1.276
786.60 1.275
786.70 1.275
786.80 1.275
786.90 1.275
787.00 1.275
787.10 1.275
787.20 1.275
787.30 1.275
787.40 1.275
787.50 1.275
787.60 1.274
787.70 1.274
787.80 1.274
787.90 1.274
788.00 1.274
788.10 1.274
788.20 1.274
788.30 1.274
788.40 1.274
788.50 1.274
788.60 1.274
788.70 1.273
788.80 1.273
788.90 1.273
789.00 1.273
789.10 1.273
789.20 1.273
789.30 1.273
789.40 1.273
789.50 1.273
789.60 1.273
789.70 1.272
789.80 1.272
789.90 1.272
790.00 1.272
790.10 1.272
790.20 1.272
790.30 1.272
790.40 1.272
790.50 1.272
790.60 1.272
790.70 1.271
790.80 1.271
790.90 1.271
791.00 1.271
791.10 1.271
791.20 1.271
791.30 1.271
791.40 1.271
791.50 1.271
791.60 1.271
791.70 1.27
791.80 1.27
791.90 1.27
792.00 1.27
792.10 1.27
792.20 1.27
792.30 1.27
792.40 1.27
792.50 1.27
792.60 1.27
792.70 1.269
792.80 1.269
792.90 1.269
793.00 1.269
793.10 1.269
793.20 1.269
793.30 1.269
793.40 1.269
793.50 1.269
793.60 1.269
793.70 1.268
793.80 1.268
793.90 1.268
794.00 1.268
794.10 1.268
794.20 1.268
794.30 1.268
794.40 1.268
794.50 1.268
794.60 1.268
794.70 1.267
794.80 1.267
794.90 1.267
795.00 1.267
795.10 1.267
795.20 1.267
795.30 1.267
795.40 1.267
795.50 1.267
795.60 1.267
795.70 1.267
795.80 1.266
795.90 1.266
796.00 1.266
796.10 1.266
796.20 1.266
796.30 1.266
796.40 1.266
796.50 1.266
796.60 1.266
796.70 1.266
796.80 1.265
796.90 1.265
797.00 1.265
797.10 1.265
797.20 1.265
797.30 1.265
797.40 1.265
797.50 1.265
797.60 1.265
797.70 1.265
797.80 1.264
797.90 1.264
798.00 1.264
798.10 1.264
798.20 1.264
798.30 1.264
798.40 1.264
798.50 1.264
798.60 1.264
798.70 1.264
798.80 1.263
798.90 1.263
799.00 1.263
799.10 1.263
799.20 1.263
799.30 1.263
799.40 1.263
799.50 1.263
799.60 1.263
799.70 1.263
799.80 1.262
799.90 1.262
800.00 1.262
800.10 1.262
800.20 1.262
800.30 1.262
800.40 1.262
800.50 1.262
800.60 1.262
800.70 1.261
800.80 1.261
800.90 1.261
801.00 1.261
801.10 1.261
801.20 1.261
801.30 1.261
801.40 1.261
801.50 1.26
801.60 1.26
801.70 1.26
801.80 1.26
801.90 1.26
802.00 1.26
802.10 1.26
802.20 1.26
802.30 1.26
802.40 1.259
802.50 1.259
802.60 1.259
802.70 1.259
802.80 1.259
802.90 1.259
803.00 1.259
803.10 1.259
803.20 1.258
803.30 1.258
803.40 1.258
803.50 1.258
803.60 1.258
803.70 1.258
803.80 1.258
803.90 1.258
804.00 1.258
804.10 1.257
804.20 1.257
804.30 1.257
804.40 1.257
804.50 1.257
804.60 1.257
804.70 1.257
804.80 1.257
804.90 1.256
805.00 1.256
805.10 1.256
805.20 1.256
805.30 1.256
805.40 1.256
805.50 1.256
805.60 1.256
805.70 1.256
805.80 1.255
805.90 1.255
806.00 1.255
806.10 1.255
806.20 1.255
806.30 1.255
806.40 1.255
806.50 1.255
806.60 1.254
806.70 1.254
806.80 1.254
806.90 1.254
807.00 1.254
807.10 1.254
807.20 1.254
807.30 1.254
807.40 1.254
807.50 1.253
807.60 1.253
807.70 1.253
807.80 1.253
807.90 1.253
808.00 1.253
808.10 1.253
808.20 1.253
808.30 1.252
808.40 1.252
808.50 1.252
808.60 1.252
808.70 1.252
808.80 1.252
808.90 1.252
809.00 1.252
809.10 1.252
809.20 1.251
809.30 1.251
809.40 1.251
809.50 1.251
809.60 1.251
809.70 1.251
809.80 1.251
809.90 1.251
810.00 1.25
810.10 1.25
810.20 1.25
810.30 1.25
810.40 1.25
810.50 1.25
810.60 1.25
810.70 1.249
810.80 1.249
810.90 1.249
811.00 1.249
811.10 1.249
811.20 1.249
811.30 1.249
811.40 1.248
811.50 1.248
811.60 1.248
811.70 1.248
811.80 1.248
811.90 1.248
812.00 1.248
812.10 1.247
812.20 1.247
812.30 1.247
812.40 1.247
812.50 1.247
812.60 1.247
812.70 1.247
812.80 1.246
812.90 1.246
813.00 1.246
813.10 1.246
813.20 1.246
813.30 1.246
813.40 1.246
813.50 1.245
813.60 1.245
813.70 1.245
813.80 1.245
813.90 1.245
814.00 1.245
814.10 1.245
814.20 1.244
814.30 1.244
814.40 1.244
814.50 1.244
814.60 1.244
814.70 1.244
814.80 1.244
814.90 1.243
815.00 1.243
815.10 1.243
815.20 1.243
815.30 1.243
815.40 1.243
815.50 1.243
815.60 1.242
815.70 1.242
815.80 1.242
815.90 1.242
816.00 1.242
816.10 1.242
816.20 1.242
816.30 1.242
816.40 1.241
816.50 1.241
816.60 1.241
816.70 1.241
816.80 1.241
816.90 1.241
817.00 1.241
817.10 1.24
817.20 1.24
817.30 1.24
817.40 1.24
817.50 1.24
817.60 1.24
817.70 1.24
817.80 1.239
817.90 1.239
818.00 1.239
818.10 1.239
818.20 1.239
818.30 1.239
818.40 1.239
818.50 1.238
818.60 1.238
818.70 1.238
818.80 1.238
818.90 1.238
819.00 1.238
819.10 1.238
819.20 1.237
819.30 1.237
819.40 1.237
819.50 1.237
819.60 1.237
819.70 1.237
819.80 1.237
819.90 1.236
820.00 1.236
820.10 1.236
820.20 1.236
820.30 1.236
820.40 1.236
820.50 1.236
820.60 1.235
820.70 1.235
820.80 1.235
820.90 1.235
821.00 1.235
821.10 1.235
821.20 1.234
821.30 1.234
821.40 1.234
821.50 1.234
821.60 1.234
821.70 1.234
821.80 1.234
821.90 1.233
822.00 1.233
822.10 1.233
822.20 1.233
822.30 1.233
822.40 1.233
822.50 1.232
822.60 1.232
822.70 1.232
822.80 1.232
822.90 1.232
823.00 1.232
823.10 1.232
823.20 1.231
823.30 1.231
823.40 1.231
823.50 1.231
823.60 1.231
823.70 1.231
823.80 1.23
823.90 1.23
824.00 1.23
824.10 1.23
824.20 1.23
824.30 1.23
824.40 1.229
824.50 1.229
824.60 1.229
824.70 1.229
824.80 1.229
824.90 1.229
825.00 1.228
825.10 1.228
825.20 1.228
825.30 1.228
825.40 1.228
825.50 1.228
825.60 1.228
825.70 1.227
825.80 1.227
825.90 1.227
826.00 1.227
826.10 1.227
826.20 1.227
826.30 1.226
826.40 1.226
826.50 1.226
826.60 1.226
826.70 1.226
826.80 1.226
826.90 1.225
827.00 1.225
827.10 1.225
827.20 1.225
827.30 1.225
827.40 1.225
827.50 1.224
827.60 1.224
827.70 1.224
827.80 1.224
827.90 1.224
828.00 1.224
828.10 1.223
828.20 1.223
828.30 1.223
828.40 1.223
828.50 1.223
828.60 1.223
828.70 1.222
828.80 1.222
828.90 1.222
829.00 1.222
829.10 1.222
829.20 1.222
829.30 1.221
829.40 1.221
829.50 1.221
829.60 1.221
829.70 1.221
829.80 1.221
829.90 1.22
830.00 1.22
830.10 1.22
830.20 1.22
830.30 1.22
830.40 1.22
830.50 1.219
830.60 1.219
830.70 1.219
830.80 1.219
830.90 1.219
831.00 1.219
831.10 1.218
831.20 1.218
831.30 1.218
831.40 1.218
831.50 1.218
831.60 1.218
831.70 1.217
831.80 1.217
831.90 1.217
832.00 1.217
832.10 1.217
832.20 1.217
832.30 1.216
832.40 1.216
832.50 1.216
832.60 1.216
832.70 1.216
832.80 1.215
832.90 1.215
833.00 1.215
833.10 1.215
833.20 1.215
833.30 1.215
833.40 1.214
833.50 1.214
833.60 1.214
833.70 1.214
833.80 1.214
833.90 1.214
834.00 1.213
834.10 1.213
834.20 1.213
834.30 1.213
834.40 1.213
834.50 1.213
834.60 1.212
834.70 1.212
834.80 1.212
834.90 1.212
835.00 1.212
835.10 1.211
835.20 1.211
835.30 1.211
835.40 1.211
835.50 1.211
835.60 1.211
835.70 1.21
835.80 1.21
835.90 1.21
836.00 1.21
836.10 1.21
836.20 1.21
836.30 1.209
836.40 1.209
836.50 1.209
836.60 1.209
836.70 1.209
836.80 1.208
836.90 1.208
837.00 1.208
837.10 1.208
837.20 1.208
837.30 1.208
837.40 1.207
837.50 1.207
837.60 1.207
837.70 1.207
837.80 1.207
837.90 1.206
838.00 1.206
838.10 1.206
838.20 1.206
838.30 1.206
838.40 1.206
838.50 1.205
838.60 1.205
838.70 1.205
838.80 1.205
838.90 1.205
839.00 1.204
839.10 1.204
839.20 1.204
839.30 1.204
839.40 1.204
839.50 1.204
839.60 1.203
839.70 1.203
839.80 1.203
839.90 1.203
840.00 1.203
840.10 1.202
840.20 1.202
840.30 1.202
840.40 1.202
840.50 1.202
840.60 1.202
840.70 1.201
840.80 1.201
840.90 1.201
841.00 1.201
841.10 1.201
841.20 1.2
841.30 1.2
841.40 1.2
841.50 1.2
841.60 1.2
841.70 1.2
841.80 1.199
841.90 1.199
842.00 1.199
842.10 1.199
842.20 1.199
842.30 1.198
842.40 1.198
842.50 1.198
842.60 1.198
842.70 1.198
842.80 1.198
842.90 1.197
843.00 1.197
843.10 1.197
843.20 1.197
843.30 1.197
843.40 1.196
843.50 1.196
843.60 1.196
843.70 1.196
843.80 1.196
843.90 1.195
844.00 1.195
844.10 1.195
844.20 1.195
844.30 1.195
844.40 1.194
844.50 1.194
844.60 1.194
844.70 1.194
844.80 1.194
844.90 1.194
845.00 1.193
845.10 1.193
845.20 1.193
845.30 1.193
845.40 1.193
845.50 1.192
845.60 1.192
845.70 1.192
845.80 1.192
845.90 1.192
846.00 1.191
846.10 1.191
846.20 1.191
846.30 1.191
846.40 1.191
846.50 1.191
846.60 1.19
846.70 1.19
846.80 1.19
846.90 1.19
847.00 1.19
847.10 1.189
847.20 1.189
847.30 1.189
847.40 1.189
847.50 1.189
847.60 1.188
847.70 1.188
847.80 1.188
847.90 1.188
848.00 1.188
848.10 1.187
848.20 1.187
848.30 1.187
848.40 1.187
848.50 1.187
848.60 1.186
848.70 1.186
848.80 1.186
848.90 1.186
849.00 1.186
849.10 1.185
849.20 1.185
849.30 1.185
849.40 1.185
849.50 1.185
849.60 1.184
849.70 1.184
849.80 1.184
849.90 1.184
850.00 1.184
850.10 1.184
850.20 1.183
850.30 1.183
850.40 1.183
850.50 1.183
850.60 1.183
850.70 1.182
850.80 1.182
850.90 1.182
851.00 1.182
851.10 1.182
851.20 1.181
851.30 1.181
851.40 1.181
851.50 1.181
851.60 1.181
851.70 1.18
851.80 1.18
851.90 1.18
852.00 1.18
852.10 1.18
852.20 1.179
852.30 1.179
852.40 1.179
852.50 1.179
852.60 1.179
852.70 1.178
852.80 1.178
852.90 1.178
853.00 1.178
853.10 1.178
853.20 1.177
853.30 1.177
853.40 1.177
853.50 1.177
853.60 1.177
853.70 1.176
853.80 1.176
853.90 1.176
854.00 1.176
854.10 1.176
854.20 1.175
854.30 1.175
854.40 1.175
854.50 1.175
854.60 1.175
854.70 1.174
854.80 1.174
854.90 1.174
855.00 1.174
855.10 1.174
855.20 1.173
855.30 1.173
855.40 1.173
855.50 1.173
855.60 1.172
855.70 1.172
855.80 1.172
855.90 1.172
856.00 1.172
856.10 1.171
856.20 1.171
856.30 1.171
856.40 1.171
856.50 1.171
856.60 1.17
856.70 1.17
856.80 1.17
856.90 1.17
857.00 1.17
857.10 1.169
857.20 1.169
857.30 1.169
857.40 1.169
857.50 1.169
857.60 1.168
857.70 1.168
857.80 1.168
857.90 1.168
858.00 1.168
858.10 1.167
858.20 1.167
858.30 1.167
858.40 1.167
858.50 1.167
858.60 1.166
858.70 1.166
858.80 1.166
858.90 1.166
859.00 1.165
859.10 1.165
859.20 1.165
859.30 1.165
859.40 1.165
859.50 1.164
859.60 1.164
859.70 1.164
859.80 1.164
859.90 1.164
860.00 1.163
860.10 1.163
860.20 1.163
860.30 1.163
860.40 1.163
860.50 1.162
860.60 1.162
860.70 1.162
860.80 1.162
860.90 1.161
861.00 1.161
861.10 1.161
861.20 1.161
861.30 1.161
861.40 1.16
861.50 1.16
861.60 1.16
861.70 1.16
861.80 1.16
861.90 1.159
862.00 1.159
862.10 1.159
862.20 1.159
862.30 1.159
862.40 1.158
862.50 1.158
862.60 1.158
862.70 1.158
862.80 1.157
862.90 1.157
863.00 1.157
863.10 1.157
863.20 1.157
863.30 1.156
863.40 1.156
863.50 1.156
863.60 1.156
863.70 1.155
863.80 1.155
863.90 1.155
864.00 1.155
864.10 1.155
864.20 1.154
864.30 1.154
864.40 1.154
864.50 1.154
864.60 1.154
864.70 1.153
864.80 1.153
864.90 1.153
865.00 1.153
865.10 1.152
865.20 1.152
865.30 1.152
865.40 1.152
865.50 1.152
865.60 1.151
865.70 1.151
865.80 1.151
865.90 1.151
866.00 1.151
866.10 1.15
866.20 1.15
866.30 1.15
866.40 1.15
866.50 1.149
866.60 1.149
866.70 1.149
866.80 1.149
866.90 1.149
867.00 1.148
867.10 1.148
867.20 1.148
867.30 1.148
867.40 1.147
867.50 1.147
867.60 1.147
867.70 1.147
867.80 1.147
867.90 1.146
868.00 1.146
868.10 1.146
868.20 1.146
868.30 1.145
868.40 1.145
868.50 1.145
868.60 1.145
868.70 1.144
868.80 1.144
868.90 1.144
869.00 1.144
869.10 1.144
869.20 1.143
869.30 1.143
869.40 1.143
869.50 1.143
869.60 1.142
869.70 1.142
869.80 1.142
869.90 1.142
870.00 1.142
870.10 1.141
870.20 1.141
870.30 1.141
870.40 1.141
870.50 1.14
870.60 1.14
870.70 1.14
870.80 1.14
870.90 1.14
871.00 1.139
871.10 1.139
871.20 1.139
871.30 1.139
871.40 1.138
871.50 1.138
871.60 1.138
871.70 1.138
871.80 1.137
871.90 1.137
872.00 1.137
872.10 1.137
872.20 1.137
872.30 1.136
872.40 1.136
872.50 1.136
872.60 1.136
872.70 1.135
872.80 1.135
872.90 1.135
873.00 1.135
873.10 1.134
873.20 1.134
873.30 1.134
873.40 1.134
873.50 1.133
873.60 1.133
873.70 1.133
873.80 1.133
873.90 1.132
874.00 1.132
874.10 1.132
874.20 1.132
874.30 1.132
874.40 1.131
874.50 1.131
874.60 1.131
874.70 1.131
874.80 1.13
874.90 1.13
875.00 1.13
875.10 1.13
875.20 1.129
875.30 1.129
875.40 1.129
875.50 1.129
875.60 1.128
875.70 1.128
875.80 1.128
875.90 1.128
876.00 1.128
876.10 1.127
876.20 1.127
876.30 1.127
876.40 1.127
876.50 1.126
876.60 1.126
876.70 1.126
876.80 1.126
876.90 1.125
877.00 1.125
877.10 1.125
877.20 1.125
877.30 1.124
877.40 1.124
877.50 1.124
877.60 1.124
877.70 1.123
877.80 1.123
877.90 1.123
878.00 1.123
878.10 1.122
878.20 1.122
878.30 1.122
878.40 1.122
878.50 1.121
878.60 1.121
878.70 1.121
878.80 1.121
878.90 1.12
879.00 1.12
879.10 1.12
879.20 1.12
879.30 1.119
879.40 1.119
879.50 1.119
879.60 1.119
879.70 1.118
879.80 1.118
879.90 1.118
880.00 1.118
880.10 1.117
880.20 1.117
880.30 1.117
880.40 1.117
880.50 1.116
880.60 1.116
880.70 1.116
880.80 1.116
880.90 1.115
881.00 1.115
881.10 1.115
881.20 1.115
881.30 1.114
881.40 1.114
881.50 1.114
881.60 1.114
881.70 1.113
881.80 1.113
881.90 1.113
882.00 1.113
882.10 1.112
882.20 1.112
882.30 1.112
882.40 1.112
882.50 1.111
882.60 1.111
882.70 1.111
882.80 1.111
882.90 1.11
883.00 1.11
883.10 1.11
883.20 1.109
883.30 1.109
883.40 1.109
883.50 1.109
883.60 1.108
883.70 1.108
883.80 1.108
883.90 1.108
884.00 1.107
884.10 1.107
884.20 1.107
884.30 1.107
884.40 1.106
884.50 1.106
884.60 1.106
884.70 1.105
884.80 1.105
884.90 1.105
885.00 1.105
885.10 1.104
885.20 1.104
885.30 1.104
885.40 1.104
885.50 1.103
885.60 1.103
885.70 1.103
885.80 1.103
885.90 1.102
886.00 1.102
886.10 1.102
886.20 1.101
886.30 1.101
886.40 1.101
886.50 1.101
886.60 1.1
886.70 1.1
886.80 1.1
886.90 1.1
887.00 1.099
887.10 1.099
887.20 1.099
887.30 1.099
887.40 1.098
887.50 1.098
887.60 1.098
887.70 1.097
887.80 1.097
887.90 1.097
888.00 1.097
888.10 1.096
888.20 1.096
888.30 1.096
888.40 1.095
888.50 1.095
888.60 1.095
888.70 1.095
888.80 1.094
888.90 1.094
889.00 1.094
889.10 1.093
889.20 1.093
889.30 1.093
889.40 1.093
889.50 1.092
889.60 1.092
889.70 1.092
889.80 1.091
889.90 1.091
890.00 1.091
890.10 1.091
890.20 1.09
890.30 1.09
890.40 1.09
890.50 1.089
890.60 1.089
890.70 1.089
890.80 1.089
890.90 1.088
891.00 1.088
891.10 1.088
891.20 1.088
891.30 1.087
891.40 1.087
891.50 1.087
891.60 1.086
891.70 1.086
891.80 1.086
891.90 1.086
892.00 1.085
892.10 1.085
892.20 1.085
892.30 1.084
892.40 1.084
892.50 1.084
892.60 1.084
892.70 1.083
892.80 1.083
892.90 1.083
893.00 1.083
893.10 1.082
893.20 1.082
893.30 1.082
893.40 1.082
893.50 1.081
893.60 1.081
893.70 1.081
893.80 1.08
893.90 1.08
894.00 1.08
894.10 1.08
894.20 1.079
894.30 1.079
894.40 1.079
894.50 1.079
894.60 1.078
894.70 1.078
894.80 1.078
894.90 1.078
895.00 1.077
895.10 1.077
895.20 1.077
895.30 1.076
895.40 1.076
895.50 1.076
895.60 1.076
895.70 1.075
895.80 1.075
895.90 1.075
896.00 1.075
896.10 1.074
896.20 1.074
896.30 1.074
896.40 1.074
896.50 1.073
896.60 1.073
896.70 1.073
896.80 1.073
896.90 1.072
897.00 1.072
897.10 1.072
897.20 1.071
897.30 1.071
897.40 1.071
897.50 1.07
897.60 1.07
897.70 1.07
897.80 1.069
897.90 1.069
898.00 1.069
898.10 1.068
898.20 1.068
898.30 1.068
898.40 1.067
898.50 1.067
898.60 1.067
898.70 1.067
898.80 1.066
898.90 1.066
899.00 1.066
899.10 1.065
899.20 1.065
899.30 1.065
899.40 1.064
899.50 1.064
899.60 1.064
899.70 1.063
899.80 1.063
899.90 1.063
900.00 1.062
900.10 1.062
900.20 1.062
900.30 1.061
900.40 1.061
900.50 1.061
900.60 1.06
900.70 1.06
900.80 1.06
900.90 1.059
901.00 1.059
901.10 1.059
901.20 1.059
901.30 1.058
901.40 1.058
901.50 1.058
901.60 1.057
901.70 1.057
901.80 1.057
901.90 1.056
902.00 1.056
902.10 1.056
902.20 1.055
902.30 1.055
902.40 1.054
902.50 1.054
902.60 1.054
902.70 1.053
902.80 1.053
902.90 1.052
903.00 1.052
903.10 1.051
903.20 1.051
903.30 1.051
903.40 1.05
903.50 1.05
903.60 1.049
903.70 1.049
903.80 1.049
903.90 1.048
904.00 1.048
904.10 1.047
904.20 1.047
904.30 1.047
904.40 1.046
904.50 1.046
904.60 1.045
904.70 1.045
904.80 1.044
904.90 1.044
905.00 1.044
905.10 1.043
905.20 1.043
905.30 1.042
905.40 1.042
905.50 1.042
905.60 1.041
905.70 1.041
905.80 1.04
905.90 1.04
906.00 1.04
906.10 1.039
906.20 1.039
906.30 1.038
906.40 1.038
906.50 1.038
906.60 1.037
906.70 1.037
906.80 1.036
906.90 1.036
907.00 1.036
907.10 1.035
907.20 1.035
907.30 1.034
907.40 1.034
907.50 1.034
907.60 1.033
907.70 1.033
907.80 1.033
907.90 1.032
908.00 1.032
908.10 1.032
908.20 1.031
908.30 1.031
908.40 1.03
908.50 1.03
908.60 1.03
908.70 1.029
908.80 1.029
908.90 1.029
909.00 1.028
909.10 1.028
909.20 1.027
909.30 1.027
909.40 1.027
909.50 1.026
909.60 1.026
909.70 1.026
909.80 1.025
909.90 1.025
910.00 1.025
910.10 1.024
910.20 1.024
910.30 1.023
910.40 1.023
910.50 1.023
910.60 1.022
910.70 1.022
910.80 1.022
910.90 1.021
911.00 1.021
911.10 1.021
911.20 1.02
911.30 1.02
911.40 1.019
911.50 1.019
911.60 1.019
911.70 1.018
911.80 1.018
911.90 1.018
912.00 1.017
912.10 1.017
912.20 1.017
912.30 1.016
912.40 1.016
912.50 1.016
912.60 1.015
912.70 1.015
912.80 1.015
912.90 1.014
913.00 1.014
913.10 1.014
913.20 1.013
913.30 1.013
913.40 1.013
913.50 1.012
913.60 1.012
913.70 1.012
913.80 1.011
913.90 1.011
914.00 1.011
914.10 1.01
914.20 1.01
914.30 1.01
914.40 1.009
914.50 1.009
914.60 1.009
914.70 1.008
914.80 1.008
914.90 1.008
915.00 1.007
915.10 1.007
915.20 1.007
915.30 1.006
915.40 1.006
915.50 1.006
915.60 1.005
915.70 1.005
915.80 1.005
915.90 1.004
916.00 1.004
916.10 1.004
916.20 1.003
916.30 1.003
916.40 1.003
916.50 1.002
916.60 1.002
916.70 1.002
916.80 1.001
916.90 1.001
917.00 1.001
917.10 1
917.20 0.9999
917.30 0.9995
917.40 0.9991
917.50 0.9987
917.60 0.9984
917.70 0.998
917.80 0.9976
917.90 0.9973
918.00 0.9969
918.10 0.9965
918.20 0.9962
918.30 0.9958
918.40 0.9954
918.50 0.995
918.60 0.9947
918.70 0.9943
918.80 0.9939
918.90 0.9936
919.00 0.9932
919.10 0.9928
919.20 0.9925
919.30 0.9921
919.40 0.9917
919.50 0.9914
919.60 0.991
919.70 0.9906
919.80 0.9903
919.90 0.9899
920.00 0.9895
920.10 0.9891
920.20 0.9888
920.30 0.9884
920.40 0.988
920.50 0.9877
920.60 0.9873
920.70 0.9869
920.80 0.9866
920.90 0.9862
921.00 0.9858
921.10 0.9855
921.20 0.9851
921.30 0.9847
921.40 0.9844
921.50 0.984
921.60 0.9837
921.70 0.9833
921.80 0.9829
921.90 0.9826
922.00 0.9822
922.10 0.9818
922.20 0.9814
922.30 0.981
922.40 0.9807
922.50 0.9803
922.60 0.9799
922.70 0.9795
922.80 0.9791
922.90 0.9787
923.00 0.9784
923.10 0.978
923.20 0.9776
923.30 0.9772
923.40 0.9768
923.50 0.9765
923.60 0.9761
923.70 0.9757
923.80 0.9753
923.90 0.9749
924.00 0.9745
924.10 0.9742
924.20 0.9738
924.30 0.9734
924.40 0.973
924.50 0.9726
924.60 0.9723
924.70 0.9719
924.80 0.9715
924.90 0.9711
925.00 0.9707
925.10 0.9704
925.20 0.97
925.30 0.9696
925.40 0.9692
925.50 0.9688
925.60 0.9685
925.70 0.9681
925.80 0.9677
925.90 0.9673
926.00 0.967
926.10 0.9666
926.20 0.9662
926.30 0.9658
926.40 0.9654
926.50 0.9651
926.60 0.9647
926.70 0.9643
926.80 0.9639
926.90 0.9636
927.00 0.9632
927.10 0.9628
927.20 0.9624
927.30 0.962
927.40 0.9616
927.50 0.9612
927.60 0.9608
927.70 0.9604
927.80 0.96
927.90 0.9596
928.00 0.9593
928.10 0.9589
928.20 0.9585
928.30 0.9581
928.40 0.9577
928.50 0.9573
928.60 0.9569
928.70 0.9565
928.80 0.9561
928.90 0.9557
929.00 0.9553
929.10 0.955
929.20 0.9546
929.30 0.9542
929.40 0.9538
929.50 0.9534
929.60 0.953
929.70 0.9526
929.80 0.9522
929.90 0.9518
930.00 0.9515
930.10 0.9511
930.20 0.9507
930.30 0.9503
930.40 0.9499
930.50 0.9495
930.60 0.9491
930.70 0.9487
930.80 0.9483
930.90 0.948
931.00 0.9476
931.10 0.9472
931.20 0.9468
931.30 0.9464
931.40 0.946
931.50 0.9456
931.60 0.9452
931.70 0.9449
931.80 0.9445
931.90 0.9441
932.00 0.9437
932.10 0.9433
932.20 0.9429
932.30 0.9425
932.40 0.9421
932.50 0.9417
932.60 0.9413
932.70 0.9409
932.80 0.9405
932.90 0.9401
933.00 0.9397
933.10 0.9393
933.20 0.9389
933.30 0.9385
933.40 0.9381
933.50 0.9377
933.60 0.9373
933.70 0.9369
933.80 0.9366
933.90 0.9362
934.00 0.9358
934.10 0.9354
934.20 0.935
934.30 0.9346
934.40 0.9342
934.50 0.9338
934.60 0.9334
934.70 0.933
934.80 0.9326
934.90 0.9322
935.00 0.9318
935.10 0.9313
935.20 0.9309
935.30 0.9305
935.40 0.9301
935.50 0.9297
935.60 0.9293
935.70 0.9289
935.80 0.9285
935.90 0.9281
936.00 0.9277
936.10 0.9273
936.20 0.9269
936.30 0.9265
936.40 0.9261
936.50 0.9257
936.60 0.9253
936.70 0.9249
936.80 0.9245
936.90 0.9241
937.00 0.9237
937.10 0.9233
937.20 0.9229
937.30 0.9225
937.40 0.9221
937.50 0.9217
937.60 0.9213
937.70 0.9209
937.80 0.9205
937.90 0.9201
938.00 0.9197
938.10 0.9192
938.20 0.9188
938.30 0.9184
938.40 0.918
938.50 0.9176
938.60 0.9172
938.70 0.9168
938.80 0.9164
938.90 0.9159
939.00 0.9155
939.10 0.9151
939.20 0.9147
939.30 0.9143
939.40 0.9139
939.50 0.9135
939.60 0.913
939.70 0.9126
939.80 0.9122
939.90 0.9118
940.00 0.9114
940.10 0.911
940.20 0.9106
940.30 0.9102
940.40 0.9097
940.50 0.9093
940.60 0.9089
940.70 0.9085
940.80 0.9081
940.90 0.9077
941.00 0.9073
941.10 0.9069
941.20 0.9064
941.30 0.906
941.40 0.9056
941.50 0.9052
941.60 0.9048
941.70 0.9044
941.80 0.904
941.90 0.9036
942.00 0.9032
942.10 0.9028
942.20 0.9023
942.30 0.9019
942.40 0.9015
942.50 0.9011
942.60 0.9007
942.70 0.9003
942.80 0.8999
942.90 0.8994
943.00 0.899
943.10 0.8986
943.20 0.8982
943.30 0.8978
943.40 0.8974
943.50 0.8969
943.60 0.8965
943.70 0.8961
943.80 0.8957
943.90 0.8953
944.00 0.8949
944.10 0.8945
944.20 0.894
944.30 0.8936
944.40 0.8932
944.50 0.8928
944.60 0.8924
944.70 0.892
944.80 0.8915
944.90 0.8911
945.00 0.8907
945.10 0.8903
945.20 0.8899
945.30 0.8894
945.40 0.889
945.50 0.8886
945.60 0.8882
945.70 0.8878
945.80 0.8874
945.90 0.8869
946.00 0.8865
946.10 0.8861
946.20 0.8857
946.30 0.8853
946.40 0.8848
946.50 0.8844
946.60 0.884
946.70 0.8836
946.80 0.8832
946.90 0.8828
947.00 0.8823
947.10 0.8819
947.20 0.8815
947.30 0.8811
947.40 0.8807
947.50 0.8802
947.60 0.8798
947.70 0.8794
947.80 0.879
947.90 0.8785
948.00 0.8781
948.10 0.8777
948.20 0.8772
948.30 0.8768
948.40 0.8764
948.50 0.876
948.60 0.8756
948.70 0.8751
948.80 0.8747
948.90 0.8743
949.00 0.8739
949.10 0.8734
949.20 0.873
949.30 0.8726
949.40 0.8722
949.50 0.8717
949.60 0.8713
949.70 0.8709
949.80 0.8705
949.90 0.87
950.00 0.8696
950.10 0.8692
950.20 0.8688
950.30 0.8684
950.40 0.8679
950.50 0.8675
950.60 0.8671
950.70 0.8667
950.80 0.8663
950.90 0.8658
951.00 0.8654
951.10 0.865
951.20 0.8646
951.30 0.8641
951.40 0.8637
951.50 0.8633
951.60 0.8629
951.70 0.8625
951.80 0.862
951.90 0.8616
952.00 0.8612
952.10 0.8608
952.20 0.8604
952.30 0.8599
952.40 0.8595
952.50 0.8591
952.60 0.8587
952.70 0.8583
952.80 0.8579
952.90 0.8574
953.00 0.857
953.10 0.8566
953.20 0.8562
953.30 0.8557
953.40 0.8553
953.50 0.8549
953.60 0.8545
953.70 0.854
953.80 0.8536
953.90 0.8532
954.00 0.8528
954.10 0.8523
954.20 0.8519
954.30 0.8515
954.40 0.8511
954.50 0.8506
954.60 0.8502
954.70 0.8498
954.80 0.8494
954.90 0.849
955.00 0.8485
955.10 0.8481
955.20 0.8477
955.30 0.8473
955.40 0.8469
955.50 0.8464
955.60 0.846
955.70 0.8456
955.80 0.8452
955.90 0.8447
956.00 0.8443
956.10 0.8439
956.20 0.8434
956.30 0.843
956.40 0.8426
956.50 0.8421
956.60 0.8417
956.70 0.8413
956.80 0.8409
956.90 0.8404
957.00 0.84
957.10 0.8396
957.20 0.8392
957.30 0.8387
957.40 0.8383
957.50 0.8379
957.60 0.8375
957.70 0.837
957.80 0.8366
957.90 0.8362
958.00 0.8358
958.10 0.8353
958.20 0.8349
958.30 0.8345
958.40 0.8341
958.50 0.8336
958.60 0.8332
958.70 0.8328
958.80 0.8324
958.90 0.8319
959.00 0.8315
959.10 0.8311
959.20 0.8307
959.30 0.8303
959.40 0.8298
959.50 0.8294
959.60 0.829
959.70 0.8286
959.80 0.8281
959.90 0.8277
960.00 0.8273
960.10 0.8269
960.20 0.8264
960.30 0.826
960.40 0.8256
960.50 0.8252
960.60 0.8248
960.70 0.8243
960.80 0.8239
960.90 0.8235
961.00 0.8231
961.10 0.8226
961.20 0.8222
961.30 0.8218
961.40 0.8214
961.50 0.821
961.60 0.8205
961.70 0.8201
961.80 0.8197
961.90 0.8193
962.00 0.8189
962.10 0.8185
962.20 0.818
962.30 0.8176
962.40 0.8172
962.50 0.8168
962.60 0.8163
962.70 0.8159
962.80 0.8155
962.90 0.8151
963.00 0.8147
963.10 0.8142
963.20 0.8138
963.30 0.8134
963.40 0.813
963.50 0.8126
963.60 0.8121
963.70 0.8117
963.80 0.8113
963.90 0.8109
964.00 0.8105
964.10 0.8101
964.20 0.8096
964.30 0.8092
964.40 0.8088
964.50 0.8084
964.60 0.808
964.70 0.8075
964.80 0.8071
964.90 0.8067
965.00 0.8063
965.10 0.8058
965.20 0.8054
965.30 0.805
965.40 0.8046
965.50 0.8042
965.60 0.8037
965.70 0.8033
965.80 0.8029
965.90 0.8025
966.00 0.802
966.10 0.8016
966.20 0.8012
966.30 0.8008
966.40 0.8004
966.50 0.7999
966.60 0.7995
966.70 0.7991
966.80 0.7987
966.90 0.7983
967.00 0.7979
967.10 0.7974
967.20 0.797
967.30 0.7966
967.40 0.7962
967.50 0.7958
967.60 0.7954
967.70 0.7949
967.80 0.7945
967.90 0.7941
968.00 0.7937
968.10 0.7933
968.20 0.7929
968.30 0.7924
968.40 0.792
968.50 0.7916
968.60 0.7912
968.70 0.7908
968.80 0.7904
968.90 0.79
969.00 0.7896
969.10 0.7891
969.20 0.7887
969.30 0.7883
969.40 0.7879
969.50 0.7875
969.60 0.7871
969.70 0.7867
969.80 0.7863
969.90 0.7859
970.00 0.7854
970.10 0.785
970.20 0.7846
970.30 0.7842
970.40 0.7838
970.50 0.7834
970.60 0.783
970.70 0.7826
970.80 0.7822
970.90 0.7818
971.00 0.7813
971.10 0.7809
971.20 0.7805
971.30 0.7801
971.40 0.7797
971.50 0.7793
971.60 0.7789
971.70 0.7785
971.80 0.7781
971.90 0.7777
972.00 0.7772
972.10 0.7768
972.20 0.7764
972.30 0.776
972.40 0.7756
972.50 0.7752
972.60 0.7748
972.70 0.7744
972.80 0.774
972.90 0.7736
973.00 0.7732
973.10 0.7728
973.20 0.7724
973.30 0.772
973.40 0.7716
973.50 0.7712
973.60 0.7708
973.70 0.7704
973.80 0.77
973.90 0.7696
974.00 0.7692
974.10 0.7688
974.20 0.7684
974.30 0.7679
974.40 0.7675
974.50 0.7671
974.60 0.7667
974.70 0.7663
974.80 0.7659
974.90 0.7655
975.00 0.7651
975.10 0.7647
975.20 0.7643
975.30 0.7639
975.40 0.7635
975.50 0.7631
975.60 0.7627
975.70 0.7623
975.80 0.7619
975.90 0.7615
976.00 0.7611
976.10 0.7607
976.20 0.7603
976.30 0.7599
976.40 0.7595
976.50 0.7591
976.60 0.7587
976.70 0.7583
976.80 0.7578
976.90 0.7574
977.00 0.757
977.10 0.7567
977.20 0.7563
977.30 0.7559
977.40 0.7555
977.50 0.7551
977.60 0.7547
977.70 0.7543
977.80 0.7539
977.90 0.7535
978.00 0.7531
978.10 0.7527
978.20 0.7523
978.30 0.7519
978.40 0.7515
978.50 0.7511
978.60 0.7508
978.70 0.7504
978.80 0.75
978.90 0.7496
979.00 0.7492
979.10 0.7488
979.20 0.7484
979.30 0.748
979.40 0.7476
979.50 0.7472
979.60 0.7468
979.70 0.7464
979.80 0.7461
979.90 0.7457
980.00 0.7453
980.10 0.7449
980.20 0.7445
980.30 0.7441
980.40 0.7437
980.50 0.7433
980.60 0.7429
980.70 0.7425
980.80 0.7422
980.90 0.7418
981.00 0.7414
981.10 0.741
981.20 0.7406
981.30 0.7402
981.40 0.7398
981.50 0.7394
981.60 0.739
981.70 0.7387
981.80 0.7383
981.90 0.7379
982.00 0.7375
982.10 0.7371
982.20 0.7367
982.30 0.7363
982.40 0.736
982.50 0.7356
982.60 0.7352
982.70 0.7348
982.80 0.7344
982.90 0.734
983.00 0.7337
983.10 0.7333
983.20 0.7329
983.30 0.7325
983.40 0.7321
983.50 0.7317
983.60 0.7314
983.70 0.731
983.80 0.7306
983.90 0.7302
984.00 0.7298
984.10 0.7295
984.20 0.7291
984.30 0.7287
984.40 0.7283
984.50 0.7279
984.60 0.7276
984.70 0.7272
984.80 0.7268
984.90 0.7264
985.00 0.7261
985.10 0.7257
985.20 0.7253
985.30 0.725
985.40 0.7246
985.50 0.7242
985.60 0.7239
985.70 0.7235
985.80 0.7231
985.90 0.7228
986.00 0.7224
986.10 0.722
986.20 0.7217
986.30 0.7213
986.40 0.721
986.50 0.7206
986.60 0.7202
986.70 0.7199
986.80 0.7195
986.90 0.7191
987.00 0.7188
987.10 0.7184
987.20 0.718
987.30 0.7176
987.40 0.7173
987.50 0.7169
987.60 0.7165
987.70 0.7161
987.80 0.7158
987.90 0.7154
988.00 0.715
988.10 0.7146
988.20 0.7143
988.30 0.7139
988.40 0.7135
988.50 0.7131
988.60 0.7128
988.70 0.7124
988.80 0.712
988.90 0.7116
989.00 0.7113
989.10 0.7109
989.20 0.7105
989.30 0.7101
989.40 0.7097
989.50 0.7094
989.60 0.709
989.70 0.7086
989.80 0.7082
989.90 0.7079
990.00 0.7075
990.10 0.7071
990.20 0.7068
990.30 0.7064
990.40 0.706
990.50 0.7056
990.60 0.7053
990.70 0.7049
990.80 0.7045
990.90 0.7041
991.00 0.7038
991.10 0.7034
991.20 0.703
991.30 0.7026
991.40 0.7023
991.50 0.7019
991.60 0.7015
991.70 0.7012
991.80 0.7008
991.90 0.7004
992.00 0.7
992.10 0.6997
992.20 0.6993
992.30 0.6989
992.40 0.6986
992.50 0.6982
992.60 0.6978
992.70 0.6974
992.80 0.6971
992.90 0.6967
993.00 0.6963
993.10 0.6959
993.20 0.6956
993.30 0.6952
993.40 0.6948
993.50 0.6945
993.60 0.6941
993.70 0.6937
993.80 0.6933
993.90 0.693
994.00 0.6926
994.10 0.6922
994.20 0.6919
994.30 0.6915
994.40 0.6911
994.50 0.6907
994.60 0.6904
994.70 0.69
994.80 0.6895
994.90 0.6891
995.00 0.6887
995.10 0.6883
995.20 0.6879
995.30 0.6875
995.40 0.687
995.50 0.6866
995.60 0.6862
995.70 0.6858
995.80 0.6855
995.90 0.6851
996.00 0.6847
996.10 0.6844
996.20 0.684
996.30 0.6836
996.40 0.6833
996.50 0.6829
996.60 0.6825
996.70 0.6822
996.80 0.6818
996.90 0.6815
997.00 0.6811
997.10 0.6807
997.20 0.6804
997.30 0.68
997.40 0.6797
997.50 0.6793
997.60 0.6789
997.70 0.6786
997.80 0.6782
997.90 0.6779
998.00 0.6775
998.10 0.6772
998.20 0.6768
998.30 0.6765
998.40 0.6761
998.50 0.6757
998.60 0.6754
998.70 0.675
998.80 0.6747
998.90 0.6743
999.00 0.674
999.10 0.6736
999.20 0.6733
999.30 0.6729
999.40 0.6726
999.50 0.6722
999.60 0.6719
999.70 0.6715
999.80 0.6712
999.90 0.6708
1000.00 0.6705
1000.10 0.6701
1000.20 0.6698
1000.30 0.6694
1000.40 0.6691
1000.50 0.6687
1000.60 0.6684
1000.70 0.668
1000.80 0.6677
1000.90 0.6673
1001.00 0.667
1001.10 0.6666
1001.20 0.6663
1001.30 0.666
1001.40 0.6656
1001.50 0.6653
1001.60 0.6649
1001.70 0.6646
1001.80 0.6642
1001.90 0.6639
1002.00 0.6636
1002.10 0.6632
1002.20 0.6629
1002.30 0.6626
1002.40 0.6622
1002.50 0.6619
1002.60 0.6616
1002.70 0.6612
1002.80 0.6609
1002.90 0.6605
1003.00 0.6602
1003.10 0.6599
1003.20 0.6595
1003.30 0.6592
1003.40 0.6589
1003.50 0.6585
1003.60 0.6582
1003.70 0.6579
1003.80 0.6575
1003.90 0.6572
1004.00 0.6569
1004.10 0.6566
1004.20 0.6562
1004.30 0.6559
1004.40 0.6556
1004.50 0.6552
1004.60 0.6549
1004.70 0.6546
1004.80 0.6543
1004.90 0.6539
1005.00 0.6535
1005.10 0.6532
1005.20 0.6528
1005.30 0.6525
1005.40 0.6522
1005.50 0.6519
1005.60 0.6515
1005.70 0.6512
1005.80 0.6509
1005.90 0.6506
1006.00 0.6502
1006.10 0.6499
1006.20 0.6496
1006.30 0.6493
1006.40 0.649
1006.50 0.6487
1006.60 0.6483
1006.70 0.648
1006.80 0.6477
1006.90 0.6474
1007.00 0.6471
1007.10 0.6468
1007.20 0.6465
1007.30 0.6462
1007.40 0.6458
1007.50 0.6455
1007.60 0.6452
1007.70 0.6449
1007.80 0.6446
1007.90 0.6443
1008.00 0.644
1008.10 0.6437
1008.20 0.6434
1008.30 0.6431
1008.40 0.6428
1008.50 0.6425
1008.60 0.6422
1008.70 0.6418
1008.80 0.6415
1008.90 0.6412
1009.00 0.6409
1009.10 0.6406
1009.20 0.6403
1009.30 0.64
1009.40 0.6397
1009.50 0.6394
1009.60 0.6391
1009.70 0.6388
1009.80 0.6385
1009.90 0.6382
1010.00 0.6379
1010.10 0.6376
1010.20 0.6373
1010.30 0.637
1010.40 0.6367
1010.50 0.6364
1010.60 0.6361
1010.70 0.6358
1010.80 0.6355
1010.90 0.6352
1011.00 0.6349
1011.10 0.6346
1011.20 0.6343
1011.30 0.6341
1011.40 0.6338
1011.50 0.6335
1011.60 0.6332
1011.70 0.6329
1011.80 0.6326
1011.90 0.6323
1012.00 0.632
1012.10 0.6317
1012.20 0.6314
1012.30 0.6312
1012.40 0.6309
1012.50 0.6306
1012.60 0.6303
1012.70 0.63
1012.80 0.6297
1012.90 0.6295
1013.00 0.6292
1013.10 0.6289
1013.20 0.6286
1013.30 0.6283
1013.40 0.628
1013.50 0.6278
1013.60 0.6275
1013.70 0.6272
1013.80 0.6269
1013.90 0.6266
1014.00 0.6264
1014.10 0.6261
1014.20 0.6258
1014.30 0.6255
1014.40 0.6253
1014.50 0.625
1014.60 0.6247
1014.70 0.6245
1014.80 0.6242
1014.90 0.6239
1015.00 0.6237
1015.10 0.6234
1015.20 0.6232
1015.30 0.6229
1015.40 0.6227
1015.50 0.6224
1015.60 0.6221
1015.70 0.6219
1015.80 0.6216
1015.90 0.6214
1016.00 0.6211
1016.10 0.6209
1016.20 0.6206
1016.30 0.6204
1016.40 0.6201
1016.50 0.6198
1016.60 0.6196
1016.70 0.6193
1016.80 0.6191
1016.90 0.6188
1017.00 0.6185
1017.10 0.6183
1017.20 0.618
1017.30 0.6178
1017.40 0.6175
1017.50 0.6172
1017.60 0.617
1017.70 0.6167
1017.80 0.6164
1017.90 0.6162
1018.00 0.6159
1018.10 0.6156
1018.20 0.6154
1018.30 0.6151
1018.40 0.6149
1018.50 0.6146
1018.60 0.6143
1018.70 0.6141
1018.80 0.6138
1018.90 0.6136
1019.00 0.6133
1019.10 0.613
1019.20 0.6128
1019.30 0.6125
1019.40 0.6123
1019.50 0.612
1019.60 0.6118
1019.70 0.6115
1019.80 0.6112
1019.90 0.611
1020.00 0.6107
1020.10 0.6105
1020.20 0.6102
1020.30 0.61
1020.40 0.6097
1020.50 0.6094
1020.60 0.6092
1020.70 0.6089
1020.80 0.6087
1020.90 0.6084
1021.00 0.6082
1021.10 0.6079
1021.20 0.6077
1021.30 0.6074
1021.40 0.6072
1021.50 0.6069
1021.60 0.6067
1021.70 0.6064
1021.80 0.6062
1021.90 0.6059
1022.00 0.6057
1022.10 0.6054
1022.20 0.6052
1022.30 0.6049
1022.40 0.6047
1022.50 0.6044
1022.60 0.6042
1022.70 0.6039
1022.80 0.6037
1022.90 0.6034
1023.00 0.6032
1023.10 0.6029
1023.20 0.6027
1023.30 0.6024
1023.40 0.6022
1023.50 0.6019
1023.60 0.6017
1023.70 0.6014
1023.80 0.6012
1023.90 0.6009
1024.00 0.6007
1024.10 0.6005
1024.20 0.6002
1024.30 0.6
1024.40 0.5997
1024.50 0.5995
1024.60 0.5992
1024.70 0.599
1024.80 0.5987
1024.90 0.5985
1025.00 0.5982
1025.10 0.598
1025.20 0.5978
1025.30 0.5975
1025.40 0.5973
1025.50 0.597
1025.60 0.5968
1025.70 0.5965
1025.80 0.5963
1025.90 0.5961
1026.00 0.5958
1026.10 0.5956
1026.20 0.5953
1026.30 0.5951
1026.40 0.5948
1026.50 0.5946
1026.60 0.5944
1026.70 0.5941
1026.80 0.5939
1026.90 0.5936
1027.00 0.5934
1027.10 0.5932
1027.20 0.5929
1027.30 0.5927
1027.40 0.5925
1027.50 0.5923
1027.60 0.592
1027.70 0.5918
1027.80 0.5916
1027.90 0.5913
1028.00 0.5911
1028.10 0.5909
1028.20 0.5907
1028.30 0.5904
1028.40 0.5902
1028.50 0.59
1028.60 0.5898
1028.70 0.5895
1028.80 0.5893
1028.90 0.5891
1029.00 0.5888
1029.10 0.5886
1029.20 0.5884
1029.30 0.5882
1029.40 0.5879
1029.50 0.5877
1029.60 0.5875
1029.70 0.5873
1029.80 0.587
1029.90 0.5868
1030.00 0.5866
1030.10 0.5863
1030.20 0.5861
1030.30 0.5859
1030.40 0.5857
1030.50 0.5854
1030.60 0.5852
1030.70 0.585
1030.80 0.5848
1030.90 0.5845
1031.00 0.5843
1031.10 0.5841
1031.20 0.5839
1031.30 0.5836
1031.40 0.5834
1031.50 0.5832
1031.60 0.583
1031.70 0.5827
1031.80 0.5825
1031.90 0.5823
1032.00 0.5821
1032.10 0.5818
1032.20 0.5816
1032.30 0.5814
1032.40 0.5812
1032.50 0.581
1032.60 0.5808
1032.70 0.5806
1032.80 0.5804
1032.90 0.5801
1033.00 0.5799
1033.10 0.5797
1033.20 0.5795
1033.30 0.5793
1033.40 0.5791
1033.50 0.5789
1033.60 0.5786
1033.70 0.5784
1033.80 0.5782
1033.90 0.578
1034.00 0.5778
1034.10 0.5776
1034.20 0.5774
1034.30 0.5772
1034.40 0.5769
1034.50 0.5767
1034.60 0.5765
1034.70 0.5763
1034.80 0.5761
1034.90 0.5759
1035.00 0.5757
1035.10 0.5755
1035.20 0.5753
1035.30 0.575
1035.40 0.5748
1035.50 0.5746
1035.60 0.5744
1035.70 0.5742
1035.80 0.574
1035.90 0.5738
1036.00 0.5736
1036.10 0.5734
1036.20 0.5731
1036.30 0.5729
1036.40 0.5727
1036.50 0.5725
1036.60 0.5723
1036.70 0.5721
1036.80 0.5719
1036.90 0.5717
1037.00 0.5715
1037.10 0.5713
1037.20 0.5711
1037.30 0.5709
1037.40 0.5707
1037.50 0.5705
1037.60 0.5703
1037.70 0.5701
1037.80 0.5699
1037.90 0.5697
1038.00 0.5695
1038.10 0.5693
1038.20 0.5691
1038.30 0.5689
1038.40 0.5687
1038.50 0.5685
1038.60 0.5683
1038.70 0.5681
1038.80 0.5679
1038.90 0.5677
1039.00 0.5675
1039.10 0.5673
1039.20 0.5671
1039.30 0.5669
1039.40 0.5667
1039.50 0.5665
1039.60 0.5664
1039.70 0.5662
1039.80 0.566
1039.90 0.5658
1040.00 0.5656
1040.10 0.5654
1040.20 0.5652
1040.30 0.565
1040.40 0.5648
1040.50 0.5646
1040.60 0.5644
1040.70 0.5642
1040.80 0.564
1040.90 0.5638
1041.00 0.5636
1041.10 0.5634
1041.20 0.5632
1041.30 0.563
1041.40 0.5628
1041.50 0.5627
1041.60 0.5625
1041.70 0.5623
1041.80 0.5621
1041.90 0.5619
1042.00 0.5617
1042.10 0.5615
1042.20 0.5613
1042.30 0.5611
1042.40 0.561
1042.50 0.5608
1042.60 0.5606
1042.70 0.5604
1042.80 0.5602
1042.90 0.56
1043.00 0.5599
1043.10 0.5597
1043.20 0.5595
1043.30 0.5593
1043.40 0.5591
1043.50 0.559
1043.60 0.5588
1043.70 0.5586
1043.80 0.5584
1043.90 0.5582
1044.00 0.5581
1044.10 0.5579
1044.20 0.5577
1044.30 0.5575
1044.40 0.5573
1044.50 0.5572
1044.60 0.557
1044.70 0.5568
1044.80 0.5566
1044.90 0.5564
1045.00 0.5563
1045.10 0.5561
1045.20 0.5559
1045.30 0.5557
1045.40 0.5555
1045.50 0.5554
1045.60 0.5552
1045.70 0.555
1045.80 0.5548
1045.90 0.5546
1046.00 0.5545
1046.10 0.5543
1046.20 0.5541
1046.30 0.5539
1046.40 0.5537
1046.50 0.5536
1046.60 0.5534
1046.70 0.5532
1046.80 0.553
1046.90 0.5529
1047.00 0.5527
1047.10 0.5525
1047.20 0.5523
1047.30 0.5522
1047.40 0.552
1047.50 0.5518
1047.60 0.5517
1047.70 0.5515
1047.80 0.5513
1047.90 0.5512
1048.00 0.551
1048.10 0.5508
1048.20 0.5507
1048.30 0.5505
1048.40 0.5504
1048.50 0.5502
1048.60 0.55
1048.70 0.5499
1048.80 0.5497
1048.90 0.5495
1049.00 0.5494
1049.10 0.5492
1049.20 0.549
1049.30 0.5489
1049.40 0.5487
1049.50 0.5485
1049.60 0.5484
1049.70 0.5482
1049.80 0.548
1049.90 0.5479
1050.00 0.5477
1050.10 0.5475
1050.20 0.5474
1050.30 0.5472
1050.40 0.547
1050.50 0.5469
1050.60 0.5467
1050.70 0.5466
1050.80 0.5464
1050.90 0.5462
1051.00 0.5461
1051.10 0.5459
1051.20 0.5457
1051.30 0.5456
1051.40 0.5454
1051.50 0.5452
1051.60 0.5451
1051.70 0.5449
1051.80 0.5447
1051.90 0.5446
1052.00 0.5444
1052.10 0.5443
1052.20 0.5441
1052.30 0.544
1052.40 0.5438
1052.50 0.5437
1052.60 0.5435
1052.70 0.5434
1052.80 0.5432
1052.90 0.5431
1053.00 0.5429
1053.10 0.5428
1053.20 0.5426
1053.30 0.5425
1053.40 0.5423
1053.50 0.5421
1053.60 0.542
1053.70 0.5418
1053.80 0.5417
1053.90 0.5415
1054.00 0.5414
1054.10 0.5412
1054.20 0.5411
1054.30 0.5409
1054.40 0.5408
1054.50 0.5406
1054.60 0.5405
1054.70 0.5403
1054.80 0.5402
1054.90 0.54
1055.00 0.5399
1055.10 0.5397
1055.20 0.5396
1055.30 0.5394
1055.40 0.5393
1055.50 0.5391
1055.60 0.539
1055.70 0.5388
1055.80 0.5387
1055.90 0.5385
1056.00 0.5384
1056.10 0.5382
1056.20 0.5381
1056.30 0.5379
1056.40 0.5378
1056.50 0.5376
1056.60 0.5375
1056.70 0.5373
1056.80 0.5372
1056.90 0.537
1057.00 0.5369
1057.10 0.5368
1057.20 0.5366
1057.30 0.5365
1057.40 0.5363
1057.50 0.5362
1057.60 0.5361
1057.70 0.5359
1057.80 0.5358
1057.90 0.5356
1058.00 0.5355
1058.10 0.5354
1058.20 0.5352
1058.30 0.5351
1058.40 0.535
1058.50 0.5348
1058.60 0.5347
1058.70 0.5345
1058.80 0.5344
1058.90 0.5343
1059.00 0.5341
1059.10 0.534
1059.20 0.5339
1059.30 0.5337
1059.40 0.5336
1059.50 0.5334
1059.60 0.5333
1059.70 0.5332
1059.80 0.533
1059.90 0.5329
1060.00 0.5328
1060.10 0.5326
1060.20 0.5325
1060.30 0.5324
1060.40 0.5322
1060.50 0.5321
1060.60 0.5319
1060.70 0.5318
1060.80 0.5317
1060.90 0.5315
1061.00 0.5314
1061.10 0.5313
1061.20 0.5311
1061.30 0.531
1061.40 0.5308
1061.50 0.5307
1061.60 0.5306
1061.70 0.5304
1061.80 0.5303
1061.90 0.5302
1062.00 0.53
1062.10 0.5299
1062.20 0.5298
1062.30 0.5297
1062.40 0.5295
1062.50 0.5294
1062.60 0.5293
1062.70 0.5292
1062.80 0.529
1062.90 0.5289
1063.00 0.5288
1063.10 0.5287
1063.20 0.5285
1063.30 0.5284
1063.40 0.5283
1063.50 0.5282
1063.60 0.528
1063.70 0.5279
1063.80 0.5278
1063.90 0.5277
1064.00 0.5276
1064.10 0.5274
1064.20 0.5273
1064.30 0.5272
1064.40 0.5271
1064.50 0.5269
1064.60 0.5268
1064.70 0.5267
1064.80 0.5266
1064.90 0.5264
1065.00 0.5263
1065.10 0.5262
1065.20 0.5261
1065.30 0.526
1065.40 0.5258
1065.50 0.5257
1065.60 0.5256
1065.70 0.5255
1065.80 0.5253
1065.90 0.5252
1066.00 0.5251
1066.10 0.525
1066.20 0.5248
1066.30 0.5247
1066.40 0.5246
1066.50 0.5245
1066.60 0.5244
1066.70 0.5242
1066.80 0.5241
1066.90 0.524
1067.00 0.5239
1067.10 0.5238
1067.20 0.5236
1067.30 0.5235
1067.40 0.5234
1067.50 0.5233
1067.60 0.5232
1067.70 0.5231
1067.80 0.523
1067.90 0.5229
1068.00 0.5228
1068.10 0.5226
1068.20 0.5225
1068.30 0.5224
1068.40 0.5223
1068.50 0.5222
1068.60 0.5221
1068.70 0.522
1068.80 0.5219
1068.90 0.5218
1069.00 0.5216
1069.10 0.5215
1069.20 0.5214
1069.30 0.5213
1069.40 0.5212
1069.50 0.5211
1069.60 0.521
1069.70 0.5209
1069.80 0.5208
1069.90 0.5206
1070.00 0.5205
1070.10 0.5204
1070.20 0.5203
1070.30 0.5202
1070.40 0.5201
1070.50 0.52
1070.60 0.5199
1070.70 0.5198
1070.80 0.5197
1070.90 0.5195
1071.00 0.5194
1071.10 0.5193
1071.20 0.5192
1071.30 0.5191
1071.40 0.519
1071.50 0.5189
1071.60 0.5188
1071.70 0.5187
1071.80 0.5186
1071.90 0.5184
1072.00 0.5183
1072.10 0.5182
1072.20 0.5181
1072.30 0.518
1072.40 0.5179
1072.50 0.5178
1072.60 0.5177
1072.70 0.5176
1072.80 0.5175
1072.90 0.5174
1073.00 0.5173
1073.10 0.5172
1073.20 0.5171
1073.30 0.517
1073.40 0.5169
1073.50 0.5168
1073.60 0.5167
1073.70 0.5166
1073.80 0.5165
1073.90 0.5164
1074.00 0.5163
1074.10 0.5162
1074.20 0.5161
1074.30 0.516
1074.40 0.5159
1074.50 0.5157
1074.60 0.5156
1074.70 0.5155
1074.80 0.5154
1074.90 0.5153
1075.00 0.5152
1075.10 0.5151
1075.20 0.515
1075.30 0.5149
1075.40 0.5148
1075.50 0.5147
1075.60 0.5146
1075.70 0.5145
1075.80 0.5144
1075.90 0.5143
1076.00 0.5142
1076.10 0.5141
1076.20 0.514
1076.30 0.5139
1076.40 0.5138
1076.50 0.5137
1076.60 0.5136
1076.70 0.5135
1076.80 0.5134
1076.90 0.5133
1077.00 0.5132
1077.10 0.5131
1077.20 0.513
1077.30 0.5129
1077.40 0.5128
1077.50 0.5127
1077.60 0.5126
1077.70 0.5126
1077.80 0.5125
1077.90 0.5124
1078.00 0.5123
1078.10 0.5122
1078.20 0.5121
1078.30 0.512
1078.40 0.5119
1078.50 0.5118
1078.60 0.5117
1078.70 0.5116
1078.80 0.5115
1078.90 0.5114
1079.00 0.5113
1079.10 0.5112
1079.20 0.5111
1079.30 0.511
1079.40 0.5109
1079.50 0.5108
1079.60 0.5107
1079.70 0.5106
1079.80 0.5105
1079.90 0.5104
1080.00 0.5104
1080.10 0.5103
1080.20 0.5102
1080.30 0.5101
1080.40 0.51
1080.50 0.5099
1080.60 0.5098
1080.70 0.5097
1080.80 0.5096
1080.90 0.5095
1081.00 0.5095
1081.10 0.5094
1081.20 0.5093
1081.30 0.5092
1081.40 0.5091
1081.50 0.509
1081.60 0.5089
1081.70 0.5088
1081.80 0.5087
1081.90 0.5087
1082.00 0.5086
1082.10 0.5085
1082.20 0.5084
1082.30 0.5083
1082.40 0.5082
1082.50 0.5081
1082.60 0.508
1082.70 0.5079
1082.80 0.5079
1082.90 0.5078
1083.00 0.5077
1083.10 0.5076
1083.20 0.5075
1083.30 0.5074
1083.40 0.5073
1083.50 0.5072
1083.60 0.5072
1083.70 0.5071
1083.80 0.507
1083.90 0.5069
1084.00 0.5068
1084.10 0.5067
1084.20 0.5066
1084.30 0.5065
1084.40 0.5065
1084.50 0.5064
1084.60 0.5063
1084.70 0.5062
1084.80 0.5061
1084.90 0.506
1085.00 0.5059
1085.10 0.5059
1085.20 0.5058
1085.30 0.5057
1085.40 0.5056
1085.50 0.5055
1085.60 0.5054
1085.70 0.5053
1085.80 0.5053
1085.90 0.5052
1086.00 0.5051
1086.10 0.505
1086.20 0.5049
1086.30 0.5048
1086.40 0.5048
1086.50 0.5047
1086.60 0.5046
1086.70 0.5045
1086.80 0.5044
1086.90 0.5043
1087.00 0.5042
1087.10 0.5042
1087.20 0.5041
1087.30 0.504
1087.40 0.5039
1087.50 0.5038
1087.60 0.5037
1087.70 0.5037
1087.80 0.5036
1087.90 0.5035
1088.00 0.5034
1088.10 0.5033
1088.20 0.5032
1088.30 0.5032
1088.40 0.5031
1088.50 0.503
1088.60 0.5029
1088.70 0.5028
1088.80 0.5028
1088.90 0.5027
1089.00 0.5026
1089.10 0.5025
1089.20 0.5024
1089.30 0.5024
1089.40 0.5023
1089.50 0.5022
1089.60 0.5021
1089.70 0.5021
1089.80 0.502
1089.90 0.5019
1090.00 0.5018
1090.10 0.5017
1090.20 0.5017
1090.30 0.5016
1090.40 0.5015
1090.50 0.5014
1090.60 0.5013
1090.70 0.5013
1090.80 0.5012
1090.90 0.5011
1091.00 0.501
1091.10 0.5009
1091.20 0.5009
1091.30 0.5008
1091.40 0.5007
1091.50 0.5006
1091.60 0.5005
1091.70 0.5005
1091.80 0.5004
1091.90 0.5003
1092.00 0.5003
1092.10 0.5002
1092.20 0.5001
1092.30 0.5
1092.40 0.4999
1092.50 0.4999
1092.60 0.4998
1092.70 0.4997
1092.80 0.4997
1092.90 0.4996
1093.00 0.4995
1093.10 0.4995
1093.20 0.4994
1093.30 0.4993
1093.40 0.4993
1093.50 0.4992
1093.60 0.4991
1093.70 0.4991
1093.80 0.499
1093.90 0.4989
1094.00 0.4988
1094.10 0.4988
1094.20 0.4987
1094.30 0.4986
1094.40 0.4985
1094.50 0.4985
1094.60 0.4984
1094.70 0.4983
1094.80 0.4982
1094.90 0.4982
1095.00 0.4981
1095.10 0.498
1095.20 0.4979
1095.30 0.4979
1095.40 0.4978
1095.50 0.4977
1095.60 0.4976
1095.70 0.4976
1095.80 0.4975
1095.90 0.4974
1096.00 0.4974
1096.10 0.4973
1096.20 0.4972
1096.30 0.4971
1096.40 0.4971
1096.50 0.497
1096.60 0.4969
1096.70 0.4968
1096.80 0.4968
1096.90 0.4967
1097.00 0.4966
1097.10 0.4965
1097.20 0.4965
1097.30 0.4964
1097.40 0.4963
1097.50 0.4963
1097.60 0.4962
1097.70 0.4961
1097.80 0.496
1097.90 0.496
1098.00 0.4959
1098.10 0.4958
1098.20 0.4958
1098.30 0.4957
1098.40 0.4956
1098.50 0.4955
1098.60 0.4955
1098.70 0.4954
1098.80 0.4953
1098.90 0.4953
1099.00 0.4952
1099.10 0.4951
1099.20 0.495
1099.30 0.495
1099.40 0.4949
1099.50 0.4948
1099.60 0.4948
1099.70 0.4947
1099.80 0.4946
1099.90 0.4945
1100.00 0.4945
1100.10 0.4944
1100.20 0.4943
1100.30 0.4943
1100.40 0.4942
1100.50 0.4941
1100.60 0.494
1100.70 0.494
1100.80 0.4939
1100.90 0.4938
1101.00 0.4938
1101.10 0.4937
1101.20 0.4936
1101.30 0.4936
1101.40 0.4935
1101.50 0.4934
1101.60 0.4934
1101.70 0.4933
1101.80 0.4932
1101.90 0.4932
1102.00 0.4931
1102.10 0.493
1102.20 0.493
1102.30 0.4929
1102.40 0.4928
1102.50 0.4928
1102.60 0.4927
1102.70 0.4926
1102.80 0.4926
1102.90 0.4925
1103.00 0.4924
1103.10 0.4923
1103.20 0.4923
1103.30 0.4922
1103.40 0.4921
1103.50 0.4921
1103.60 0.492
1103.70 0.4919
1103.80 0.4919
1103.90 0.4918
1104.00 0.4917
1104.10 0.4917
1104.20 0.4916
1104.30 0.4915
1104.40 0.4915
1104.50 0.4914
1104.60 0.4914
1104.70 0.4913
1104.80 0.4912
1104.90 0.4912
1105.00 0.4911
1105.10 0.491
1105.20 0.491
1105.30 0.4909
1105.40 0.4909
1105.50 0.4908
1105.60 0.4907
1105.70 0.4907
1105.80 0.4906
1105.90 0.4905
1106.00 0.4904
1106.10 0.4904
1106.20 0.4903
1106.30 0.4902
1106.40 0.4902
1106.50 0.4901
1106.60 0.49
1106.70 0.49
1106.80 0.4899
1106.90 0.4898
1107.00 0.4898
1107.10 0.4897
1107.20 0.4896
1107.30 0.4896
1107.40 0.4895
1107.50 0.4895
1107.60 0.4894
1107.70 0.4893
1107.80 0.4893
1107.90 0.4892
1108.00 0.4891
1108.10 0.4891
1108.20 0.489
1108.30 0.4889
1108.40 0.4889
1108.50 0.4888
1108.60 0.4887
1108.70 0.4887
1108.80 0.4886
1108.90 0.4885
1109.00 0.4885
1109.10 0.4884
1109.20 0.4884
1109.30 0.4883
1109.40 0.4882
1109.50 0.4882
1109.60 0.4881
1109.70 0.488
1109.80 0.488
1109.90 0.4879
1110.00 0.4878
1110.10 0.4878
1110.20 0.4877
1110.30 0.4876
1110.40 0.4876
1110.50 0.4875
1110.60 0.4875
1110.70 0.4874
1110.80 0.4873
1110.90 0.4873
1111.00 0.4872
1111.10 0.4871
1111.20 0.4871
1111.30 0.487
1111.40 0.487
1111.50 0.4869
1111.60 0.4868
1111.70 0.4868
1111.80 0.4867
1111.90 0.4866
1112.00 0.4866
1112.10 0.4865
1112.20 0.4864
1112.30 0.4864
1112.40 0.4863
1112.50 0.4863
1112.60 0.4862
1112.70 0.4861
1112.80 0.4861
1112.90 0.486
1113.00 0.4859
1113.10 0.4859
1113.20 0.4858
1113.30 0.4858
1113.40 0.4857
1113.50 0.4856
1113.60 0.4856
1113.70 0.4855
1113.80 0.4854
1113.90 0.4854
1114.00 0.4853
1114.10 0.4853
1114.20 0.4852
1114.30 0.4851
1114.40 0.4851
1114.50 0.485
1114.60 0.4849
1114.70 0.4849
1114.80 0.4848
1114.90 0.4847
1115.00 0.4847
1115.10 0.4846
1115.20 0.4846
1115.30 0.4845
1115.40 0.4844
1115.50 0.4844
1115.60 0.4843
1115.70 0.4842
1115.80 0.4842
1115.90 0.4841
1116.00 0.4841
1116.10 0.484
1116.20 0.4839
1116.30 0.4839
1116.40 0.4838
1116.50 0.4837
1116.60 0.4837
1116.70 0.4836
1116.80 0.4836
1116.90 0.4835
1117.00 0.4834
1117.10 0.4834
1117.20 0.4833
1117.30 0.4833
1117.40 0.4832
1117.50 0.4831
1117.60 0.4831
1117.70 0.483
1117.80 0.483
1117.90 0.4829
1118.00 0.4828
1118.10 0.4828
1118.20 0.4827
1118.30 0.4827
1118.40 0.4826
1118.50 0.4825
1118.60 0.4825
1118.70 0.4824
1118.80 0.4824
1118.90 0.4823
1119.00 0.4823
1119.10 0.4822
1119.20 0.4821
1119.30 0.4821
1119.40 0.482
1119.50 0.482
1119.60 0.4819
1119.70 0.4818
1119.80 0.4818
1119.90 0.4817
1120.00 0.4817
1120.10 0.4816
1120.20 0.4815
1120.30 0.4815
1120.40 0.4814
1120.50 0.4814
1120.60 0.4813
1120.70 0.4812
1120.80 0.4812
1120.90 0.4811
1121.00 0.4811
1121.10 0.481
1121.20 0.481
1121.30 0.4809
1121.40 0.4808
1121.50 0.4808
1121.60 0.4807
1121.70 0.4807
1121.80 0.4806
1121.90 0.4805
1122.00 0.4805
1122.10 0.4804
1122.20 0.4804
1122.30 0.4803
1122.40 0.4802
1122.50 0.4802
1122.60 0.4801
1122.70 0.4801
1122.80 0.48
1122.90 0.4799
1123.00 0.4799
1123.10 0.4798
1123.20 0.4798
1123.30 0.4797
1123.40 0.4796
1123.50 0.4796
1123.60 0.4795
1123.70 0.4794
1123.80 0.4794
1123.90 0.4793
1124.00 0.4793
1124.10 0.4792
1124.20 0.4791
1124.30 0.4791
1124.40 0.479
1124.50 0.479
1124.60 0.4789
1124.70 0.4788
1124.80 0.4788
1124.90 0.4787
1125.00 0.4787
1125.10 0.4786
1125.20 0.4785
1125.30 0.4785
1125.40 0.4784
1125.50 0.4784
1125.60 0.4783
1125.70 0.4782
1125.80 0.4782
1125.90 0.4781
1126.00 0.4781
1126.10 0.478
1126.20 0.4779
1126.30 0.4779
1126.40 0.4778
1126.50 0.4778
1126.60 0.4777
1126.70 0.4776
1126.80 0.4776
1126.90 0.4775
1127.00 0.4775
1127.10 0.4774
1127.20 0.4773
1127.30 0.4773
1127.40 0.4772
1127.50 0.4772
1127.60 0.4771
1127.70 0.477
1127.80 0.477
1127.90 0.4769
1128.00 0.4769
1128.10 0.4768
1128.20 0.4768
1128.30 0.4767
1128.40 0.4766
1128.50 0.4766
1128.60 0.4765
1128.70 0.4765
1128.80 0.4764
1128.90 0.4764
1129.00 0.4763
1129.10 0.4762
1129.20 0.4762
1129.30 0.4761
1129.40 0.4761
1129.50 0.476
1129.60 0.4759
1129.70 0.4759
1129.80 0.4758
1129.90 0.4758
1130.00 0.4757
1130.10 0.4757
1130.20 0.4756
1130.30 0.4755
1130.40 0.4755
1130.50 0.4754
1130.60 0.4754
1130.70 0.4753
1130.80 0.4753
1130.90 0.4752
1131.00 0.4751
1131.10 0.4751
1131.20 0.475
1131.30 0.475
1131.40 0.4749
1131.50 0.4749
1131.60 0.4748
1131.70 0.4747
1131.80 0.4747
1131.90 0.4746
1132.00 0.4746
1132.10 0.4745
1132.20 0.4744
1132.30 0.4744
1132.40 0.4743
1132.50 0.4742
1132.60 0.4742
1132.70 0.4741
1132.80 0.4741
1132.90 0.474
1133.00 0.4739
1133.10 0.4739
1133.20 0.4738
1133.30 0.4737
1133.40 0.4737
1133.50 0.4736
1133.60 0.4736
1133.70 0.4735
1133.80 0.4734
1133.90 0.4734
1134.00 0.4733
1134.10 0.4732
1134.20 0.4732
1134.30 0.4731
1134.40 0.4731
1134.50 0.473
1134.60 0.4729
1134.70 0.4729
1134.80 0.4728
1134.90 0.4727
1135.00 0.4727
1135.10 0.4726
1135.20 0.4726
1135.30 0.4725
1135.40 0.4724
1135.50 0.4724
1135.60 0.4723
1135.70 0.4722
1135.80 0.4722
1135.90 0.4721
1136.00 0.4721
1136.10 0.472
1136.20 0.4719
1136.30 0.4719
1136.40 0.4718
1136.50 0.4717
1136.60 0.4717
1136.70 0.4716
1136.80 0.4716
1136.90 0.4715
1137.00 0.4714
1137.10 0.4714
1137.20 0.4713
1137.30 0.4712
1137.40 0.4712
1137.50 0.4711
1137.60 0.471
1137.70 0.471
1137.80 0.4709
1137.90 0.4709
1138.00 0.4708
1138.10 0.4707
1138.20 0.4707
1138.30 0.4706
1138.40 0.4705
1138.50 0.4705
1138.60 0.4704
1138.70 0.4703
1138.80 0.4703
1138.90 0.4702
1139.00 0.4701
1139.10 0.4701
1139.20 0.47
1139.30 0.47
1139.40 0.4699
1139.50 0.4698
1139.60 0.4698
1139.70 0.4697
1139.80 0.4696
1139.90 0.4696
1140.00 0.4695
1140.10 0.4694
1140.20 0.4694
1140.30 0.4693
1140.40 0.4693
1140.50 0.4692
1140.60 0.4691
1140.70 0.4691
1140.80 0.469
1140.90 0.4689
1141.00 0.4689
1141.10 0.4688
1141.20 0.4687
1141.30 0.4687
1141.40 0.4686
1141.50 0.4686
1141.60 0.4685
1141.70 0.4684
1141.80 0.4684
1141.90 0.4683
1142.00 0.4682
1142.10 0.4682
1142.20 0.4681
1142.30 0.468
1142.40 0.468
1142.50 0.4679
1142.60 0.4678
1142.70 0.4678
1142.80 0.4677
1142.90 0.4676
1143.00 0.4676
1143.10 0.4675
1143.20 0.4674
1143.30 0.4674
1143.40 0.4673
1143.50 0.4672
1143.60 0.4672
1143.70 0.4671
1143.80 0.467
1143.90 0.467
1144.00 0.4669
1144.10 0.4668
1144.20 0.4668
1144.30 0.4667
1144.40 0.4666
1144.50 0.4666
1144.60 0.4665
1144.70 0.4665
1144.80 0.4664
1144.90 0.4663
1145.00 0.4663
1145.10 0.4662
1145.20 0.4661
1145.30 0.4661
1145.40 0.466
1145.50 0.4659
1145.60 0.4659
1145.70 0.4658
1145.80 0.4657
1145.90 0.4657
1146.00 0.4656
1146.10 0.4655
1146.20 0.4655
1146.30 0.4654
1146.40 0.4653
1146.50 0.4653
1146.60 0.4652
1146.70 0.4651
1146.80 0.4651
1146.90 0.465
1147.00 0.4649
1147.10 0.4649
1147.20 0.4648
1147.30 0.4647
1147.40 0.4647
1147.50 0.4646
1147.60 0.4645
1147.70 0.4644
1147.80 0.4644
1147.90 0.4643
1148.00 0.4642
1148.10 0.4642
1148.20 0.4641
1148.30 0.464
1148.40 0.464
1148.50 0.4639
1148.60 0.4638
1148.70 0.4637
1148.80 0.4637
1148.90 0.4636
1149.00 0.4635
1149.10 0.4635
1149.20 0.4634
1149.30 0.4633
1149.40 0.4633
1149.50 0.4632
1149.60 0.4631
1149.70 0.463
1149.80 0.463
1149.90 0.4629
1150.00 0.4628
1150.10 0.4628
1150.20 0.4627
1150.30 0.4626
1150.40 0.4626
1150.50 0.4625
1150.60 0.4624
1150.70 0.4624
1150.80 0.4623
1150.90 0.4622
1151.00 0.4621
1151.10 0.4621
1151.20 0.462
1151.30 0.4619
1151.40 0.4619
1151.50 0.4618
1151.60 0.4617
1151.70 0.4617
1151.80 0.4616
1151.90 0.4615
1152.00 0.4614
1152.10 0.4614
1152.20 0.4613
1152.30 0.4612
1152.40 0.4612
1152.50 0.4611
1152.60 0.461
1152.70 0.4609
1152.80 0.4609
1152.90 0.4608
1153.00 0.4607
1153.10 0.4607
1153.20 0.4606
1153.30 0.4605
1153.40 0.4604
1153.50 0.4604
1153.60 0.4603
1153.70 0.4602
1153.80 0.4602
1153.90 0.4601
1154.00 0.46
1154.10 0.4599
1154.20 0.4599
1154.30 0.4598
1154.40 0.4597
1154.50 0.4597
1154.60 0.4596
1154.70 0.4595
1154.80 0.4594
1154.90 0.4594
1155.00 0.4593
1155.10 0.4592
1155.20 0.4592
1155.30 0.4591
1155.40 0.459
1155.50 0.4589
1155.60 0.4589
1155.70 0.4588
1155.80 0.4587
1155.90 0.4587
1156.00 0.4586
1156.10 0.4585
1156.20 0.4584
1156.30 0.4584
1156.40 0.4583
1156.50 0.4582
1156.60 0.4582
1156.70 0.4581
1156.80 0.458
1156.90 0.4579
1157.00 0.4579
1157.10 0.4578
1157.20 0.4577
1157.30 0.4576
1157.40 0.4576
1157.50 0.4575
1157.60 0.4574
1157.70 0.4573
1157.80 0.4573
1157.90 0.4572
1158.00 0.4571
1158.10 0.457
1158.20 0.4569
1158.30 0.4569
1158.40 0.4568
1158.50 0.4567
1158.60 0.4566
1158.70 0.4566
1158.80 0.4565
1158.90 0.4564
1159.00 0.4563
1159.10 0.4563
1159.20 0.4562
1159.30 0.4561
1159.40 0.456
1159.50 0.4559
1159.60 0.4559
1159.70 0.4558
1159.80 0.4557
1159.90 0.4556
1160.00 0.4556
1160.10 0.4555
1160.20 0.4554
1160.30 0.4553
1160.40 0.4553
1160.50 0.4552
1160.60 0.4551
1160.70 0.455
1160.80 0.455
1160.90 0.4549
1161.00 0.4548
1161.10 0.4547
1161.20 0.4546
1161.30 0.4546
1161.40 0.4545
1161.50 0.4544
1161.60 0.4543
1161.70 0.4543
1161.80 0.4542
1161.90 0.4541
1162.00 0.454
1162.10 0.454
1162.20 0.4539
1162.30 0.4538
1162.40 0.4537
1162.50 0.4536
1162.60 0.4536
1162.70 0.4535
1162.80 0.4534
1162.90 0.4533
1163.00 0.4532
1163.10 0.4531
1163.20 0.4531
1163.30 0.453
1163.40 0.4529
1163.50 0.4528
1163.60 0.4527
1163.70 0.4527
1163.80 0.4526
1163.90 0.4525
1164.00 0.4524
1164.10 0.4523
1164.20 0.4523
1164.30 0.4522
1164.40 0.4521
1164.50 0.452
1164.60 0.4519
1164.70 0.4519
1164.80 0.4518
1164.90 0.4517
1165.00 0.4516
1165.10 0.4515
1165.20 0.4515
1165.30 0.4514
1165.40 0.4513
1165.50 0.4512
1165.60 0.4511
1165.70 0.4511
1165.80 0.451
1165.90 0.4509
1166.00 0.4508
1166.10 0.4507
1166.20 0.4507
1166.30 0.4506
1166.40 0.4505
1166.50 0.4504
1166.60 0.4503
1166.70 0.4503
1166.80 0.4502
1166.90 0.4501
1167.00 0.45
1167.10 0.4499
1167.20 0.4499
1167.30 0.4498
1167.40 0.4497
1167.50 0.4496
1167.60 0.4495
1167.70 0.4494
1167.80 0.4493
1167.90 0.4493
1168.00 0.4492
1168.10 0.4491
1168.20 0.449
1168.30 0.4489
1168.40 0.4488
1168.50 0.4488
1168.60 0.4487
1168.70 0.4486
1168.80 0.4485
1168.90 0.4484
1169.00 0.4483
1169.10 0.4482
1169.20 0.4482
1169.30 0.4481
1169.40 0.448
1169.50 0.4479
1169.60 0.4478
1169.70 0.4477
1169.80 0.4477
1169.90 0.4476
1170.00 0.4475
1170.10 0.4474
1170.20 0.4473
1170.30 0.4472
1170.40 0.4471
1170.50 0.4471
1170.60 0.447
1170.70 0.4469
1170.80 0.4468
1170.90 0.4467
1171.00 0.4466
1171.10 0.4466
1171.20 0.4465
1171.30 0.4464
1171.40 0.4463
1171.50 0.4462
1171.60 0.4461
1171.70 0.4461
1171.80 0.446
1171.90 0.4459
1172.00 0.4458
1172.10 0.4457
1172.20 0.4456
1172.30 0.4455
1172.40 0.4454
1172.50 0.4454
1172.60 0.4453
1172.70 0.4452
1172.80 0.4451
1172.90 0.445
1173.00 0.4449
1173.10 0.4448
1173.20 0.4447
1173.30 0.4447
1173.40 0.4446
1173.50 0.4445
1173.60 0.4444
1173.70 0.4443
1173.80 0.4442
1173.90 0.4441
1174.00 0.444
1174.10 0.444
1174.20 0.4439
1174.30 0.4438
1174.40 0.4437
1174.50 0.4436
1174.60 0.4435
1174.70 0.4434
1174.80 0.4433
1174.90 0.4432
1175.00 0.4432
1175.10 0.4431
1175.20 0.443
1175.30 0.4429
1175.40 0.4428
1175.50 0.4427
1175.60 0.4426
1175.70 0.4425
1175.80 0.4425
1175.90 0.4424
1176.00 0.4423
1176.10 0.4422
1176.20 0.4421
1176.30 0.442
1176.40 0.4419
1176.50 0.4418
1176.60 0.4418
1176.70 0.4417
1176.80 0.4416
1176.90 0.4415
1177.00 0.4414
1177.10 0.4413
1177.20 0.4412
1177.30 0.4411
1177.40 0.441
1177.50 0.441
1177.60 0.4409
1177.70 0.4408
1177.80 0.4407
1177.90 0.4406
1178.00 0.4405
1178.10 0.4404
1178.20 0.4403
1178.30 0.4402
1178.40 0.4401
1178.50 0.44
1178.60 0.44
1178.70 0.4399
1178.80 0.4398
1178.90 0.4397
1179.00 0.4396
1179.10 0.4395
1179.20 0.4394
1179.30 0.4393
1179.40 0.4392
1179.50 0.4391
1179.60 0.4391
1179.70 0.439
1179.80 0.4389
1179.90 0.4388
1180.00 0.4387
1180.10 0.4386
1180.20 0.4385
1180.30 0.4384
1180.40 0.4383
1180.50 0.4382
1180.60 0.4381
1180.70 0.4381
1180.80 0.438
1180.90 0.4379
1181.00 0.4378
1181.10 0.4377
1181.20 0.4376
1181.30 0.4375
1181.40 0.4374
1181.50 0.4373
1181.60 0.4372
1181.70 0.4372
1181.80 0.4371
1181.90 0.437
1182.00 0.4369
1182.10 0.4368
1182.20 0.4367
1182.30 0.4366
1182.40 0.4365
1182.50 0.4364
1182.60 0.4363
1182.70 0.4362
1182.80 0.4361
1182.90 0.436
1183.00 0.4359
1183.10 0.4358
1183.20 0.4358
1183.30 0.4357
1183.40 0.4356
1183.50 0.4355
1183.60 0.4354
1183.70 0.4353
1183.80 0.4352
1183.90 0.4351
1184.00 0.435
1184.10 0.4349
1184.20 0.4348
1184.30 0.4347
1184.40 0.4346
1184.50 0.4345
1184.60 0.4344
1184.70 0.4343
1184.80 0.4342
1184.90 0.4341
1185.00 0.4341
1185.10 0.434
1185.20 0.4339
1185.30 0.4338
1185.40 0.4337
1185.50 0.4336
1185.60 0.4335
1185.70 0.4334
1185.80 0.4333
1185.90 0.4332
1186.00 0.4331
1186.10 0.433
1186.20 0.4329
1186.30 0.4328
1186.40 0.4327
1186.50 0.4326
1186.60 0.4325
1186.70 0.4325
1186.80 0.4324
1186.90 0.4323
1187.00 0.4322
1187.10 0.4321
1187.20 0.432
1187.30 0.4319
1187.40 0.4318
1187.50 0.4317
1187.60 0.4316
1187.70 0.4315
1187.80 0.4314
1187.90 0.4313
1188.00 0.4312
1188.10 0.4311
1188.20 0.431
1188.30 0.4309
1188.40 0.4308
1188.50 0.4307
1188.60 0.4306
1188.70 0.4306
1188.80 0.4305
1188.90 0.4304
1189.00 0.4303
1189.10 0.4302
1189.20 0.4301
1189.30 0.43
1189.40 0.4299
1189.50 0.4298
1189.60 0.4297
1189.70 0.4296
1189.80 0.4295
1189.90 0.4294
1190.00 0.4293
1190.10 0.4292
1190.20 0.4291
1190.30 0.429
1190.40 0.4289
1190.50 0.4288
1190.60 0.4288
1190.70 0.4287
1190.80 0.4286
1190.90 0.4285
1191.00 0.4284
1191.10 0.4283
1191.20 0.4282
1191.30 0.4281
1191.40 0.428
1191.50 0.4279
1191.60 0.4278
1191.70 0.4277
1191.80 0.4276
1191.90 0.4275
1192.00 0.4274
1192.10 0.4273
1192.20 0.4272
1192.30 0.4271
1192.40 0.427
1192.50 0.4269
1192.60 0.4268
1192.70 0.4267
1192.80 0.4266
1192.90 0.4266
1193.00 0.4265
1193.10 0.4264
1193.20 0.4263
1193.30 0.4262
1193.40 0.4261
1193.50 0.426
1193.60 0.4259
1193.70 0.4258
1193.80 0.4257
1193.90 0.4256
1194.00 0.4255
1194.10 0.4254
1194.20 0.4253
1194.30 0.4252
1194.40 0.4251
1194.50 0.425
1194.60 0.4249
1194.70 0.4248
1194.80 0.4247
1194.90 0.4246
1195.00 0.4245
1195.10 0.4244
1195.20 0.4243
1195.30 0.4242
1195.40 0.4241
1195.50 0.424
1195.60 0.4239
1195.70 0.4238
1195.80 0.4237
1195.90 0.4236
1196.00 0.4236
1196.10 0.4235
1196.20 0.4234
1196.30 0.4233
1196.40 0.4232
1196.50 0.4231
1196.60 0.423
1196.70 0.4229
1196.80 0.4228
1196.90 0.4227
1197.00 0.4226
1197.10 0.4225
1197.20 0.4224
1197.30 0.4223
1197.40 0.4222
1197.50 0.4221
1197.60 0.422
1197.70 0.4219
1197.80 0.4218
1197.90 0.4217
1198.00 0.4216
1198.10 0.4215
1198.20 0.4214
1198.30 0.4213
1198.40 0.4212
1198.50 0.4211
1198.60 0.421
1198.70 0.4209
1198.80 0.4208
1198.90 0.4207
1199.00 0.4206
1199.10 0.4205
1199.20 0.4204
1199.30 0.4203
1199.40 0.4202
1199.50 0.4201
1199.60 0.42
1199.70 0.4199
1199.80 0.4198
1199.90 0.4197
1200.00 0
