# Version 2.1 - nm, norm@500 to 1, cut digits, bergeron_3750_80.dat_3750
# Wavelength(nm)  Flambda(ergs/cm^s/s/nm)
300.00 0.1544
300.10 0.1547
300.20 0.155
300.30 0.1553
300.40 0.1556
300.50 0.1559
300.60 0.1562
300.70 0.1565
300.80 0.1569
300.90 0.1572
301.00 0.1575
301.10 0.1578
301.20 0.1581
301.30 0.1584
301.40 0.1587
301.50 0.159
301.60 0.1593
301.70 0.1596
301.80 0.1599
301.90 0.1602
302.00 0.1605
302.10 0.1609
302.20 0.1612
302.30 0.1615
302.40 0.1618
302.50 0.1621
302.60 0.1625
302.70 0.1628
302.80 0.1631
302.90 0.1634
303.00 0.1637
303.10 0.164
303.20 0.1644
303.30 0.1647
303.40 0.165
303.50 0.1653
303.60 0.1656
303.70 0.1659
303.80 0.1662
303.90 0.1665
304.00 0.1669
304.10 0.1672
304.20 0.1675
304.30 0.1678
304.40 0.1682
304.50 0.1685
304.60 0.1688
304.70 0.1691
304.80 0.1695
304.90 0.1698
305.00 0.1701
305.10 0.1704
305.20 0.1707
305.30 0.1711
305.40 0.1714
305.50 0.1717
305.60 0.172
305.70 0.1723
305.80 0.1727
305.90 0.173
306.00 0.1733
306.10 0.1736
306.20 0.174
306.30 0.1743
306.40 0.1746
306.50 0.1749
306.60 0.1753
306.70 0.1756
306.80 0.1759
306.90 0.1763
307.00 0.1766
307.10 0.1769
307.20 0.1772
307.30 0.1776
307.40 0.1779
307.50 0.1782
307.60 0.1786
307.70 0.1789
307.80 0.1792
307.90 0.1795
308.00 0.1799
308.10 0.1802
308.20 0.1805
308.30 0.1809
308.40 0.1812
308.50 0.1815
308.60 0.1819
308.70 0.1822
308.80 0.1825
308.90 0.1829
309.00 0.1832
309.10 0.1835
309.20 0.1839
309.30 0.1842
309.40 0.1845
309.50 0.1849
309.60 0.1852
309.70 0.1855
309.80 0.1859
309.90 0.1862
310.00 0.1865
310.10 0.1869
310.20 0.1872
310.30 0.1876
310.40 0.1879
310.50 0.1882
310.60 0.1886
310.70 0.1889
310.80 0.1893
310.90 0.1896
311.00 0.19
311.10 0.1903
311.20 0.1906
311.30 0.191
311.40 0.1913
311.50 0.1917
311.60 0.192
311.70 0.1923
311.80 0.1927
311.90 0.193
312.00 0.1933
312.10 0.1937
312.20 0.194
312.30 0.1944
312.40 0.1947
312.50 0.1951
312.60 0.1954
312.70 0.1958
312.80 0.1961
312.90 0.1965
313.00 0.1968
313.10 0.1971
313.20 0.1975
313.30 0.1978
313.40 0.1982
313.50 0.1985
313.60 0.1989
313.70 0.1992
313.80 0.1996
313.90 0.1999
314.00 0.2003
314.10 0.2006
314.20 0.201
314.30 0.2013
314.40 0.2017
314.50 0.202
314.60 0.2024
314.70 0.2027
314.80 0.2031
314.90 0.2034
315.00 0.2038
315.10 0.2041
315.20 0.2045
315.30 0.2048
315.40 0.2052
315.50 0.2055
315.60 0.2059
315.70 0.2062
315.80 0.2066
315.90 0.2069
316.00 0.2073
316.10 0.2076
316.20 0.208
316.30 0.2084
316.40 0.2087
316.50 0.2091
316.60 0.2094
316.70 0.2098
316.80 0.2102
316.90 0.2105
317.00 0.2109
317.10 0.2112
317.20 0.2116
317.30 0.2119
317.40 0.2123
317.50 0.2126
317.60 0.213
317.70 0.2134
317.80 0.2137
317.90 0.2141
318.00 0.2144
318.10 0.2148
318.20 0.2151
318.30 0.2155
318.40 0.2159
318.50 0.2162
318.60 0.2166
318.70 0.217
318.80 0.2173
318.90 0.2177
319.00 0.2181
319.10 0.2184
319.20 0.2188
319.30 0.2192
319.40 0.2195
319.50 0.2199
319.60 0.2202
319.70 0.2206
319.80 0.221
319.90 0.2213
320.00 0.2217
320.10 0.222
320.20 0.2224
320.30 0.2228
320.40 0.2232
320.50 0.2235
320.60 0.2239
320.70 0.2243
320.80 0.2246
320.90 0.225
321.00 0.2254
321.10 0.2257
321.20 0.2261
321.30 0.2265
321.40 0.2268
321.50 0.2272
321.60 0.2276
321.70 0.2279
321.80 0.2283
321.90 0.2287
322.00 0.229
322.10 0.2294
322.20 0.2298
322.30 0.2302
322.40 0.2305
322.50 0.2309
322.60 0.2313
322.70 0.2317
322.80 0.232
322.90 0.2324
323.00 0.2328
323.10 0.2332
323.20 0.2335
323.30 0.2339
323.40 0.2343
323.50 0.2347
323.60 0.235
323.70 0.2354
323.80 0.2358
323.90 0.2361
324.00 0.2365
324.10 0.2369
324.20 0.2373
324.30 0.2377
324.40 0.238
324.50 0.2384
324.60 0.2388
324.70 0.2392
324.80 0.2396
324.90 0.2399
325.00 0.2403
325.10 0.2407
325.20 0.2411
325.30 0.2415
325.40 0.2418
325.50 0.2422
325.60 0.2426
325.70 0.243
325.80 0.2433
325.90 0.2437
326.00 0.2441
326.10 0.2445
326.20 0.2449
326.30 0.2452
326.40 0.2456
326.50 0.246
326.60 0.2464
326.70 0.2468
326.80 0.2472
326.90 0.2476
327.00 0.2479
327.10 0.2483
327.20 0.2487
327.30 0.2491
327.40 0.2495
327.50 0.2499
327.60 0.2502
327.70 0.2506
327.80 0.251
327.90 0.2514
328.00 0.2518
328.10 0.2522
328.20 0.2525
328.30 0.2529
328.40 0.2533
328.50 0.2537
328.60 0.2541
328.70 0.2545
328.80 0.2549
328.90 0.2553
329.00 0.2557
329.10 0.2561
329.20 0.2564
329.30 0.2568
329.40 0.2572
329.50 0.2576
329.60 0.258
329.70 0.2584
329.80 0.2588
329.90 0.2591
330.00 0.2595
330.10 0.2599
330.20 0.2603
330.30 0.2607
330.40 0.2611
330.50 0.2615
330.60 0.2619
330.70 0.2623
330.80 0.2627
330.90 0.2631
331.00 0.2635
331.10 0.2639
331.20 0.2643
331.30 0.2647
331.40 0.2651
331.50 0.2655
331.60 0.2658
331.70 0.2662
331.80 0.2666
331.90 0.267
332.00 0.2674
332.10 0.2678
332.20 0.2682
332.30 0.2686
332.40 0.269
332.50 0.2694
332.60 0.2698
332.70 0.2702
332.80 0.2706
332.90 0.271
333.00 0.2714
333.10 0.2718
333.20 0.2722
333.30 0.2726
333.40 0.273
333.50 0.2734
333.60 0.2738
333.70 0.2742
333.80 0.2746
333.90 0.275
334.00 0.2754
334.10 0.2758
334.20 0.2762
334.30 0.2766
334.40 0.277
334.50 0.2774
334.60 0.2778
334.70 0.2782
334.80 0.2786
334.90 0.279
335.00 0.2794
335.10 0.2798
335.20 0.2802
335.30 0.2806
335.40 0.281
335.50 0.2814
335.60 0.2818
335.70 0.2822
335.80 0.2826
335.90 0.283
336.00 0.2834
336.10 0.2838
336.20 0.2842
336.30 0.2847
336.40 0.2851
336.50 0.2855
336.60 0.2859
336.70 0.2863
336.80 0.2867
336.90 0.2871
337.00 0.2875
337.10 0.2879
337.20 0.2883
337.30 0.2887
337.40 0.2891
337.50 0.2896
337.60 0.29
337.70 0.2904
337.80 0.2908
337.90 0.2912
338.00 0.2916
338.10 0.292
338.20 0.2924
338.30 0.2928
338.40 0.2932
338.50 0.2936
338.60 0.2941
338.70 0.2945
338.80 0.2949
338.90 0.2953
339.00 0.2957
339.10 0.2961
339.20 0.2965
339.30 0.2969
339.40 0.2974
339.50 0.2978
339.60 0.2982
339.70 0.2986
339.80 0.299
339.90 0.2994
340.00 0.2998
340.10 0.3002
340.20 0.3006
340.30 0.3011
340.40 0.3015
340.50 0.3019
340.60 0.3023
340.70 0.3027
340.80 0.3032
340.90 0.3036
341.00 0.304
341.10 0.3044
341.20 0.3048
341.30 0.3052
341.40 0.3056
341.50 0.3061
341.60 0.3065
341.70 0.3069
341.80 0.3073
341.90 0.3077
342.00 0.3081
342.10 0.3085
342.20 0.309
342.30 0.3094
342.40 0.3098
342.50 0.3102
342.60 0.3107
342.70 0.3111
342.80 0.3115
342.90 0.3119
343.00 0.3123
343.10 0.3128
343.20 0.3132
343.30 0.3136
343.40 0.314
343.50 0.3144
343.60 0.3148
343.70 0.3153
343.80 0.3157
343.90 0.3161
344.00 0.3165
344.10 0.3169
344.20 0.3174
344.30 0.3178
344.40 0.3182
344.50 0.3186
344.60 0.3191
344.70 0.3195
344.80 0.3199
344.90 0.3203
345.00 0.3208
345.10 0.3212
345.20 0.3216
345.30 0.322
345.40 0.3225
345.50 0.3229
345.60 0.3233
345.70 0.3237
345.80 0.3241
345.90 0.3246
346.00 0.325
346.10 0.3254
346.20 0.3259
346.30 0.3263
346.40 0.3267
346.50 0.3271
346.60 0.3276
346.70 0.328
346.80 0.3284
346.90 0.3289
347.00 0.3293
347.10 0.3297
347.20 0.3301
347.30 0.3306
347.40 0.331
347.50 0.3314
347.60 0.3318
347.70 0.3323
347.80 0.3327
347.90 0.3331
348.00 0.3335
348.10 0.334
348.20 0.3344
348.30 0.3348
348.40 0.3353
348.50 0.3357
348.60 0.3361
348.70 0.3366
348.80 0.337
348.90 0.3374
349.00 0.3379
349.10 0.3383
349.20 0.3387
349.30 0.3392
349.40 0.3396
349.50 0.34
349.60 0.3404
349.70 0.3409
349.80 0.3413
349.90 0.3417
350.00 0.3421
350.10 0.3426
350.20 0.343
350.30 0.3435
350.40 0.3439
350.50 0.3443
350.60 0.3448
350.70 0.3452
350.80 0.3457
350.90 0.3461
351.00 0.3465
351.10 0.347
351.20 0.3474
351.30 0.3478
351.40 0.3483
351.50 0.3487
351.60 0.3491
351.70 0.3496
351.80 0.35
351.90 0.3504
352.00 0.3508
352.10 0.3513
352.20 0.3517
352.30 0.3522
352.40 0.3526
352.50 0.3531
352.60 0.3535
352.70 0.3539
352.80 0.3544
352.90 0.3548
353.00 0.3552
353.10 0.3557
353.20 0.3561
353.30 0.3565
353.40 0.357
353.50 0.3574
353.60 0.3579
353.70 0.3583
353.80 0.3587
353.90 0.3592
354.00 0.3596
354.10 0.36
354.20 0.3605
354.30 0.3609
354.40 0.3614
354.50 0.3618
354.60 0.3623
354.70 0.3627
354.80 0.3631
354.90 0.3636
355.00 0.364
355.10 0.3645
355.20 0.3649
355.30 0.3653
355.40 0.3658
355.50 0.3662
355.60 0.3667
355.70 0.3671
355.80 0.3675
355.90 0.368
356.00 0.3684
356.10 0.3689
356.20 0.3693
356.30 0.3698
356.40 0.3702
356.50 0.3707
356.60 0.3711
356.70 0.3715
356.80 0.372
356.90 0.3724
357.00 0.3729
357.10 0.3733
357.20 0.3738
357.30 0.3742
357.40 0.3746
357.50 0.3751
357.60 0.3755
357.70 0.376
357.80 0.3764
357.90 0.3768
358.00 0.3773
358.10 0.3777
358.20 0.3782
358.30 0.3786
358.40 0.3791
358.50 0.3795
358.60 0.38
358.70 0.3804
358.80 0.3809
358.90 0.3813
359.00 0.3818
359.10 0.3822
359.20 0.3827
359.30 0.3831
359.40 0.3836
359.50 0.384
359.60 0.3844
359.70 0.3849
359.80 0.3853
359.90 0.3858
360.00 0.3862
360.10 0.3867
360.20 0.3871
360.30 0.3876
360.40 0.388
360.50 0.3885
360.60 0.3889
360.70 0.3894
360.80 0.3898
360.90 0.3903
361.00 0.3907
361.10 0.3912
361.20 0.3916
361.30 0.3921
361.40 0.3925
361.50 0.393
361.60 0.3934
361.70 0.3939
361.80 0.3943
361.90 0.3948
362.00 0.3952
362.10 0.3956
362.20 0.3961
362.30 0.3966
362.40 0.397
362.50 0.3975
362.60 0.3979
362.70 0.3984
362.80 0.3988
362.90 0.3993
363.00 0.3997
363.10 0.4002
363.20 0.4006
363.30 0.4011
363.40 0.4015
363.50 0.402
363.60 0.4024
363.70 0.4029
363.80 0.4033
363.90 0.4038
364.00 0.4043
364.10 0.4047
364.20 0.4052
364.30 0.4056
364.40 0.4061
364.50 0.4065
364.60 0.407
364.70 0.4074
364.80 0.4079
364.90 0.4083
365.00 0.4088
365.10 0.4093
365.20 0.4097
365.30 0.4102
365.40 0.4106
365.50 0.4111
365.60 0.4115
365.70 0.412
365.80 0.4124
365.90 0.4129
366.00 0.4133
366.10 0.4138
366.20 0.4143
366.30 0.4147
366.40 0.4152
366.50 0.4156
366.60 0.4161
366.70 0.4166
366.80 0.417
366.90 0.4175
367.00 0.4179
367.10 0.4184
367.20 0.4188
367.30 0.4193
367.40 0.4198
367.50 0.4202
367.60 0.4207
367.70 0.4211
367.80 0.4216
367.90 0.422
368.00 0.4225
368.10 0.4229
368.20 0.4234
368.30 0.4239
368.40 0.4243
368.50 0.4248
368.60 0.4253
368.70 0.4257
368.80 0.4262
368.90 0.4266
369.00 0.4271
369.10 0.4275
369.20 0.428
369.30 0.4285
369.40 0.4289
369.50 0.4294
369.60 0.4298
369.70 0.4303
369.80 0.4307
369.90 0.4312
370.00 0.4316
370.10 0.4321
370.20 0.4326
370.30 0.433
370.40 0.4335
370.50 0.434
370.60 0.4344
370.70 0.4349
370.80 0.4354
370.90 0.4358
371.00 0.4363
371.10 0.4367
371.20 0.4372
371.30 0.4377
371.40 0.4381
371.50 0.4386
371.60 0.439
371.70 0.4395
371.80 0.44
371.90 0.4404
372.00 0.4409
372.10 0.4413
372.20 0.4418
372.30 0.4423
372.40 0.4427
372.50 0.4432
372.60 0.4437
372.70 0.4441
372.80 0.4446
372.90 0.4451
373.00 0.4455
373.10 0.446
373.20 0.4464
373.30 0.4469
373.40 0.4474
373.50 0.4478
373.60 0.4483
373.70 0.4487
373.80 0.4492
373.90 0.4497
374.00 0.4501
374.10 0.4506
374.20 0.4511
374.30 0.4515
374.40 0.452
374.50 0.4525
374.60 0.4529
374.70 0.4534
374.80 0.4539
374.90 0.4543
375.00 0.4548
375.10 0.4552
375.20 0.4557
375.30 0.4562
375.40 0.4566
375.50 0.4571
375.60 0.4576
375.70 0.458
375.80 0.4585
375.90 0.4589
376.00 0.4594
376.10 0.4599
376.20 0.4603
376.30 0.4608
376.40 0.4613
376.50 0.4617
376.60 0.4622
376.70 0.4627
376.80 0.4631
376.90 0.4636
377.00 0.4641
377.10 0.4645
377.20 0.465
377.30 0.4655
377.40 0.4659
377.50 0.4664
377.60 0.4669
377.70 0.4673
377.80 0.4678
377.90 0.4683
378.00 0.4687
378.10 0.4692
378.20 0.4697
378.30 0.4701
378.40 0.4706
378.50 0.4711
378.60 0.4715
378.70 0.472
378.80 0.4725
378.90 0.4729
379.00 0.4734
379.10 0.4739
379.20 0.4743
379.30 0.4748
379.40 0.4753
379.50 0.4757
379.60 0.4762
379.70 0.4767
379.80 0.4771
379.90 0.4776
380.00 0.4781
380.10 0.4785
380.20 0.479
380.30 0.4795
380.40 0.4799
380.50 0.4804
380.60 0.4809
380.70 0.4813
380.80 0.4818
380.90 0.4823
381.00 0.4827
381.10 0.4832
381.20 0.4837
381.30 0.4841
381.40 0.4846
381.50 0.4851
381.60 0.4856
381.70 0.486
381.80 0.4865
381.90 0.487
382.00 0.4874
382.10 0.4879
382.20 0.4884
382.30 0.4888
382.40 0.4893
382.50 0.4898
382.60 0.4902
382.70 0.4907
382.80 0.4912
382.90 0.4917
383.00 0.4921
383.10 0.4926
383.20 0.4931
383.30 0.4935
383.40 0.494
383.50 0.4945
383.60 0.4949
383.70 0.4954
383.80 0.4959
383.90 0.4964
384.00 0.4968
384.10 0.4973
384.20 0.4978
384.30 0.4982
384.40 0.4987
384.50 0.4992
384.60 0.4996
384.70 0.5001
384.80 0.5006
384.90 0.5011
385.00 0.5015
385.10 0.502
385.20 0.5025
385.30 0.5029
385.40 0.5034
385.50 0.5039
385.60 0.5043
385.70 0.5048
385.80 0.5053
385.90 0.5058
386.00 0.5062
386.10 0.5067
386.20 0.5072
386.30 0.5076
386.40 0.5081
386.50 0.5086
386.60 0.5091
386.70 0.5095
386.80 0.51
386.90 0.5105
387.00 0.5109
387.10 0.5114
387.20 0.5119
387.30 0.5124
387.40 0.5128
387.50 0.5133
387.60 0.5138
387.70 0.5142
387.80 0.5147
387.90 0.5152
388.00 0.5156
388.10 0.5161
388.20 0.5166
388.30 0.5171
388.40 0.5175
388.50 0.518
388.60 0.5185
388.70 0.519
388.80 0.5194
388.90 0.5199
389.00 0.5204
389.10 0.5208
389.20 0.5213
389.30 0.5218
389.40 0.5223
389.50 0.5227
389.60 0.5232
389.70 0.5237
389.80 0.5241
389.90 0.5246
390.00 0.5251
390.10 0.5256
390.20 0.526
390.30 0.5265
390.40 0.527
390.50 0.5274
390.60 0.5279
390.70 0.5284
390.80 0.5289
390.90 0.5293
391.00 0.5298
391.10 0.5303
391.20 0.5308
391.30 0.5312
391.40 0.5317
391.50 0.5322
391.60 0.5327
391.70 0.5331
391.80 0.5336
391.90 0.5341
392.00 0.5345
392.10 0.535
392.20 0.5355
392.30 0.536
392.40 0.5364
392.50 0.5369
392.60 0.5374
392.70 0.5379
392.80 0.5383
392.90 0.5388
393.00 0.5393
393.10 0.5397
393.20 0.5402
393.30 0.5407
393.40 0.5412
393.50 0.5416
393.60 0.5421
393.70 0.5426
393.80 0.5431
393.90 0.5435
394.00 0.544
394.10 0.5445
394.20 0.5449
394.30 0.5454
394.40 0.5459
394.50 0.5464
394.60 0.5468
394.70 0.5473
394.80 0.5478
394.90 0.5483
395.00 0.5487
395.10 0.5492
395.20 0.5497
395.30 0.5502
395.40 0.5506
395.50 0.5511
395.60 0.5516
395.70 0.552
395.80 0.5525
395.90 0.553
396.00 0.5535
396.10 0.5539
396.20 0.5544
396.30 0.5549
396.40 0.5554
396.50 0.5558
396.60 0.5563
396.70 0.5568
396.80 0.5573
396.90 0.5577
397.00 0.5582
397.10 0.5587
397.20 0.5591
397.30 0.5596
397.40 0.5601
397.50 0.5606
397.60 0.561
397.70 0.5615
397.80 0.562
397.90 0.5624
398.00 0.5629
398.10 0.5634
398.20 0.5639
398.30 0.5644
398.40 0.5648
398.50 0.5653
398.60 0.5658
398.70 0.5662
398.80 0.5667
398.90 0.5672
399.00 0.5677
399.10 0.5681
399.20 0.5686
399.30 0.5691
399.40 0.5696
399.50 0.57
399.60 0.5705
399.70 0.571
399.80 0.5715
399.90 0.5719
400.00 0.5724
400.10 0.5729
400.20 0.5733
400.30 0.5738
400.40 0.5743
400.50 0.5748
400.60 0.5752
400.70 0.5757
400.80 0.5762
400.90 0.5767
401.00 0.5771
401.10 0.5776
401.20 0.5781
401.30 0.5785
401.40 0.579
401.50 0.5795
401.60 0.58
401.70 0.5804
401.80 0.5809
401.90 0.5814
402.00 0.5819
402.10 0.5823
402.20 0.5828
402.30 0.5833
402.40 0.5838
402.50 0.5842
402.60 0.5847
402.70 0.5852
402.80 0.5856
402.90 0.5861
403.00 0.5866
403.10 0.5871
403.20 0.5875
403.30 0.588
403.40 0.5885
403.50 0.589
403.60 0.5894
403.70 0.5899
403.80 0.5904
403.90 0.5908
404.00 0.5913
404.10 0.5918
404.20 0.5923
404.30 0.5927
404.40 0.5932
404.50 0.5937
404.60 0.5942
404.70 0.5946
404.80 0.5951
404.90 0.5956
405.00 0.596
405.10 0.5965
405.20 0.597
405.30 0.5975
405.40 0.5979
405.50 0.5984
405.60 0.5989
405.70 0.5994
405.80 0.5998
405.90 0.6003
406.00 0.6008
406.10 0.6012
406.20 0.6017
406.30 0.6022
406.40 0.6027
406.50 0.6031
406.60 0.6036
406.70 0.6041
406.80 0.6045
406.90 0.605
407.00 0.6055
407.10 0.606
407.20 0.6064
407.30 0.6069
407.40 0.6074
407.50 0.6079
407.60 0.6083
407.70 0.6088
407.80 0.6093
407.90 0.6097
408.00 0.6102
408.10 0.6107
408.20 0.6112
408.30 0.6116
408.40 0.6121
408.50 0.6126
408.60 0.613
408.70 0.6135
408.80 0.614
408.90 0.6145
409.00 0.6149
409.10 0.6154
409.20 0.6159
409.30 0.6163
409.40 0.6168
409.50 0.6173
409.60 0.6177
409.70 0.6182
409.80 0.6187
409.90 0.6192
410.00 0.6196
410.10 0.6201
410.20 0.6206
410.30 0.6211
410.40 0.6215
410.50 0.622
410.60 0.6225
410.70 0.6229
410.80 0.6234
410.90 0.6239
411.00 0.6244
411.10 0.6248
411.20 0.6253
411.30 0.6258
411.40 0.6262
411.50 0.6267
411.60 0.6272
411.70 0.6276
411.80 0.6281
411.90 0.6286
412.00 0.6291
412.10 0.6295
412.20 0.63
412.30 0.6305
412.40 0.6309
412.50 0.6314
412.60 0.6319
412.70 0.6323
412.80 0.6328
412.90 0.6333
413.00 0.6338
413.10 0.6342
413.20 0.6347
413.30 0.6352
413.40 0.6356
413.50 0.6361
413.60 0.6366
413.70 0.637
413.80 0.6375
413.90 0.638
414.00 0.6385
414.10 0.6389
414.20 0.6394
414.30 0.6399
414.40 0.6403
414.50 0.6408
414.60 0.6413
414.70 0.6417
414.80 0.6422
414.90 0.6427
415.00 0.6431
415.10 0.6436
415.20 0.6441
415.30 0.6445
415.40 0.645
415.50 0.6455
415.60 0.646
415.70 0.6464
415.80 0.6469
415.90 0.6474
416.00 0.6478
416.10 0.6483
416.20 0.6488
416.30 0.6492
416.40 0.6497
416.50 0.6502
416.60 0.6506
416.70 0.6511
416.80 0.6516
416.90 0.652
417.00 0.6525
417.10 0.653
417.20 0.6534
417.30 0.6539
417.40 0.6544
417.50 0.6549
417.60 0.6553
417.70 0.6558
417.80 0.6563
417.90 0.6567
418.00 0.6572
418.10 0.6576
418.20 0.6581
418.30 0.6586
418.40 0.6591
418.50 0.6595
418.60 0.66
418.70 0.6604
418.80 0.6609
418.90 0.6614
419.00 0.6618
419.10 0.6623
419.20 0.6628
419.30 0.6633
419.40 0.6637
419.50 0.6642
419.60 0.6647
419.70 0.6651
419.80 0.6656
419.90 0.6661
420.00 0.6665
420.10 0.667
420.20 0.6674
420.30 0.6679
420.40 0.6684
420.50 0.6688
420.60 0.6693
420.70 0.6698
420.80 0.6702
420.90 0.6707
421.00 0.6712
421.10 0.6716
421.20 0.6721
421.30 0.6726
421.40 0.673
421.50 0.6735
421.60 0.674
421.70 0.6744
421.80 0.6749
421.90 0.6754
422.00 0.6758
422.10 0.6763
422.20 0.6767
422.30 0.6772
422.40 0.6777
422.50 0.6781
422.60 0.6786
422.70 0.6791
422.80 0.6795
422.90 0.68
423.00 0.6805
423.10 0.6809
423.20 0.6814
423.30 0.6819
423.40 0.6823
423.50 0.6828
423.60 0.6832
423.70 0.6837
423.80 0.6842
423.90 0.6846
424.00 0.6851
424.10 0.6856
424.20 0.686
424.30 0.6865
424.40 0.687
424.50 0.6874
424.60 0.6879
424.70 0.6883
424.80 0.6888
424.90 0.6893
425.00 0.6897
425.10 0.6902
425.20 0.6906
425.30 0.6911
425.40 0.6916
425.50 0.692
425.60 0.6925
425.70 0.693
425.80 0.6934
425.90 0.6939
426.00 0.6943
426.10 0.6948
426.20 0.6953
426.30 0.6957
426.40 0.6962
426.50 0.6967
426.60 0.6971
426.70 0.6976
426.80 0.698
426.90 0.6985
427.00 0.699
427.10 0.6994
427.20 0.6999
427.30 0.7003
427.40 0.7008
427.50 0.7013
427.60 0.7017
427.70 0.7022
427.80 0.7026
427.90 0.7031
428.00 0.7036
428.10 0.704
428.20 0.7045
428.30 0.7049
428.40 0.7054
428.50 0.7059
428.60 0.7063
428.70 0.7068
428.80 0.7072
428.90 0.7077
429.00 0.7082
429.10 0.7086
429.20 0.7091
429.30 0.7095
429.40 0.71
429.50 0.7104
429.60 0.7109
429.70 0.7114
429.80 0.7118
429.90 0.7123
430.00 0.7127
430.10 0.7132
430.20 0.7137
430.30 0.7141
430.40 0.7146
430.50 0.715
430.60 0.7155
430.70 0.7159
430.80 0.7164
430.90 0.7169
431.00 0.7173
431.10 0.7178
431.20 0.7182
431.30 0.7187
431.40 0.7191
431.50 0.7196
431.60 0.7201
431.70 0.7205
431.80 0.721
431.90 0.7214
432.00 0.7219
432.10 0.7223
432.20 0.7228
432.30 0.7233
432.40 0.7237
432.50 0.7242
432.60 0.7246
432.70 0.7251
432.80 0.7255
432.90 0.726
433.00 0.7264
433.10 0.7269
433.20 0.7274
433.30 0.7278
433.40 0.7283
433.50 0.7287
433.60 0.7292
433.70 0.7296
433.80 0.7301
433.90 0.7305
434.00 0.731
434.10 0.7314
434.20 0.7319
434.30 0.7324
434.40 0.7328
434.50 0.7333
434.60 0.7337
434.70 0.7342
434.80 0.7346
434.90 0.7351
435.00 0.7355
435.10 0.736
435.20 0.7364
435.30 0.7369
435.40 0.7374
435.50 0.7378
435.60 0.7382
435.70 0.7387
435.80 0.7392
435.90 0.7396
436.00 0.7401
436.10 0.7405
436.20 0.741
436.30 0.7414
436.40 0.7419
436.50 0.7423
436.60 0.7428
436.70 0.7432
436.80 0.7437
436.90 0.7441
437.00 0.7446
437.10 0.745
437.20 0.7455
437.30 0.7459
437.40 0.7464
437.50 0.7468
437.60 0.7473
437.70 0.7477
437.80 0.7482
437.90 0.7486
438.00 0.7491
438.10 0.7495
438.20 0.75
438.30 0.7504
438.40 0.7509
438.50 0.7513
438.60 0.7518
438.70 0.7522
438.80 0.7527
438.90 0.7531
439.00 0.7536
439.10 0.754
439.20 0.7545
439.30 0.7549
439.40 0.7554
439.50 0.7558
439.60 0.7563
439.70 0.7567
439.80 0.7572
439.90 0.7576
440.00 0.7581
440.10 0.7585
440.20 0.759
440.30 0.7594
440.40 0.7599
440.50 0.7603
440.60 0.7607
440.70 0.7612
440.80 0.7616
440.90 0.7621
441.00 0.7625
441.10 0.763
441.20 0.7634
441.30 0.7639
441.40 0.7643
441.50 0.7648
441.60 0.7652
441.70 0.7657
441.80 0.7661
441.90 0.7665
442.00 0.767
442.10 0.7674
442.20 0.7679
442.30 0.7683
442.40 0.7688
442.50 0.7692
442.60 0.7697
442.70 0.7701
442.80 0.7706
442.90 0.771
443.00 0.7715
443.10 0.7719
443.20 0.7723
443.30 0.7728
443.40 0.7732
443.50 0.7737
443.60 0.7741
443.70 0.7746
443.80 0.775
443.90 0.7754
444.00 0.7759
444.10 0.7763
444.20 0.7768
444.30 0.7772
444.40 0.7777
444.50 0.7781
444.60 0.7785
444.70 0.779
444.80 0.7794
444.90 0.7799
445.00 0.7803
445.10 0.7808
445.20 0.7812
445.30 0.7816
445.40 0.7821
445.50 0.7825
445.60 0.783
445.70 0.7834
445.80 0.7838
445.90 0.7843
446.00 0.7847
446.10 0.7852
446.20 0.7856
446.30 0.786
446.40 0.7865
446.50 0.7869
446.60 0.7874
446.70 0.7878
446.80 0.7883
446.90 0.7887
447.00 0.7891
447.10 0.7896
447.20 0.79
447.30 0.7904
447.40 0.7909
447.50 0.7913
447.60 0.7918
447.70 0.7922
447.80 0.7926
447.90 0.7931
448.00 0.7935
448.10 0.7939
448.20 0.7944
448.30 0.7948
448.40 0.7953
448.50 0.7957
448.60 0.7961
448.70 0.7966
448.80 0.797
448.90 0.7975
449.00 0.7979
449.10 0.7983
449.20 0.7988
449.30 0.7992
449.40 0.7996
449.50 0.8001
449.60 0.8005
449.70 0.8009
449.80 0.8014
449.90 0.8018
450.00 0.8022
450.10 0.8027
450.20 0.8031
450.30 0.8036
450.40 0.804
450.50 0.8044
450.60 0.8049
450.70 0.8053
450.80 0.8057
450.90 0.8062
451.00 0.8066
451.10 0.807
451.20 0.8075
451.30 0.8079
451.40 0.8083
451.50 0.8088
451.60 0.8092
451.70 0.8096
451.80 0.8101
451.90 0.8105
452.00 0.8109
452.10 0.8114
452.20 0.8118
452.30 0.8122
452.40 0.8127
452.50 0.8131
452.60 0.8135
452.70 0.814
452.80 0.8144
452.90 0.8148
453.00 0.8153
453.10 0.8157
453.20 0.8161
453.30 0.8165
453.40 0.817
453.50 0.8174
453.60 0.8178
453.70 0.8183
453.80 0.8187
453.90 0.8191
454.00 0.8196
454.10 0.82
454.20 0.8204
454.30 0.8208
454.40 0.8213
454.50 0.8217
454.60 0.8221
454.70 0.8226
454.80 0.823
454.90 0.8234
455.00 0.8239
455.10 0.8243
455.20 0.8247
455.30 0.8251
455.40 0.8256
455.50 0.826
455.60 0.8264
455.70 0.8268
455.80 0.8273
455.90 0.8277
456.00 0.8281
456.10 0.8286
456.20 0.829
456.30 0.8294
456.40 0.8298
456.50 0.8303
456.60 0.8307
456.70 0.8311
456.80 0.8315
456.90 0.832
457.00 0.8324
457.10 0.8328
457.20 0.8332
457.30 0.8337
457.40 0.8341
457.50 0.8345
457.60 0.835
457.70 0.8354
457.80 0.8358
457.90 0.8362
458.00 0.8367
458.10 0.8371
458.20 0.8375
458.30 0.8379
458.40 0.8383
458.50 0.8388
458.60 0.8392
458.70 0.8396
458.80 0.84
458.90 0.8405
459.00 0.8409
459.10 0.8413
459.20 0.8417
459.30 0.8421
459.40 0.8426
459.50 0.843
459.60 0.8434
459.70 0.8438
459.80 0.8443
459.90 0.8447
460.00 0.8451
460.10 0.8455
460.20 0.8459
460.30 0.8464
460.40 0.8468
460.50 0.8472
460.60 0.8476
460.70 0.848
460.80 0.8485
460.90 0.8489
461.00 0.8493
461.10 0.8497
461.20 0.8501
461.30 0.8506
461.40 0.851
461.50 0.8514
461.60 0.8518
461.70 0.8522
461.80 0.8527
461.90 0.8531
462.00 0.8535
462.10 0.8539
462.20 0.8543
462.30 0.8547
462.40 0.8552
462.50 0.8556
462.60 0.856
462.70 0.8564
462.80 0.8568
462.90 0.8572
463.00 0.8577
463.10 0.8581
463.20 0.8585
463.30 0.8589
463.40 0.8593
463.50 0.8597
463.60 0.8602
463.70 0.8606
463.80 0.861
463.90 0.8614
464.00 0.8618
464.10 0.8622
464.20 0.8626
464.30 0.8631
464.40 0.8635
464.50 0.8639
464.60 0.8643
464.70 0.8647
464.80 0.8651
464.90 0.8656
465.00 0.866
465.10 0.8664
465.20 0.8668
465.30 0.8672
465.40 0.8676
465.50 0.868
465.60 0.8684
465.70 0.8689
465.80 0.8693
465.90 0.8697
466.00 0.8701
466.10 0.8705
466.20 0.8709
466.30 0.8713
466.40 0.8717
466.50 0.8721
466.60 0.8726
466.70 0.873
466.80 0.8734
466.90 0.8738
467.00 0.8742
467.10 0.8746
467.20 0.875
467.30 0.8754
467.40 0.8758
467.50 0.8763
467.60 0.8767
467.70 0.8771
467.80 0.8775
467.90 0.8779
468.00 0.8783
468.10 0.8787
468.20 0.8791
468.30 0.8795
468.40 0.8799
468.50 0.8803
468.60 0.8807
468.70 0.8811
468.80 0.8816
468.90 0.882
469.00 0.8824
469.10 0.8828
469.20 0.8832
469.30 0.8836
469.40 0.884
469.50 0.8844
469.60 0.8848
469.70 0.8852
469.80 0.8856
469.90 0.886
470.00 0.8864
470.10 0.8868
470.20 0.8872
470.30 0.8876
470.40 0.8881
470.50 0.8885
470.60 0.8889
470.70 0.8893
470.80 0.8897
470.90 0.8901
471.00 0.8905
471.10 0.8909
471.20 0.8913
471.30 0.8917
471.40 0.8921
471.50 0.8925
471.60 0.8929
471.70 0.8933
471.80 0.8937
471.90 0.8941
472.00 0.8945
472.10 0.8949
472.20 0.8953
472.30 0.8957
472.40 0.8961
472.50 0.8965
472.60 0.8969
472.70 0.8973
472.80 0.8977
472.90 0.8981
473.00 0.8985
473.10 0.8989
473.20 0.8993
473.30 0.8997
473.40 0.9001
473.50 0.9005
473.60 0.9009
473.70 0.9013
473.80 0.9017
473.90 0.9021
474.00 0.9025
474.10 0.9029
474.20 0.9033
474.30 0.9037
474.40 0.9041
474.50 0.9045
474.60 0.9049
474.70 0.9053
474.80 0.9057
474.90 0.9061
475.00 0.9065
475.10 0.9069
475.20 0.9073
475.30 0.9077
475.40 0.9081
475.50 0.9085
475.60 0.9089
475.70 0.9093
475.80 0.9096
475.90 0.91
476.00 0.9104
476.10 0.9108
476.20 0.9112
476.30 0.9116
476.40 0.912
476.50 0.9124
476.60 0.9128
476.70 0.9132
476.80 0.9136
476.90 0.914
477.00 0.9144
477.10 0.9148
477.20 0.9152
477.30 0.9156
477.40 0.9159
477.50 0.9163
477.60 0.9167
477.70 0.9171
477.80 0.9175
477.90 0.9179
478.00 0.9183
478.10 0.9187
478.20 0.9191
478.30 0.9195
478.40 0.9199
478.50 0.9203
478.60 0.9207
478.70 0.921
478.80 0.9214
478.90 0.9218
479.00 0.9222
479.10 0.9226
479.20 0.923
479.30 0.9234
479.40 0.9238
479.50 0.9242
479.60 0.9245
479.70 0.9249
479.80 0.9253
479.90 0.9257
480.00 0.9261
480.10 0.9265
480.20 0.9269
480.30 0.9273
480.40 0.9276
480.50 0.928
480.60 0.9284
480.70 0.9288
480.80 0.9292
480.90 0.9296
481.00 0.93
481.10 0.9304
481.20 0.9307
481.30 0.9311
481.40 0.9315
481.50 0.9319
481.60 0.9323
481.70 0.9327
481.80 0.9331
481.90 0.9334
482.00 0.9338
482.10 0.9342
482.20 0.9346
482.30 0.935
482.40 0.9354
482.50 0.9357
482.60 0.9361
482.70 0.9365
482.80 0.9369
482.90 0.9373
483.00 0.9377
483.10 0.938
483.20 0.9384
483.30 0.9388
483.40 0.9392
483.50 0.9396
483.60 0.94
483.70 0.9403
483.80 0.9407
483.90 0.9411
484.00 0.9415
484.10 0.9419
484.20 0.9422
484.30 0.9426
484.40 0.943
484.50 0.9434
484.60 0.9438
484.70 0.9441
484.80 0.9445
484.90 0.9449
485.00 0.9453
485.10 0.9456
485.20 0.946
485.30 0.9464
485.40 0.9468
485.50 0.9472
485.60 0.9475
485.70 0.9479
485.80 0.9483
485.90 0.9487
486.00 0.949
486.10 0.9494
486.20 0.9498
486.30 0.9502
486.40 0.9505
486.50 0.9509
486.60 0.9513
486.70 0.9517
486.80 0.9521
486.90 0.9524
487.00 0.9528
487.10 0.9532
487.20 0.9536
487.30 0.9539
487.40 0.9543
487.50 0.9547
487.60 0.9551
487.70 0.9554
487.80 0.9558
487.90 0.9562
488.00 0.9566
488.10 0.9569
488.20 0.9573
488.30 0.9577
488.40 0.9581
488.50 0.9584
488.60 0.9588
488.70 0.9592
488.80 0.9595
488.90 0.9599
489.00 0.9603
489.10 0.9607
489.20 0.961
489.30 0.9614
489.40 0.9618
489.50 0.9621
489.60 0.9625
489.70 0.9629
489.80 0.9633
489.90 0.9636
490.00 0.964
490.10 0.9644
490.20 0.9647
490.30 0.9651
490.40 0.9655
490.50 0.9658
490.60 0.9662
490.70 0.9666
490.80 0.9669
490.90 0.9673
491.00 0.9677
491.10 0.968
491.20 0.9684
491.30 0.9688
491.40 0.9691
491.50 0.9695
491.60 0.9699
491.70 0.9702
491.80 0.9706
491.90 0.971
492.00 0.9713
492.10 0.9717
492.20 0.9721
492.30 0.9724
492.40 0.9728
492.50 0.9732
492.60 0.9735
492.70 0.9739
492.80 0.9743
492.90 0.9746
493.00 0.975
493.10 0.9754
493.20 0.9757
493.30 0.9761
493.40 0.9765
493.50 0.9768
493.60 0.9772
493.70 0.9775
493.80 0.9779
493.90 0.9783
494.00 0.9786
494.10 0.979
494.20 0.9793
494.30 0.9797
494.40 0.9801
494.50 0.9804
494.60 0.9808
494.70 0.9812
494.80 0.9815
494.90 0.9819
495.00 0.9822
495.10 0.9826
495.20 0.983
495.30 0.9833
495.40 0.9837
495.50 0.984
495.60 0.9844
495.70 0.9848
495.80 0.9851
495.90 0.9855
496.00 0.9858
496.10 0.9862
496.20 0.9865
496.30 0.9869
496.40 0.9873
496.50 0.9876
496.60 0.988
496.70 0.9883
496.80 0.9887
496.90 0.989
497.00 0.9894
497.10 0.9898
497.20 0.9901
497.30 0.9905
497.40 0.9908
497.50 0.9912
497.60 0.9915
497.70 0.9919
497.80 0.9922
497.90 0.9926
498.00 0.993
498.10 0.9933
498.20 0.9937
498.30 0.994
498.40 0.9944
498.50 0.9947
498.60 0.9951
498.70 0.9954
498.80 0.9958
498.90 0.9961
499.00 0.9965
499.10 0.9968
499.20 0.9972
499.30 0.9975
499.40 0.9979
499.50 0.9983
499.60 0.9986
499.70 0.999
499.80 0.9993
499.90 0.9997
500.00 1
500.10 1
500.20 1.001
500.30 1.001
500.40 1.001
500.50 1.002
500.60 1.002
500.70 1.002
500.80 1.003
500.90 1.003
501.00 1.003
501.10 1.004
501.20 1.004
501.30 1.005
501.40 1.005
501.50 1.005
501.60 1.006
501.70 1.006
501.80 1.006
501.90 1.007
502.00 1.007
502.10 1.007
502.20 1.008
502.30 1.008
502.40 1.008
502.50 1.009
502.60 1.009
502.70 1.009
502.80 1.01
502.90 1.01
503.00 1.01
503.10 1.011
503.20 1.011
503.30 1.011
503.40 1.012
503.50 1.012
503.60 1.012
503.70 1.013
503.80 1.013
503.90 1.014
504.00 1.014
504.10 1.014
504.20 1.015
504.30 1.015
504.40 1.015
504.50 1.016
504.60 1.016
504.70 1.016
504.80 1.017
504.90 1.017
505.00 1.017
505.10 1.018
505.20 1.018
505.30 1.018
505.40 1.019
505.50 1.019
505.60 1.019
505.70 1.02
505.80 1.02
505.90 1.02
506.00 1.021
506.10 1.021
506.20 1.021
506.30 1.022
506.40 1.022
506.50 1.022
506.60 1.023
506.70 1.023
506.80 1.023
506.90 1.024
507.00 1.024
507.10 1.024
507.20 1.025
507.30 1.025
507.40 1.025
507.50 1.026
507.60 1.026
507.70 1.026
507.80 1.027
507.90 1.027
508.00 1.027
508.10 1.028
508.20 1.028
508.30 1.028
508.40 1.029
508.50 1.029
508.60 1.029
508.70 1.03
508.80 1.03
508.90 1.03
509.00 1.031
509.10 1.031
509.20 1.031
509.30 1.032
509.40 1.032
509.50 1.032
509.60 1.033
509.70 1.033
509.80 1.033
509.90 1.034
510.00 1.034
510.10 1.034
510.20 1.035
510.30 1.035
510.40 1.035
510.50 1.036
510.60 1.036
510.70 1.036
510.80 1.037
510.90 1.037
511.00 1.037
511.10 1.038
511.20 1.038
511.30 1.038
511.40 1.039
511.50 1.039
511.60 1.039
511.70 1.04
511.80 1.04
511.90 1.04
512.00 1.041
512.10 1.041
512.20 1.041
512.30 1.042
512.40 1.042
512.50 1.042
512.60 1.043
512.70 1.043
512.80 1.043
512.90 1.044
513.00 1.044
513.10 1.044
513.20 1.045
513.30 1.045
513.40 1.045
513.50 1.045
513.60 1.046
513.70 1.046
513.80 1.046
513.90 1.047
514.00 1.047
514.10 1.047
514.20 1.048
514.30 1.048
514.40 1.048
514.50 1.049
514.60 1.049
514.70 1.049
514.80 1.05
514.90 1.05
515.00 1.05
515.10 1.051
515.20 1.051
515.30 1.051
515.40 1.052
515.50 1.052
515.60 1.052
515.70 1.053
515.80 1.053
515.90 1.053
516.00 1.054
516.10 1.054
516.20 1.054
516.30 1.054
516.40 1.055
516.50 1.055
516.60 1.055
516.70 1.056
516.80 1.056
516.90 1.056
517.00 1.057
517.10 1.057
517.20 1.057
517.30 1.058
517.40 1.058
517.50 1.058
517.60 1.059
517.70 1.059
517.80 1.059
517.90 1.06
518.00 1.06
518.10 1.06
518.20 1.06
518.30 1.061
518.40 1.061
518.50 1.061
518.60 1.062
518.70 1.062
518.80 1.062
518.90 1.063
519.00 1.063
519.10 1.063
519.20 1.064
519.30 1.064
519.40 1.064
519.50 1.065
519.60 1.065
519.70 1.065
519.80 1.065
519.90 1.066
520.00 1.066
520.10 1.066
520.20 1.067
520.30 1.067
520.40 1.067
520.50 1.068
520.60 1.068
520.70 1.068
520.80 1.069
520.90 1.069
521.00 1.069
521.10 1.069
521.20 1.07
521.30 1.07
521.40 1.07
521.50 1.071
521.60 1.071
521.70 1.071
521.80 1.072
521.90 1.072
522.00 1.072
522.10 1.073
522.20 1.073
522.30 1.073
522.40 1.073
522.50 1.074
522.60 1.074
522.70 1.074
522.80 1.075
522.90 1.075
523.00 1.075
523.10 1.076
523.20 1.076
523.30 1.076
523.40 1.077
523.50 1.077
523.60 1.077
523.70 1.077
523.80 1.078
523.90 1.078
524.00 1.078
524.10 1.079
524.20 1.079
524.30 1.079
524.40 1.08
524.50 1.08
524.60 1.08
524.70 1.08
524.80 1.081
524.90 1.081
525.00 1.081
525.10 1.082
525.20 1.082
525.30 1.082
525.40 1.083
525.50 1.083
525.60 1.083
525.70 1.083
525.80 1.084
525.90 1.084
526.00 1.084
526.10 1.085
526.20 1.085
526.30 1.085
526.40 1.086
526.50 1.086
526.60 1.086
526.70 1.086
526.80 1.087
526.90 1.087
527.00 1.087
527.10 1.088
527.20 1.088
527.30 1.088
527.40 1.088
527.50 1.089
527.60 1.089
527.70 1.089
527.80 1.09
527.90 1.09
528.00 1.09
528.10 1.091
528.20 1.091
528.30 1.091
528.40 1.091
528.50 1.092
528.60 1.092
528.70 1.092
528.80 1.093
528.90 1.093
529.00 1.093
529.10 1.093
529.20 1.094
529.30 1.094
529.40 1.094
529.50 1.095
529.60 1.095
529.70 1.095
529.80 1.096
529.90 1.096
530.00 1.096
530.10 1.096
530.20 1.097
530.30 1.097
530.40 1.097
530.50 1.098
530.60 1.098
530.70 1.098
530.80 1.098
530.90 1.099
531.00 1.099
531.10 1.099
531.20 1.1
531.30 1.1
531.40 1.1
531.50 1.1
531.60 1.101
531.70 1.101
531.80 1.101
531.90 1.102
532.00 1.102
532.10 1.102
532.20 1.102
532.30 1.103
532.40 1.103
532.50 1.103
532.60 1.104
532.70 1.104
532.80 1.104
532.90 1.104
533.00 1.105
533.10 1.105
533.20 1.105
533.30 1.106
533.40 1.106
533.50 1.106
533.60 1.106
533.70 1.107
533.80 1.107
533.90 1.107
534.00 1.108
534.10 1.108
534.20 1.108
534.30 1.108
534.40 1.109
534.50 1.109
534.60 1.109
534.70 1.109
534.80 1.11
534.90 1.11
535.00 1.11
535.10 1.111
535.20 1.111
535.30 1.111
535.40 1.111
535.50 1.112
535.60 1.112
535.70 1.112
535.80 1.113
535.90 1.113
536.00 1.113
536.10 1.113
536.20 1.114
536.30 1.114
536.40 1.114
536.50 1.114
536.60 1.115
536.70 1.115
536.80 1.115
536.90 1.116
537.00 1.116
537.10 1.116
537.20 1.116
537.30 1.117
537.40 1.117
537.50 1.117
537.60 1.117
537.70 1.118
537.80 1.118
537.90 1.118
538.00 1.119
538.10 1.119
538.20 1.119
538.30 1.119
538.40 1.12
538.50 1.12
538.60 1.12
538.70 1.12
538.80 1.121
538.90 1.121
539.00 1.121
539.10 1.122
539.20 1.122
539.30 1.122
539.40 1.122
539.50 1.123
539.60 1.123
539.70 1.123
539.80 1.123
539.90 1.124
540.00 1.124
540.10 1.124
540.20 1.125
540.30 1.125
540.40 1.125
540.50 1.125
540.60 1.126
540.70 1.126
540.80 1.126
540.90 1.126
541.00 1.127
541.10 1.127
541.20 1.127
541.30 1.127
541.40 1.128
541.50 1.128
541.60 1.128
541.70 1.129
541.80 1.129
541.90 1.129
542.00 1.129
542.10 1.13
542.20 1.13
542.30 1.13
542.40 1.13
542.50 1.131
542.60 1.131
542.70 1.131
542.80 1.131
542.90 1.132
543.00 1.132
543.10 1.132
543.20 1.133
543.30 1.133
543.40 1.133
543.50 1.133
543.60 1.134
543.70 1.134
543.80 1.134
543.90 1.134
544.00 1.135
544.10 1.135
544.20 1.135
544.30 1.135
544.40 1.136
544.50 1.136
544.60 1.136
544.70 1.136
544.80 1.137
544.90 1.137
545.00 1.137
545.10 1.137
545.20 1.138
545.30 1.138
545.40 1.138
545.50 1.138
545.60 1.139
545.70 1.139
545.80 1.139
545.90 1.139
546.00 1.14
546.10 1.14
546.20 1.14
546.30 1.141
546.40 1.141
546.50 1.141
546.60 1.141
546.70 1.142
546.80 1.142
546.90 1.142
547.00 1.142
547.10 1.143
547.20 1.143
547.30 1.143
547.40 1.143
547.50 1.144
547.60 1.144
547.70 1.144
547.80 1.144
547.90 1.145
548.00 1.145
548.10 1.145
548.20 1.145
548.30 1.146
548.40 1.146
548.50 1.146
548.60 1.146
548.70 1.147
548.80 1.147
548.90 1.147
549.00 1.147
549.10 1.148
549.20 1.148
549.30 1.148
549.40 1.148
549.50 1.149
549.60 1.149
549.70 1.149
549.80 1.149
549.90 1.15
550.00 1.15
550.10 1.15
550.20 1.15
550.30 1.151
550.40 1.151
550.50 1.151
550.60 1.151
550.70 1.152
550.80 1.152
550.90 1.152
551.00 1.152
551.10 1.153
551.20 1.153
551.30 1.153
551.40 1.153
551.50 1.154
551.60 1.154
551.70 1.154
551.80 1.154
551.90 1.155
552.00 1.155
552.10 1.155
552.20 1.155
552.30 1.155
552.40 1.156
552.50 1.156
552.60 1.156
552.70 1.156
552.80 1.157
552.90 1.157
553.00 1.157
553.10 1.157
553.20 1.158
553.30 1.158
553.40 1.158
553.50 1.158
553.60 1.159
553.70 1.159
553.80 1.159
553.90 1.159
554.00 1.16
554.10 1.16
554.20 1.16
554.30 1.16
554.40 1.161
554.50 1.161
554.60 1.161
554.70 1.161
554.80 1.162
554.90 1.162
555.00 1.162
555.10 1.162
555.20 1.162
555.30 1.163
555.40 1.163
555.50 1.163
555.60 1.163
555.70 1.164
555.80 1.164
555.90 1.164
556.00 1.164
556.10 1.165
556.20 1.165
556.30 1.165
556.40 1.165
556.50 1.166
556.60 1.166
556.70 1.166
556.80 1.166
556.90 1.166
557.00 1.167
557.10 1.167
557.20 1.167
557.30 1.167
557.40 1.168
557.50 1.168
557.60 1.168
557.70 1.168
557.80 1.169
557.90 1.169
558.00 1.169
558.10 1.169
558.20 1.17
558.30 1.17
558.40 1.17
558.50 1.17
558.60 1.17
558.70 1.171
558.80 1.171
558.90 1.171
559.00 1.171
559.10 1.172
559.20 1.172
559.30 1.172
559.40 1.172
559.50 1.172
559.60 1.173
559.70 1.173
559.80 1.173
559.90 1.173
560.00 1.174
560.10 1.174
560.20 1.174
560.30 1.174
560.40 1.175
560.50 1.175
560.60 1.175
560.70 1.175
560.80 1.175
560.90 1.176
561.00 1.176
561.10 1.176
561.20 1.176
561.30 1.177
561.40 1.177
561.50 1.177
561.60 1.177
561.70 1.177
561.80 1.178
561.90 1.178
562.00 1.178
562.10 1.178
562.20 1.179
562.30 1.179
562.40 1.179
562.50 1.179
562.60 1.179
562.70 1.18
562.80 1.18
562.90 1.18
563.00 1.18
563.10 1.181
563.20 1.181
563.30 1.181
563.40 1.181
563.50 1.181
563.60 1.182
563.70 1.182
563.80 1.182
563.90 1.182
564.00 1.183
564.10 1.183
564.20 1.183
564.30 1.183
564.40 1.183
564.50 1.184
564.60 1.184
564.70 1.184
564.80 1.184
564.90 1.185
565.00 1.185
565.10 1.185
565.20 1.185
565.30 1.185
565.40 1.186
565.50 1.186
565.60 1.186
565.70 1.186
565.80 1.186
565.90 1.187
566.00 1.187
566.10 1.187
566.20 1.187
566.30 1.188
566.40 1.188
566.50 1.188
566.60 1.188
566.70 1.188
566.80 1.189
566.90 1.189
567.00 1.189
567.10 1.189
567.20 1.189
567.30 1.19
567.40 1.19
567.50 1.19
567.60 1.19
567.70 1.191
567.80 1.191
567.90 1.191
568.00 1.191
568.10 1.191
568.20 1.192
568.30 1.192
568.40 1.192
568.50 1.192
568.60 1.192
568.70 1.193
568.80 1.193
568.90 1.193
569.00 1.193
569.10 1.193
569.20 1.194
569.30 1.194
569.40 1.194
569.50 1.194
569.60 1.195
569.70 1.195
569.80 1.195
569.90 1.195
570.00 1.195
570.10 1.196
570.20 1.196
570.30 1.196
570.40 1.196
570.50 1.196
570.60 1.197
570.70 1.197
570.80 1.197
570.90 1.197
571.00 1.197
571.10 1.198
571.20 1.198
571.30 1.198
571.40 1.198
571.50 1.198
571.60 1.199
571.70 1.199
571.80 1.199
571.90 1.199
572.00 1.199
572.10 1.2
572.20 1.2
572.30 1.2
572.40 1.2
572.50 1.2
572.60 1.201
572.70 1.201
572.80 1.201
572.90 1.201
573.00 1.201
573.10 1.202
573.20 1.202
573.30 1.202
573.40 1.202
573.50 1.202
573.60 1.203
573.70 1.203
573.80 1.203
573.90 1.203
574.00 1.203
574.10 1.204
574.20 1.204
574.30 1.204
574.40 1.204
574.50 1.204
574.60 1.205
574.70 1.205
574.80 1.205
574.90 1.205
575.00 1.205
575.10 1.206
575.20 1.206
575.30 1.206
575.40 1.206
575.50 1.206
575.60 1.207
575.70 1.207
575.80 1.207
575.90 1.207
576.00 1.207
576.10 1.208
576.20 1.208
576.30 1.208
576.40 1.208
576.50 1.208
576.60 1.209
576.70 1.209
576.80 1.209
576.90 1.209
577.00 1.209
577.10 1.21
577.20 1.21
577.30 1.21
577.40 1.21
577.50 1.21
577.60 1.211
577.70 1.211
577.80 1.211
577.90 1.211
578.00 1.211
578.10 1.211
578.20 1.212
578.30 1.212
578.40 1.212
578.50 1.212
578.60 1.212
578.70 1.213
578.80 1.213
578.90 1.213
579.00 1.213
579.10 1.213
579.20 1.213
579.30 1.214
579.40 1.214
579.50 1.214
579.60 1.214
579.70 1.214
579.80 1.215
579.90 1.215
580.00 1.215
580.10 1.215
580.20 1.215
580.30 1.216
580.40 1.216
580.50 1.216
580.60 1.216
580.70 1.216
580.80 1.217
580.90 1.217
581.00 1.217
581.10 1.217
581.20 1.217
581.30 1.217
581.40 1.218
581.50 1.218
581.60 1.218
581.70 1.218
581.80 1.218
581.90 1.219
582.00 1.219
582.10 1.219
582.20 1.219
582.30 1.219
582.40 1.219
582.50 1.22
582.60 1.22
582.70 1.22
582.80 1.22
582.90 1.22
583.00 1.221
583.10 1.221
583.20 1.221
583.30 1.221
583.40 1.221
583.50 1.221
583.60 1.222
583.70 1.222
583.80 1.222
583.90 1.222
584.00 1.222
584.10 1.222
584.20 1.223
584.30 1.223
584.40 1.223
584.50 1.223
584.60 1.223
584.70 1.224
584.80 1.224
584.90 1.224
585.00 1.224
585.10 1.224
585.20 1.225
585.30 1.225
585.40 1.225
585.50 1.225
585.60 1.225
585.70 1.225
585.80 1.226
585.90 1.226
586.00 1.226
586.10 1.226
586.20 1.226
586.30 1.226
586.40 1.227
586.50 1.227
586.60 1.227
586.70 1.227
586.80 1.227
586.90 1.227
587.00 1.228
587.10 1.228
587.20 1.228
587.30 1.228
587.40 1.228
587.50 1.228
587.60 1.229
587.70 1.229
587.80 1.229
587.90 1.229
588.00 1.229
588.10 1.23
588.20 1.23
588.30 1.23
588.40 1.23
588.50 1.23
588.60 1.23
588.70 1.231
588.80 1.231
588.90 1.231
589.00 1.231
589.10 1.231
589.20 1.231
589.30 1.232
589.40 1.232
589.50 1.232
589.60 1.232
589.70 1.232
589.80 1.232
589.90 1.233
590.00 1.233
590.10 1.233
590.20 1.233
590.30 1.233
590.40 1.233
590.50 1.234
590.60 1.234
590.70 1.234
590.80 1.234
590.90 1.234
591.00 1.234
591.10 1.235
591.20 1.235
591.30 1.235
591.40 1.235
591.50 1.235
591.60 1.235
591.70 1.236
591.80 1.236
591.90 1.236
592.00 1.236
592.10 1.236
592.20 1.236
592.30 1.237
592.40 1.237
592.50 1.237
592.60 1.237
592.70 1.237
592.80 1.237
592.90 1.238
593.00 1.238
593.10 1.238
593.20 1.238
593.30 1.238
593.40 1.238
593.50 1.238
593.60 1.239
593.70 1.239
593.80 1.239
593.90 1.239
594.00 1.239
594.10 1.239
594.20 1.24
594.30 1.24
594.40 1.24
594.50 1.24
594.60 1.24
594.70 1.24
594.80 1.241
594.90 1.241
595.00 1.241
595.10 1.241
595.20 1.241
595.30 1.241
595.40 1.241
595.50 1.242
595.60 1.242
595.70 1.242
595.80 1.242
595.90 1.242
596.00 1.242
596.10 1.243
596.20 1.243
596.30 1.243
596.40 1.243
596.50 1.243
596.60 1.243
596.70 1.243
596.80 1.244
596.90 1.244
597.00 1.244
597.10 1.244
597.20 1.244
597.30 1.244
597.40 1.245
597.50 1.245
597.60 1.245
597.70 1.245
597.80 1.245
597.90 1.245
598.00 1.245
598.10 1.246
598.20 1.246
598.30 1.246
598.40 1.246
598.50 1.246
598.60 1.246
598.70 1.247
598.80 1.247
598.90 1.247
599.00 1.247
599.10 1.247
599.20 1.247
599.30 1.247
599.40 1.248
599.50 1.248
599.60 1.248
599.70 1.248
599.80 1.248
599.90 1.248
600.00 1.248
600.10 1.249
600.20 1.249
600.30 1.249
600.40 1.249
600.50 1.249
600.60 1.249
600.70 1.25
600.80 1.25
600.90 1.25
601.00 1.25
601.10 1.25
601.20 1.25
601.30 1.25
601.40 1.251
601.50 1.251
601.60 1.251
601.70 1.251
601.80 1.251
601.90 1.251
602.00 1.251
602.10 1.252
602.20 1.252
602.30 1.252
602.40 1.252
602.50 1.252
602.60 1.252
602.70 1.252
602.80 1.253
602.90 1.253
603.00 1.253
603.10 1.253
603.20 1.253
603.30 1.253
603.40 1.253
603.50 1.254
603.60 1.254
603.70 1.254
603.80 1.254
603.90 1.254
604.00 1.254
604.10 1.254
604.20 1.255
604.30 1.255
604.40 1.255
604.50 1.255
604.60 1.255
604.70 1.255
604.80 1.255
604.90 1.256
605.00 1.256
605.10 1.256
605.20 1.256
605.30 1.256
605.40 1.256
605.50 1.256
605.60 1.256
605.70 1.257
605.80 1.257
605.90 1.257
606.00 1.257
606.10 1.257
606.20 1.257
606.30 1.257
606.40 1.258
606.50 1.258
606.60 1.258
606.70 1.258
606.80 1.258
606.90 1.258
607.00 1.258
607.10 1.259
607.20 1.259
607.30 1.259
607.40 1.259
607.50 1.259
607.60 1.259
607.70 1.259
607.80 1.259
607.90 1.26
608.00 1.26
608.10 1.26
608.20 1.26
608.30 1.26
608.40 1.26
608.50 1.26
608.60 1.261
608.70 1.261
608.80 1.261
608.90 1.261
609.00 1.261
609.10 1.261
609.20 1.261
609.30 1.261
609.40 1.262
609.50 1.262
609.60 1.262
609.70 1.262
609.80 1.262
609.90 1.262
610.00 1.262
610.10 1.262
610.20 1.263
610.30 1.263
610.40 1.263
610.50 1.263
610.60 1.263
610.70 1.263
610.80 1.263
610.90 1.264
611.00 1.264
611.10 1.264
611.20 1.264
611.30 1.264
611.40 1.264
611.50 1.264
611.60 1.264
611.70 1.265
611.80 1.265
611.90 1.265
612.00 1.265
612.10 1.265
612.20 1.265
612.30 1.265
612.40 1.265
612.50 1.266
612.60 1.266
612.70 1.266
612.80 1.266
612.90 1.266
613.00 1.266
613.10 1.266
613.20 1.266
613.30 1.266
613.40 1.267
613.50 1.267
613.60 1.267
613.70 1.267
613.80 1.267
613.90 1.267
614.00 1.267
614.10 1.267
614.20 1.268
614.30 1.268
614.40 1.268
614.50 1.268
614.60 1.268
614.70 1.268
614.80 1.268
614.90 1.268
615.00 1.269
615.10 1.269
615.20 1.269
615.30 1.269
615.40 1.269
615.50 1.269
615.60 1.269
615.70 1.269
615.80 1.27
615.90 1.27
616.00 1.27
616.10 1.27
616.20 1.27
616.30 1.27
616.40 1.27
616.50 1.27
616.60 1.27
616.70 1.271
616.80 1.271
616.90 1.271
617.00 1.271
617.10 1.271
617.20 1.271
617.30 1.271
617.40 1.271
617.50 1.271
617.60 1.272
617.70 1.272
617.80 1.272
617.90 1.272
618.00 1.272
618.10 1.272
618.20 1.272
618.30 1.272
618.40 1.273
618.50 1.273
618.60 1.273
618.70 1.273
618.80 1.273
618.90 1.273
619.00 1.273
619.10 1.273
619.20 1.273
619.30 1.274
619.40 1.274
619.50 1.274
619.60 1.274
619.70 1.274
619.80 1.274
619.90 1.274
620.00 1.274
620.10 1.274
620.20 1.275
620.30 1.275
620.40 1.275
620.50 1.275
620.60 1.275
620.70 1.275
620.80 1.275
620.90 1.275
621.00 1.275
621.10 1.276
621.20 1.276
621.30 1.276
621.40 1.276
621.50 1.276
621.60 1.276
621.70 1.276
621.80 1.276
621.90 1.276
622.00 1.277
622.10 1.277
622.20 1.277
622.30 1.277
622.40 1.277
622.50 1.277
622.60 1.277
622.70 1.277
622.80 1.277
622.90 1.277
623.00 1.278
623.10 1.278
623.20 1.278
623.30 1.278
623.40 1.278
623.50 1.278
623.60 1.278
623.70 1.278
623.80 1.278
623.90 1.279
624.00 1.279
624.10 1.279
624.20 1.279
624.30 1.279
624.40 1.279
624.50 1.279
624.60 1.279
624.70 1.279
624.80 1.279
624.90 1.28
625.00 1.28
625.10 1.28
625.20 1.28
625.30 1.28
625.40 1.28
625.50 1.28
625.60 1.28
625.70 1.28
625.80 1.28
625.90 1.281
626.00 1.281
626.10 1.281
626.20 1.281
626.30 1.281
626.40 1.281
626.50 1.281
626.60 1.281
626.70 1.281
626.80 1.281
626.90 1.282
627.00 1.282
627.10 1.282
627.20 1.282
627.30 1.282
627.40 1.282
627.50 1.282
627.60 1.282
627.70 1.282
627.80 1.282
627.90 1.283
628.00 1.283
628.10 1.283
628.20 1.283
628.30 1.283
628.40 1.283
628.50 1.283
628.60 1.283
628.70 1.283
628.80 1.283
628.90 1.284
629.00 1.284
629.10 1.284
629.20 1.284
629.30 1.284
629.40 1.284
629.50 1.284
629.60 1.284
629.70 1.284
629.80 1.284
629.90 1.284
630.00 1.285
630.10 1.285
630.20 1.285
630.30 1.285
630.40 1.285
630.50 1.285
630.60 1.285
630.70 1.285
630.80 1.285
630.90 1.285
631.00 1.285
631.10 1.286
631.20 1.286
631.30 1.286
631.40 1.286
631.50 1.286
631.60 1.286
631.70 1.286
631.80 1.286
631.90 1.286
632.00 1.286
632.10 1.286
632.20 1.287
632.30 1.287
632.40 1.287
632.50 1.287
632.60 1.287
632.70 1.287
632.80 1.287
632.90 1.287
633.00 1.287
633.10 1.287
633.20 1.287
633.30 1.287
633.40 1.288
633.50 1.288
633.60 1.288
633.70 1.288
633.80 1.288
633.90 1.288
634.00 1.288
634.10 1.288
634.20 1.288
634.30 1.288
634.40 1.288
634.50 1.289
634.60 1.289
634.70 1.289
634.80 1.289
634.90 1.289
635.00 1.289
635.10 1.289
635.20 1.289
635.30 1.289
635.40 1.289
635.50 1.289
635.60 1.289
635.70 1.29
635.80 1.29
635.90 1.29
636.00 1.29
636.10 1.29
636.20 1.29
636.30 1.29
636.40 1.29
636.50 1.29
636.60 1.29
636.70 1.29
636.80 1.29
636.90 1.291
637.00 1.291
637.10 1.291
637.20 1.291
637.30 1.291
637.40 1.291
637.50 1.291
637.60 1.291
637.70 1.291
637.80 1.291
637.90 1.291
638.00 1.291
638.10 1.292
638.20 1.292
638.30 1.292
638.40 1.292
638.50 1.292
638.60 1.292
638.70 1.292
638.80 1.292
638.90 1.292
639.00 1.292
639.10 1.292
639.20 1.292
639.30 1.292
639.40 1.292
639.50 1.293
639.60 1.293
639.70 1.293
639.80 1.293
639.90 1.293
640.00 1.293
640.10 1.293
640.20 1.293
640.30 1.293
640.40 1.293
640.50 1.293
640.60 1.293
640.70 1.293
640.80 1.294
640.90 1.294
641.00 1.294
641.10 1.294
641.20 1.294
641.30 1.294
641.40 1.294
641.50 1.294
641.60 1.294
641.70 1.294
641.80 1.294
641.90 1.294
642.00 1.294
642.10 1.295
642.20 1.295
642.30 1.295
642.40 1.295
642.50 1.295
642.60 1.295
642.70 1.295
642.80 1.295
642.90 1.295
643.00 1.295
643.10 1.295
643.20 1.295
643.30 1.295
643.40 1.295
643.50 1.295
643.60 1.296
643.70 1.296
643.80 1.296
643.90 1.296
644.00 1.296
644.10 1.296
644.20 1.296
644.30 1.296
644.40 1.296
644.50 1.296
644.60 1.296
644.70 1.296
644.80 1.296
644.90 1.296
645.00 1.297
645.10 1.297
645.20 1.297
645.30 1.297
645.40 1.297
645.50 1.297
645.60 1.297
645.70 1.297
645.80 1.297
645.90 1.297
646.00 1.297
646.10 1.297
646.20 1.297
646.30 1.297
646.40 1.297
646.50 1.298
646.60 1.298
646.70 1.298
646.80 1.298
646.90 1.298
647.00 1.298
647.10 1.298
647.20 1.298
647.30 1.298
647.40 1.298
647.50 1.298
647.60 1.298
647.70 1.298
647.80 1.298
647.90 1.298
648.00 1.298
648.10 1.299
648.20 1.299
648.30 1.299
648.40 1.299
648.50 1.299
648.60 1.299
648.70 1.299
648.80 1.299
648.90 1.299
649.00 1.299
649.10 1.299
649.20 1.299
649.30 1.299
649.40 1.299
649.50 1.299
649.60 1.299
649.70 1.299
649.80 1.3
649.90 1.3
650.00 1.3
650.10 1.3
650.20 1.3
650.30 1.3
650.40 1.3
650.50 1.3
650.60 1.3
650.70 1.3
650.80 1.3
650.90 1.3
651.00 1.3
651.10 1.3
651.20 1.3
651.30 1.3
651.40 1.301
651.50 1.301
651.60 1.301
651.70 1.301
651.80 1.301
651.90 1.301
652.00 1.301
652.10 1.301
652.20 1.301
652.30 1.301
652.40 1.301
652.50 1.301
652.60 1.301
652.70 1.301
652.80 1.301
652.90 1.301
653.00 1.301
653.10 1.301
653.20 1.301
653.30 1.301
653.40 1.302
653.50 1.302
653.60 1.302
653.70 1.302
653.80 1.302
653.90 1.302
654.00 1.302
654.10 1.302
654.20 1.302
654.30 1.302
654.40 1.302
654.50 1.302
654.60 1.302
654.70 1.302
654.80 1.302
654.90 1.302
655.00 1.302
655.10 1.302
655.20 1.302
655.30 1.302
655.40 1.303
655.50 1.303
655.60 1.303
655.70 1.303
655.80 1.303
655.90 1.303
656.00 1.303
656.10 1.303
656.20 1.303
656.30 1.303
656.40 1.303
656.50 1.303
656.60 1.303
656.70 1.303
656.80 1.303
656.90 1.303
657.00 1.303
657.10 1.303
657.20 1.303
657.30 1.303
657.40 1.303
657.50 1.304
657.60 1.304
657.70 1.304
657.80 1.304
657.90 1.304
658.00 1.304
658.10 1.304
658.20 1.304
658.30 1.304
658.40 1.304
658.50 1.304
658.60 1.304
658.70 1.304
658.80 1.304
658.90 1.304
659.00 1.304
659.10 1.304
659.20 1.304
659.30 1.304
659.40 1.304
659.50 1.304
659.60 1.304
659.70 1.305
659.80 1.305
659.90 1.305
660.00 1.305
660.10 1.305
660.20 1.305
660.30 1.305
660.40 1.305
660.50 1.305
660.60 1.305
660.70 1.305
660.80 1.305
660.90 1.305
661.00 1.305
661.10 1.305
661.20 1.305
661.30 1.305
661.40 1.305
661.50 1.305
661.60 1.305
661.70 1.305
661.80 1.305
661.90 1.305
662.00 1.305
662.10 1.306
662.20 1.306
662.30 1.306
662.40 1.306
662.50 1.306
662.60 1.306
662.70 1.306
662.80 1.306
662.90 1.306
663.00 1.306
663.10 1.306
663.20 1.306
663.30 1.306
663.40 1.306
663.50 1.306
663.60 1.306
663.70 1.306
663.80 1.306
663.90 1.306
664.00 1.306
664.10 1.306
664.20 1.306
664.30 1.306
664.40 1.306
664.50 1.306
664.60 1.306
664.70 1.306
664.80 1.306
664.90 1.307
665.00 1.307
665.10 1.307
665.20 1.307
665.30 1.307
665.40 1.307
665.50 1.307
665.60 1.307
665.70 1.307
665.80 1.307
665.90 1.307
666.00 1.307
666.10 1.307
666.20 1.307
666.30 1.307
666.40 1.307
666.50 1.307
666.60 1.307
666.70 1.307
666.80 1.307
666.90 1.307
667.00 1.307
667.10 1.307
667.20 1.307
667.30 1.307
667.40 1.307
667.50 1.307
667.60 1.307
667.70 1.307
667.80 1.307
667.90 1.307
668.00 1.307
668.10 1.308
668.20 1.308
668.30 1.308
668.40 1.308
668.50 1.308
668.60 1.308
668.70 1.308
668.80 1.308
668.90 1.308
669.00 1.308
669.10 1.308
669.20 1.308
669.30 1.308
669.40 1.308
669.50 1.308
669.60 1.308
669.70 1.308
669.80 1.308
669.90 1.308
670.00 1.308
670.10 1.308
670.20 1.308
670.30 1.308
670.40 1.308
670.50 1.308
670.60 1.308
670.70 1.308
670.80 1.308
670.90 1.308
671.00 1.308
671.10 1.308
671.20 1.308
671.30 1.308
671.40 1.308
671.50 1.308
671.60 1.308
671.70 1.308
671.80 1.308
671.90 1.308
672.00 1.308
672.10 1.308
672.20 1.309
672.30 1.309
672.40 1.309
672.50 1.309
672.60 1.309
672.70 1.309
672.80 1.309
672.90 1.309
673.00 1.309
673.10 1.309
673.20 1.309
673.30 1.309
673.40 1.309
673.50 1.309
673.60 1.309
673.70 1.309
673.80 1.309
673.90 1.309
674.00 1.309
674.10 1.309
674.20 1.309
674.30 1.309
674.40 1.309
674.50 1.309
674.60 1.309
674.70 1.309
674.80 1.309
674.90 1.309
675.00 1.309
675.10 1.309
675.20 1.309
675.30 1.309
675.40 1.309
675.50 1.309
675.60 1.309
675.70 1.309
675.80 1.309
675.90 1.309
676.00 1.309
676.10 1.309
676.20 1.309
676.30 1.309
676.40 1.309
676.50 1.309
676.60 1.309
676.70 1.309
676.80 1.309
676.90 1.309
677.00 1.309
677.10 1.309
677.20 1.309
677.30 1.309
677.40 1.309
677.50 1.309
677.60 1.309
677.70 1.309
677.80 1.309
677.90 1.309
678.00 1.309
678.10 1.309
678.20 1.309
678.30 1.309
678.40 1.309
678.50 1.309
678.60 1.309
678.70 1.309
678.80 1.31
678.90 1.31
679.00 1.31
679.10 1.31
679.20 1.31
679.30 1.31
679.40 1.31
679.50 1.31
679.60 1.31
679.70 1.31
679.80 1.31
679.90 1.31
680.00 1.31
680.10 1.31
680.20 1.31
680.30 1.31
680.40 1.31
680.50 1.31
680.60 1.31
680.70 1.31
680.80 1.31
680.90 1.31
681.00 1.31
681.10 1.31
681.20 1.31
681.30 1.31
681.40 1.31
681.50 1.31
681.60 1.31
681.70 1.31
681.80 1.31
681.90 1.31
682.00 1.31
682.10 1.31
682.20 1.31
682.30 1.31
682.40 1.31
682.50 1.31
682.60 1.31
682.70 1.31
682.80 1.31
682.90 1.31
683.00 1.31
683.10 1.31
683.20 1.31
683.30 1.31
683.40 1.31
683.50 1.31
683.60 1.31
683.70 1.31
683.80 1.31
683.90 1.31
684.00 1.31
684.10 1.31
684.20 1.31
684.30 1.31
684.40 1.31
684.50 1.31
684.60 1.31
684.70 1.31
684.80 1.31
684.90 1.31
685.00 1.31
685.10 1.31
685.20 1.31
685.30 1.31
685.40 1.31
685.50 1.31
685.60 1.31
685.70 1.31
685.80 1.31
685.90 1.31
686.00 1.31
686.10 1.31
686.20 1.31
686.30 1.31
686.40 1.31
686.50 1.31
686.60 1.31
686.70 1.31
686.80 1.31
686.90 1.31
687.00 1.31
687.10 1.31
687.20 1.31
687.30 1.31
687.40 1.31
687.50 1.31
687.60 1.31
687.70 1.31
687.80 1.31
687.90 1.31
688.00 1.31
688.10 1.31
688.20 1.31
688.30 1.31
688.40 1.31
688.50 1.31
688.60 1.31
688.70 1.31
688.80 1.31
688.90 1.31
689.00 1.31
689.10 1.31
689.20 1.31
689.30 1.31
689.40 1.309
689.50 1.309
689.60 1.309
689.70 1.309
689.80 1.309
689.90 1.309
690.00 1.309
690.10 1.309
690.20 1.309
690.30 1.309
690.40 1.309
690.50 1.309
690.60 1.309
690.70 1.309
690.80 1.309
690.90 1.309
691.00 1.309
691.10 1.309
691.20 1.309
691.30 1.309
691.40 1.309
691.50 1.309
691.60 1.309
691.70 1.309
691.80 1.309
691.90 1.309
692.00 1.309
692.10 1.309
692.20 1.309
692.30 1.309
692.40 1.309
692.50 1.309
692.60 1.309
692.70 1.309
692.80 1.309
692.90 1.309
693.00 1.309
693.10 1.309
693.20 1.309
693.30 1.309
693.40 1.309
693.50 1.309
693.60 1.309
693.70 1.309
693.80 1.309
693.90 1.309
694.00 1.309
694.10 1.309
694.20 1.309
694.30 1.309
694.40 1.309
694.50 1.309
694.60 1.309
694.70 1.309
694.80 1.309
694.90 1.309
695.00 1.309
695.10 1.309
695.20 1.309
695.30 1.309
695.40 1.309
695.50 1.309
695.60 1.309
695.70 1.309
695.80 1.309
695.90 1.308
696.00 1.308
696.10 1.308
696.20 1.308
696.30 1.308
696.40 1.308
696.50 1.308
696.60 1.308
696.70 1.308
696.80 1.308
696.90 1.308
697.00 1.308
697.10 1.308
697.20 1.308
697.30 1.308
697.40 1.308
697.50 1.308
697.60 1.308
697.70 1.308
697.80 1.308
697.90 1.308
698.00 1.308
698.10 1.308
698.20 1.308
698.30 1.308
698.40 1.308
698.50 1.308
698.60 1.308
698.70 1.308
698.80 1.308
698.90 1.308
699.00 1.308
699.10 1.308
699.20 1.308
699.30 1.308
699.40 1.308
699.50 1.308
699.60 1.308
699.70 1.308
699.80 1.308
699.90 1.308
700.00 1.307
700.10 1.307
700.20 1.307
700.30 1.307
700.40 1.307
700.50 1.307
700.60 1.307
700.70 1.307
700.80 1.307
700.90 1.307
701.00 1.307
701.10 1.307
701.20 1.307
701.30 1.307
701.40 1.307
701.50 1.307
701.60 1.307
701.70 1.307
701.80 1.307
701.90 1.307
702.00 1.307
702.10 1.307
702.20 1.307
702.30 1.307
702.40 1.307
702.50 1.307
702.60 1.307
702.70 1.307
702.80 1.307
702.90 1.307
703.00 1.306
703.10 1.306
703.20 1.306
703.30 1.306
703.40 1.306
703.50 1.306
703.60 1.306
703.70 1.306
703.80 1.306
703.90 1.306
704.00 1.306
704.10 1.306
704.20 1.306
704.30 1.306
704.40 1.306
704.50 1.306
704.60 1.306
704.70 1.306
704.80 1.306
704.90 1.306
705.00 1.306
705.10 1.306
705.20 1.306
705.30 1.306
705.40 1.306
705.50 1.306
705.60 1.306
705.70 1.306
705.80 1.305
705.90 1.305
706.00 1.305
706.10 1.305
706.20 1.305
706.30 1.305
706.40 1.305
706.50 1.305
706.60 1.305
706.70 1.305
706.80 1.305
706.90 1.305
707.00 1.305
707.10 1.305
707.20 1.305
707.30 1.305
707.40 1.305
707.50 1.305
707.60 1.305
707.70 1.305
707.80 1.305
707.90 1.305
708.00 1.305
708.10 1.304
708.20 1.304
708.30 1.304
708.40 1.304
708.50 1.304
708.60 1.304
708.70 1.304
708.80 1.304
708.90 1.304
709.00 1.304
709.10 1.304
709.20 1.304
709.30 1.304
709.40 1.304
709.50 1.304
709.60 1.304
709.70 1.304
709.80 1.304
709.90 1.304
710.00 1.304
710.10 1.304
710.20 1.304
710.30 1.304
710.40 1.303
710.50 1.303
710.60 1.303
710.70 1.303
710.80 1.303
710.90 1.303
711.00 1.303
711.10 1.303
711.20 1.303
711.30 1.303
711.40 1.303
711.50 1.303
711.60 1.303
711.70 1.303
711.80 1.303
711.90 1.303
712.00 1.303
712.10 1.303
712.20 1.303
712.30 1.303
712.40 1.302
712.50 1.302
712.60 1.302
712.70 1.302
712.80 1.302
712.90 1.302
713.00 1.302
713.10 1.302
713.20 1.302
713.30 1.302
713.40 1.302
713.50 1.302
713.60 1.302
713.70 1.302
713.80 1.302
713.90 1.302
714.00 1.302
714.10 1.302
714.20 1.302
714.30 1.301
714.40 1.301
714.50 1.301
714.60 1.301
714.70 1.301
714.80 1.301
714.90 1.301
715.00 1.301
715.10 1.301
715.20 1.301
715.30 1.301
715.40 1.301
715.50 1.301
715.60 1.301
715.70 1.301
715.80 1.301
715.90 1.301
716.00 1.301
716.10 1.3
716.20 1.3
716.30 1.3
716.40 1.3
716.50 1.3
716.60 1.3
716.70 1.3
716.80 1.3
716.90 1.3
717.00 1.3
717.10 1.3
717.20 1.3
717.30 1.3
717.40 1.3
717.50 1.3
717.60 1.3
717.70 1.3
717.80 1.299
717.90 1.299
718.00 1.299
718.10 1.299
718.20 1.299
718.30 1.299
718.40 1.299
718.50 1.299
718.60 1.299
718.70 1.299
718.80 1.299
718.90 1.299
719.00 1.299
719.10 1.299
719.20 1.299
719.30 1.299
719.40 1.298
719.50 1.298
719.60 1.298
719.70 1.298
719.80 1.298
719.90 1.298
720.00 1.298
720.10 1.298
720.20 1.298
720.30 1.298
720.40 1.298
720.50 1.298
720.60 1.298
720.70 1.298
720.80 1.298
720.90 1.298
721.00 1.297
721.10 1.297
721.20 1.297
721.30 1.297
721.40 1.297
721.50 1.297
721.60 1.297
721.70 1.297
721.80 1.297
721.90 1.297
722.00 1.297
722.10 1.297
722.20 1.297
722.30 1.297
722.40 1.297
722.50 1.296
722.60 1.296
722.70 1.296
722.80 1.296
722.90 1.296
723.00 1.296
723.10 1.296
723.20 1.296
723.30 1.296
723.40 1.296
723.50 1.296
723.60 1.296
723.70 1.296
723.80 1.296
723.90 1.296
724.00 1.296
724.10 1.295
724.20 1.295
724.30 1.295
724.40 1.295
724.50 1.295
724.60 1.295
724.70 1.295
724.80 1.295
724.90 1.295
725.00 1.295
725.10 1.295
725.20 1.295
725.30 1.295
725.40 1.295
725.50 1.294
725.60 1.294
725.70 1.294
725.80 1.294
725.90 1.294
726.00 1.294
726.10 1.294
726.20 1.294
726.30 1.294
726.40 1.294
726.50 1.294
726.60 1.294
726.70 1.294
726.80 1.294
726.90 1.293
727.00 1.293
727.10 1.293
727.20 1.293
727.30 1.293
727.40 1.293
727.50 1.293
727.60 1.293
727.70 1.293
727.80 1.293
727.90 1.293
728.00 1.293
728.10 1.293
728.20 1.293
728.30 1.292
728.40 1.292
728.50 1.292
728.60 1.292
728.70 1.292
728.80 1.292
728.90 1.292
729.00 1.292
729.10 1.292
729.20 1.292
729.30 1.292
729.40 1.292
729.50 1.292
729.60 1.292
729.70 1.291
729.80 1.291
729.90 1.291
730.00 1.291
730.10 1.291
730.20 1.291
730.30 1.291
730.40 1.291
730.50 1.291
730.60 1.291
730.70 1.291
730.80 1.291
730.90 1.291
731.00 1.291
731.10 1.29
731.20 1.29
731.30 1.29
731.40 1.29
731.50 1.29
731.60 1.29
731.70 1.29
731.80 1.29
731.90 1.29
732.00 1.29
732.10 1.29
732.20 1.29
732.30 1.29
732.40 1.289
732.50 1.289
732.60 1.289
732.70 1.289
732.80 1.289
732.90 1.289
733.00 1.289
733.10 1.289
733.20 1.289
733.30 1.289
733.40 1.289
733.50 1.289
733.60 1.289
733.70 1.288
733.80 1.288
733.90 1.288
734.00 1.288
734.10 1.288
734.20 1.288
734.30 1.288
734.40 1.288
734.50 1.288
734.60 1.288
734.70 1.288
734.80 1.288
734.90 1.288
735.00 1.287
735.10 1.287
735.20 1.287
735.30 1.287
735.40 1.287
735.50 1.287
735.60 1.287
735.70 1.287
735.80 1.287
735.90 1.287
736.00 1.287
736.10 1.287
736.20 1.287
736.30 1.286
736.40 1.286
736.50 1.286
736.60 1.286
736.70 1.286
736.80 1.286
736.90 1.286
737.00 1.286
737.10 1.286
737.20 1.286
737.30 1.286
737.40 1.286
737.50 1.286
737.60 1.285
737.70 1.285
737.80 1.285
737.90 1.285
738.00 1.285
738.10 1.285
738.20 1.285
738.30 1.285
738.40 1.285
738.50 1.285
738.60 1.285
738.70 1.285
738.80 1.285
738.90 1.284
739.00 1.284
739.10 1.284
739.20 1.284
739.30 1.284
739.40 1.284
739.50 1.284
739.60 1.284
739.70 1.284
739.80 1.284
739.90 1.284
740.00 1.284
740.10 1.284
740.20 1.283
740.30 1.283
740.40 1.283
740.50 1.283
740.60 1.283
740.70 1.283
740.80 1.283
740.90 1.283
741.00 1.283
741.10 1.283
741.20 1.283
741.30 1.283
741.40 1.282
741.50 1.282
741.60 1.282
741.70 1.282
741.80 1.282
741.90 1.282
742.00 1.282
742.10 1.282
742.20 1.282
742.30 1.282
742.40 1.282
742.50 1.282
742.60 1.282
742.70 1.281
742.80 1.281
742.90 1.281
743.00 1.281
743.10 1.281
743.20 1.281
743.30 1.281
743.40 1.281
743.50 1.281
743.60 1.281
743.70 1.281
743.80 1.281
743.90 1.28
744.00 1.28
744.10 1.28
744.20 1.28
744.30 1.28
744.40 1.28
744.50 1.28
744.60 1.28
744.70 1.28
744.80 1.28
744.90 1.28
745.00 1.28
745.10 1.279
745.20 1.279
745.30 1.279
745.40 1.279
745.50 1.279
745.60 1.279
745.70 1.279
745.80 1.279
745.90 1.279
746.00 1.279
746.10 1.279
746.20 1.279
746.30 1.279
746.40 1.278
746.50 1.278
746.60 1.278
746.70 1.278
746.80 1.278
746.90 1.278
747.00 1.278
747.10 1.278
747.20 1.278
747.30 1.278
747.40 1.278
747.50 1.278
747.60 1.277
747.70 1.277
747.80 1.277
747.90 1.277
748.00 1.277
748.10 1.277
748.20 1.277
748.30 1.277
748.40 1.277
748.50 1.277
748.60 1.277
748.70 1.277
748.80 1.276
748.90 1.276
749.00 1.276
749.10 1.276
749.20 1.276
749.30 1.276
749.40 1.276
749.50 1.276
749.60 1.276
749.70 1.276
749.80 1.276
749.90 1.276
750.00 1.276
750.10 1.275
750.20 1.275
750.30 1.275
750.40 1.275
750.50 1.275
750.60 1.275
750.70 1.275
750.80 1.275
750.90 1.275
751.00 1.275
751.10 1.275
751.20 1.274
751.30 1.274
751.40 1.274
751.50 1.274
751.60 1.274
751.70 1.274
751.80 1.274
751.90 1.274
752.00 1.274
752.10 1.274
752.20 1.274
752.30 1.274
752.40 1.273
752.50 1.273
752.60 1.273
752.70 1.273
752.80 1.273
752.90 1.273
753.00 1.273
753.10 1.273
753.20 1.273
753.30 1.273
753.40 1.273
753.50 1.273
753.60 1.272
753.70 1.272
753.80 1.272
753.90 1.272
754.00 1.272
754.10 1.272
754.20 1.272
754.30 1.272
754.40 1.272
754.50 1.272
754.60 1.272
754.70 1.272
754.80 1.271
754.90 1.271
755.00 1.271
755.10 1.271
755.20 1.271
755.30 1.271
755.40 1.271
755.50 1.271
755.60 1.271
755.70 1.271
755.80 1.271
755.90 1.271
756.00 1.27
756.10 1.27
756.20 1.27
756.30 1.27
756.40 1.27
756.50 1.27
756.60 1.27
756.70 1.27
756.80 1.27
756.90 1.27
757.00 1.27
757.10 1.27
757.20 1.269
757.30 1.269
757.40 1.269
757.50 1.269
757.60 1.269
757.70 1.269
757.80 1.269
757.90 1.269
758.00 1.269
758.10 1.269
758.20 1.269
758.30 1.268
758.40 1.268
758.50 1.268
758.60 1.268
758.70 1.268
758.80 1.268
758.90 1.268
759.00 1.268
759.10 1.268
759.20 1.268
759.30 1.268
759.40 1.268
759.50 1.267
759.60 1.267
759.70 1.267
759.80 1.267
759.90 1.267
760.00 1.267
760.10 1.267
760.20 1.267
760.30 1.267
760.40 1.267
760.50 1.267
760.60 1.267
760.70 1.266
760.80 1.266
760.90 1.266
761.00 1.266
761.10 1.266
761.20 1.266
761.30 1.266
761.40 1.266
761.50 1.266
761.60 1.266
761.70 1.266
761.80 1.265
761.90 1.265
762.00 1.265
762.10 1.265
762.20 1.265
762.30 1.265
762.40 1.265
762.50 1.265
762.60 1.265
762.70 1.265
762.80 1.265
762.90 1.264
763.00 1.264
763.10 1.264
763.20 1.264
763.30 1.264
763.40 1.264
763.50 1.264
763.60 1.264
763.70 1.264
763.80 1.264
763.90 1.264
764.00 1.264
764.10 1.263
764.20 1.263
764.30 1.263
764.40 1.263
764.50 1.263
764.60 1.263
764.70 1.263
764.80 1.263
764.90 1.263
765.00 1.263
765.10 1.263
765.20 1.262
765.30 1.262
765.40 1.262
765.50 1.262
765.60 1.262
765.70 1.262
765.80 1.262
765.90 1.262
766.00 1.262
766.10 1.262
766.20 1.262
766.30 1.261
766.40 1.261
766.50 1.261
766.60 1.261
766.70 1.261
766.80 1.261
766.90 1.261
767.00 1.261
767.10 1.261
767.20 1.261
767.30 1.261
767.40 1.261
767.50 1.26
767.60 1.26
767.70 1.26
767.80 1.26
767.90 1.26
768.00 1.26
768.10 1.26
768.20 1.26
768.30 1.26
768.40 1.26
768.50 1.26
768.60 1.259
768.70 1.259
768.80 1.259
768.90 1.259
769.00 1.259
769.10 1.259
769.20 1.259
769.30 1.259
769.40 1.259
769.50 1.259
769.60 1.259
769.70 1.258
769.80 1.258
769.90 1.258
770.00 1.258
770.10 1.258
770.20 1.258
770.30 1.258
770.40 1.258
770.50 1.258
770.60 1.258
770.70 1.258
770.80 1.257
770.90 1.257
771.00 1.257
771.10 1.257
771.20 1.257
771.30 1.257
771.40 1.257
771.50 1.257
771.60 1.257
771.70 1.257
771.80 1.257
771.90 1.256
772.00 1.256
772.10 1.256
772.20 1.256
772.30 1.256
772.40 1.256
772.50 1.256
772.60 1.256
772.70 1.256
772.80 1.256
772.90 1.256
773.00 1.255
773.10 1.255
773.20 1.255
773.30 1.255
773.40 1.255
773.50 1.255
773.60 1.255
773.70 1.255
773.80 1.255
773.90 1.255
774.00 1.255
774.10 1.254
774.20 1.254
774.30 1.254
774.40 1.254
774.50 1.254
774.60 1.254
774.70 1.254
774.80 1.254
774.90 1.254
775.00 1.254
775.10 1.254
775.20 1.253
775.30 1.253
775.40 1.253
775.50 1.253
775.60 1.253
775.70 1.253
775.80 1.253
775.90 1.253
776.00 1.253
776.10 1.253
776.20 1.253
776.30 1.252
776.40 1.252
776.50 1.252
776.60 1.252
776.70 1.252
776.80 1.252
776.90 1.252
777.00 1.252
777.10 1.252
777.20 1.252
777.30 1.251
777.40 1.251
777.50 1.251
777.60 1.251
777.70 1.251
777.80 1.251
777.90 1.251
778.00 1.251
778.10 1.251
778.20 1.251
778.30 1.251
778.40 1.25
778.50 1.25
778.60 1.25
778.70 1.25
778.80 1.25
778.90 1.25
779.00 1.25
779.10 1.25
779.20 1.25
779.30 1.25
779.40 1.25
779.50 1.249
779.60 1.249
779.70 1.249
779.80 1.249
779.90 1.249
780.00 1.249
780.10 1.249
780.20 1.249
780.30 1.249
780.40 1.249
780.50 1.249
780.60 1.248
780.70 1.248
780.80 1.248
780.90 1.248
781.00 1.248
781.10 1.248
781.20 1.248
781.30 1.248
781.40 1.248
781.50 1.248
781.60 1.248
781.70 1.247
781.80 1.247
781.90 1.247
782.00 1.247
782.10 1.247
782.20 1.247
782.30 1.247
782.40 1.247
782.50 1.247
782.60 1.247
782.70 1.247
782.80 1.246
782.90 1.246
783.00 1.246
783.10 1.246
783.20 1.246
783.30 1.246
783.40 1.246
783.50 1.246
783.60 1.246
783.70 1.246
783.80 1.245
783.90 1.245
784.00 1.245
784.10 1.245
784.20 1.245
784.30 1.245
784.40 1.245
784.50 1.245
784.60 1.245
784.70 1.245
784.80 1.245
784.90 1.244
785.00 1.244
785.10 1.244
785.20 1.244
785.30 1.244
785.40 1.244
785.50 1.244
785.60 1.244
785.70 1.244
785.80 1.244
785.90 1.244
786.00 1.243
786.10 1.243
786.20 1.243
786.30 1.243
786.40 1.243
786.50 1.243
786.60 1.243
786.70 1.243
786.80 1.243
786.90 1.243
787.00 1.243
787.10 1.242
787.20 1.242
787.30 1.242
787.40 1.242
787.50 1.242
787.60 1.242
787.70 1.242
787.80 1.242
787.90 1.242
788.00 1.242
788.10 1.241
788.20 1.241
788.30 1.241
788.40 1.241
788.50 1.241
788.60 1.241
788.70 1.241
788.80 1.241
788.90 1.241
789.00 1.241
789.10 1.241
789.20 1.24
789.30 1.24
789.40 1.24
789.50 1.24
789.60 1.24
789.70 1.24
789.80 1.24
789.90 1.24
790.00 1.24
790.10 1.24
790.20 1.24
790.30 1.239
790.40 1.239
790.50 1.239
790.60 1.239
790.70 1.239
790.80 1.239
790.90 1.239
791.00 1.239
791.10 1.239
791.20 1.239
791.30 1.238
791.40 1.238
791.50 1.238
791.60 1.238
791.70 1.238
791.80 1.238
791.90 1.238
792.00 1.238
792.10 1.238
792.20 1.238
792.30 1.237
792.40 1.237
792.50 1.237
792.60 1.237
792.70 1.237
792.80 1.237
792.90 1.237
793.00 1.237
793.10 1.237
793.20 1.237
793.30 1.236
793.40 1.236
793.50 1.236
793.60 1.236
793.70 1.236
793.80 1.236
793.90 1.236
794.00 1.236
794.10 1.236
794.20 1.236
794.30 1.236
794.40 1.235
794.50 1.235
794.60 1.235
794.70 1.235
794.80 1.235
794.90 1.235
795.00 1.235
795.10 1.235
795.20 1.235
795.30 1.235
795.40 1.234
795.50 1.234
795.60 1.234
795.70 1.234
795.80 1.234
795.90 1.234
796.00 1.234
796.10 1.234
796.20 1.234
796.30 1.234
796.40 1.233
796.50 1.233
796.60 1.233
796.70 1.233
796.80 1.233
796.90 1.233
797.00 1.233
797.10 1.233
797.20 1.233
797.30 1.233
797.40 1.232
797.50 1.232
797.60 1.232
797.70 1.232
797.80 1.232
797.90 1.232
798.00 1.232
798.10 1.232
798.20 1.232
798.30 1.232
798.40 1.231
798.50 1.231
798.60 1.231
798.70 1.231
798.80 1.231
798.90 1.231
799.00 1.231
799.10 1.231
799.20 1.231
799.30 1.231
799.40 1.231
799.50 1.23
799.60 1.23
799.70 1.23
799.80 1.23
799.90 1.23
800.00 1.23
800.10 1.23
800.20 1.23
800.30 1.23
800.40 1.229
800.50 1.229
800.60 1.229
800.70 1.229
800.80 1.229
800.90 1.229
801.00 1.229
801.10 1.229
801.20 1.229
801.30 1.229
801.40 1.228
801.50 1.228
801.60 1.228
801.70 1.228
801.80 1.228
801.90 1.228
802.00 1.228
802.10 1.228
802.20 1.228
802.30 1.227
802.40 1.227
802.50 1.227
802.60 1.227
802.70 1.227
802.80 1.227
802.90 1.227
803.00 1.227
803.10 1.227
803.20 1.226
803.30 1.226
803.40 1.226
803.50 1.226
803.60 1.226
803.70 1.226
803.80 1.226
803.90 1.226
804.00 1.226
804.10 1.225
804.20 1.225
804.30 1.225
804.40 1.225
804.50 1.225
804.60 1.225
804.70 1.225
804.80 1.225
804.90 1.225
805.00 1.224
805.10 1.224
805.20 1.224
805.30 1.224
805.40 1.224
805.50 1.224
805.60 1.224
805.70 1.224
805.80 1.224
805.90 1.224
806.00 1.223
806.10 1.223
806.20 1.223
806.30 1.223
806.40 1.223
806.50 1.223
806.60 1.223
806.70 1.223
806.80 1.223
806.90 1.222
807.00 1.222
807.10 1.222
807.20 1.222
807.30 1.222
807.40 1.222
807.50 1.222
807.60 1.222
807.70 1.222
807.80 1.221
807.90 1.221
808.00 1.221
808.10 1.221
808.20 1.221
808.30 1.221
808.40 1.221
808.50 1.221
808.60 1.221
808.70 1.22
808.80 1.22
808.90 1.22
809.00 1.22
809.10 1.22
809.20 1.22
809.30 1.22
809.40 1.22
809.50 1.22
809.60 1.22
809.70 1.219
809.80 1.219
809.90 1.219
810.00 1.219
810.10 1.219
810.20 1.219
810.30 1.219
810.40 1.219
810.50 1.218
810.60 1.218
810.70 1.218
810.80 1.218
810.90 1.218
811.00 1.218
811.10 1.218
811.20 1.218
811.30 1.218
811.40 1.217
811.50 1.217
811.60 1.217
811.70 1.217
811.80 1.217
811.90 1.217
812.00 1.217
812.10 1.217
812.20 1.216
812.30 1.216
812.40 1.216
812.50 1.216
812.60 1.216
812.70 1.216
812.80 1.216
812.90 1.216
813.00 1.215
813.10 1.215
813.20 1.215
813.30 1.215
813.40 1.215
813.50 1.215
813.60 1.215
813.70 1.215
813.80 1.214
813.90 1.214
814.00 1.214
814.10 1.214
814.20 1.214
814.30 1.214
814.40 1.214
814.50 1.214
814.60 1.214
814.70 1.213
814.80 1.213
814.90 1.213
815.00 1.213
815.10 1.213
815.20 1.213
815.30 1.213
815.40 1.213
815.50 1.212
815.60 1.212
815.70 1.212
815.80 1.212
815.90 1.212
816.00 1.212
816.10 1.212
816.20 1.212
816.30 1.211
816.40 1.211
816.50 1.211
816.60 1.211
816.70 1.211
816.80 1.211
816.90 1.211
817.00 1.211
817.10 1.211
817.20 1.21
817.30 1.21
817.40 1.21
817.50 1.21
817.60 1.21
817.70 1.21
817.80 1.21
817.90 1.21
818.00 1.209
818.10 1.209
818.20 1.209
818.30 1.209
818.40 1.209
818.50 1.209
818.60 1.209
818.70 1.209
818.80 1.208
818.90 1.208
819.00 1.208
819.10 1.208
819.20 1.208
819.30 1.208
819.40 1.208
819.50 1.208
819.60 1.208
819.70 1.207
819.80 1.207
819.90 1.207
820.00 1.207
820.10 1.207
820.20 1.207
820.30 1.207
820.40 1.207
820.50 1.206
820.60 1.206
820.70 1.206
820.80 1.206
820.90 1.206
821.00 1.206
821.10 1.206
821.20 1.206
821.30 1.205
821.40 1.205
821.50 1.205
821.60 1.205
821.70 1.205
821.80 1.205
821.90 1.205
822.00 1.205
822.10 1.204
822.20 1.204
822.30 1.204
822.40 1.204
822.50 1.204
822.60 1.204
822.70 1.204
822.80 1.203
822.90 1.203
823.00 1.203
823.10 1.203
823.20 1.203
823.30 1.203
823.40 1.203
823.50 1.203
823.60 1.202
823.70 1.202
823.80 1.202
823.90 1.202
824.00 1.202
824.10 1.202
824.20 1.202
824.30 1.202
824.40 1.201
824.50 1.201
824.60 1.201
824.70 1.201
824.80 1.201
824.90 1.201
825.00 1.201
825.10 1.2
825.20 1.2
825.30 1.2
825.40 1.2
825.50 1.2
825.60 1.2
825.70 1.2
825.80 1.2
825.90 1.199
826.00 1.199
826.10 1.199
826.20 1.199
826.30 1.199
826.40 1.199
826.50 1.199
826.60 1.199
826.70 1.198
826.80 1.198
826.90 1.198
827.00 1.198
827.10 1.198
827.20 1.198
827.30 1.198
827.40 1.197
827.50 1.197
827.60 1.197
827.70 1.197
827.80 1.197
827.90 1.197
828.00 1.197
828.10 1.197
828.20 1.196
828.30 1.196
828.40 1.196
828.50 1.196
828.60 1.196
828.70 1.196
828.80 1.196
828.90 1.195
829.00 1.195
829.10 1.195
829.20 1.195
829.30 1.195
829.40 1.195
829.50 1.195
829.60 1.195
829.70 1.194
829.80 1.194
829.90 1.194
830.00 1.194
830.10 1.194
830.20 1.194
830.30 1.194
830.40 1.193
830.50 1.193
830.60 1.193
830.70 1.193
830.80 1.193
830.90 1.193
831.00 1.193
831.10 1.192
831.20 1.192
831.30 1.192
831.40 1.192
831.50 1.192
831.60 1.192
831.70 1.192
831.80 1.192
831.90 1.191
832.00 1.191
832.10 1.191
832.20 1.191
832.30 1.191
832.40 1.191
832.50 1.191
832.60 1.19
832.70 1.19
832.80 1.19
832.90 1.19
833.00 1.19
833.10 1.19
833.20 1.19
833.30 1.189
833.40 1.189
833.50 1.189
833.60 1.189
833.70 1.189
833.80 1.189
833.90 1.189
834.00 1.189
834.10 1.188
834.20 1.188
834.30 1.188
834.40 1.188
834.50 1.188
834.60 1.188
834.70 1.188
834.80 1.187
834.90 1.187
835.00 1.187
835.10 1.187
835.20 1.187
835.30 1.187
835.40 1.187
835.50 1.186
835.60 1.186
835.70 1.186
835.80 1.186
835.90 1.186
836.00 1.186
836.10 1.186
836.20 1.185
836.30 1.185
836.40 1.185
836.50 1.185
836.60 1.185
836.70 1.185
836.80 1.185
836.90 1.185
837.00 1.184
837.10 1.184
837.20 1.184
837.30 1.184
837.40 1.184
837.50 1.184
837.60 1.184
837.70 1.183
837.80 1.183
837.90 1.183
838.00 1.183
838.10 1.183
838.20 1.183
838.30 1.182
838.40 1.182
838.50 1.182
838.60 1.182
838.70 1.182
838.80 1.182
838.90 1.182
839.00 1.181
839.10 1.181
839.20 1.181
839.30 1.181
839.40 1.181
839.50 1.181
839.60 1.181
839.70 1.18
839.80 1.18
839.90 1.18
840.00 1.18
840.10 1.18
840.20 1.18
840.30 1.18
840.40 1.179
840.50 1.179
840.60 1.179
840.70 1.179
840.80 1.179
840.90 1.179
841.00 1.179
841.10 1.178
841.20 1.178
841.30 1.178
841.40 1.178
841.50 1.178
841.60 1.178
841.70 1.178
841.80 1.177
841.90 1.177
842.00 1.177
842.10 1.177
842.20 1.177
842.30 1.177
842.40 1.177
842.50 1.176
842.60 1.176
842.70 1.176
842.80 1.176
842.90 1.176
843.00 1.176
843.10 1.176
843.20 1.175
843.30 1.175
843.40 1.175
843.50 1.175
843.60 1.175
843.70 1.175
843.80 1.175
843.90 1.174
844.00 1.174
844.10 1.174
844.20 1.174
844.30 1.174
844.40 1.174
844.50 1.173
844.60 1.173
844.70 1.173
844.80 1.173
844.90 1.173
845.00 1.173
845.10 1.173
845.20 1.172
845.30 1.172
845.40 1.172
845.50 1.172
845.60 1.172
845.70 1.172
845.80 1.172
845.90 1.171
846.00 1.171
846.10 1.171
846.20 1.171
846.30 1.171
846.40 1.171
846.50 1.171
846.60 1.17
846.70 1.17
846.80 1.17
846.90 1.17
847.00 1.17
847.10 1.17
847.20 1.17
847.30 1.169
847.40 1.169
847.50 1.169
847.60 1.169
847.70 1.169
847.80 1.169
847.90 1.168
848.00 1.168
848.10 1.168
848.20 1.168
848.30 1.168
848.40 1.168
848.50 1.168
848.60 1.167
848.70 1.167
848.80 1.167
848.90 1.167
849.00 1.167
849.10 1.167
849.20 1.167
849.30 1.166
849.40 1.166
849.50 1.166
849.60 1.166
849.70 1.166
849.80 1.166
849.90 1.165
850.00 1.165
850.10 1.165
850.20 1.165
850.30 1.165
850.40 1.165
850.50 1.165
850.60 1.164
850.70 1.164
850.80 1.164
850.90 1.164
851.00 1.164
851.10 1.164
851.20 1.164
851.30 1.163
851.40 1.163
851.50 1.163
851.60 1.163
851.70 1.163
851.80 1.163
851.90 1.162
852.00 1.162
852.10 1.162
852.20 1.162
852.30 1.162
852.40 1.162
852.50 1.162
852.60 1.161
852.70 1.161
852.80 1.161
852.90 1.161
853.00 1.161
853.10 1.161
853.20 1.16
853.30 1.16
853.40 1.16
853.50 1.16
853.60 1.16
853.70 1.16
853.80 1.159
853.90 1.159
854.00 1.159
854.10 1.159
854.20 1.159
854.30 1.159
854.40 1.159
854.50 1.158
854.60 1.158
854.70 1.158
854.80 1.158
854.90 1.158
855.00 1.158
855.10 1.157
855.20 1.157
855.30 1.157
855.40 1.157
855.50 1.157
855.60 1.157
855.70 1.157
855.80 1.156
855.90 1.156
856.00 1.156
856.10 1.156
856.20 1.156
856.30 1.156
856.40 1.155
856.50 1.155
856.60 1.155
856.70 1.155
856.80 1.155
856.90 1.155
857.00 1.155
857.10 1.154
857.20 1.154
857.30 1.154
857.40 1.154
857.50 1.154
857.60 1.154
857.70 1.153
857.80 1.153
857.90 1.153
858.00 1.153
858.10 1.153
858.20 1.153
858.30 1.152
858.40 1.152
858.50 1.152
858.60 1.152
858.70 1.152
858.80 1.152
858.90 1.152
859.00 1.151
859.10 1.151
859.20 1.151
859.30 1.151
859.40 1.151
859.50 1.151
859.60 1.15
859.70 1.15
859.80 1.15
859.90 1.15
860.00 1.15
860.10 1.15
860.20 1.149
860.30 1.149
860.40 1.149
860.50 1.149
860.60 1.149
860.70 1.149
860.80 1.148
860.90 1.148
861.00 1.148
861.10 1.148
861.20 1.148
861.30 1.148
861.40 1.148
861.50 1.147
861.60 1.147
861.70 1.147
861.80 1.147
861.90 1.147
862.00 1.147
862.10 1.146
862.20 1.146
862.30 1.146
862.40 1.146
862.50 1.146
862.60 1.146
862.70 1.145
862.80 1.145
862.90 1.145
863.00 1.145
863.10 1.145
863.20 1.145
863.30 1.144
863.40 1.144
863.50 1.144
863.60 1.144
863.70 1.144
863.80 1.144
863.90 1.143
864.00 1.143
864.10 1.143
864.20 1.143
864.30 1.143
864.40 1.143
864.50 1.142
864.60 1.142
864.70 1.142
864.80 1.142
864.90 1.142
865.00 1.142
865.10 1.141
865.20 1.141
865.30 1.141
865.40 1.141
865.50 1.141
865.60 1.141
865.70 1.141
865.80 1.14
865.90 1.14
866.00 1.14
866.10 1.14
866.20 1.14
866.30 1.14
866.40 1.139
866.50 1.139
866.60 1.139
866.70 1.139
866.80 1.139
866.90 1.139
867.00 1.138
867.10 1.138
867.20 1.138
867.30 1.138
867.40 1.138
867.50 1.138
867.60 1.137
867.70 1.137
867.80 1.137
867.90 1.137
868.00 1.137
868.10 1.137
868.20 1.136
868.30 1.136
868.40 1.136
868.50 1.136
868.60 1.136
868.70 1.136
868.80 1.135
868.90 1.135
869.00 1.135
869.10 1.135
869.20 1.135
869.30 1.135
869.40 1.134
869.50 1.134
869.60 1.134
869.70 1.134
869.80 1.134
869.90 1.134
870.00 1.133
870.10 1.133
870.20 1.133
870.30 1.133
870.40 1.133
870.50 1.133
870.60 1.132
870.70 1.132
870.80 1.132
870.90 1.132
871.00 1.132
871.10 1.131
871.20 1.131
871.30 1.131
871.40 1.131
871.50 1.131
871.60 1.131
871.70 1.13
871.80 1.13
871.90 1.13
872.00 1.13
872.10 1.13
872.20 1.13
872.30 1.129
872.40 1.129
872.50 1.129
872.60 1.129
872.70 1.129
872.80 1.129
872.90 1.128
873.00 1.128
873.10 1.128
873.20 1.128
873.30 1.128
873.40 1.128
873.50 1.127
873.60 1.127
873.70 1.127
873.80 1.127
873.90 1.127
874.00 1.126
874.10 1.126
874.20 1.126
874.30 1.126
874.40 1.126
874.50 1.126
874.60 1.125
874.70 1.125
874.80 1.125
874.90 1.125
875.00 1.125
875.10 1.125
875.20 1.124
875.30 1.124
875.40 1.124
875.50 1.124
875.60 1.124
875.70 1.124
875.80 1.123
875.90 1.123
876.00 1.123
876.10 1.123
876.20 1.123
876.30 1.122
876.40 1.122
876.50 1.122
876.60 1.122
876.70 1.122
876.80 1.122
876.90 1.121
877.00 1.121
877.10 1.121
877.20 1.121
877.30 1.121
877.40 1.121
877.50 1.12
877.60 1.12
877.70 1.12
877.80 1.12
877.90 1.12
878.00 1.119
878.10 1.119
878.20 1.119
878.30 1.119
878.40 1.119
878.50 1.119
878.60 1.118
878.70 1.118
878.80 1.118
878.90 1.118
879.00 1.118
879.10 1.117
879.20 1.117
879.30 1.117
879.40 1.117
879.50 1.117
879.60 1.117
879.70 1.116
879.80 1.116
879.90 1.116
880.00 1.116
880.10 1.116
880.20 1.115
880.30 1.115
880.40 1.115
880.50 1.115
880.60 1.115
880.70 1.115
880.80 1.114
880.90 1.114
881.00 1.114
881.10 1.114
881.20 1.114
881.30 1.113
881.40 1.113
881.50 1.113
881.60 1.113
881.70 1.113
881.80 1.113
881.90 1.112
882.00 1.112
882.10 1.112
882.20 1.112
882.30 1.112
882.40 1.111
882.50 1.111
882.60 1.111
882.70 1.111
882.80 1.111
882.90 1.111
883.00 1.11
883.10 1.11
883.20 1.11
883.30 1.11
883.40 1.11
883.50 1.109
883.60 1.109
883.70 1.109
883.80 1.109
883.90 1.109
884.00 1.108
884.10 1.108
884.20 1.108
884.30 1.108
884.40 1.108
884.50 1.108
884.60 1.107
884.70 1.107
884.80 1.107
884.90 1.107
885.00 1.107
885.10 1.106
885.20 1.106
885.30 1.106
885.40 1.106
885.50 1.106
885.60 1.105
885.70 1.105
885.80 1.105
885.90 1.105
886.00 1.105
886.10 1.105
886.20 1.104
886.30 1.104
886.40 1.104
886.50 1.104
886.60 1.104
886.70 1.103
886.80 1.103
886.90 1.103
887.00 1.103
887.10 1.103
887.20 1.102
887.30 1.102
887.40 1.102
887.50 1.102
887.60 1.102
887.70 1.101
887.80 1.101
887.90 1.101
888.00 1.101
888.10 1.101
888.20 1.1
888.30 1.1
888.40 1.1
888.50 1.1
888.60 1.1
888.70 1.099
888.80 1.099
888.90 1.099
889.00 1.099
889.10 1.099
889.20 1.098
889.30 1.098
889.40 1.098
889.50 1.098
889.60 1.098
889.70 1.097
889.80 1.097
889.90 1.097
890.00 1.097
890.10 1.097
890.20 1.097
890.30 1.096
890.40 1.096
890.50 1.096
890.60 1.096
890.70 1.096
890.80 1.095
890.90 1.095
891.00 1.095
891.10 1.095
891.20 1.095
891.30 1.094
891.40 1.094
891.50 1.094
891.60 1.094
891.70 1.094
891.80 1.093
891.90 1.093
892.00 1.093
892.10 1.093
892.20 1.093
892.30 1.092
892.40 1.092
892.50 1.092
892.60 1.092
892.70 1.092
892.80 1.091
892.90 1.091
893.00 1.091
893.10 1.091
893.20 1.091
893.30 1.091
893.40 1.09
893.50 1.09
893.60 1.09
893.70 1.09
893.80 1.09
893.90 1.089
894.00 1.089
894.10 1.089
894.20 1.089
894.30 1.089
894.40 1.088
894.50 1.088
894.60 1.088
894.70 1.088
894.80 1.088
894.90 1.088
895.00 1.087
895.10 1.087
895.20 1.087
895.30 1.087
895.40 1.087
895.50 1.086
895.60 1.086
895.70 1.086
895.80 1.086
895.90 1.086
896.00 1.086
896.10 1.085
896.20 1.085
896.30 1.085
896.40 1.085
896.50 1.085
896.60 1.084
896.70 1.084
896.80 1.084
896.90 1.084
897.00 1.084
897.10 1.083
897.20 1.083
897.30 1.083
897.40 1.083
897.50 1.083
897.60 1.082
897.70 1.082
897.80 1.082
897.90 1.082
898.00 1.081
898.10 1.081
898.20 1.081
898.30 1.081
898.40 1.081
898.50 1.08
898.60 1.08
898.70 1.08
898.80 1.08
898.90 1.079
899.00 1.079
899.10 1.079
899.20 1.079
899.30 1.079
899.40 1.078
899.50 1.078
899.60 1.078
899.70 1.078
899.80 1.078
899.90 1.077
900.00 1.077
900.10 1.077
900.20 1.077
900.30 1.076
900.40 1.076
900.50 1.076
900.60 1.076
900.70 1.076
900.80 1.075
900.90 1.075
901.00 1.075
901.10 1.075
901.20 1.074
901.30 1.074
901.40 1.074
901.50 1.074
901.60 1.074
901.70 1.073
901.80 1.073
901.90 1.073
902.00 1.073
902.10 1.072
902.20 1.072
902.30 1.072
902.40 1.072
902.50 1.071
902.60 1.071
902.70 1.071
902.80 1.071
902.90 1.07
903.00 1.07
903.10 1.07
903.20 1.069
903.30 1.069
903.40 1.069
903.50 1.069
903.60 1.068
903.70 1.068
903.80 1.068
903.90 1.068
904.00 1.067
904.10 1.067
904.20 1.067
904.30 1.066
904.40 1.066
904.50 1.066
904.60 1.066
904.70 1.065
904.80 1.065
904.90 1.065
905.00 1.065
905.10 1.064
905.20 1.064
905.30 1.064
905.40 1.063
905.50 1.063
905.60 1.063
905.70 1.063
905.80 1.062
905.90 1.062
906.00 1.062
906.10 1.062
906.20 1.061
906.30 1.061
906.40 1.061
906.50 1.061
906.60 1.06
906.70 1.06
906.80 1.06
906.90 1.059
907.00 1.059
907.10 1.059
907.20 1.059
907.30 1.058
907.40 1.058
907.50 1.058
907.60 1.058
907.70 1.057
907.80 1.057
907.90 1.057
908.00 1.057
908.10 1.056
908.20 1.056
908.30 1.056
908.40 1.056
908.50 1.055
908.60 1.055
908.70 1.055
908.80 1.055
908.90 1.054
909.00 1.054
909.10 1.054
909.20 1.054
909.30 1.053
909.40 1.053
909.50 1.053
909.60 1.053
909.70 1.052
909.80 1.052
909.90 1.052
910.00 1.052
910.10 1.051
910.20 1.051
910.30 1.051
910.40 1.051
910.50 1.051
910.60 1.05
910.70 1.05
910.80 1.05
910.90 1.05
911.00 1.049
911.10 1.049
911.20 1.049
911.30 1.049
911.40 1.048
911.50 1.048
911.60 1.048
911.70 1.048
911.80 1.047
911.90 1.047
912.00 1.047
912.10 1.047
912.20 1.046
912.30 1.046
912.40 1.046
912.50 1.046
912.60 1.045
912.70 1.045
912.80 1.045
912.90 1.045
913.00 1.045
913.10 1.044
913.20 1.044
913.30 1.044
913.40 1.044
913.50 1.043
913.60 1.043
913.70 1.043
913.80 1.043
913.90 1.043
914.00 1.042
914.10 1.042
914.20 1.042
914.30 1.042
914.40 1.041
914.50 1.041
914.60 1.041
914.70 1.041
914.80 1.041
914.90 1.04
915.00 1.04
915.10 1.04
915.20 1.04
915.30 1.039
915.40 1.039
915.50 1.039
915.60 1.039
915.70 1.039
915.80 1.038
915.90 1.038
916.00 1.038
916.10 1.038
916.20 1.037
916.30 1.037
916.40 1.037
916.50 1.037
916.60 1.036
916.70 1.036
916.80 1.036
916.90 1.036
917.00 1.036
917.10 1.035
917.20 1.035
917.30 1.035
917.40 1.035
917.50 1.034
917.60 1.034
917.70 1.034
917.80 1.034
917.90 1.033
918.00 1.033
918.10 1.033
918.20 1.033
918.30 1.032
918.40 1.032
918.50 1.032
918.60 1.032
918.70 1.031
918.80 1.031
918.90 1.031
919.00 1.031
919.10 1.03
919.20 1.03
919.30 1.03
919.40 1.03
919.50 1.029
919.60 1.029
919.70 1.029
919.80 1.029
919.90 1.028
920.00 1.028
920.10 1.028
920.20 1.028
920.30 1.027
920.40 1.027
920.50 1.027
920.60 1.027
920.70 1.026
920.80 1.026
920.90 1.026
921.00 1.026
921.10 1.025
921.20 1.025
921.30 1.025
921.40 1.025
921.50 1.024
921.60 1.024
921.70 1.024
921.80 1.024
921.90 1.023
922.00 1.023
922.10 1.023
922.20 1.023
922.30 1.022
922.40 1.022
922.50 1.022
922.60 1.022
922.70 1.021
922.80 1.021
922.90 1.021
923.00 1.021
923.10 1.02
923.20 1.02
923.30 1.02
923.40 1.02
923.50 1.019
923.60 1.019
923.70 1.019
923.80 1.019
923.90 1.018
924.00 1.018
924.10 1.018
924.20 1.018
924.30 1.017
924.40 1.017
924.50 1.017
924.60 1.017
924.70 1.016
924.80 1.016
924.90 1.016
925.00 1.016
925.10 1.015
925.20 1.015
925.30 1.015
925.40 1.015
925.50 1.014
925.60 1.014
925.70 1.014
925.80 1.014
925.90 1.013
926.00 1.013
926.10 1.013
926.20 1.013
926.30 1.012
926.40 1.012
926.50 1.012
926.60 1.011
926.70 1.011
926.80 1.011
926.90 1.011
927.00 1.01
927.10 1.01
927.20 1.01
927.30 1.01
927.40 1.009
927.50 1.009
927.60 1.009
927.70 1.009
927.80 1.008
927.90 1.008
928.00 1.008
928.10 1.008
928.20 1.007
928.30 1.007
928.40 1.007
928.50 1.007
928.60 1.006
928.70 1.006
928.80 1.006
928.90 1.005
929.00 1.005
929.10 1.005
929.20 1.005
929.30 1.004
929.40 1.004
929.50 1.004
929.60 1.004
929.70 1.003
929.80 1.003
929.90 1.003
930.00 1.003
930.10 1.002
930.20 1.002
930.30 1.002
930.40 1.002
930.50 1.001
930.60 1.001
930.70 1.001
930.80 1.001
930.90 1
931.00 1
931.10 0.9998
931.20 0.9995
931.30 0.9992
931.40 0.999
931.50 0.9987
931.60 0.9985
931.70 0.9982
931.80 0.9979
931.90 0.9977
932.00 0.9974
932.10 0.9972
932.20 0.9969
932.30 0.9966
932.40 0.9964
932.50 0.9961
932.60 0.9958
932.70 0.9955
932.80 0.9953
932.90 0.995
933.00 0.9947
933.10 0.9945
933.20 0.9942
933.30 0.9939
933.40 0.9937
933.50 0.9934
933.60 0.9931
933.70 0.9929
933.80 0.9926
933.90 0.9923
934.00 0.9921
934.10 0.9918
934.20 0.9915
934.30 0.9913
934.40 0.991
934.50 0.9907
934.60 0.9905
934.70 0.9902
934.80 0.9899
934.90 0.9896
935.00 0.9894
935.10 0.9891
935.20 0.9888
935.30 0.9885
935.40 0.9883
935.50 0.988
935.60 0.9877
935.70 0.9875
935.80 0.9872
935.90 0.9869
936.00 0.9866
936.10 0.9864
936.20 0.9861
936.30 0.9858
936.40 0.9856
936.50 0.9853
936.60 0.985
936.70 0.9847
936.80 0.9845
936.90 0.9842
937.00 0.9839
937.10 0.9836
937.20 0.9834
937.30 0.9831
937.40 0.9828
937.50 0.9825
937.60 0.9823
937.70 0.982
937.80 0.9817
937.90 0.9814
938.00 0.9812
938.10 0.9809
938.20 0.9806
938.30 0.9803
938.40 0.9801
938.50 0.9798
938.60 0.9795
938.70 0.9792
938.80 0.9789
938.90 0.9787
939.00 0.9784
939.10 0.9781
939.20 0.9778
939.30 0.9775
939.40 0.9773
939.50 0.977
939.60 0.9767
939.70 0.9764
939.80 0.9761
939.90 0.9759
940.00 0.9756
940.10 0.9753
940.20 0.975
940.30 0.9747
940.40 0.9745
940.50 0.9742
940.60 0.9739
940.70 0.9736
940.80 0.9733
940.90 0.9731
941.00 0.9728
941.10 0.9725
941.20 0.9722
941.30 0.972
941.40 0.9717
941.50 0.9714
941.60 0.9711
941.70 0.9708
941.80 0.9706
941.90 0.9703
942.00 0.97
942.10 0.9697
942.20 0.9694
942.30 0.9691
942.40 0.9689
942.50 0.9686
942.60 0.9683
942.70 0.968
942.80 0.9677
942.90 0.9674
943.00 0.9671
943.10 0.9669
943.20 0.9666
943.30 0.9663
943.40 0.966
943.50 0.9657
943.60 0.9654
943.70 0.9652
943.80 0.9649
943.90 0.9646
944.00 0.9643
944.10 0.964
944.20 0.9637
944.30 0.9635
944.40 0.9632
944.50 0.9629
944.60 0.9626
944.70 0.9623
944.80 0.962
944.90 0.9618
945.00 0.9615
945.10 0.9612
945.20 0.9609
945.30 0.9606
945.40 0.9603
945.50 0.96
945.60 0.9598
945.70 0.9595
945.80 0.9592
945.90 0.9589
946.00 0.9586
946.10 0.9583
946.20 0.958
946.30 0.9578
946.40 0.9575
946.50 0.9572
946.60 0.9569
946.70 0.9566
946.80 0.9563
946.90 0.956
947.00 0.9558
947.10 0.9555
947.20 0.9552
947.30 0.9549
947.40 0.9546
947.50 0.9543
947.60 0.954
947.70 0.9537
947.80 0.9534
947.90 0.9531
948.00 0.9528
948.10 0.9525
948.20 0.9522
948.30 0.952
948.40 0.9517
948.50 0.9514
948.60 0.9511
948.70 0.9508
948.80 0.9505
948.90 0.9502
949.00 0.9499
949.10 0.9496
949.20 0.9493
949.30 0.949
949.40 0.9488
949.50 0.9485
949.60 0.9482
949.70 0.9479
949.80 0.9476
949.90 0.9473
950.00 0.947
950.10 0.9467
950.20 0.9464
950.30 0.9461
950.40 0.9458
950.50 0.9455
950.60 0.9453
950.70 0.945
950.80 0.9447
950.90 0.9444
951.00 0.9441
951.10 0.9438
951.20 0.9435
951.30 0.9432
951.40 0.9429
951.50 0.9426
951.60 0.9423
951.70 0.942
951.80 0.9417
951.90 0.9415
952.00 0.9412
952.10 0.9409
952.20 0.9406
952.30 0.9403
952.40 0.94
952.50 0.9397
952.60 0.9394
952.70 0.9391
952.80 0.9388
952.90 0.9385
953.00 0.9382
953.10 0.9379
953.20 0.9376
953.30 0.9374
953.40 0.9371
953.50 0.9368
953.60 0.9365
953.70 0.9362
953.80 0.9359
953.90 0.9356
954.00 0.9353
954.10 0.935
954.20 0.9347
954.30 0.9344
954.40 0.9341
954.50 0.9338
954.60 0.9335
954.70 0.9332
954.80 0.9329
954.90 0.9326
955.00 0.9323
955.10 0.932
955.20 0.9317
955.30 0.9314
955.40 0.9311
955.50 0.9308
955.60 0.9305
955.70 0.9302
955.80 0.9299
955.90 0.9296
956.00 0.9293
956.10 0.929
956.20 0.9287
956.30 0.9284
956.40 0.9281
956.50 0.9278
956.60 0.9275
956.70 0.9272
956.80 0.9269
956.90 0.9266
957.00 0.9263
957.10 0.926
957.20 0.9257
957.30 0.9254
957.40 0.9251
957.50 0.9248
957.60 0.9245
957.70 0.9242
957.80 0.9239
957.90 0.9236
958.00 0.9233
958.10 0.923
958.20 0.9227
958.30 0.9224
958.40 0.9221
958.50 0.9219
958.60 0.9216
958.70 0.9213
958.80 0.921
958.90 0.9207
959.00 0.9204
959.10 0.9201
959.20 0.9198
959.30 0.9195
959.40 0.9192
959.50 0.9189
959.60 0.9186
959.70 0.9183
959.80 0.918
959.90 0.9177
960.00 0.9174
960.10 0.9171
960.20 0.9168
960.30 0.9165
960.40 0.9162
960.50 0.9159
960.60 0.9156
960.70 0.9153
960.80 0.915
960.90 0.9147
961.00 0.9144
961.10 0.9141
961.20 0.9138
961.30 0.9135
961.40 0.9132
961.50 0.9129
961.60 0.9125
961.70 0.9122
961.80 0.9119
961.90 0.9116
962.00 0.9113
962.10 0.911
962.20 0.9107
962.30 0.9104
962.40 0.9101
962.50 0.9098
962.60 0.9095
962.70 0.9092
962.80 0.9089
962.90 0.9086
963.00 0.9083
963.10 0.908
963.20 0.9077
963.30 0.9074
963.40 0.9071
963.50 0.9068
963.60 0.9065
963.70 0.9062
963.80 0.9059
963.90 0.9056
964.00 0.9053
964.10 0.905
964.20 0.9047
964.30 0.9044
964.40 0.9041
964.50 0.9038
964.60 0.9035
964.70 0.9032
964.80 0.9029
964.90 0.9026
965.00 0.9023
965.10 0.902
965.20 0.9017
965.30 0.9014
965.40 0.9011
965.50 0.9008
965.60 0.9005
965.70 0.9002
965.80 0.8999
965.90 0.8996
966.00 0.8993
966.10 0.899
966.20 0.8987
966.30 0.8984
966.40 0.8981
966.50 0.8978
966.60 0.8975
966.70 0.8971
966.80 0.8968
966.90 0.8965
967.00 0.8962
967.10 0.8959
967.20 0.8956
967.30 0.8953
967.40 0.895
967.50 0.8947
967.60 0.8944
967.70 0.8941
967.80 0.8938
967.90 0.8935
968.00 0.8932
968.10 0.8929
968.20 0.8926
968.30 0.8923
968.40 0.892
968.50 0.8917
968.60 0.8914
968.70 0.8911
968.80 0.8908
968.90 0.8905
969.00 0.8902
969.10 0.8899
969.20 0.8896
969.30 0.8893
969.40 0.889
969.50 0.8887
969.60 0.8884
969.70 0.8881
969.80 0.8878
969.90 0.8875
970.00 0.8872
970.10 0.8869
970.20 0.8866
970.30 0.8863
970.40 0.886
970.50 0.8857
970.60 0.8854
970.70 0.8851
970.80 0.8847
970.90 0.8844
971.00 0.8841
971.10 0.8838
971.20 0.8835
971.30 0.8832
971.40 0.8829
971.50 0.8826
971.60 0.8823
971.70 0.882
971.80 0.8817
971.90 0.8814
972.00 0.8811
972.10 0.8808
972.20 0.8805
972.30 0.8802
972.40 0.8799
972.50 0.8796
972.60 0.8793
972.70 0.879
972.80 0.8787
972.90 0.8784
973.00 0.8781
973.10 0.8778
973.20 0.8775
973.30 0.8772
973.40 0.8769
973.50 0.8766
973.60 0.8763
973.70 0.876
973.80 0.8757
973.90 0.8754
974.00 0.8751
974.10 0.8748
974.20 0.8745
974.30 0.8742
974.40 0.8739
974.50 0.8736
974.60 0.8733
974.70 0.873
974.80 0.8727
974.90 0.8724
975.00 0.8721
975.10 0.8718
975.20 0.8715
975.30 0.8712
975.40 0.8709
975.50 0.8706
975.60 0.8703
975.70 0.87
975.80 0.8697
975.90 0.8694
976.00 0.8691
976.10 0.8688
976.20 0.8685
976.30 0.8682
976.40 0.8679
976.50 0.8676
976.60 0.8673
976.70 0.867
976.80 0.8667
976.90 0.8664
977.00 0.8661
977.10 0.8658
977.20 0.8655
977.30 0.8652
977.40 0.8649
977.50 0.8646
977.60 0.8643
977.70 0.864
977.80 0.8637
977.90 0.8634
978.00 0.8631
978.10 0.8628
978.20 0.8625
978.30 0.8622
978.40 0.8619
978.50 0.8616
978.60 0.8613
978.70 0.861
978.80 0.8607
978.90 0.8604
979.00 0.8601
979.10 0.8598
979.20 0.8595
979.30 0.8592
979.40 0.8589
979.50 0.8586
979.60 0.8583
979.70 0.858
979.80 0.8577
979.90 0.8574
980.00 0.8571
980.10 0.8568
980.20 0.8565
980.30 0.8562
980.40 0.8559
980.50 0.8556
980.60 0.8553
980.70 0.855
980.80 0.8547
980.90 0.8544
981.00 0.8541
981.10 0.8538
981.20 0.8535
981.30 0.8532
981.40 0.8529
981.50 0.8527
981.60 0.8524
981.70 0.8521
981.80 0.8518
981.90 0.8515
982.00 0.8512
982.10 0.8509
982.20 0.8506
982.30 0.8503
982.40 0.85
982.50 0.8497
982.60 0.8494
982.70 0.8491
982.80 0.8488
982.90 0.8485
983.00 0.8482
983.10 0.8479
983.20 0.8476
983.30 0.8473
983.40 0.847
983.50 0.8467
983.60 0.8464
983.70 0.8462
983.80 0.8459
983.90 0.8456
984.00 0.8453
984.10 0.845
984.20 0.8447
984.30 0.8444
984.40 0.8441
984.50 0.8438
984.60 0.8435
984.70 0.8432
984.80 0.8429
984.90 0.8426
985.00 0.8423
985.10 0.842
985.20 0.8418
985.30 0.8415
985.40 0.8412
985.50 0.8409
985.60 0.8406
985.70 0.8403
985.80 0.84
985.90 0.8397
986.00 0.8394
986.10 0.8391
986.20 0.8388
986.30 0.8386
986.40 0.8383
986.50 0.838
986.60 0.8377
986.70 0.8374
986.80 0.8371
986.90 0.8368
987.00 0.8365
987.10 0.8362
987.20 0.8359
987.30 0.8356
987.40 0.8354
987.50 0.8351
987.60 0.8348
987.70 0.8345
987.80 0.8342
987.90 0.8339
988.00 0.8336
988.10 0.8333
988.20 0.833
988.30 0.8327
988.40 0.8324
988.50 0.8321
988.60 0.8319
988.70 0.8316
988.80 0.8313
988.90 0.831
989.00 0.8307
989.10 0.8304
989.20 0.8301
989.30 0.8298
989.40 0.8295
989.50 0.8292
989.60 0.8289
989.70 0.8286
989.80 0.8283
989.90 0.828
990.00 0.8277
990.10 0.8275
990.20 0.8272
990.30 0.8269
990.40 0.8266
990.50 0.8263
990.60 0.826
990.70 0.8257
990.80 0.8254
990.90 0.8251
991.00 0.8248
991.10 0.8245
991.20 0.8242
991.30 0.8239
991.40 0.8237
991.50 0.8234
991.60 0.8231
991.70 0.8228
991.80 0.8225
991.90 0.8222
992.00 0.8219
992.10 0.8216
992.20 0.8213
992.30 0.821
992.40 0.8207
992.50 0.8205
992.60 0.8202
992.70 0.8199
992.80 0.8196
992.90 0.8193
993.00 0.819
993.10 0.8187
993.20 0.8184
993.30 0.8181
993.40 0.8178
993.50 0.8175
993.60 0.8173
993.70 0.817
993.80 0.8167
993.90 0.8164
994.00 0.8161
994.10 0.8158
994.20 0.8155
994.30 0.8152
994.40 0.8149
994.50 0.8146
994.60 0.8144
994.70 0.814
994.80 0.8137
994.90 0.8134
995.00 0.8131
995.10 0.8128
995.20 0.8125
995.30 0.8122
995.40 0.8119
995.50 0.8115
995.60 0.8112
995.70 0.8109
995.80 0.8106
995.90 0.8104
996.00 0.8101
996.10 0.8098
996.20 0.8095
996.30 0.8092
996.40 0.8089
996.50 0.8086
996.60 0.8083
996.70 0.808
996.80 0.8078
996.90 0.8075
997.00 0.8072
997.10 0.8069
997.20 0.8066
997.30 0.8063
997.40 0.806
997.50 0.8058
997.60 0.8055
997.70 0.8052
997.80 0.8049
997.90 0.8046
998.00 0.8043
998.10 0.804
998.20 0.8038
998.30 0.8035
998.40 0.8032
998.50 0.8029
998.60 0.8026
998.70 0.8023
998.80 0.8021
998.90 0.8018
999.00 0.8015
999.10 0.8012
999.20 0.8009
999.30 0.8006
999.40 0.8004
999.50 0.8001
999.60 0.7998
999.70 0.7995
999.80 0.7992
999.90 0.7989
1000.00 0.7987
1000.10 0.7984
1000.20 0.7981
1000.30 0.7978
1000.40 0.7975
1000.50 0.7973
1000.60 0.797
1000.70 0.7967
1000.80 0.7964
1000.90 0.7961
1001.00 0.7959
1001.10 0.7956
1001.20 0.7953
1001.30 0.795
1001.40 0.7947
1001.50 0.7945
1001.60 0.7942
1001.70 0.7939
1001.80 0.7936
1001.90 0.7933
1002.00 0.7931
1002.10 0.7928
1002.20 0.7925
1002.30 0.7922
1002.40 0.792
1002.50 0.7917
1002.60 0.7914
1002.70 0.7911
1002.80 0.7909
1002.90 0.7906
1003.00 0.7903
1003.10 0.7901
1003.20 0.7898
1003.30 0.7895
1003.40 0.7892
1003.50 0.7889
1003.60 0.7887
1003.70 0.7884
1003.80 0.7881
1003.90 0.7879
1004.00 0.7876
1004.10 0.7873
1004.20 0.787
1004.30 0.7868
1004.40 0.7865
1004.50 0.7862
1004.60 0.7859
1004.70 0.7857
1004.80 0.7854
1004.90 0.7851
1005.00 0.7848
1005.10 0.7846
1005.20 0.7843
1005.30 0.784
1005.40 0.7838
1005.50 0.7835
1005.60 0.7832
1005.70 0.783
1005.80 0.7827
1005.90 0.7824
1006.00 0.7821
1006.10 0.7819
1006.20 0.7816
1006.30 0.7813
1006.40 0.7811
1006.50 0.7808
1006.60 0.7805
1006.70 0.7803
1006.80 0.78
1006.90 0.7797
1007.00 0.7795
1007.10 0.7792
1007.20 0.7789
1007.30 0.7787
1007.40 0.7784
1007.50 0.7781
1007.60 0.7779
1007.70 0.7776
1007.80 0.7774
1007.90 0.7771
1008.00 0.7768
1008.10 0.7766
1008.20 0.7763
1008.30 0.776
1008.40 0.7758
1008.50 0.7755
1008.60 0.7753
1008.70 0.775
1008.80 0.7747
1008.90 0.7745
1009.00 0.7742
1009.10 0.7739
1009.20 0.7737
1009.30 0.7734
1009.40 0.7732
1009.50 0.7729
1009.60 0.7726
1009.70 0.7724
1009.80 0.7721
1009.90 0.7719
1010.00 0.7716
1010.10 0.7714
1010.20 0.7711
1010.30 0.7708
1010.40 0.7706
1010.50 0.7703
1010.60 0.7701
1010.70 0.7698
1010.80 0.7696
1010.90 0.7693
1011.00 0.769
1011.10 0.7688
1011.20 0.7685
1011.30 0.7683
1011.40 0.768
1011.50 0.7678
1011.60 0.7675
1011.70 0.7673
1011.80 0.767
1011.90 0.7668
1012.00 0.7665
1012.10 0.7663
1012.20 0.766
1012.30 0.7658
1012.40 0.7655
1012.50 0.7653
1012.60 0.765
1012.70 0.7648
1012.80 0.7645
1012.90 0.7643
1013.00 0.764
1013.10 0.7638
1013.20 0.7635
1013.30 0.7633
1013.40 0.763
1013.50 0.7628
1013.60 0.7625
1013.70 0.7623
1013.80 0.762
1013.90 0.7618
1014.00 0.7615
1014.10 0.7613
1014.20 0.761
1014.30 0.7608
1014.40 0.7605
1014.50 0.7603
1014.60 0.76
1014.70 0.7598
1014.80 0.7595
1014.90 0.7593
1015.00 0.7591
1015.10 0.7588
1015.20 0.7586
1015.30 0.7583
1015.40 0.7581
1015.50 0.7579
1015.60 0.7576
1015.70 0.7574
1015.80 0.7572
1015.90 0.7569
1016.00 0.7567
1016.10 0.7564
1016.20 0.7562
1016.30 0.756
1016.40 0.7557
1016.50 0.7555
1016.60 0.7552
1016.70 0.755
1016.80 0.7548
1016.90 0.7545
1017.00 0.7543
1017.10 0.754
1017.20 0.7538
1017.30 0.7536
1017.40 0.7533
1017.50 0.7531
1017.60 0.7529
1017.70 0.7526
1017.80 0.7524
1017.90 0.7521
1018.00 0.7519
1018.10 0.7517
1018.20 0.7514
1018.30 0.7512
1018.40 0.7509
1018.50 0.7507
1018.60 0.7505
1018.70 0.7502
1018.80 0.75
1018.90 0.7498
1019.00 0.7495
1019.10 0.7493
1019.20 0.749
1019.30 0.7488
1019.40 0.7486
1019.50 0.7483
1019.60 0.7481
1019.70 0.7479
1019.80 0.7476
1019.90 0.7474
1020.00 0.7471
1020.10 0.7469
1020.20 0.7467
1020.30 0.7464
1020.40 0.7462
1020.50 0.746
1020.60 0.7457
1020.70 0.7455
1020.80 0.7453
1020.90 0.745
1021.00 0.7448
1021.10 0.7446
1021.20 0.7443
1021.30 0.7441
1021.40 0.7439
1021.50 0.7436
1021.60 0.7434
1021.70 0.7432
1021.80 0.7429
1021.90 0.7427
1022.00 0.7425
1022.10 0.7422
1022.20 0.742
1022.30 0.7418
1022.40 0.7415
1022.50 0.7413
1022.60 0.7411
1022.70 0.7408
1022.80 0.7406
1022.90 0.7404
1023.00 0.7401
1023.10 0.7399
1023.20 0.7397
1023.30 0.7395
1023.40 0.7392
1023.50 0.739
1023.60 0.7388
1023.70 0.7385
1023.80 0.7383
1023.90 0.7381
1024.00 0.7378
1024.10 0.7376
1024.20 0.7374
1024.30 0.7372
1024.40 0.7369
1024.50 0.7367
1024.60 0.7365
1024.70 0.7362
1024.80 0.736
1024.90 0.7358
1025.00 0.7356
1025.10 0.7353
1025.20 0.7351
1025.30 0.7349
1025.40 0.7347
1025.50 0.7344
1025.60 0.7342
1025.70 0.734
1025.80 0.7337
1025.90 0.7335
1026.00 0.7333
1026.10 0.7331
1026.20 0.7328
1026.30 0.7326
1026.40 0.7324
1026.50 0.7322
1026.60 0.7319
1026.70 0.7317
1026.80 0.7315
1026.90 0.7313
1027.00 0.731
1027.10 0.7308
1027.20 0.7306
1027.30 0.7304
1027.40 0.7302
1027.50 0.7299
1027.60 0.7297
1027.70 0.7295
1027.80 0.7293
1027.90 0.7291
1028.00 0.7288
1028.10 0.7286
1028.20 0.7284
1028.30 0.7282
1028.40 0.728
1028.50 0.7277
1028.60 0.7275
1028.70 0.7273
1028.80 0.7271
1028.90 0.7269
1029.00 0.7267
1029.10 0.7264
1029.20 0.7262
1029.30 0.726
1029.40 0.7258
1029.50 0.7256
1029.60 0.7254
1029.70 0.7251
1029.80 0.7249
1029.90 0.7247
1030.00 0.7245
1030.10 0.7243
1030.20 0.7241
1030.30 0.7238
1030.40 0.7236
1030.50 0.7234
1030.60 0.7232
1030.70 0.723
1030.80 0.7228
1030.90 0.7225
1031.00 0.7223
1031.10 0.7221
1031.20 0.7219
1031.30 0.7217
1031.40 0.7215
1031.50 0.7212
1031.60 0.721
1031.70 0.7208
1031.80 0.7206
1031.90 0.7204
1032.00 0.7202
1032.10 0.72
1032.20 0.7197
1032.30 0.7195
1032.40 0.7193
1032.50 0.7191
1032.60 0.7189
1032.70 0.7187
1032.80 0.7185
1032.90 0.7183
1033.00 0.7181
1033.10 0.7179
1033.20 0.7177
1033.30 0.7175
1033.40 0.7172
1033.50 0.717
1033.60 0.7168
1033.70 0.7166
1033.80 0.7164
1033.90 0.7162
1034.00 0.716
1034.10 0.7158
1034.20 0.7156
1034.30 0.7154
1034.40 0.7152
1034.50 0.715
1034.60 0.7148
1034.70 0.7145
1034.80 0.7143
1034.90 0.7141
1035.00 0.7139
1035.10 0.7137
1035.20 0.7135
1035.30 0.7133
1035.40 0.7131
1035.50 0.7129
1035.60 0.7127
1035.70 0.7125
1035.80 0.7123
1035.90 0.7121
1036.00 0.7119
1036.10 0.7117
1036.20 0.7115
1036.30 0.7112
1036.40 0.711
1036.50 0.7108
1036.60 0.7106
1036.70 0.7104
1036.80 0.7102
1036.90 0.71
1037.00 0.7098
1037.10 0.7096
1037.20 0.7094
1037.30 0.7092
1037.40 0.709
1037.50 0.7088
1037.60 0.7086
1037.70 0.7084
1037.80 0.7082
1037.90 0.708
1038.00 0.7078
1038.10 0.7076
1038.20 0.7074
1038.30 0.7072
1038.40 0.707
1038.50 0.7068
1038.60 0.7066
1038.70 0.7064
1038.80 0.7062
1038.90 0.7061
1039.00 0.7059
1039.10 0.7057
1039.20 0.7055
1039.30 0.7053
1039.40 0.7051
1039.50 0.7049
1039.60 0.7047
1039.70 0.7045
1039.80 0.7043
1039.90 0.7041
1040.00 0.7039
1040.10 0.7037
1040.20 0.7035
1040.30 0.7033
1040.40 0.7031
1040.50 0.7029
1040.60 0.7027
1040.70 0.7025
1040.80 0.7023
1040.90 0.7021
1041.00 0.7019
1041.10 0.7017
1041.20 0.7015
1041.30 0.7013
1041.40 0.7012
1041.50 0.701
1041.60 0.7008
1041.70 0.7006
1041.80 0.7004
1041.90 0.7002
1042.00 0.7
1042.10 0.6998
1042.20 0.6996
1042.30 0.6994
1042.40 0.6992
1042.50 0.699
1042.60 0.6989
1042.70 0.6987
1042.80 0.6985
1042.90 0.6983
1043.00 0.6981
1043.10 0.6979
1043.20 0.6977
1043.30 0.6976
1043.40 0.6974
1043.50 0.6972
1043.60 0.697
1043.70 0.6968
1043.80 0.6966
1043.90 0.6964
1044.00 0.6963
1044.10 0.6961
1044.20 0.6959
1044.30 0.6957
1044.40 0.6955
1044.50 0.6953
1044.60 0.6951
1044.70 0.695
1044.80 0.6948
1044.90 0.6946
1045.00 0.6944
1045.10 0.6942
1045.20 0.694
1045.30 0.6938
1045.40 0.6937
1045.50 0.6935
1045.60 0.6933
1045.70 0.6931
1045.80 0.6929
1045.90 0.6927
1046.00 0.6925
1046.10 0.6924
1046.20 0.6922
1046.30 0.692
1046.40 0.6918
1046.50 0.6916
1046.60 0.6914
1046.70 0.6913
1046.80 0.6911
1046.90 0.6909
1047.00 0.6907
1047.10 0.6905
1047.20 0.6904
1047.30 0.6902
1047.40 0.69
1047.50 0.6898
1047.60 0.6896
1047.70 0.6895
1047.80 0.6893
1047.90 0.6891
1048.00 0.6889
1048.10 0.6888
1048.20 0.6886
1048.30 0.6884
1048.40 0.6882
1048.50 0.6881
1048.60 0.6879
1048.70 0.6877
1048.80 0.6875
1048.90 0.6874
1049.00 0.6872
1049.10 0.687
1049.20 0.6868
1049.30 0.6867
1049.40 0.6865
1049.50 0.6863
1049.60 0.6861
1049.70 0.686
1049.80 0.6858
1049.90 0.6856
1050.00 0.6854
1050.10 0.6853
1050.20 0.6851
1050.30 0.6849
1050.40 0.6847
1050.50 0.6846
1050.60 0.6844
1050.70 0.6842
1050.80 0.6841
1050.90 0.6839
1051.00 0.6837
1051.10 0.6835
1051.20 0.6834
1051.30 0.6832
1051.40 0.683
1051.50 0.6828
1051.60 0.6827
1051.70 0.6825
1051.80 0.6823
1051.90 0.6821
1052.00 0.682
1052.10 0.6818
1052.20 0.6816
1052.30 0.6815
1052.40 0.6813
1052.50 0.6811
1052.60 0.681
1052.70 0.6808
1052.80 0.6806
1052.90 0.6805
1053.00 0.6803
1053.10 0.6801
1053.20 0.68
1053.30 0.6798
1053.40 0.6797
1053.50 0.6795
1053.60 0.6793
1053.70 0.6792
1053.80 0.679
1053.90 0.6788
1054.00 0.6787
1054.10 0.6785
1054.20 0.6783
1054.30 0.6782
1054.40 0.678
1054.50 0.6778
1054.60 0.6777
1054.70 0.6775
1054.80 0.6774
1054.90 0.6772
1055.00 0.677
1055.10 0.6769
1055.20 0.6767
1055.30 0.6765
1055.40 0.6764
1055.50 0.6762
1055.60 0.676
1055.70 0.6759
1055.80 0.6757
1055.90 0.6755
1056.00 0.6754
1056.10 0.6752
1056.20 0.6751
1056.30 0.6749
1056.40 0.6747
1056.50 0.6746
1056.60 0.6744
1056.70 0.6742
1056.80 0.6741
1056.90 0.6739
1057.00 0.6738
1057.10 0.6736
1057.20 0.6734
1057.30 0.6733
1057.40 0.6731
1057.50 0.673
1057.60 0.6728
1057.70 0.6727
1057.80 0.6725
1057.90 0.6723
1058.00 0.6722
1058.10 0.672
1058.20 0.6719
1058.30 0.6717
1058.40 0.6716
1058.50 0.6714
1058.60 0.6713
1058.70 0.6711
1058.80 0.671
1058.90 0.6708
1059.00 0.6706
1059.10 0.6705
1059.20 0.6703
1059.30 0.6702
1059.40 0.67
1059.50 0.6699
1059.60 0.6697
1059.70 0.6696
1059.80 0.6694
1059.90 0.6692
1060.00 0.6691
1060.10 0.6689
1060.20 0.6688
1060.30 0.6686
1060.40 0.6685
1060.50 0.6683
1060.60 0.6682
1060.70 0.668
1060.80 0.6679
1060.90 0.6677
1061.00 0.6676
1061.10 0.6674
1061.20 0.6672
1061.30 0.6671
1061.40 0.6669
1061.50 0.6668
1061.60 0.6666
1061.70 0.6665
1061.80 0.6663
1061.90 0.6662
1062.00 0.666
1062.10 0.6659
1062.20 0.6657
1062.30 0.6656
1062.40 0.6654
1062.50 0.6653
1062.60 0.6651
1062.70 0.665
1062.80 0.6648
1062.90 0.6647
1063.00 0.6646
1063.10 0.6644
1063.20 0.6643
1063.30 0.6641
1063.40 0.664
1063.50 0.6638
1063.60 0.6637
1063.70 0.6635
1063.80 0.6634
1063.90 0.6632
1064.00 0.6631
1064.10 0.663
1064.20 0.6628
1064.30 0.6627
1064.40 0.6625
1064.50 0.6624
1064.60 0.6622
1064.70 0.6621
1064.80 0.6619
1064.90 0.6618
1065.00 0.6617
1065.10 0.6615
1065.20 0.6614
1065.30 0.6612
1065.40 0.6611
1065.50 0.6609
1065.60 0.6608
1065.70 0.6606
1065.80 0.6605
1065.90 0.6604
1066.00 0.6602
1066.10 0.6601
1066.20 0.6599
1066.30 0.6598
1066.40 0.6596
1066.50 0.6595
1066.60 0.6593
1066.70 0.6592
1066.80 0.6591
1066.90 0.6589
1067.00 0.6588
1067.10 0.6586
1067.20 0.6585
1067.30 0.6584
1067.40 0.6582
1067.50 0.6581
1067.60 0.658
1067.70 0.6578
1067.80 0.6577
1067.90 0.6576
1068.00 0.6574
1068.10 0.6573
1068.20 0.6572
1068.30 0.657
1068.40 0.6569
1068.50 0.6567
1068.60 0.6566
1068.70 0.6565
1068.80 0.6563
1068.90 0.6562
1069.00 0.6561
1069.10 0.6559
1069.20 0.6558
1069.30 0.6557
1069.40 0.6555
1069.50 0.6554
1069.60 0.6553
1069.70 0.6551
1069.80 0.655
1069.90 0.6549
1070.00 0.6547
1070.10 0.6546
1070.20 0.6545
1070.30 0.6543
1070.40 0.6542
1070.50 0.6541
1070.60 0.6539
1070.70 0.6538
1070.80 0.6537
1070.90 0.6535
1071.00 0.6534
1071.10 0.6533
1071.20 0.6531
1071.30 0.653
1071.40 0.6529
1071.50 0.6527
1071.60 0.6526
1071.70 0.6525
1071.80 0.6523
1071.90 0.6522
1072.00 0.6521
1072.10 0.6519
1072.20 0.6518
1072.30 0.6517
1072.40 0.6515
1072.50 0.6514
1072.60 0.6513
1072.70 0.6511
1072.80 0.651
1072.90 0.6509
1073.00 0.6507
1073.10 0.6506
1073.20 0.6505
1073.30 0.6504
1073.40 0.6502
1073.50 0.6501
1073.60 0.65
1073.70 0.6498
1073.80 0.6497
1073.90 0.6496
1074.00 0.6495
1074.10 0.6493
1074.20 0.6492
1074.30 0.6491
1074.40 0.6489
1074.50 0.6488
1074.60 0.6487
1074.70 0.6486
1074.80 0.6484
1074.90 0.6483
1075.00 0.6482
1075.10 0.648
1075.20 0.6479
1075.30 0.6478
1075.40 0.6477
1075.50 0.6475
1075.60 0.6474
1075.70 0.6473
1075.80 0.6472
1075.90 0.647
1076.00 0.6469
1076.10 0.6468
1076.20 0.6466
1076.30 0.6465
1076.40 0.6464
1076.50 0.6463
1076.60 0.6461
1076.70 0.646
1076.80 0.6459
1076.90 0.6458
1077.00 0.6456
1077.10 0.6455
1077.20 0.6454
1077.30 0.6452
1077.40 0.6451
1077.50 0.645
1077.60 0.6449
1077.70 0.6447
1077.80 0.6446
1077.90 0.6445
1078.00 0.6444
1078.10 0.6442
1078.20 0.6441
1078.30 0.644
1078.40 0.6439
1078.50 0.6438
1078.60 0.6436
1078.70 0.6435
1078.80 0.6434
1078.90 0.6433
1079.00 0.6431
1079.10 0.643
1079.20 0.6429
1079.30 0.6428
1079.40 0.6426
1079.50 0.6425
1079.60 0.6424
1079.70 0.6423
1079.80 0.6422
1079.90 0.642
1080.00 0.6419
1080.10 0.6418
1080.20 0.6417
1080.30 0.6416
1080.40 0.6414
1080.50 0.6413
1080.60 0.6412
1080.70 0.6411
1080.80 0.641
1080.90 0.6409
1081.00 0.6407
1081.10 0.6406
1081.20 0.6405
1081.30 0.6404
1081.40 0.6403
1081.50 0.6401
1081.60 0.64
1081.70 0.6399
1081.80 0.6398
1081.90 0.6396
1082.00 0.6395
1082.10 0.6394
1082.20 0.6393
1082.30 0.6392
1082.40 0.639
1082.50 0.6389
1082.60 0.6388
1082.70 0.6387
1082.80 0.6386
1082.90 0.6385
1083.00 0.6383
1083.10 0.6382
1083.20 0.6381
1083.30 0.638
1083.40 0.6379
1083.50 0.6377
1083.60 0.6376
1083.70 0.6375
1083.80 0.6374
1083.90 0.6373
1084.00 0.6372
1084.10 0.637
1084.20 0.6369
1084.30 0.6368
1084.40 0.6367
1084.50 0.6366
1084.60 0.6365
1084.70 0.6363
1084.80 0.6362
1084.90 0.6361
1085.00 0.636
1085.10 0.6359
1085.20 0.6358
1085.30 0.6356
1085.40 0.6355
1085.50 0.6354
1085.60 0.6353
1085.70 0.6352
1085.80 0.6351
1085.90 0.635
1086.00 0.6348
1086.10 0.6347
1086.20 0.6346
1086.30 0.6345
1086.40 0.6344
1086.50 0.6343
1086.60 0.6341
1086.70 0.634
1086.80 0.6339
1086.90 0.6338
1087.00 0.6337
1087.10 0.6336
1087.20 0.6334
1087.30 0.6333
1087.40 0.6332
1087.50 0.6331
1087.60 0.633
1087.70 0.6329
1087.80 0.6328
1087.90 0.6326
1088.00 0.6325
1088.10 0.6324
1088.20 0.6323
1088.30 0.6322
1088.40 0.6321
1088.50 0.632
1088.60 0.6319
1088.70 0.6317
1088.80 0.6316
1088.90 0.6315
1089.00 0.6314
1089.10 0.6313
1089.20 0.6312
1089.30 0.6311
1089.40 0.631
1089.50 0.6309
1089.60 0.6307
1089.70 0.6306
1089.80 0.6305
1089.90 0.6304
1090.00 0.6303
1090.10 0.6302
1090.20 0.6301
1090.30 0.63
1090.40 0.6299
1090.50 0.6297
1090.60 0.6296
1090.70 0.6295
1090.80 0.6294
1090.90 0.6293
1091.00 0.6292
1091.10 0.6291
1091.20 0.629
1091.30 0.6289
1091.40 0.6287
1091.50 0.6286
1091.60 0.6285
1091.70 0.6284
1091.80 0.6283
1091.90 0.6282
1092.00 0.6281
1092.10 0.628
1092.20 0.6279
1092.30 0.6278
1092.40 0.6276
1092.50 0.6275
1092.60 0.6274
1092.70 0.6273
1092.80 0.6272
1092.90 0.6272
1093.00 0.6271
1093.10 0.627
1093.20 0.6268
1093.30 0.6267
1093.40 0.6266
1093.50 0.6265
1093.60 0.6264
1093.70 0.6263
1093.80 0.6262
1093.90 0.6261
1094.00 0.626
1094.10 0.6259
1094.20 0.6258
1094.30 0.6257
1094.40 0.6256
1094.50 0.6255
1094.60 0.6253
1094.70 0.6252
1094.80 0.6251
1094.90 0.625
1095.00 0.6249
1095.10 0.6248
1095.20 0.6247
1095.30 0.6246
1095.40 0.6245
1095.50 0.6244
1095.60 0.6243
1095.70 0.6242
1095.80 0.624
1095.90 0.6239
1096.00 0.6238
1096.10 0.6237
1096.20 0.6236
1096.30 0.6235
1096.40 0.6234
1096.50 0.6233
1096.60 0.6232
1096.70 0.6231
1096.80 0.623
1096.90 0.6229
1097.00 0.6228
1097.10 0.6227
1097.20 0.6226
1097.30 0.6225
1097.40 0.6223
1097.50 0.6222
1097.60 0.6221
1097.70 0.622
1097.80 0.6219
1097.90 0.6218
1098.00 0.6217
1098.10 0.6216
1098.20 0.6215
1098.30 0.6214
1098.40 0.6213
1098.50 0.6212
1098.60 0.6211
1098.70 0.621
1098.80 0.6209
1098.90 0.6207
1099.00 0.6206
1099.10 0.6205
1099.20 0.6204
1099.30 0.6203
1099.40 0.6202
1099.50 0.6201
1099.60 0.62
1099.70 0.6199
1099.80 0.6198
1099.90 0.6197
1100.00 0.6196
1100.10 0.6195
1100.20 0.6194
1100.30 0.6193
1100.40 0.6192
1100.50 0.6191
1100.60 0.619
1100.70 0.6189
1100.80 0.6188
1100.90 0.6187
1101.00 0.6186
1101.10 0.6185
1101.20 0.6183
1101.30 0.6182
1101.40 0.6181
1101.50 0.618
1101.60 0.6179
1101.70 0.6178
1101.80 0.6177
1101.90 0.6176
1102.00 0.6175
1102.10 0.6174
1102.20 0.6173
1102.30 0.6172
1102.40 0.6171
1102.50 0.617
1102.60 0.6169
1102.70 0.6168
1102.80 0.6167
1102.90 0.6166
1103.00 0.6165
1103.10 0.6164
1103.20 0.6163
1103.30 0.6162
1103.40 0.6161
1103.50 0.616
1103.60 0.6159
1103.70 0.6158
1103.80 0.6157
1103.90 0.6156
1104.00 0.6155
1104.10 0.6154
1104.20 0.6153
1104.30 0.6152
1104.40 0.615
1104.50 0.6149
1104.60 0.6148
1104.70 0.6147
1104.80 0.6146
1104.90 0.6145
1105.00 0.6144
1105.10 0.6143
1105.20 0.6142
1105.30 0.6141
1105.40 0.614
1105.50 0.6139
1105.60 0.6138
1105.70 0.6137
1105.80 0.6136
1105.90 0.6135
1106.00 0.6134
1106.10 0.6133
1106.20 0.6132
1106.30 0.6131
1106.40 0.613
1106.50 0.6129
1106.60 0.6128
1106.70 0.6127
1106.80 0.6126
1106.90 0.6125
1107.00 0.6124
1107.10 0.6123
1107.20 0.6122
1107.30 0.6121
1107.40 0.612
1107.50 0.6119
1107.60 0.6118
1107.70 0.6117
1107.80 0.6116
1107.90 0.6115
1108.00 0.6114
1108.10 0.6113
1108.20 0.6112
1108.30 0.6111
1108.40 0.611
1108.50 0.6109
1108.60 0.6108
1108.70 0.6107
1108.80 0.6106
1108.90 0.6105
1109.00 0.6104
1109.10 0.6103
1109.20 0.6102
1109.30 0.6101
1109.40 0.61
1109.50 0.6099
1109.60 0.6098
1109.70 0.6097
1109.80 0.6096
1109.90 0.6095
1110.00 0.6094
1110.10 0.6093
1110.20 0.6092
1110.30 0.6091
1110.40 0.609
1110.50 0.6089
1110.60 0.6088
1110.70 0.6087
1110.80 0.6086
1110.90 0.6085
1111.00 0.6084
1111.10 0.6083
1111.20 0.6082
1111.30 0.6081
1111.40 0.608
1111.50 0.6079
1111.60 0.6078
1111.70 0.6077
1111.80 0.6076
1111.90 0.6075
1112.00 0.6074
1112.10 0.6073
1112.20 0.6072
1112.30 0.6071
1112.40 0.607
1112.50 0.6069
1112.60 0.6068
1112.70 0.6067
1112.80 0.6066
1112.90 0.6065
1113.00 0.6064
1113.10 0.6063
1113.20 0.6062
1113.30 0.6061
1113.40 0.606
1113.50 0.6059
1113.60 0.6058
1113.70 0.6057
1113.80 0.6056
1113.90 0.6055
1114.00 0.6054
1114.10 0.6053
1114.20 0.6052
1114.30 0.6051
1114.40 0.605
1114.50 0.6049
1114.60 0.6048
1114.70 0.6047
1114.80 0.6046
1114.90 0.6045
1115.00 0.6044
1115.10 0.6043
1115.20 0.6042
1115.30 0.6041
1115.40 0.604
1115.50 0.6039
1115.60 0.6038
1115.70 0.6037
1115.80 0.6036
1115.90 0.6035
1116.00 0.6034
1116.10 0.6033
1116.20 0.6032
1116.30 0.6031
1116.40 0.603
1116.50 0.6029
1116.60 0.6028
1116.70 0.6027
1116.80 0.6026
1116.90 0.6025
1117.00 0.6024
1117.10 0.6023
1117.20 0.6023
1117.30 0.6022
1117.40 0.6021
1117.50 0.602
1117.60 0.6019
1117.70 0.6018
1117.80 0.6017
1117.90 0.6016
1118.00 0.6015
1118.10 0.6014
1118.20 0.6013
1118.30 0.6012
1118.40 0.6011
1118.50 0.601
1118.60 0.6009
1118.70 0.6008
1118.80 0.6007
1118.90 0.6006
1119.00 0.6005
1119.10 0.6004
1119.20 0.6003
1119.30 0.6002
1119.40 0.6001
1119.50 0.6
1119.60 0.5999
1119.70 0.5999
1119.80 0.5998
1119.90 0.5997
1120.00 0.5996
1120.10 0.5995
1120.20 0.5994
1120.30 0.5993
1120.40 0.5992
1120.50 0.5991
1120.60 0.599
1120.70 0.5989
1120.80 0.5988
1120.90 0.5987
1121.00 0.5986
1121.10 0.5985
1121.20 0.5984
1121.30 0.5983
1121.40 0.5982
1121.50 0.5981
1121.60 0.598
1121.70 0.5979
1121.80 0.5979
1121.90 0.5978
1122.00 0.5977
1122.10 0.5976
1122.20 0.5975
1122.30 0.5974
1122.40 0.5973
1122.50 0.5972
1122.60 0.5971
1122.70 0.597
1122.80 0.5969
1122.90 0.5968
1123.00 0.5967
1123.10 0.5966
1123.20 0.5965
1123.30 0.5964
1123.40 0.5963
1123.50 0.5962
1123.60 0.5961
1123.70 0.596
1123.80 0.5959
1123.90 0.5958
1124.00 0.5957
1124.10 0.5956
1124.20 0.5955
1124.30 0.5954
1124.40 0.5953
1124.50 0.5952
1124.60 0.5951
1124.70 0.595
1124.80 0.5949
1124.90 0.5948
1125.00 0.5948
1125.10 0.5947
1125.20 0.5946
1125.30 0.5945
1125.40 0.5944
1125.50 0.5943
1125.60 0.5942
1125.70 0.5941
1125.80 0.594
1125.90 0.5939
1126.00 0.5938
1126.10 0.5937
1126.20 0.5936
1126.30 0.5935
1126.40 0.5934
1126.50 0.5933
1126.60 0.5932
1126.70 0.5931
1126.80 0.593
1126.90 0.5929
1127.00 0.5928
1127.10 0.5927
1127.20 0.5926
1127.30 0.5925
1127.40 0.5924
1127.50 0.5924
1127.60 0.5923
1127.70 0.5922
1127.80 0.5921
1127.90 0.592
1128.00 0.5919
1128.10 0.5918
1128.20 0.5917
1128.30 0.5916
1128.40 0.5915
1128.50 0.5914
1128.60 0.5913
1128.70 0.5912
1128.80 0.5911
1128.90 0.591
1129.00 0.5909
1129.10 0.5908
1129.20 0.5907
1129.30 0.5906
1129.40 0.5906
1129.50 0.5905
1129.60 0.5904
1129.70 0.5903
1129.80 0.5902
1129.90 0.5901
1130.00 0.59
1130.10 0.5899
1130.20 0.5898
1130.30 0.5897
1130.40 0.5896
1130.50 0.5895
1130.60 0.5894
1130.70 0.5893
1130.80 0.5892
1130.90 0.5891
1131.00 0.589
1131.10 0.589
1131.20 0.5889
1131.30 0.5888
1131.40 0.5887
1131.50 0.5886
1131.60 0.5885
1131.70 0.5884
1131.80 0.5883
1131.90 0.5882
1132.00 0.5881
1132.10 0.588
1132.20 0.5879
1132.30 0.5878
1132.40 0.5877
1132.50 0.5876
1132.60 0.5875
1132.70 0.5874
1132.80 0.5873
1132.90 0.5872
1133.00 0.5871
1133.10 0.587
1133.20 0.5869
1133.30 0.5868
1133.40 0.5867
1133.50 0.5866
1133.60 0.5865
1133.70 0.5865
1133.80 0.5864
1133.90 0.5863
1134.00 0.5862
1134.10 0.5861
1134.20 0.586
1134.30 0.5859
1134.40 0.5858
1134.50 0.5857
1134.60 0.5856
1134.70 0.5855
1134.80 0.5854
1134.90 0.5853
1135.00 0.5852
1135.10 0.5851
1135.20 0.585
1135.30 0.5849
1135.40 0.5848
1135.50 0.5847
1135.60 0.5846
1135.70 0.5845
1135.80 0.5844
1135.90 0.5843
1136.00 0.5842
1136.10 0.5841
1136.20 0.584
1136.30 0.5839
1136.40 0.5838
1136.50 0.5837
1136.60 0.5836
1136.70 0.5835
1136.80 0.5834
1136.90 0.5834
1137.00 0.5833
1137.10 0.5832
1137.20 0.5831
1137.30 0.583
1137.40 0.5829
1137.50 0.5828
1137.60 0.5827
1137.70 0.5826
1137.80 0.5825
1137.90 0.5824
1138.00 0.5823
1138.10 0.5822
1138.20 0.5821
1138.30 0.582
1138.40 0.5819
1138.50 0.5818
1138.60 0.5817
1138.70 0.5816
1138.80 0.5815
1138.90 0.5814
1139.00 0.5813
1139.10 0.5812
1139.20 0.5811
1139.30 0.581
1139.40 0.5809
1139.50 0.5808
1139.60 0.5807
1139.70 0.5806
1139.80 0.5805
1139.90 0.5804
1140.00 0.5803
1140.10 0.5802
1140.20 0.5801
1140.30 0.58
1140.40 0.5799
1140.50 0.5798
1140.60 0.5797
1140.70 0.5796
1140.80 0.5795
1140.90 0.5794
1141.00 0.5793
1141.10 0.5792
1141.20 0.5791
1141.30 0.579
1141.40 0.5789
1141.50 0.5788
1141.60 0.5787
1141.70 0.5786
1141.80 0.5785
1141.90 0.5784
1142.00 0.5784
1142.10 0.5783
1142.20 0.5782
1142.30 0.5781
1142.40 0.578
1142.50 0.5779
1142.60 0.5778
1142.70 0.5777
1142.80 0.5776
1142.90 0.5775
1143.00 0.5774
1143.10 0.5773
1143.20 0.5772
1143.30 0.5771
1143.40 0.577
1143.50 0.5769
1143.60 0.5768
1143.70 0.5767
1143.80 0.5766
1143.90 0.5765
1144.00 0.5764
1144.10 0.5763
1144.20 0.5762
1144.30 0.5761
1144.40 0.576
1144.50 0.5759
1144.60 0.5758
1144.70 0.5757
1144.80 0.5756
1144.90 0.5755
1145.00 0.5754
1145.10 0.5753
1145.20 0.5752
1145.30 0.5751
1145.40 0.575
1145.50 0.5749
1145.60 0.5748
1145.70 0.5747
1145.80 0.5746
1145.90 0.5745
1146.00 0.5744
1146.10 0.5743
1146.20 0.5742
1146.30 0.5741
1146.40 0.574
1146.50 0.5739
1146.60 0.5738
1146.70 0.5737
1146.80 0.5737
1146.90 0.5736
1147.00 0.5735
1147.10 0.5734
1147.20 0.5733
1147.30 0.5732
1147.40 0.573
1147.50 0.5729
1147.60 0.5728
1147.70 0.5727
1147.80 0.5726
1147.90 0.5725
1148.00 0.5724
1148.10 0.5723
1148.20 0.5722
1148.30 0.5721
1148.40 0.572
1148.50 0.5719
1148.60 0.5718
1148.70 0.5717
1148.80 0.5716
1148.90 0.5715
1149.00 0.5714
1149.10 0.5713
1149.20 0.5712
1149.30 0.5711
1149.40 0.571
1149.50 0.5709
1149.60 0.5708
1149.70 0.5707
1149.80 0.5706
1149.90 0.5705
1150.00 0.5704
1150.10 0.5703
1150.20 0.5702
1150.30 0.5701
1150.40 0.57
1150.50 0.5699
1150.60 0.5698
1150.70 0.5697
1150.80 0.5696
1150.90 0.5695
1151.00 0.5694
1151.10 0.5693
1151.20 0.5692
1151.30 0.5691
1151.40 0.569
1151.50 0.5689
1151.60 0.5688
1151.70 0.5687
1151.80 0.5686
1151.90 0.5685
1152.00 0.5684
1152.10 0.5683
1152.20 0.5682
1152.30 0.5681
1152.40 0.568
1152.50 0.5679
1152.60 0.5678
1152.70 0.5677
1152.80 0.5676
1152.90 0.5675
1153.00 0.5674
1153.10 0.5673
1153.20 0.5672
1153.30 0.5671
1153.40 0.5669
1153.50 0.5668
1153.60 0.5667
1153.70 0.5666
1153.80 0.5665
1153.90 0.5664
1154.00 0.5663
1154.10 0.5662
1154.20 0.5661
1154.30 0.566
1154.40 0.5659
1154.50 0.5658
1154.60 0.5657
1154.70 0.5656
1154.80 0.5655
1154.90 0.5654
1155.00 0.5653
1155.10 0.5652
1155.20 0.5651
1155.30 0.565
1155.40 0.5649
1155.50 0.5648
1155.60 0.5647
1155.70 0.5646
1155.80 0.5645
1155.90 0.5644
1156.00 0.5643
1156.10 0.5642
1156.20 0.5641
1156.30 0.564
1156.40 0.5639
1156.50 0.5638
1156.60 0.5637
1156.70 0.5636
1156.80 0.5635
1156.90 0.5634
1157.00 0.5633
1157.10 0.5632
1157.20 0.5631
1157.30 0.563
1157.40 0.5629
1157.50 0.5628
1157.60 0.5627
1157.70 0.5626
1157.80 0.5624
1157.90 0.5623
1158.00 0.5622
1158.10 0.5621
1158.20 0.562
1158.30 0.5619
1158.40 0.5618
1158.50 0.5617
1158.60 0.5616
1158.70 0.5615
1158.80 0.5614
1158.90 0.5613
1159.00 0.5612
1159.10 0.5611
1159.20 0.561
1159.30 0.5609
1159.40 0.5608
1159.50 0.5607
1159.60 0.5606
1159.70 0.5605
1159.80 0.5603
1159.90 0.5602
1160.00 0.5601
1160.10 0.56
1160.20 0.5599
1160.30 0.5598
1160.40 0.5597
1160.50 0.5596
1160.60 0.5595
1160.70 0.5594
1160.80 0.5593
1160.90 0.5592
1161.00 0.5591
1161.10 0.559
1161.20 0.5589
1161.30 0.5588
1161.40 0.5587
1161.50 0.5586
1161.60 0.5585
1161.70 0.5584
1161.80 0.5583
1161.90 0.5582
1162.00 0.5581
1162.10 0.5579
1162.20 0.5578
1162.30 0.5577
1162.40 0.5576
1162.50 0.5575
1162.60 0.5574
1162.70 0.5573
1162.80 0.5572
1162.90 0.5571
1163.00 0.557
1163.10 0.5569
1163.20 0.5568
1163.30 0.5567
1163.40 0.5565
1163.50 0.5564
1163.60 0.5563
1163.70 0.5562
1163.80 0.5561
1163.90 0.556
1164.00 0.5559
1164.10 0.5558
1164.20 0.5557
1164.30 0.5556
1164.40 0.5555
1164.50 0.5554
1164.60 0.5553
1164.70 0.5552
1164.80 0.555
1164.90 0.5549
1165.00 0.5548
1165.10 0.5547
1165.20 0.5546
1165.30 0.5545
1165.40 0.5544
1165.50 0.5543
1165.60 0.5542
1165.70 0.5541
1165.80 0.554
1165.90 0.5539
1166.00 0.5538
1166.10 0.5537
1166.20 0.5535
1166.30 0.5534
1166.40 0.5533
1166.50 0.5532
1166.60 0.5531
1166.70 0.553
1166.80 0.5529
1166.90 0.5528
1167.00 0.5527
1167.10 0.5526
1167.20 0.5525
1167.30 0.5524
1167.40 0.5523
1167.50 0.5521
1167.60 0.552
1167.70 0.5519
1167.80 0.5518
1167.90 0.5517
1168.00 0.5516
1168.10 0.5515
1168.20 0.5514
1168.30 0.5513
1168.40 0.5512
1168.50 0.551
1168.60 0.5509
1168.70 0.5508
1168.80 0.5507
1168.90 0.5506
1169.00 0.5505
1169.10 0.5504
1169.20 0.5503
1169.30 0.5502
1169.40 0.55
1169.50 0.5499
1169.60 0.5498
1169.70 0.5497
1169.80 0.5496
1169.90 0.5495
1170.00 0.5494
1170.10 0.5493
1170.20 0.5492
1170.30 0.5491
1170.40 0.549
1170.50 0.5488
1170.60 0.5487
1170.70 0.5486
1170.80 0.5485
1170.90 0.5484
1171.00 0.5483
1171.10 0.5482
1171.20 0.5481
1171.30 0.548
1171.40 0.5479
1171.50 0.5477
1171.60 0.5476
1171.70 0.5475
1171.80 0.5474
1171.90 0.5473
1172.00 0.5472
1172.10 0.5471
1172.20 0.547
1172.30 0.5469
1172.40 0.5468
1172.50 0.5466
1172.60 0.5465
1172.70 0.5464
1172.80 0.5463
1172.90 0.5462
1173.00 0.5461
1173.10 0.546
1173.20 0.5459
1173.30 0.5457
1173.40 0.5456
1173.50 0.5455
1173.60 0.5454
1173.70 0.5453
1173.80 0.5452
1173.90 0.5451
1174.00 0.545
1174.10 0.5448
1174.20 0.5447
1174.30 0.5446
1174.40 0.5445
1174.50 0.5444
1174.60 0.5443
1174.70 0.5442
1174.80 0.5441
1174.90 0.544
1175.00 0.5438
1175.10 0.5437
1175.20 0.5436
1175.30 0.5435
1175.40 0.5434
1175.50 0.5433
1175.60 0.5432
1175.70 0.5431
1175.80 0.543
1175.90 0.5428
1176.00 0.5427
1176.10 0.5426
1176.20 0.5425
1176.30 0.5424
1176.40 0.5423
1176.50 0.5422
1176.60 0.5421
1176.70 0.542
1176.80 0.5418
1176.90 0.5417
1177.00 0.5416
1177.10 0.5415
1177.20 0.5414
1177.30 0.5413
1177.40 0.5412
1177.50 0.5411
1177.60 0.5409
1177.70 0.5408
1177.80 0.5407
1177.90 0.5406
1178.00 0.5405
1178.10 0.5404
1178.20 0.5403
1178.30 0.5401
1178.40 0.54
1178.50 0.5399
1178.60 0.5398
1178.70 0.5397
1178.80 0.5396
1178.90 0.5395
1179.00 0.5393
1179.10 0.5392
1179.20 0.5391
1179.30 0.539
1179.40 0.5389
1179.50 0.5388
1179.60 0.5387
1179.70 0.5385
1179.80 0.5384
1179.90 0.5383
1180.00 0.5382
1180.10 0.5381
1180.20 0.538
1180.30 0.5379
1180.40 0.5377
1180.50 0.5376
1180.60 0.5375
1180.70 0.5374
1180.80 0.5373
1180.90 0.5372
1181.00 0.5371
1181.10 0.537
1181.20 0.5368
1181.30 0.5367
1181.40 0.5366
1181.50 0.5365
1181.60 0.5364
1181.70 0.5363
1181.80 0.5362
1181.90 0.5361
1182.00 0.5359
1182.10 0.5358
1182.20 0.5357
1182.30 0.5356
1182.40 0.5355
1182.50 0.5354
1182.60 0.5352
1182.70 0.5351
1182.80 0.535
1182.90 0.5349
1183.00 0.5348
1183.10 0.5347
1183.20 0.5345
1183.30 0.5344
1183.40 0.5343
1183.50 0.5342
1183.60 0.5341
1183.70 0.534
1183.80 0.5338
1183.90 0.5337
1184.00 0.5336
1184.10 0.5335
1184.20 0.5334
1184.30 0.5333
1184.40 0.5331
1184.50 0.533
1184.60 0.5329
1184.70 0.5328
1184.80 0.5327
1184.90 0.5326
1185.00 0.5325
1185.10 0.5323
1185.20 0.5322
1185.30 0.5321
1185.40 0.532
1185.50 0.5319
1185.60 0.5318
1185.70 0.5316
1185.80 0.5315
1185.90 0.5314
1186.00 0.5313
1186.10 0.5312
1186.20 0.5311
1186.30 0.531
1186.40 0.5308
1186.50 0.5307
1186.60 0.5306
1186.70 0.5305
1186.80 0.5304
1186.90 0.5303
1187.00 0.5301
1187.10 0.53
1187.20 0.5299
1187.30 0.5298
1187.40 0.5297
1187.50 0.5296
1187.60 0.5295
1187.70 0.5293
1187.80 0.5292
1187.90 0.5291
1188.00 0.529
1188.10 0.5289
1188.20 0.5288
1188.30 0.5286
1188.40 0.5285
1188.50 0.5284
1188.60 0.5283
1188.70 0.5282
1188.80 0.5281
1188.90 0.5279
1189.00 0.5278
1189.10 0.5277
1189.20 0.5276
1189.30 0.5275
1189.40 0.5274
1189.50 0.5272
1189.60 0.5271
1189.70 0.527
1189.80 0.5269
1189.90 0.5268
1190.00 0.5267
1190.10 0.5266
1190.20 0.5264
1190.30 0.5263
1190.40 0.5262
1190.50 0.5261
1190.60 0.526
1190.70 0.5259
1190.80 0.5257
1190.90 0.5256
1191.00 0.5255
1191.10 0.5254
1191.20 0.5253
1191.30 0.5252
1191.40 0.5251
1191.50 0.5249
1191.60 0.5248
1191.70 0.5247
1191.80 0.5246
1191.90 0.5245
1192.00 0.5244
1192.10 0.5242
1192.20 0.5241
1192.30 0.524
1192.40 0.5239
1192.50 0.5238
1192.60 0.5237
1192.70 0.5235
1192.80 0.5234
1192.90 0.5233
1193.00 0.5232
1193.10 0.5231
1193.20 0.523
1193.30 0.5228
1193.40 0.5227
1193.50 0.5226
1193.60 0.5225
1193.70 0.5224
1193.80 0.5223
1193.90 0.5221
1194.00 0.522
1194.10 0.5219
1194.20 0.5218
1194.30 0.5217
1194.40 0.5216
1194.50 0.5214
1194.60 0.5213
1194.70 0.5212
1194.80 0.5211
1194.90 0.521
1195.00 0.5209
1195.10 0.5207
1195.20 0.5206
1195.30 0.5205
1195.40 0.5204
1195.50 0.5203
1195.60 0.5202
1195.70 0.52
1195.80 0.5199
1195.90 0.5198
1196.00 0.5197
1196.10 0.5196
1196.20 0.5195
1196.30 0.5193
1196.40 0.5192
1196.50 0.5191
1196.60 0.519
1196.70 0.5189
1196.80 0.5188
1196.90 0.5186
1197.00 0.5185
1197.10 0.5184
1197.20 0.5183
1197.30 0.5182
1197.40 0.5181
1197.50 0.5179
1197.60 0.5178
1197.70 0.5177
1197.80 0.5176
1197.90 0.5175
1198.00 0.5173
1198.10 0.5172
1198.20 0.5171
1198.30 0.517
1198.40 0.5169
1198.50 0.5167
1198.60 0.5166
1198.70 0.5165
1198.80 0.5164
1198.90 0.5163
1199.00 0.5162
1199.10 0.516
1199.20 0.5159
1199.30 0.5158
1199.40 0.5157
1199.50 0.5156
1199.60 0.5154
1199.70 0.5153
1199.80 0.5152
1199.90 0.5151
1200.00 0
