# Version 2.1 - nm, norm@500 to 1, cut digits, bergeron_75000_65.dat_75000
# Wavelength(nm)  Flambda(ergs/cm^s/s/nm)
300.00 6.598
300.10 6.59
300.20 6.582
300.30 6.574
300.40 6.566
300.50 6.558
300.60 6.55
300.70 6.542
300.80 6.533
300.90 6.525
301.00 6.517
301.10 6.509
301.20 6.501
301.30 6.493
301.40 6.485
301.50 6.477
301.60 6.469
301.70 6.461
301.80 6.454
301.90 6.446
302.00 6.438
302.10 6.43
302.20 6.422
302.30 6.414
302.40 6.406
302.50 6.398
302.60 6.39
302.70 6.383
302.80 6.375
302.90 6.367
303.00 6.359
303.10 6.351
303.20 6.344
303.30 6.336
303.40 6.328
303.50 6.32
303.60 6.313
303.70 6.305
303.80 6.297
303.90 6.29
304.00 6.282
304.10 6.274
304.20 6.267
304.30 6.259
304.40 6.251
304.50 6.244
304.60 6.236
304.70 6.228
304.80 6.221
304.90 6.213
305.00 6.206
305.10 6.198
305.20 6.191
305.30 6.183
305.40 6.176
305.50 6.168
305.60 6.161
305.70 6.153
305.80 6.146
305.90 6.138
306.00 6.131
306.10 6.123
306.20 6.116
306.30 6.108
306.40 6.101
306.50 6.094
306.60 6.086
306.70 6.079
306.80 6.072
306.90 6.064
307.00 6.057
307.10 6.05
307.20 6.042
307.30 6.035
307.40 6.028
307.50 6.02
307.60 6.013
307.70 6.006
307.80 5.999
307.90 5.991
308.00 5.984
308.10 5.977
308.20 5.97
308.30 5.963
308.40 5.955
308.50 5.948
308.60 5.941
308.70 5.934
308.80 5.927
308.90 5.92
309.00 5.913
309.10 5.905
309.20 5.898
309.30 5.891
309.40 5.884
309.50 5.877
309.60 5.87
309.70 5.863
309.80 5.856
309.90 5.849
310.00 5.842
310.10 5.835
310.20 5.828
310.30 5.821
310.40 5.814
310.50 5.807
310.60 5.8
310.70 5.793
310.80 5.786
310.90 5.779
311.00 5.772
311.10 5.766
311.20 5.759
311.30 5.752
311.40 5.745
311.50 5.738
311.60 5.731
311.70 5.724
311.80 5.718
311.90 5.711
312.00 5.704
312.10 5.697
312.20 5.69
312.30 5.684
312.40 5.677
312.50 5.67
312.60 5.663
312.70 5.657
312.80 5.65
312.90 5.643
313.00 5.636
313.10 5.63
313.20 5.623
313.30 5.616
313.40 5.61
313.50 5.603
313.60 5.596
313.70 5.59
313.80 5.583
313.90 5.577
314.00 5.57
314.10 5.563
314.20 5.557
314.30 5.55
314.40 5.544
314.50 5.537
314.60 5.531
314.70 5.524
314.80 5.517
314.90 5.511
315.00 5.504
315.10 5.498
315.20 5.491
315.30 5.485
315.40 5.479
315.50 5.472
315.60 5.466
315.70 5.459
315.80 5.453
315.90 5.446
316.00 5.44
316.10 5.434
316.20 5.427
316.30 5.421
316.40 5.414
316.50 5.408
316.60 5.402
316.70 5.395
316.80 5.389
316.90 5.383
317.00 5.376
317.10 5.37
317.20 5.364
317.30 5.357
317.40 5.351
317.50 5.345
317.60 5.339
317.70 5.332
317.80 5.326
317.90 5.32
318.00 5.314
318.10 5.307
318.20 5.301
318.30 5.295
318.40 5.289
318.50 5.283
318.60 5.276
318.70 5.27
318.80 5.264
318.90 5.258
319.00 5.252
319.10 5.246
319.20 5.24
319.30 5.234
319.40 5.227
319.50 5.221
319.60 5.215
319.70 5.209
319.80 5.203
319.90 5.197
320.00 5.191
320.10 5.185
320.20 5.179
320.30 5.173
320.40 5.167
320.50 5.161
320.60 5.155
320.70 5.149
320.80 5.143
320.90 5.137
321.00 5.131
321.10 5.125
321.20 5.119
321.30 5.113
321.40 5.107
321.50 5.101
321.60 5.096
321.70 5.09
321.80 5.084
321.90 5.078
322.00 5.072
322.10 5.066
322.20 5.06
322.30 5.054
322.40 5.049
322.50 5.043
322.60 5.037
322.70 5.031
322.80 5.025
322.90 5.019
323.00 5.014
323.10 5.008
323.20 5.002
323.30 4.996
323.40 4.991
323.50 4.985
323.60 4.979
323.70 4.973
323.80 4.968
323.90 4.962
324.00 4.956
324.10 4.951
324.20 4.945
324.30 4.939
324.40 4.934
324.50 4.928
324.60 4.922
324.70 4.917
324.80 4.911
324.90 4.905
325.00 4.9
325.10 4.894
325.20 4.888
325.30 4.883
325.40 4.877
325.50 4.872
325.60 4.866
325.70 4.861
325.80 4.855
325.90 4.849
326.00 4.844
326.10 4.838
326.20 4.833
326.30 4.827
326.40 4.822
326.50 4.816
326.60 4.811
326.70 4.805
326.80 4.8
326.90 4.794
327.00 4.789
327.10 4.783
327.20 4.778
327.30 4.773
327.40 4.767
327.50 4.762
327.60 4.756
327.70 4.751
327.80 4.745
327.90 4.74
328.00 4.735
328.10 4.729
328.20 4.724
328.30 4.719
328.40 4.713
328.50 4.708
328.60 4.702
328.70 4.697
328.80 4.692
328.90 4.687
329.00 4.681
329.10 4.676
329.20 4.671
329.30 4.665
329.40 4.66
329.50 4.655
329.60 4.65
329.70 4.644
329.80 4.639
329.90 4.634
330.00 4.629
330.10 4.623
330.20 4.618
330.30 4.613
330.40 4.608
330.50 4.602
330.60 4.597
330.70 4.592
330.80 4.587
330.90 4.582
331.00 4.577
331.10 4.571
331.20 4.566
331.30 4.561
331.40 4.556
331.50 4.551
331.60 4.546
331.70 4.541
331.80 4.536
331.90 4.53
332.00 4.525
332.10 4.52
332.20 4.515
332.30 4.51
332.40 4.505
332.50 4.5
332.60 4.495
332.70 4.49
332.80 4.485
332.90 4.48
333.00 4.475
333.10 4.47
333.20 4.465
333.30 4.46
333.40 4.455
333.50 4.45
333.60 4.445
333.70 4.44
333.80 4.435
333.90 4.43
334.00 4.425
334.10 4.42
334.20 4.415
334.30 4.41
334.40 4.405
334.50 4.4
334.60 4.396
334.70 4.391
334.80 4.386
334.90 4.381
335.00 4.376
335.10 4.371
335.20 4.366
335.30 4.361
335.40 4.356
335.50 4.352
335.60 4.347
335.70 4.342
335.80 4.337
335.90 4.332
336.00 4.327
336.10 4.323
336.20 4.318
336.30 4.313
336.40 4.308
336.50 4.304
336.60 4.299
336.70 4.294
336.80 4.289
336.90 4.284
337.00 4.28
337.10 4.275
337.20 4.27
337.30 4.266
337.40 4.261
337.50 4.256
337.60 4.251
337.70 4.247
337.80 4.242
337.90 4.237
338.00 4.233
338.10 4.228
338.20 4.223
338.30 4.219
338.40 4.214
338.50 4.209
338.60 4.205
338.70 4.2
338.80 4.195
338.90 4.191
339.00 4.186
339.10 4.182
339.20 4.177
339.30 4.172
339.40 4.168
339.50 4.163
339.60 4.159
339.70 4.154
339.80 4.149
339.90 4.145
340.00 4.14
340.10 4.136
340.20 4.131
340.30 4.127
340.40 4.122
340.50 4.118
340.60 4.113
340.70 4.109
340.80 4.104
340.90 4.1
341.00 4.095
341.10 4.091
341.20 4.086
341.30 4.082
341.40 4.077
341.50 4.073
341.60 4.068
341.70 4.064
341.80 4.059
341.90 4.055
342.00 4.05
342.10 4.046
342.20 4.042
342.30 4.037
342.40 4.033
342.50 4.028
342.60 4.024
342.70 4.02
342.80 4.015
342.90 4.011
343.00 4.007
343.10 4.002
343.20 3.998
343.30 3.994
343.40 3.989
343.50 3.985
343.60 3.98
343.70 3.976
343.80 3.972
343.90 3.967
344.00 3.963
344.10 3.959
344.20 3.955
344.30 3.95
344.40 3.946
344.50 3.942
344.60 3.937
344.70 3.933
344.80 3.929
344.90 3.925
345.00 3.92
345.10 3.916
345.20 3.912
345.30 3.908
345.40 3.903
345.50 3.899
345.60 3.895
345.70 3.891
345.80 3.887
345.90 3.882
346.00 3.878
346.10 3.874
346.20 3.87
346.30 3.866
346.40 3.861
346.50 3.857
346.60 3.853
346.70 3.849
346.80 3.845
346.90 3.841
347.00 3.837
347.10 3.832
347.20 3.828
347.30 3.824
347.40 3.82
347.50 3.816
347.60 3.812
347.70 3.808
347.80 3.804
347.90 3.799
348.00 3.795
348.10 3.791
348.20 3.787
348.30 3.783
348.40 3.779
348.50 3.775
348.60 3.771
348.70 3.767
348.80 3.763
348.90 3.759
349.00 3.755
349.10 3.751
349.20 3.747
349.30 3.743
349.40 3.739
349.50 3.735
349.60 3.731
349.70 3.727
349.80 3.723
349.90 3.719
350.00 3.715
350.10 3.711
350.20 3.707
350.30 3.703
350.40 3.699
350.50 3.695
350.60 3.691
350.70 3.687
350.80 3.683
350.90 3.679
351.00 3.675
351.10 3.672
351.20 3.668
351.30 3.664
351.40 3.66
351.50 3.656
351.60 3.652
351.70 3.648
351.80 3.644
351.90 3.64
352.00 3.636
352.10 3.633
352.20 3.629
352.30 3.625
352.40 3.621
352.50 3.617
352.60 3.613
352.70 3.61
352.80 3.606
352.90 3.602
353.00 3.598
353.10 3.594
353.20 3.59
353.30 3.587
353.40 3.583
353.50 3.579
353.60 3.575
353.70 3.571
353.80 3.568
353.90 3.564
354.00 3.56
354.10 3.556
354.20 3.553
354.30 3.549
354.40 3.545
354.50 3.541
354.60 3.538
354.70 3.534
354.80 3.53
354.90 3.526
355.00 3.523
355.10 3.519
355.20 3.515
355.30 3.512
355.40 3.508
355.50 3.504
355.60 3.5
355.70 3.497
355.80 3.493
355.90 3.489
356.00 3.486
356.10 3.482
356.20 3.478
356.30 3.475
356.40 3.471
356.50 3.468
356.60 3.464
356.70 3.46
356.80 3.457
356.90 3.453
357.00 3.449
357.10 3.446
357.20 3.442
357.30 3.439
357.40 3.435
357.50 3.431
357.60 3.428
357.70 3.424
357.80 3.421
357.90 3.417
358.00 3.413
358.10 3.41
358.20 3.406
358.30 3.403
358.40 3.399
358.50 3.396
358.60 3.392
358.70 3.388
358.80 3.385
358.90 3.381
359.00 3.378
359.10 3.374
359.20 3.371
359.30 3.367
359.40 3.364
359.50 3.36
359.60 3.357
359.70 3.353
359.80 3.35
359.90 3.346
360.00 3.343
360.10 3.339
360.20 3.336
360.30 3.332
360.40 3.329
360.50 3.325
360.60 3.322
360.70 3.319
360.80 3.315
360.90 3.312
361.00 3.308
361.10 3.305
361.20 3.301
361.30 3.298
361.40 3.295
361.50 3.291
361.60 3.288
361.70 3.284
361.80 3.281
361.90 3.277
362.00 3.274
362.10 3.271
362.20 3.267
362.30 3.264
362.40 3.261
362.50 3.257
362.60 3.254
362.70 3.25
362.80 3.247
362.90 3.244
363.00 3.24
363.10 3.237
363.20 3.234
363.30 3.23
363.40 3.227
363.50 3.224
363.60 3.22
363.70 3.217
363.80 3.214
363.90 3.21
364.00 3.207
364.10 3.204
364.20 3.201
364.30 3.197
364.40 3.194
364.50 3.191
364.60 3.187
364.70 3.184
364.80 3.181
364.90 3.178
365.00 3.174
365.10 3.171
365.20 3.168
365.30 3.165
365.40 3.161
365.50 3.158
365.60 3.155
365.70 3.152
365.80 3.148
365.90 3.145
366.00 3.142
366.10 3.139
366.20 3.135
366.30 3.132
366.40 3.129
366.50 3.125
366.60 3.122
366.70 3.119
366.80 3.116
366.90 3.112
367.00 3.109
367.10 3.106
367.20 3.102
367.30 3.099
367.40 3.096
367.50 3.093
367.60 3.089
367.70 3.086
367.80 3.083
367.90 3.08
368.00 3.076
368.10 3.073
368.20 3.07
368.30 3.067
368.40 3.064
368.50 3.06
368.60 3.057
368.70 3.054
368.80 3.051
368.90 3.048
369.00 3.044
369.10 3.041
369.20 3.038
369.30 3.035
369.40 3.032
369.50 3.029
369.60 3.025
369.70 3.022
369.80 3.019
369.90 3.016
370.00 3.013
370.10 3.01
370.20 3.007
370.30 3.004
370.40 3
370.50 2.997
370.60 2.994
370.70 2.991
370.80 2.988
370.90 2.985
371.00 2.982
371.10 2.979
371.20 2.976
371.30 2.973
371.40 2.97
371.50 2.967
371.60 2.964
371.70 2.96
371.80 2.957
371.90 2.954
372.00 2.951
372.10 2.948
372.20 2.945
372.30 2.943
372.40 2.94
372.50 2.937
372.60 2.934
372.70 2.931
372.80 2.928
372.90 2.925
373.00 2.922
373.10 2.919
373.20 2.916
373.30 2.914
373.40 2.911
373.50 2.908
373.60 2.905
373.70 2.902
373.80 2.899
373.90 2.896
374.00 2.893
374.10 2.891
374.20 2.888
374.30 2.885
374.40 2.883
374.50 2.88
374.60 2.877
374.70 2.874
374.80 2.872
374.90 2.869
375.00 2.866
375.10 2.863
375.20 2.861
375.30 2.858
375.40 2.855
375.50 2.853
375.60 2.85
375.70 2.847
375.80 2.845
375.90 2.842
376.00 2.839
376.10 2.836
376.20 2.833
376.30 2.83
376.40 2.827
376.50 2.824
376.60 2.82
376.70 2.817
376.80 2.814
376.90 2.811
377.00 2.808
377.10 2.806
377.20 2.804
377.30 2.802
377.40 2.8
377.50 2.798
377.60 2.796
377.70 2.794
377.80 2.792
377.90 2.79
378.00 2.789
378.10 2.785
378.20 2.782
378.30 2.779
378.40 2.776
378.50 2.773
378.60 2.77
378.70 2.767
378.80 2.764
378.90 2.761
379.00 2.758
379.10 2.754
379.20 2.751
379.30 2.747
379.40 2.744
379.50 2.74
379.60 2.737
379.70 2.733
379.80 2.73
379.90 2.727
380.00 2.723
380.10 2.723
380.20 2.722
380.30 2.721
380.40 2.721
380.50 2.72
380.60 2.719
380.70 2.719
380.80 2.718
380.90 2.717
381.00 2.717
381.10 2.714
381.20 2.712
381.30 2.71
381.40 2.708
381.50 2.706
381.60 2.703
381.70 2.7
381.80 2.696
381.90 2.693
382.00 2.689
382.10 2.684
382.20 2.68
382.30 2.674
382.40 2.667
382.50 2.661
382.60 2.655
382.70 2.649
382.80 2.643
382.90 2.637
383.00 2.63
383.10 2.624
383.20 2.618
383.30 2.611
383.40 2.603
383.50 2.598
383.60 2.596
383.70 2.598
383.80 2.601
383.90 2.604
384.00 2.607
384.10 2.61
384.20 2.613
384.30 2.615
384.40 2.617
384.50 2.619
384.60 2.62
384.70 2.621
384.80 2.622
384.90 2.623
385.00 2.623
385.10 2.623
385.20 2.623
385.30 2.622
385.40 2.622
385.50 2.621
385.60 2.619
385.70 2.618
385.80 2.616
385.90 2.614
386.00 2.612
386.10 2.609
386.20 2.607
386.30 2.604
386.40 2.6
386.50 2.597
386.60 2.593
386.70 2.589
386.80 2.585
386.90 2.58
387.00 2.575
387.10 2.569
387.20 2.563
387.30 2.557
387.40 2.551
387.50 2.544
387.60 2.536
387.70 2.528
387.80 2.52
387.90 2.511
388.00 2.502
388.10 2.491
388.20 2.481
388.30 2.47
388.40 2.458
388.50 2.446
388.60 2.433
388.70 2.421
388.80 2.412
388.90 2.405
389.00 2.407
389.10 2.411
389.20 2.419
389.30 2.427
389.40 2.435
389.50 2.443
389.60 2.45
389.70 2.456
389.80 2.462
389.90 2.467
390.00 2.471
390.10 2.475
390.20 2.479
390.30 2.482
390.40 2.485
390.50 2.487
390.60 2.489
390.70 2.491
390.80 2.493
390.90 2.494
391.00 2.494
391.10 2.495
391.20 2.495
391.30 2.495
391.40 2.495
391.50 2.495
391.60 2.494
391.70 2.493
391.80 2.493
391.90 2.491
392.00 2.49
392.10 2.489
392.20 2.487
392.30 2.486
392.40 2.484
392.50 2.482
392.60 2.48
392.70 2.478
392.80 2.476
392.90 2.474
393.00 2.471
393.10 2.469
393.20 2.466
393.30 2.463
393.40 2.461
393.50 2.458
393.60 2.454
393.70 2.451
393.80 2.448
393.90 2.444
394.00 2.44
394.10 2.437
394.20 2.432
394.30 2.428
394.40 2.424
394.50 2.419
394.60 2.414
394.70 2.408
394.80 2.403
394.90 2.397
395.00 2.391
395.10 2.384
395.20 2.377
395.30 2.369
395.40 2.361
395.50 2.353
395.60 2.343
395.70 2.333
395.80 2.323
395.90 2.312
396.00 2.3
396.10 2.287
396.20 2.273
396.30 2.258
396.40 2.243
396.50 2.226
396.60 2.208
396.70 2.19
396.80 2.169
396.90 2.148
397.00 2.128
397.10 2.142
397.20 2.158
397.30 2.175
397.40 2.19
397.50 2.204
397.60 2.217
397.70 2.228
397.80 2.239
397.90 2.249
398.00 2.257
398.10 2.265
398.20 2.272
398.30 2.278
398.40 2.283
398.50 2.288
398.60 2.293
398.70 2.296
398.80 2.3
398.90 2.302
399.00 2.305
399.10 2.307
399.20 2.308
399.30 2.31
399.40 2.311
399.50 2.311
399.60 2.312
399.70 2.312
399.80 2.312
399.90 2.312
400.00 2.312
400.10 2.311
400.20 2.311
400.30 2.31
400.40 2.309
400.50 2.308
400.60 2.307
400.70 2.306
400.80 2.305
400.90 2.304
401.00 2.302
401.10 2.301
401.20 2.299
401.30 2.298
401.40 2.296
401.50 2.295
401.60 2.293
401.70 2.291
401.80 2.29
401.90 2.288
402.00 2.286
402.10 2.284
402.20 2.282
402.30 2.28
402.40 2.279
402.50 2.277
402.60 2.275
402.70 2.273
402.80 2.271
402.90 2.269
403.00 2.267
403.10 2.265
403.20 2.263
403.30 2.261
403.40 2.259
403.50 2.256
403.60 2.254
403.70 2.252
403.80 2.25
403.90 2.248
404.00 2.246
404.10 2.244
404.20 2.241
404.30 2.239
404.40 2.237
404.50 2.235
404.60 2.232
404.70 2.23
404.80 2.228
404.90 2.225
405.00 2.223
405.10 2.221
405.20 2.218
405.30 2.216
405.40 2.213
405.50 2.211
405.60 2.208
405.70 2.206
405.80 2.203
405.90 2.2
406.00 2.198
406.10 2.195
406.20 2.192
406.30 2.189
406.40 2.186
406.50 2.183
406.60 2.18
406.70 2.177
406.80 2.174
406.90 2.17
407.00 2.167
407.10 2.163
407.20 2.159
407.30 2.155
407.40 2.151
407.50 2.147
407.60 2.142
407.70 2.137
407.80 2.132
407.90 2.127
408.00 2.121
408.10 2.115
408.20 2.108
408.30 2.101
408.40 2.094
408.50 2.086
408.60 2.077
408.70 2.068
408.80 2.058
408.90 2.047
409.00 2.036
409.10 2.023
409.20 2.01
409.30 1.996
409.40 1.98
409.50 1.962
409.60 1.944
409.70 1.924
409.80 1.901
409.90 1.876
410.00 1.846
410.10 1.825
410.20 1.814
410.30 1.833
410.40 1.854
410.50 1.879
410.60 1.899
410.70 1.917
410.80 1.933
410.90 1.947
411.00 1.959
411.10 1.971
411.20 1.981
411.30 1.99
411.40 1.998
411.50 2.005
411.60 2.012
411.70 2.017
411.80 2.022
411.90 2.027
412.00 2.03
412.10 2.033
412.20 2.036
412.30 2.039
412.40 2.04
412.50 2.042
412.60 2.043
412.70 2.044
412.80 2.045
412.90 2.045
413.00 2.046
413.10 2.046
413.20 2.046
413.30 2.045
413.40 2.045
413.50 2.045
413.60 2.044
413.70 2.043
413.80 2.042
413.90 2.042
414.00 2.041
414.10 2.04
414.20 2.038
414.30 2.037
414.40 2.036
414.50 2.035
414.60 2.034
414.70 2.032
414.80 2.031
414.90 2.029
415.00 2.028
415.10 2.027
415.20 2.025
415.30 2.024
415.40 2.022
415.50 2.021
415.60 2.019
415.70 2.017
415.80 2.016
415.90 2.014
416.00 2.013
416.10 2.011
416.20 2.009
416.30 2.008
416.40 2.006
416.50 2.004
416.60 2.003
416.70 2.001
416.80 1.999
416.90 1.998
417.00 1.996
417.10 1.994
417.20 1.993
417.30 1.991
417.40 1.989
417.50 1.987
417.60 1.986
417.70 1.984
417.80 1.982
417.90 1.981
418.00 1.979
418.10 1.977
418.20 1.975
418.30 1.974
418.40 1.972
418.50 1.97
418.60 1.969
418.70 1.967
418.80 1.965
418.90 1.963
419.00 1.962
419.10 1.96
419.20 1.958
419.30 1.956
419.40 1.955
419.50 1.953
419.60 1.951
419.70 1.949
419.80 1.948
419.90 1.946
420.00 1.944
420.10 1.942
420.20 1.941
420.30 1.939
420.40 1.937
420.50 1.936
420.60 1.934
420.70 1.932
420.80 1.93
420.90 1.929
421.00 1.927
421.10 1.925
421.20 1.923
421.30 1.922
421.40 1.92
421.50 1.918
421.60 1.916
421.70 1.915
421.80 1.913
421.90 1.911
422.00 1.91
422.10 1.908
422.20 1.906
422.30 1.904
422.40 1.903
422.50 1.901
422.60 1.899
422.70 1.898
422.80 1.896
422.90 1.894
423.00 1.892
423.10 1.891
423.20 1.889
423.30 1.887
423.40 1.886
423.50 1.884
423.60 1.882
423.70 1.88
423.80 1.879
423.90 1.877
424.00 1.875
424.10 1.874
424.20 1.872
424.30 1.87
424.40 1.869
424.50 1.867
424.60 1.865
424.70 1.863
424.80 1.862
424.90 1.86
425.00 1.858
425.10 1.857
425.20 1.855
425.30 1.853
425.40 1.851
425.50 1.85
425.60 1.848
425.70 1.846
425.80 1.845
425.90 1.843
426.00 1.841
426.10 1.84
426.20 1.838
426.30 1.836
426.40 1.834
426.50 1.833
426.60 1.831
426.70 1.829
426.80 1.828
426.90 1.826
427.00 1.824
427.10 1.822
427.20 1.821
427.30 1.819
427.40 1.817
427.50 1.815
427.60 1.814
427.70 1.812
427.80 1.81
427.90 1.808
428.00 1.807
428.10 1.805
428.20 1.803
428.30 1.801
428.40 1.799
428.50 1.798
428.60 1.796
428.70 1.794
428.80 1.792
428.90 1.79
429.00 1.788
429.10 1.786
429.20 1.784
429.30 1.782
429.40 1.78
429.50 1.778
429.60 1.776
429.70 1.774
429.80 1.772
429.90 1.77
430.00 1.768
430.10 1.766
430.20 1.763
430.30 1.761
430.40 1.759
430.50 1.756
430.60 1.754
430.70 1.751
430.80 1.749
430.90 1.746
431.00 1.743
431.10 1.74
431.20 1.737
431.30 1.734
431.40 1.73
431.50 1.727
431.60 1.723
431.70 1.719
431.80 1.714
431.90 1.71
432.00 1.705
432.10 1.699
432.20 1.694
432.30 1.687
432.40 1.681
432.50 1.673
432.60 1.666
432.70 1.657
432.80 1.648
432.90 1.638
433.00 1.627
433.10 1.615
433.20 1.601
433.30 1.587
433.40 1.571
433.50 1.553
433.60 1.534
433.70 1.511
433.80 1.483
433.90 1.449
434.00 1.415
434.10 1.415
434.20 1.449
434.30 1.478
434.40 1.504
434.50 1.524
434.60 1.54
434.70 1.555
434.80 1.568
434.90 1.579
435.00 1.59
435.10 1.599
435.20 1.607
435.30 1.614
435.40 1.62
435.50 1.626
435.60 1.63
435.70 1.635
435.80 1.638
435.90 1.641
436.00 1.644
436.10 1.646
436.20 1.648
436.30 1.649
436.40 1.651
436.50 1.652
436.60 1.652
436.70 1.653
436.80 1.653
436.90 1.654
437.00 1.653
437.10 1.653
437.20 1.653
437.30 1.653
437.40 1.652
437.50 1.652
437.60 1.651
437.70 1.651
437.80 1.65
437.90 1.649
438.00 1.649
438.10 1.648
438.20 1.647
438.30 1.646
438.40 1.645
438.50 1.644
438.60 1.643
438.70 1.642
438.80 1.641
438.90 1.64
439.00 1.639
439.10 1.637
439.20 1.636
439.30 1.635
439.40 1.634
439.50 1.633
439.60 1.631
439.70 1.63
439.80 1.629
439.90 1.628
440.00 1.627
440.10 1.625
440.20 1.624
440.30 1.623
440.40 1.621
440.50 1.62
440.60 1.619
440.70 1.618
440.80 1.616
440.90 1.615
441.00 1.614
441.10 1.612
441.20 1.611
441.30 1.61
441.40 1.609
441.50 1.607
441.60 1.606
441.70 1.605
441.80 1.603
441.90 1.602
442.00 1.601
442.10 1.599
442.20 1.598
442.30 1.597
442.40 1.595
442.50 1.594
442.60 1.593
442.70 1.591
442.80 1.59
442.90 1.589
443.00 1.587
443.10 1.586
443.20 1.585
443.30 1.583
443.40 1.582
443.50 1.581
443.60 1.579
443.70 1.578
443.80 1.577
443.90 1.575
444.00 1.574
444.10 1.573
444.20 1.571
444.30 1.57
444.40 1.569
444.50 1.567
444.60 1.566
444.70 1.565
444.80 1.563
444.90 1.562
445.00 1.561
445.10 1.56
445.20 1.558
445.30 1.557
445.40 1.556
445.50 1.554
445.60 1.553
445.70 1.552
445.80 1.55
445.90 1.549
446.00 1.548
446.10 1.546
446.20 1.545
446.30 1.544
446.40 1.542
446.50 1.541
446.60 1.54
446.70 1.539
446.80 1.537
446.90 1.536
447.00 1.535
447.10 1.533
447.20 1.532
447.30 1.531
447.40 1.529
447.50 1.528
447.60 1.527
447.70 1.526
447.80 1.524
447.90 1.523
448.00 1.522
448.10 1.52
448.20 1.519
448.30 1.518
448.40 1.517
448.50 1.515
448.60 1.514
448.70 1.513
448.80 1.511
448.90 1.51
449.00 1.509
449.10 1.508
449.20 1.506
449.30 1.505
449.40 1.504
449.50 1.502
449.60 1.501
449.70 1.5
449.80 1.499
449.90 1.497
450.00 1.496
450.10 1.495
450.20 1.494
450.30 1.492
450.40 1.491
450.50 1.49
450.60 1.489
450.70 1.487
450.80 1.486
450.90 1.485
451.00 1.484
451.10 1.482
451.20 1.481
451.30 1.48
451.40 1.479
451.50 1.477
451.60 1.476
451.70 1.475
451.80 1.474
451.90 1.472
452.00 1.471
452.10 1.47
452.20 1.469
452.30 1.467
452.40 1.466
452.50 1.465
452.60 1.464
452.70 1.462
452.80 1.461
452.90 1.46
453.00 1.459
453.10 1.458
453.20 1.456
453.30 1.455
453.40 1.454
453.50 1.453
453.60 1.451
453.70 1.45
453.80 1.449
453.90 1.448
454.00 1.447
454.10 1.445
454.20 1.444
454.30 1.443
454.40 1.442
454.50 1.44
454.60 1.439
454.70 1.438
454.80 1.437
454.90 1.436
455.00 1.434
455.10 1.433
455.20 1.432
455.30 1.431
455.40 1.43
455.50 1.428
455.60 1.427
455.70 1.426
455.80 1.425
455.90 1.424
456.00 1.422
456.10 1.421
456.20 1.42
456.30 1.419
456.40 1.418
456.50 1.417
456.60 1.415
456.70 1.414
456.80 1.413
456.90 1.412
457.00 1.411
457.10 1.409
457.20 1.408
457.30 1.407
457.40 1.406
457.50 1.405
457.60 1.404
457.70 1.402
457.80 1.401
457.90 1.4
458.00 1.399
458.10 1.398
458.20 1.397
458.30 1.395
458.40 1.394
458.50 1.393
458.60 1.392
458.70 1.391
458.80 1.39
458.90 1.388
459.00 1.387
459.10 1.386
459.20 1.385
459.30 1.384
459.40 1.383
459.50 1.382
459.60 1.38
459.70 1.379
459.80 1.378
459.90 1.377
460.00 1.376
460.10 1.375
460.20 1.374
460.30 1.372
460.40 1.371
460.50 1.37
460.60 1.369
460.70 1.368
460.80 1.367
460.90 1.366
461.00 1.364
461.10 1.363
461.20 1.362
461.30 1.361
461.40 1.36
461.50 1.359
461.60 1.358
461.70 1.357
461.80 1.355
461.90 1.354
462.00 1.353
462.10 1.352
462.20 1.351
462.30 1.35
462.40 1.349
462.50 1.348
462.60 1.347
462.70 1.345
462.80 1.344
462.90 1.343
463.00 1.342
463.10 1.341
463.20 1.34
463.30 1.339
463.40 1.338
463.50 1.337
463.60 1.335
463.70 1.334
463.80 1.333
463.90 1.332
464.00 1.331
464.10 1.33
464.20 1.329
464.30 1.328
464.40 1.327
464.50 1.326
464.60 1.324
464.70 1.323
464.80 1.322
464.90 1.321
465.00 1.32
465.10 1.319
465.20 1.318
465.30 1.317
465.40 1.316
465.50 1.315
465.60 1.314
465.70 1.313
465.80 1.311
465.90 1.31
466.00 1.309
466.10 1.308
466.20 1.307
466.30 1.306
466.40 1.305
466.50 1.304
466.60 1.303
466.70 1.302
466.80 1.301
466.90 1.3
467.00 1.299
467.10 1.298
467.20 1.296
467.30 1.295
467.40 1.294
467.50 1.293
467.60 1.292
467.70 1.291
467.80 1.29
467.90 1.289
468.00 1.288
468.10 1.287
468.20 1.286
468.30 1.285
468.40 1.284
468.50 1.283
468.60 1.282
468.70 1.281
468.80 1.28
468.90 1.279
469.00 1.277
469.10 1.276
469.20 1.275
469.30 1.274
469.40 1.273
469.50 1.272
469.60 1.271
469.70 1.27
469.80 1.269
469.90 1.268
470.00 1.267
470.10 1.266
470.20 1.265
470.30 1.264
470.40 1.263
470.50 1.262
470.60 1.261
470.70 1.26
470.80 1.259
470.90 1.258
471.00 1.257
471.10 1.256
471.20 1.255
471.30 1.254
471.40 1.253
471.50 1.252
471.60 1.251
471.70 1.25
471.80 1.249
471.90 1.248
472.00 1.247
472.10 1.246
472.20 1.245
472.30 1.244
472.40 1.243
472.50 1.241
472.60 1.24
472.70 1.239
472.80 1.238
472.90 1.237
473.00 1.236
473.10 1.235
473.20 1.234
473.30 1.233
473.40 1.232
473.50 1.231
473.60 1.23
473.70 1.229
473.80 1.228
473.90 1.227
474.00 1.226
474.10 1.225
474.20 1.224
474.30 1.223
474.40 1.222
474.50 1.221
474.60 1.22
474.70 1.219
474.80 1.218
474.90 1.217
475.00 1.216
475.10 1.215
475.20 1.214
475.30 1.213
475.40 1.212
475.50 1.211
475.60 1.21
475.70 1.209
475.80 1.208
475.90 1.207
476.00 1.206
476.10 1.205
476.20 1.204
476.30 1.203
476.40 1.202
476.50 1.202
476.60 1.201
476.70 1.2
476.80 1.199
476.90 1.198
477.00 1.197
477.10 1.196
477.20 1.195
477.30 1.194
477.40 1.193
477.50 1.192
477.60 1.191
477.70 1.19
477.80 1.189
477.90 1.188
478.00 1.187
478.10 1.186
478.20 1.185
478.30 1.184
478.40 1.183
478.50 1.182
478.60 1.181
478.70 1.18
478.80 1.179
478.90 1.178
479.00 1.177
479.10 1.176
479.20 1.175
479.30 1.174
479.40 1.173
479.50 1.171
479.60 1.17
479.70 1.169
479.80 1.168
479.90 1.167
480.00 1.166
480.10 1.165
480.20 1.164
480.30 1.163
480.40 1.162
480.50 1.161
480.60 1.16
480.70 1.159
480.80 1.158
480.90 1.157
481.00 1.156
481.10 1.154
481.20 1.153
481.30 1.152
481.40 1.151
481.50 1.15
481.60 1.148
481.70 1.147
481.80 1.146
481.90 1.145
482.00 1.144
482.10 1.142
482.20 1.141
482.30 1.139
482.40 1.138
482.50 1.136
482.60 1.135
482.70 1.133
482.80 1.132
482.90 1.13
483.00 1.129
483.10 1.127
483.20 1.125
483.30 1.123
483.40 1.12
483.50 1.118
483.60 1.116
483.70 1.113
483.80 1.111
483.90 1.109
484.00 1.106
484.10 1.104
484.20 1.1
484.30 1.097
484.40 1.093
484.50 1.089
484.60 1.085
484.70 1.08
484.80 1.074
484.90 1.068
485.00 1.062
485.10 1.056
485.20 1.049
485.30 1.041
485.40 1.031
485.50 1.022
485.60 1.01
485.70 0.9967
485.80 0.9782
485.90 0.9572
486.00 0.9245
486.10 0.8934
486.20 0.896
486.30 0.9362
486.40 0.9601
486.50 0.9799
486.60 0.994
486.70 1.005
486.80 1.015
486.90 1.023
487.00 1.03
487.10 1.036
487.20 1.041
487.30 1.045
487.40 1.05
487.50 1.054
487.60 1.058
487.70 1.061
487.80 1.063
487.90 1.065
488.00 1.067
488.10 1.069
488.20 1.07
488.30 1.071
488.40 1.071
488.50 1.072
488.60 1.072
488.70 1.073
488.80 1.074
488.90 1.074
489.00 1.075
489.10 1.075
489.20 1.075
489.30 1.075
489.40 1.075
489.50 1.074
489.60 1.074
489.70 1.074
489.80 1.074
489.90 1.073
490.00 1.073
490.10 1.073
490.20 1.072
490.30 1.072
490.40 1.071
490.50 1.071
490.60 1.07
490.70 1.07
490.80 1.069
490.90 1.068
491.00 1.068
491.10 1.067
491.20 1.067
491.30 1.066
491.40 1.065
491.50 1.065
491.60 1.064
491.70 1.063
491.80 1.063
491.90 1.062
492.00 1.061
492.10 1.061
492.20 1.06
492.30 1.059
492.40 1.058
492.50 1.058
492.60 1.057
492.70 1.056
492.80 1.055
492.90 1.055
493.00 1.054
493.10 1.053
493.20 1.052
493.30 1.052
493.40 1.051
493.50 1.05
493.60 1.049
493.70 1.049
493.80 1.048
493.90 1.047
494.00 1.046
494.10 1.046
494.20 1.045
494.30 1.044
494.40 1.043
494.50 1.042
494.60 1.042
494.70 1.041
494.80 1.04
494.90 1.039
495.00 1.039
495.10 1.038
495.20 1.037
495.30 1.036
495.40 1.035
495.50 1.035
495.60 1.034
495.70 1.033
495.80 1.032
495.90 1.032
496.00 1.031
496.10 1.03
496.20 1.029
496.30 1.028
496.40 1.028
496.50 1.027
496.60 1.026
496.70 1.025
496.80 1.025
496.90 1.024
497.00 1.023
497.10 1.022
497.20 1.021
497.30 1.021
497.40 1.02
497.50 1.019
497.60 1.018
497.70 1.018
497.80 1.017
497.90 1.016
498.00 1.015
498.10 1.015
498.20 1.014
498.30 1.013
498.40 1.012
498.50 1.011
498.60 1.011
498.70 1.01
498.80 1.009
498.90 1.008
499.00 1.008
499.10 1.007
499.20 1.006
499.30 1.005
499.40 1.005
499.50 1.004
499.60 1.003
499.70 1.002
499.80 1.002
499.90 1.001
500.00 1
500.10 0.9992
500.20 0.9985
500.30 0.9977
500.40 0.997
500.50 0.9962
500.60 0.9954
500.70 0.9947
500.80 0.9939
500.90 0.9932
501.00 0.9924
501.10 0.9917
501.20 0.9909
501.30 0.9902
501.40 0.9894
501.50 0.9887
501.60 0.9879
501.70 0.9872
501.80 0.9864
501.90 0.9857
502.00 0.9849
502.10 0.9842
502.20 0.9834
502.30 0.9827
502.40 0.9819
502.50 0.9812
502.60 0.9804
502.70 0.9797
502.80 0.979
502.90 0.9782
503.00 0.9775
503.10 0.9767
503.20 0.976
503.30 0.9752
503.40 0.9745
503.50 0.9738
503.60 0.973
503.70 0.9723
503.80 0.9716
503.90 0.9708
504.00 0.9701
504.10 0.9694
504.20 0.9686
504.30 0.9679
504.40 0.9671
504.50 0.9664
504.60 0.9657
504.70 0.965
504.80 0.9642
504.90 0.9635
505.00 0.9628
505.10 0.962
505.20 0.9613
505.30 0.9606
505.40 0.9599
505.50 0.9591
505.60 0.9584
505.70 0.9577
505.80 0.957
505.90 0.9562
506.00 0.9555
506.10 0.9548
506.20 0.9541
506.30 0.9533
506.40 0.9526
506.50 0.9519
506.60 0.9512
506.70 0.9505
506.80 0.9498
506.90 0.949
507.00 0.9483
507.10 0.9476
507.20 0.9469
507.30 0.9462
507.40 0.9455
507.50 0.9448
507.60 0.944
507.70 0.9433
507.80 0.9426
507.90 0.9419
508.00 0.9412
508.10 0.9405
508.20 0.9398
508.30 0.9391
508.40 0.9384
508.50 0.9377
508.60 0.937
508.70 0.9363
508.80 0.9356
508.90 0.9349
509.00 0.9341
509.10 0.9334
509.20 0.9327
509.30 0.932
509.40 0.9313
509.50 0.9307
509.60 0.93
509.70 0.9293
509.80 0.9286
509.90 0.9279
510.00 0.9272
510.10 0.9265
510.20 0.9258
510.30 0.9251
510.40 0.9244
510.50 0.9237
510.60 0.923
510.70 0.9223
510.80 0.9216
510.90 0.9209
511.00 0.9202
511.10 0.9196
511.20 0.9189
511.30 0.9182
511.40 0.9175
511.50 0.9168
511.60 0.9161
511.70 0.9154
511.80 0.9147
511.90 0.9141
512.00 0.9134
512.10 0.9127
512.20 0.912
512.30 0.9113
512.40 0.9106
512.50 0.91
512.60 0.9093
512.70 0.9086
512.80 0.9079
512.90 0.9073
513.00 0.9066
513.10 0.9059
513.20 0.9052
513.30 0.9046
513.40 0.9039
513.50 0.9032
513.60 0.9025
513.70 0.9019
513.80 0.9012
513.90 0.9005
514.00 0.8998
514.10 0.8992
514.20 0.8985
514.30 0.8978
514.40 0.8972
514.50 0.8965
514.60 0.8958
514.70 0.8952
514.80 0.8945
514.90 0.8938
515.00 0.8932
515.10 0.8925
515.20 0.8918
515.30 0.8912
515.40 0.8905
515.50 0.8898
515.60 0.8892
515.70 0.8885
515.80 0.8879
515.90 0.8872
516.00 0.8866
516.10 0.8859
516.20 0.8852
516.30 0.8846
516.40 0.8839
516.50 0.8833
516.60 0.8826
516.70 0.882
516.80 0.8813
516.90 0.8807
517.00 0.88
517.10 0.8794
517.20 0.8787
517.30 0.878
517.40 0.8774
517.50 0.8768
517.60 0.8761
517.70 0.8755
517.80 0.8748
517.90 0.8742
518.00 0.8735
518.10 0.8729
518.20 0.8722
518.30 0.8716
518.40 0.8709
518.50 0.8703
518.60 0.8696
518.70 0.869
518.80 0.8684
518.90 0.8677
519.00 0.8671
519.10 0.8664
519.20 0.8658
519.30 0.8652
519.40 0.8645
519.50 0.8639
519.60 0.8632
519.70 0.8626
519.80 0.862
519.90 0.8613
520.00 0.8607
520.10 0.8601
520.20 0.8594
520.30 0.8588
520.40 0.8582
520.50 0.8575
520.60 0.8569
520.70 0.8563
520.80 0.8556
520.90 0.855
521.00 0.8544
521.10 0.8538
521.20 0.8531
521.30 0.8525
521.40 0.8519
521.50 0.8513
521.60 0.8506
521.70 0.85
521.80 0.8494
521.90 0.8488
522.00 0.8481
522.10 0.8475
522.20 0.8469
522.30 0.8463
522.40 0.8456
522.50 0.845
522.60 0.8444
522.70 0.8438
522.80 0.8432
522.90 0.8425
523.00 0.8419
523.10 0.8413
523.20 0.8407
523.30 0.8401
523.40 0.8395
523.50 0.8389
523.60 0.8382
523.70 0.8376
523.80 0.837
523.90 0.8364
524.00 0.8358
524.10 0.8352
524.20 0.8346
524.30 0.834
524.40 0.8333
524.50 0.8327
524.60 0.8321
524.70 0.8315
524.80 0.8309
524.90 0.8303
525.00 0.8297
525.10 0.8291
525.20 0.8285
525.30 0.8279
525.40 0.8273
525.50 0.8267
525.60 0.8261
525.70 0.8255
525.80 0.8249
525.90 0.8243
526.00 0.8237
526.10 0.8231
526.20 0.8225
526.30 0.8219
526.40 0.8213
526.50 0.8207
526.60 0.8201
526.70 0.8195
526.80 0.8189
526.90 0.8183
527.00 0.8177
527.10 0.8171
527.20 0.8165
527.30 0.8159
527.40 0.8153
527.50 0.8147
527.60 0.8141
527.70 0.8135
527.80 0.8129
527.90 0.8124
528.00 0.8118
528.10 0.8112
528.20 0.8106
528.30 0.81
528.40 0.8094
528.50 0.8088
528.60 0.8082
528.70 0.8077
528.80 0.8071
528.90 0.8065
529.00 0.8059
529.10 0.8053
529.20 0.8047
529.30 0.8041
529.40 0.8036
529.50 0.803
529.60 0.8024
529.70 0.8018
529.80 0.8012
529.90 0.8007
530.00 0.8001
530.10 0.7995
530.20 0.7989
530.30 0.7983
530.40 0.7978
530.50 0.7972
530.60 0.7966
530.70 0.796
530.80 0.7955
530.90 0.7949
531.00 0.7943
531.10 0.7937
531.20 0.7932
531.30 0.7926
531.40 0.792
531.50 0.7915
531.60 0.7909
531.70 0.7903
531.80 0.7897
531.90 0.7892
532.00 0.7886
532.10 0.788
532.20 0.7875
532.30 0.7869
532.40 0.7863
532.50 0.7858
532.60 0.7852
532.70 0.7846
532.80 0.7841
532.90 0.7835
533.00 0.7829
533.10 0.7824
533.20 0.7818
533.30 0.7813
533.40 0.7807
533.50 0.7801
533.60 0.7796
533.70 0.779
533.80 0.7785
533.90 0.7779
534.00 0.7773
534.10 0.7768
534.20 0.7762
534.30 0.7757
534.40 0.7751
534.50 0.7746
534.60 0.774
534.70 0.7734
534.80 0.7729
534.90 0.7723
535.00 0.7718
535.10 0.7712
535.20 0.7707
535.30 0.7701
535.40 0.7696
535.50 0.769
535.60 0.7685
535.70 0.7679
535.80 0.7674
535.90 0.7668
536.00 0.7663
536.10 0.7657
536.20 0.7652
536.30 0.7646
536.40 0.7641
536.50 0.7635
536.60 0.763
536.70 0.7624
536.80 0.7619
536.90 0.7614
537.00 0.7608
537.10 0.7603
537.20 0.7597
537.30 0.7592
537.40 0.7586
537.50 0.7581
537.60 0.7576
537.70 0.757
537.80 0.7565
537.90 0.7559
538.00 0.7554
538.10 0.7549
538.20 0.7543
538.30 0.7538
538.40 0.7532
538.50 0.7527
538.60 0.7522
538.70 0.7516
538.80 0.7511
538.90 0.7506
539.00 0.75
539.10 0.7495
539.20 0.749
539.30 0.7484
539.40 0.7479
539.50 0.7474
539.60 0.7468
539.70 0.7463
539.80 0.7458
539.90 0.7452
540.00 0.7447
540.10 0.7442
540.20 0.7437
540.30 0.7431
540.40 0.7426
540.50 0.7421
540.60 0.7415
540.70 0.741
540.80 0.7405
540.90 0.74
541.00 0.7394
541.10 0.7389
541.20 0.7384
541.30 0.7379
541.40 0.7373
541.50 0.7368
541.60 0.7363
541.70 0.7358
541.80 0.7353
541.90 0.7347
542.00 0.7342
542.10 0.7337
542.20 0.7332
542.30 0.7327
542.40 0.7321
542.50 0.7316
542.60 0.7311
542.70 0.7306
542.80 0.7301
542.90 0.7296
543.00 0.729
543.10 0.7285
543.20 0.728
543.30 0.7275
543.40 0.727
543.50 0.7265
543.60 0.726
543.70 0.7254
543.80 0.7249
543.90 0.7244
544.00 0.7239
544.10 0.7234
544.20 0.7229
544.30 0.7224
544.40 0.7219
544.50 0.7214
544.60 0.7209
544.70 0.7203
544.80 0.7198
544.90 0.7193
545.00 0.7188
545.10 0.7183
545.20 0.7178
545.30 0.7173
545.40 0.7168
545.50 0.7163
545.60 0.7158
545.70 0.7153
545.80 0.7148
545.90 0.7143
546.00 0.7138
546.10 0.7133
546.20 0.7128
546.30 0.7123
546.40 0.7118
546.50 0.7113
546.60 0.7108
546.70 0.7103
546.80 0.7098
546.90 0.7093
547.00 0.7088
547.10 0.7083
547.20 0.7078
547.30 0.7073
547.40 0.7068
547.50 0.7063
547.60 0.7058
547.70 0.7053
547.80 0.7048
547.90 0.7043
548.00 0.7038
548.10 0.7033
548.20 0.7029
548.30 0.7024
548.40 0.7019
548.50 0.7014
548.60 0.7009
548.70 0.7004
548.80 0.6999
548.90 0.6994
549.00 0.6989
549.10 0.6984
549.20 0.6979
549.30 0.6975
549.40 0.697
549.50 0.6965
549.60 0.696
549.70 0.6955
549.80 0.695
549.90 0.6945
550.00 0.6941
550.10 0.6936
550.20 0.6931
550.30 0.6926
550.40 0.6921
550.50 0.6916
550.60 0.6912
550.70 0.6907
550.80 0.6902
550.90 0.6897
551.00 0.6892
551.10 0.6888
551.20 0.6883
551.30 0.6878
551.40 0.6873
551.50 0.6868
551.60 0.6864
551.70 0.6859
551.80 0.6854
551.90 0.6849
552.00 0.6845
552.10 0.684
552.20 0.6835
552.30 0.683
552.40 0.6826
552.50 0.6821
552.60 0.6816
552.70 0.6811
552.80 0.6807
552.90 0.6802
553.00 0.6797
553.10 0.6792
553.20 0.6788
553.30 0.6783
553.40 0.6778
553.50 0.6774
553.60 0.6769
553.70 0.6764
553.80 0.6759
553.90 0.6755
554.00 0.675
554.10 0.6745
554.20 0.6741
554.30 0.6736
554.40 0.6731
554.50 0.6727
554.60 0.6722
554.70 0.6717
554.80 0.6713
554.90 0.6708
555.00 0.6704
555.10 0.6699
555.20 0.6694
555.30 0.669
555.40 0.6685
555.50 0.668
555.60 0.6676
555.70 0.6671
555.80 0.6667
555.90 0.6662
556.00 0.6657
556.10 0.6653
556.20 0.6648
556.30 0.6644
556.40 0.6639
556.50 0.6634
556.60 0.663
556.70 0.6625
556.80 0.6621
556.90 0.6616
557.00 0.6612
557.10 0.6607
557.20 0.6602
557.30 0.6598
557.40 0.6593
557.50 0.6589
557.60 0.6584
557.70 0.658
557.80 0.6575
557.90 0.6571
558.00 0.6566
558.10 0.6562
558.20 0.6557
558.30 0.6553
558.40 0.6548
558.50 0.6544
558.60 0.6539
558.70 0.6535
558.80 0.653
558.90 0.6526
559.00 0.6521
559.10 0.6517
559.20 0.6512
559.30 0.6508
559.40 0.6503
559.50 0.6499
559.60 0.6494
559.70 0.649
559.80 0.6485
559.90 0.6481
560.00 0.6477
560.10 0.6472
560.20 0.6468
560.30 0.6463
560.40 0.6459
560.50 0.6454
560.60 0.645
560.70 0.6446
560.80 0.6441
560.90 0.6437
561.00 0.6432
561.10 0.6428
561.20 0.6423
561.30 0.6419
561.40 0.6415
561.50 0.641
561.60 0.6406
561.70 0.6402
561.80 0.6397
561.90 0.6393
562.00 0.6388
562.10 0.6384
562.20 0.638
562.30 0.6375
562.40 0.6371
562.50 0.6367
562.60 0.6362
562.70 0.6358
562.80 0.6354
562.90 0.6349
563.00 0.6345
563.10 0.6341
563.20 0.6336
563.30 0.6332
563.40 0.6328
563.50 0.6323
563.60 0.6319
563.70 0.6315
563.80 0.631
563.90 0.6306
564.00 0.6302
564.10 0.6297
564.20 0.6293
564.30 0.6289
564.40 0.6285
564.50 0.628
564.60 0.6276
564.70 0.6272
564.80 0.6268
564.90 0.6263
565.00 0.6259
565.10 0.6255
565.20 0.6251
565.30 0.6246
565.40 0.6242
565.50 0.6238
565.60 0.6234
565.70 0.6229
565.80 0.6225
565.90 0.6221
566.00 0.6217
566.10 0.6212
566.20 0.6208
566.30 0.6204
566.40 0.62
566.50 0.6196
566.60 0.6191
566.70 0.6187
566.80 0.6183
566.90 0.6179
567.00 0.6175
567.10 0.617
567.20 0.6166
567.30 0.6162
567.40 0.6158
567.50 0.6154
567.60 0.615
567.70 0.6145
567.80 0.6141
567.90 0.6137
568.00 0.6133
568.10 0.6129
568.20 0.6125
568.30 0.6121
568.40 0.6116
568.50 0.6112
568.60 0.6108
568.70 0.6104
568.80 0.61
568.90 0.6096
569.00 0.6092
569.10 0.6087
569.20 0.6083
569.30 0.6079
569.40 0.6075
569.50 0.6071
569.60 0.6067
569.70 0.6063
569.80 0.6059
569.90 0.6055
570.00 0.6051
570.10 0.6047
570.20 0.6042
570.30 0.6038
570.40 0.6034
570.50 0.603
570.60 0.6026
570.70 0.6022
570.80 0.6018
570.90 0.6014
571.00 0.601
571.10 0.6006
571.20 0.6002
571.30 0.5998
571.40 0.5994
571.50 0.599
571.60 0.5986
571.70 0.5982
571.80 0.5978
571.90 0.5974
572.00 0.597
572.10 0.5966
572.20 0.5962
572.30 0.5958
572.40 0.5954
572.50 0.595
572.60 0.5946
572.70 0.5942
572.80 0.5938
572.90 0.5934
573.00 0.593
573.10 0.5926
573.20 0.5922
573.30 0.5918
573.40 0.5914
573.50 0.591
573.60 0.5906
573.70 0.5902
573.80 0.5898
573.90 0.5894
574.00 0.589
574.10 0.5886
574.20 0.5882
574.30 0.5878
574.40 0.5874
574.50 0.587
574.60 0.5867
574.70 0.5863
574.80 0.5859
574.90 0.5855
575.00 0.5851
575.10 0.5847
575.20 0.5843
575.30 0.5839
575.40 0.5835
575.50 0.5831
575.60 0.5827
575.70 0.5824
575.80 0.582
575.90 0.5816
576.00 0.5812
576.10 0.5808
576.20 0.5804
576.30 0.58
576.40 0.5796
576.50 0.5793
576.60 0.5789
576.70 0.5785
576.80 0.5781
576.90 0.5777
577.00 0.5773
577.10 0.5769
577.20 0.5766
577.30 0.5762
577.40 0.5758
577.50 0.5754
577.60 0.575
577.70 0.5746
577.80 0.5743
577.90 0.5739
578.00 0.5735
578.10 0.5731
578.20 0.5727
578.30 0.5724
578.40 0.572
578.50 0.5716
578.60 0.5712
578.70 0.5708
578.80 0.5705
578.90 0.5701
579.00 0.5697
579.10 0.5693
579.20 0.5689
579.30 0.5686
579.40 0.5682
579.50 0.5678
579.60 0.5674
579.70 0.5671
579.80 0.5667
579.90 0.5663
580.00 0.5659
580.10 0.5656
580.20 0.5652
580.30 0.5648
580.40 0.5644
580.50 0.5641
580.60 0.5637
580.70 0.5633
580.80 0.5629
580.90 0.5626
581.00 0.5622
581.10 0.5618
581.20 0.5615
581.30 0.5611
581.40 0.5607
581.50 0.5603
581.60 0.56
581.70 0.5596
581.80 0.5592
581.90 0.5589
582.00 0.5585
582.10 0.5581
582.20 0.5577
582.30 0.5574
582.40 0.557
582.50 0.5566
582.60 0.5563
582.70 0.5559
582.80 0.5555
582.90 0.5552
583.00 0.5548
583.10 0.5544
583.20 0.5541
583.30 0.5537
583.40 0.5534
583.50 0.553
583.60 0.5526
583.70 0.5523
583.80 0.5519
583.90 0.5515
584.00 0.5512
584.10 0.5508
584.20 0.5504
584.30 0.5501
584.40 0.5497
584.50 0.5494
584.60 0.549
584.70 0.5486
584.80 0.5483
584.90 0.5479
585.00 0.5476
585.10 0.5472
585.20 0.5468
585.30 0.5465
585.40 0.5461
585.50 0.5458
585.60 0.5454
585.70 0.545
585.80 0.5447
585.90 0.5443
586.00 0.544
586.10 0.5436
586.20 0.5433
586.30 0.5429
586.40 0.5425
586.50 0.5422
586.60 0.5418
586.70 0.5415
586.80 0.5411
586.90 0.5408
587.00 0.5404
587.10 0.5401
587.20 0.5397
587.30 0.5394
587.40 0.539
587.50 0.5386
587.60 0.5383
587.70 0.5379
587.80 0.5376
587.90 0.5372
588.00 0.5369
588.10 0.5365
588.20 0.5362
588.30 0.5358
588.40 0.5355
588.50 0.5351
588.60 0.5348
588.70 0.5344
588.80 0.5341
588.90 0.5337
589.00 0.5334
589.10 0.533
589.20 0.5327
589.30 0.5323
589.40 0.532
589.50 0.5316
589.60 0.5313
589.70 0.531
589.80 0.5306
589.90 0.5303
590.00 0.5299
590.10 0.5296
590.20 0.5292
590.30 0.5289
590.40 0.5285
590.50 0.5282
590.60 0.5278
590.70 0.5275
590.80 0.5272
590.90 0.5268
591.00 0.5265
591.10 0.5261
591.20 0.5258
591.30 0.5254
591.40 0.5251
591.50 0.5248
591.60 0.5244
591.70 0.5241
591.80 0.5237
591.90 0.5234
592.00 0.5231
592.10 0.5227
592.20 0.5224
592.30 0.522
592.40 0.5217
592.50 0.5214
592.60 0.521
592.70 0.5207
592.80 0.5204
592.90 0.52
593.00 0.5197
593.10 0.5193
593.20 0.519
593.30 0.5187
593.40 0.5183
593.50 0.518
593.60 0.5177
593.70 0.5173
593.80 0.517
593.90 0.5167
594.00 0.5163
594.10 0.516
594.20 0.5156
594.30 0.5153
594.40 0.515
594.50 0.5146
594.60 0.5143
594.70 0.514
594.80 0.5136
594.90 0.5133
595.00 0.513
595.10 0.5127
595.20 0.5123
595.30 0.512
595.40 0.5117
595.50 0.5113
595.60 0.511
595.70 0.5107
595.80 0.5103
595.90 0.51
596.00 0.5097
596.10 0.5094
596.20 0.509
596.30 0.5087
596.40 0.5084
596.50 0.508
596.60 0.5077
596.70 0.5074
596.80 0.5071
596.90 0.5067
597.00 0.5064
597.10 0.5061
597.20 0.5058
597.30 0.5054
597.40 0.5051
597.50 0.5048
597.60 0.5044
597.70 0.5041
597.80 0.5038
597.90 0.5035
598.00 0.5032
598.10 0.5028
598.20 0.5025
598.30 0.5022
598.40 0.5019
598.50 0.5015
598.60 0.5012
598.70 0.5009
598.80 0.5006
598.90 0.5002
599.00 0.4999
599.10 0.4996
599.20 0.4993
599.30 0.499
599.40 0.4986
599.50 0.4983
599.60 0.498
599.70 0.4977
599.80 0.4974
599.90 0.497
600.00 0.4967
600.10 0.4964
600.20 0.4961
600.30 0.4958
600.40 0.4955
600.50 0.4951
600.60 0.4948
600.70 0.4945
600.80 0.4942
600.90 0.4939
601.00 0.4936
601.10 0.4932
601.20 0.4929
601.30 0.4926
601.40 0.4923
601.50 0.492
601.60 0.4917
601.70 0.4913
601.80 0.491
601.90 0.4907
602.00 0.4904
602.10 0.4901
602.20 0.4898
602.30 0.4895
602.40 0.4892
602.50 0.4888
602.60 0.4885
602.70 0.4882
602.80 0.4879
602.90 0.4876
603.00 0.4873
603.10 0.487
603.20 0.4867
603.30 0.4863
603.40 0.486
603.50 0.4857
603.60 0.4854
603.70 0.4851
603.80 0.4848
603.90 0.4845
604.00 0.4842
604.10 0.4839
604.20 0.4836
604.30 0.4833
604.40 0.483
604.50 0.4826
604.60 0.4823
604.70 0.482
604.80 0.4817
604.90 0.4814
605.00 0.4811
605.10 0.4808
605.20 0.4805
605.30 0.4802
605.40 0.4799
605.50 0.4796
605.60 0.4793
605.70 0.479
605.80 0.4787
605.90 0.4784
606.00 0.4781
606.10 0.4778
606.20 0.4775
606.30 0.4771
606.40 0.4768
606.50 0.4765
606.60 0.4762
606.70 0.4759
606.80 0.4756
606.90 0.4753
607.00 0.475
607.10 0.4747
607.20 0.4744
607.30 0.4741
607.40 0.4738
607.50 0.4735
607.60 0.4732
607.70 0.4729
607.80 0.4726
607.90 0.4723
608.00 0.472
608.10 0.4717
608.20 0.4714
608.30 0.4711
608.40 0.4708
608.50 0.4705
608.60 0.4702
608.70 0.4699
608.80 0.4696
608.90 0.4694
609.00 0.4691
609.10 0.4688
609.20 0.4685
609.30 0.4682
609.40 0.4679
609.50 0.4676
609.60 0.4673
609.70 0.467
609.80 0.4667
609.90 0.4664
610.00 0.4661
610.10 0.4658
610.20 0.4655
610.30 0.4652
610.40 0.4649
610.50 0.4646
610.60 0.4643
610.70 0.464
610.80 0.4638
610.90 0.4635
611.00 0.4632
611.10 0.4629
611.20 0.4626
611.30 0.4623
611.40 0.462
611.50 0.4617
611.60 0.4614
611.70 0.4611
611.80 0.4608
611.90 0.4606
612.00 0.4603
612.10 0.46
612.20 0.4597
612.30 0.4594
612.40 0.4591
612.50 0.4588
612.60 0.4585
612.70 0.4582
612.80 0.458
612.90 0.4577
613.00 0.4574
613.10 0.4571
613.20 0.4568
613.30 0.4565
613.40 0.4562
613.50 0.4559
613.60 0.4557
613.70 0.4554
613.80 0.4551
613.90 0.4548
614.00 0.4545
614.10 0.4542
614.20 0.4539
614.30 0.4537
614.40 0.4534
614.50 0.4531
614.60 0.4528
614.70 0.4525
614.80 0.4522
614.90 0.452
615.00 0.4517
615.10 0.4514
615.20 0.4511
615.30 0.4508
615.40 0.4505
615.50 0.4503
615.60 0.45
615.70 0.4497
615.80 0.4494
615.90 0.4491
616.00 0.4489
616.10 0.4486
616.20 0.4483
616.30 0.448
616.40 0.4477
616.50 0.4475
616.60 0.4472
616.70 0.4469
616.80 0.4466
616.90 0.4463
617.00 0.4461
617.10 0.4458
617.20 0.4455
617.30 0.4452
617.40 0.4449
617.50 0.4447
617.60 0.4444
617.70 0.4441
617.80 0.4438
617.90 0.4436
618.00 0.4433
618.10 0.443
618.20 0.4427
618.30 0.4425
618.40 0.4422
618.50 0.4419
618.60 0.4416
618.70 0.4414
618.80 0.4411
618.90 0.4408
619.00 0.4405
619.10 0.4403
619.20 0.44
619.30 0.4397
619.40 0.4394
619.50 0.4392
619.60 0.4389
619.70 0.4386
619.80 0.4383
619.90 0.4381
620.00 0.4378
620.10 0.4375
620.20 0.4373
620.30 0.437
620.40 0.4367
620.50 0.4364
620.60 0.4362
620.70 0.4359
620.80 0.4356
620.90 0.4354
621.00 0.4351
621.10 0.4348
621.20 0.4345
621.30 0.4343
621.40 0.434
621.50 0.4337
621.60 0.4335
621.70 0.4332
621.80 0.4329
621.90 0.4327
622.00 0.4324
622.10 0.4321
622.20 0.4319
622.30 0.4316
622.40 0.4313
622.50 0.4311
622.60 0.4308
622.70 0.4305
622.80 0.4303
622.90 0.43
623.00 0.4297
623.10 0.4295
623.20 0.4292
623.30 0.4289
623.40 0.4287
623.50 0.4284
623.60 0.4281
623.70 0.4279
623.80 0.4276
623.90 0.4273
624.00 0.4271
624.10 0.4268
624.20 0.4266
624.30 0.4263
624.40 0.426
624.50 0.4258
624.60 0.4255
624.70 0.4252
624.80 0.425
624.90 0.4247
625.00 0.4245
625.10 0.4242
625.20 0.4239
625.30 0.4237
625.40 0.4234
625.50 0.4231
625.60 0.4229
625.70 0.4226
625.80 0.4224
625.90 0.4221
626.00 0.4218
626.10 0.4216
626.20 0.4213
626.30 0.4211
626.40 0.4208
626.50 0.4205
626.60 0.4203
626.70 0.42
626.80 0.4198
626.90 0.4195
627.00 0.4193
627.10 0.419
627.20 0.4187
627.30 0.4185
627.40 0.4182
627.50 0.418
627.60 0.4177
627.70 0.4175
627.80 0.4172
627.90 0.4169
628.00 0.4167
628.10 0.4164
628.20 0.4162
628.30 0.4159
628.40 0.4157
628.50 0.4154
628.60 0.4152
628.70 0.4149
628.80 0.4146
628.90 0.4144
629.00 0.4141
629.10 0.4139
629.20 0.4136
629.30 0.4134
629.40 0.4131
629.50 0.4129
629.60 0.4126
629.70 0.4124
629.80 0.4121
629.90 0.4119
630.00 0.4116
630.10 0.4114
630.20 0.4111
630.30 0.4109
630.40 0.4106
630.50 0.4104
630.60 0.4101
630.70 0.4098
630.80 0.4096
630.90 0.4093
631.00 0.4091
631.10 0.4088
631.20 0.4086
631.30 0.4083
631.40 0.4081
631.50 0.4079
631.60 0.4076
631.70 0.4074
631.80 0.4071
631.90 0.4069
632.00 0.4066
632.10 0.4064
632.20 0.4061
632.30 0.4059
632.40 0.4056
632.50 0.4054
632.60 0.4051
632.70 0.4049
632.80 0.4046
632.90 0.4044
633.00 0.4041
633.10 0.4039
633.20 0.4036
633.30 0.4034
633.40 0.4031
633.50 0.4029
633.60 0.4027
633.70 0.4024
633.80 0.4022
633.90 0.4019
634.00 0.4017
634.10 0.4014
634.20 0.4012
634.30 0.4009
634.40 0.4007
634.50 0.4005
634.60 0.4002
634.70 0.4
634.80 0.3997
634.90 0.3995
635.00 0.3992
635.10 0.399
635.20 0.3988
635.30 0.3985
635.40 0.3983
635.50 0.398
635.60 0.3978
635.70 0.3975
635.80 0.3973
635.90 0.3971
636.00 0.3968
636.10 0.3966
636.20 0.3963
636.30 0.3961
636.40 0.3959
636.50 0.3956
636.60 0.3954
636.70 0.3951
636.80 0.3949
636.90 0.3947
637.00 0.3944
637.10 0.3942
637.20 0.3939
637.30 0.3937
637.40 0.3935
637.50 0.3932
637.60 0.393
637.70 0.3927
637.80 0.3925
637.90 0.3923
638.00 0.392
638.10 0.3918
638.20 0.3916
638.30 0.3913
638.40 0.3911
638.50 0.3908
638.60 0.3906
638.70 0.3904
638.80 0.3901
638.90 0.3899
639.00 0.3897
639.10 0.3894
639.20 0.3892
639.30 0.389
639.40 0.3887
639.50 0.3885
639.60 0.3882
639.70 0.388
639.80 0.3878
639.90 0.3875
640.00 0.3873
640.10 0.3871
640.20 0.3868
640.30 0.3866
640.40 0.3864
640.50 0.3861
640.60 0.3859
640.70 0.3857
640.80 0.3854
640.90 0.3852
641.00 0.385
641.10 0.3847
641.20 0.3845
641.30 0.3843
641.40 0.384
641.50 0.3838
641.60 0.3836
641.70 0.3833
641.80 0.3831
641.90 0.3829
642.00 0.3826
642.10 0.3824
642.20 0.3822
642.30 0.382
642.40 0.3817
642.50 0.3815
642.60 0.3813
642.70 0.381
642.80 0.3808
642.90 0.3806
643.00 0.3803
643.10 0.3801
643.20 0.3799
643.30 0.3796
643.40 0.3794
643.50 0.3792
643.60 0.379
643.70 0.3787
643.80 0.3785
643.90 0.3783
644.00 0.378
644.10 0.3778
644.20 0.3776
644.30 0.3773
644.40 0.3771
644.50 0.3769
644.60 0.3767
644.70 0.3764
644.80 0.3762
644.90 0.376
645.00 0.3757
645.10 0.3755
645.20 0.3753
645.30 0.3751
645.40 0.3748
645.50 0.3746
645.60 0.3744
645.70 0.3741
645.80 0.3739
645.90 0.3737
646.00 0.3735
646.10 0.3732
646.20 0.373
646.30 0.3728
646.40 0.3725
646.50 0.3723
646.60 0.3721
646.70 0.3719
646.80 0.3716
646.90 0.3714
647.00 0.3712
647.10 0.3709
647.20 0.3707
647.30 0.3705
647.40 0.3703
647.50 0.37
647.60 0.3698
647.70 0.3696
647.80 0.3693
647.90 0.3691
648.00 0.3689
648.10 0.3686
648.20 0.3684
648.30 0.3682
648.40 0.3679
648.50 0.3677
648.60 0.3675
648.70 0.3672
648.80 0.367
648.90 0.3668
649.00 0.3665
649.10 0.3663
649.20 0.3661
649.30 0.3658
649.40 0.3656
649.50 0.3654
649.60 0.3651
649.70 0.3649
649.80 0.3646
649.90 0.3644
650.00 0.3642
650.10 0.3639
650.20 0.3637
650.30 0.3634
650.40 0.3632
650.50 0.3629
650.60 0.3627
650.70 0.3624
650.80 0.3622
650.90 0.3619
651.00 0.3617
651.10 0.3614
651.20 0.3611
651.30 0.3609
651.40 0.3606
651.50 0.3603
651.60 0.36
651.70 0.3597
651.80 0.3594
651.90 0.3592
652.00 0.3589
652.10 0.3586
652.20 0.3583
652.30 0.358
652.40 0.3576
652.50 0.3572
652.60 0.3569
652.70 0.3565
652.80 0.3561
652.90 0.3558
653.00 0.3554
653.10 0.355
653.20 0.3547
653.30 0.3543
653.40 0.3537
653.50 0.3531
653.60 0.3525
653.70 0.3519
653.80 0.3513
653.90 0.3507
654.00 0.3501
654.10 0.3495
654.20 0.3489
654.30 0.3483
654.40 0.3473
654.50 0.3462
654.60 0.3452
654.70 0.3442
654.80 0.3431
654.90 0.3414
655.00 0.3398
655.10 0.3382
655.20 0.3365
655.30 0.3348
655.40 0.3323
655.50 0.3298
655.60 0.3266
655.70 0.3231
655.80 0.3183
655.90 0.3125
656.00 0.3024
656.10 0.2909
656.20 0.2762
656.30 0.2903
656.40 0.2779
656.50 0.2951
656.60 0.305
656.70 0.3138
656.80 0.3182
656.90 0.3223
657.00 0.3251
657.10 0.3277
657.20 0.3297
657.30 0.3316
657.40 0.3328
657.50 0.3341
657.60 0.3353
657.70 0.3365
657.80 0.3376
657.90 0.3382
658.00 0.3388
658.10 0.3394
658.20 0.34
658.30 0.3405
658.40 0.3407
658.50 0.3409
658.60 0.341
658.70 0.3412
658.80 0.3414
658.90 0.3415
659.00 0.3417
659.10 0.3419
659.20 0.3421
659.30 0.3422
659.40 0.3421
659.50 0.3421
659.60 0.342
659.70 0.342
659.80 0.3419
659.90 0.3419
660.00 0.3418
660.10 0.3418
660.20 0.3417
660.30 0.3417
660.40 0.3415
660.50 0.3414
660.60 0.3413
660.70 0.3411
660.80 0.341
660.90 0.3409
661.00 0.3408
661.10 0.3406
661.20 0.3405
661.30 0.3404
661.40 0.3402
661.50 0.34
661.60 0.3399
661.70 0.3397
661.80 0.3396
661.90 0.3394
662.00 0.3392
662.10 0.3391
662.20 0.3389
662.30 0.3388
662.40 0.3386
662.50 0.3384
662.60 0.3382
662.70 0.3381
662.80 0.3379
662.90 0.3377
663.00 0.3375
663.10 0.3374
663.20 0.3372
663.30 0.337
663.40 0.3368
663.50 0.3366
663.60 0.3365
663.70 0.3363
663.80 0.3361
663.90 0.3359
664.00 0.3357
664.10 0.3355
664.20 0.3354
664.30 0.3352
664.40 0.335
664.50 0.3348
664.60 0.3346
664.70 0.3344
664.80 0.3342
664.90 0.3341
665.00 0.3339
665.10 0.3337
665.20 0.3335
665.30 0.3333
665.40 0.3331
665.50 0.3329
665.60 0.3328
665.70 0.3326
665.80 0.3324
665.90 0.3322
666.00 0.332
666.10 0.3318
666.20 0.3316
666.30 0.3315
666.40 0.3313
666.50 0.3311
666.60 0.3309
666.70 0.3307
666.80 0.3305
666.90 0.3303
667.00 0.3301
667.10 0.33
667.20 0.3298
667.30 0.3296
667.40 0.3294
667.50 0.3292
667.60 0.329
667.70 0.3288
667.80 0.3287
667.90 0.3285
668.00 0.3283
668.10 0.3281
668.20 0.3279
668.30 0.3277
668.40 0.3275
668.50 0.3273
668.60 0.3272
668.70 0.327
668.80 0.3268
668.90 0.3266
669.00 0.3264
669.10 0.3262
669.20 0.326
669.30 0.3259
669.40 0.3257
669.50 0.3255
669.60 0.3253
669.70 0.3251
669.80 0.3249
669.90 0.3247
670.00 0.3246
670.10 0.3244
670.20 0.3242
670.30 0.324
670.40 0.3238
670.50 0.3236
670.60 0.3234
670.70 0.3233
670.80 0.3231
670.90 0.3229
671.00 0.3227
671.10 0.3225
671.20 0.3223
671.30 0.3222
671.40 0.322
671.50 0.3218
671.60 0.3216
671.70 0.3214
671.80 0.3212
671.90 0.3211
672.00 0.3209
672.10 0.3207
672.20 0.3205
672.30 0.3203
672.40 0.3201
672.50 0.32
672.60 0.3198
672.70 0.3196
672.80 0.3194
672.90 0.3192
673.00 0.319
673.10 0.3189
673.20 0.3187
673.30 0.3185
673.40 0.3183
673.50 0.3181
673.60 0.318
673.70 0.3178
673.80 0.3176
673.90 0.3174
674.00 0.3172
674.10 0.317
674.20 0.3169
674.30 0.3167
674.40 0.3165
674.50 0.3163
674.60 0.3161
674.70 0.316
674.80 0.3158
674.90 0.3156
675.00 0.3154
675.10 0.3152
675.20 0.3151
675.30 0.3149
675.40 0.3147
675.50 0.3145
675.60 0.3143
675.70 0.3142
675.80 0.314
675.90 0.3138
676.00 0.3136
676.10 0.3135
676.20 0.3133
676.30 0.3131
676.40 0.3129
676.50 0.3127
676.60 0.3126
676.70 0.3124
676.80 0.3122
676.90 0.312
677.00 0.3119
677.10 0.3117
677.20 0.3115
677.30 0.3113
677.40 0.3111
677.50 0.311
677.60 0.3108
677.70 0.3106
677.80 0.3104
677.90 0.3103
678.00 0.3101
678.10 0.3099
678.20 0.3097
678.30 0.3096
678.40 0.3094
678.50 0.3092
678.60 0.309
678.70 0.3089
678.80 0.3087
678.90 0.3085
679.00 0.3083
679.10 0.3082
679.20 0.308
679.30 0.3078
679.40 0.3076
679.50 0.3075
679.60 0.3073
679.70 0.3071
679.80 0.3069
679.90 0.3068
680.00 0.3066
680.10 0.3064
680.20 0.3062
680.30 0.3061
680.40 0.3059
680.50 0.3057
680.60 0.3055
680.70 0.3054
680.80 0.3052
680.90 0.305
681.00 0.3049
681.10 0.3047
681.20 0.3045
681.30 0.3043
681.40 0.3042
681.50 0.304
681.60 0.3038
681.70 0.3036
681.80 0.3035
681.90 0.3033
682.00 0.3031
682.10 0.303
682.20 0.3028
682.30 0.3026
682.40 0.3024
682.50 0.3023
682.60 0.3021
682.70 0.3019
682.80 0.3018
682.90 0.3016
683.00 0.3014
683.10 0.3013
683.20 0.3011
683.30 0.3009
683.40 0.3007
683.50 0.3006
683.60 0.3004
683.70 0.3002
683.80 0.3001
683.90 0.2999
684.00 0.2997
684.10 0.2996
684.20 0.2994
684.30 0.2992
684.40 0.2991
684.50 0.2989
684.60 0.2987
684.70 0.2985
684.80 0.2984
684.90 0.2982
685.00 0.298
685.10 0.2979
685.20 0.2977
685.30 0.2975
685.40 0.2974
685.50 0.2972
685.60 0.297
685.70 0.2969
685.80 0.2967
685.90 0.2965
686.00 0.2964
686.10 0.2962
686.20 0.296
686.30 0.2959
686.40 0.2957
686.50 0.2955
686.60 0.2954
686.70 0.2952
686.80 0.295
686.90 0.2949
687.00 0.2947
687.10 0.2945
687.20 0.2944
687.30 0.2942
687.40 0.294
687.50 0.2939
687.60 0.2937
687.70 0.2936
687.80 0.2934
687.90 0.2932
688.00 0.2931
688.10 0.2929
688.20 0.2927
688.30 0.2926
688.40 0.2924
688.50 0.2922
688.60 0.2921
688.70 0.2919
688.80 0.2917
688.90 0.2916
689.00 0.2914
689.10 0.2913
689.20 0.2911
689.30 0.2909
689.40 0.2908
689.50 0.2906
689.60 0.2904
689.70 0.2903
689.80 0.2901
689.90 0.29
690.00 0.2898
690.10 0.2896
690.20 0.2895
690.30 0.2893
690.40 0.2892
690.50 0.289
690.60 0.2888
690.70 0.2887
690.80 0.2885
690.90 0.2883
691.00 0.2882
691.10 0.288
691.20 0.2879
691.30 0.2877
691.40 0.2875
691.50 0.2874
691.60 0.2872
691.70 0.2871
691.80 0.2869
691.90 0.2867
692.00 0.2866
692.10 0.2864
692.20 0.2863
692.30 0.2861
692.40 0.2859
692.50 0.2858
692.60 0.2856
692.70 0.2855
692.80 0.2853
692.90 0.2851
693.00 0.285
693.10 0.2848
693.20 0.2847
693.30 0.2845
693.40 0.2844
693.50 0.2842
693.60 0.284
693.70 0.2839
693.80 0.2837
693.90 0.2836
694.00 0.2834
694.10 0.2832
694.20 0.2831
694.30 0.2829
694.40 0.2828
694.50 0.2826
694.60 0.2825
694.70 0.2823
694.80 0.2821
694.90 0.282
695.00 0.2818
695.10 0.2817
695.20 0.2815
695.30 0.2814
695.40 0.2812
695.50 0.281
695.60 0.2809
695.70 0.2807
695.80 0.2806
695.90 0.2804
696.00 0.2803
696.10 0.2801
696.20 0.28
696.30 0.2798
696.40 0.2797
696.50 0.2795
696.60 0.2793
696.70 0.2792
696.80 0.279
696.90 0.2789
697.00 0.2787
697.10 0.2786
697.20 0.2784
697.30 0.2783
697.40 0.2781
697.50 0.278
697.60 0.2778
697.70 0.2776
697.80 0.2775
697.90 0.2773
698.00 0.2772
698.10 0.277
698.20 0.2769
698.30 0.2767
698.40 0.2766
698.50 0.2764
698.60 0.2763
698.70 0.2761
698.80 0.276
698.90 0.2758
699.00 0.2757
699.10 0.2755
699.20 0.2753
699.30 0.2752
699.40 0.275
699.50 0.2749
699.60 0.2747
699.70 0.2746
699.80 0.2744
699.90 0.2743
700.00 0.2741
700.10 0.274
700.20 0.2738
700.30 0.2737
700.40 0.2735
700.50 0.2734
700.60 0.2732
700.70 0.2731
700.80 0.2729
700.90 0.2728
701.00 0.2726
701.10 0.2725
701.20 0.2723
701.30 0.2722
701.40 0.272
701.50 0.2719
701.60 0.2717
701.70 0.2716
701.80 0.2714
701.90 0.2713
702.00 0.2711
702.10 0.271
702.20 0.2708
702.30 0.2707
702.40 0.2705
702.50 0.2704
702.60 0.2702
702.70 0.2701
702.80 0.2699
702.90 0.2698
703.00 0.2696
703.10 0.2695
703.20 0.2694
703.30 0.2692
703.40 0.2691
703.50 0.2689
703.60 0.2688
703.70 0.2686
703.80 0.2685
703.90 0.2683
704.00 0.2682
704.10 0.268
704.20 0.2679
704.30 0.2677
704.40 0.2676
704.50 0.2674
704.60 0.2673
704.70 0.2671
704.80 0.267
704.90 0.2668
705.00 0.2667
705.10 0.2665
705.20 0.2664
705.30 0.2663
705.40 0.2661
705.50 0.266
705.60 0.2658
705.70 0.2657
705.80 0.2655
705.90 0.2654
706.00 0.2652
706.10 0.2651
706.20 0.265
706.30 0.2648
706.40 0.2647
706.50 0.2645
706.60 0.2644
706.70 0.2642
706.80 0.2641
706.90 0.2639
707.00 0.2638
707.10 0.2637
707.20 0.2635
707.30 0.2634
707.40 0.2632
707.50 0.2631
707.60 0.2629
707.70 0.2628
707.80 0.2627
707.90 0.2625
708.00 0.2624
708.10 0.2622
708.20 0.2621
708.30 0.2619
708.40 0.2618
708.50 0.2616
708.60 0.2615
708.70 0.2614
708.80 0.2612
708.90 0.2611
709.00 0.2609
709.10 0.2608
709.20 0.2606
709.30 0.2605
709.40 0.2604
709.50 0.2602
709.60 0.2601
709.70 0.2599
709.80 0.2598
709.90 0.2597
710.00 0.2595
710.10 0.2594
710.20 0.2592
710.30 0.2591
710.40 0.2589
710.50 0.2588
710.60 0.2587
710.70 0.2585
710.80 0.2584
710.90 0.2582
711.00 0.2581
711.10 0.258
711.20 0.2578
711.30 0.2577
711.40 0.2575
711.50 0.2574
711.60 0.2573
711.70 0.2571
711.80 0.257
711.90 0.2569
712.00 0.2567
712.10 0.2566
712.20 0.2564
712.30 0.2563
712.40 0.2562
712.50 0.256
712.60 0.2559
712.70 0.2557
712.80 0.2556
712.90 0.2555
713.00 0.2553
713.10 0.2552
713.20 0.255
713.30 0.2549
713.40 0.2548
713.50 0.2546
713.60 0.2545
713.70 0.2544
713.80 0.2542
713.90 0.2541
714.00 0.2539
714.10 0.2538
714.20 0.2537
714.30 0.2535
714.40 0.2534
714.50 0.2533
714.60 0.2531
714.70 0.253
714.80 0.2528
714.90 0.2527
715.00 0.2526
715.10 0.2524
715.20 0.2523
715.30 0.2522
715.40 0.252
715.50 0.2519
715.60 0.2518
715.70 0.2516
715.80 0.2515
715.90 0.2513
716.00 0.2512
716.10 0.2511
716.20 0.2509
716.30 0.2508
716.40 0.2507
716.50 0.2505
716.60 0.2504
716.70 0.2503
716.80 0.2501
716.90 0.25
717.00 0.2499
717.10 0.2497
717.20 0.2496
717.30 0.2495
717.40 0.2493
717.50 0.2492
717.60 0.2491
717.70 0.2489
717.80 0.2488
717.90 0.2487
718.00 0.2485
718.10 0.2484
718.20 0.2483
718.30 0.2481
718.40 0.248
718.50 0.2479
718.60 0.2477
718.70 0.2476
718.80 0.2475
718.90 0.2473
719.00 0.2472
719.10 0.2471
719.20 0.2469
719.30 0.2468
719.40 0.2467
719.50 0.2465
719.60 0.2464
719.70 0.2463
719.80 0.2461
719.90 0.246
720.00 0.2459
720.10 0.2457
720.20 0.2456
720.30 0.2455
720.40 0.2453
720.50 0.2452
720.60 0.2451
720.70 0.2449
720.80 0.2448
720.90 0.2447
721.00 0.2445
721.10 0.2444
721.20 0.2443
721.30 0.2442
721.40 0.244
721.50 0.2439
721.60 0.2438
721.70 0.2436
721.80 0.2435
721.90 0.2434
722.00 0.2432
722.10 0.2431
722.20 0.243
722.30 0.2428
722.40 0.2427
722.50 0.2426
722.60 0.2425
722.70 0.2423
722.80 0.2422
722.90 0.2421
723.00 0.2419
723.10 0.2418
723.20 0.2417
723.30 0.2416
723.40 0.2414
723.50 0.2413
723.60 0.2412
723.70 0.241
723.80 0.2409
723.90 0.2408
724.00 0.2406
724.10 0.2405
724.20 0.2404
724.30 0.2403
724.40 0.2401
724.50 0.24
724.60 0.2399
724.70 0.2397
724.80 0.2396
724.90 0.2395
725.00 0.2394
725.10 0.2392
725.20 0.2391
725.30 0.239
725.40 0.2389
725.50 0.2387
725.60 0.2386
725.70 0.2385
725.80 0.2383
725.90 0.2382
726.00 0.2381
726.10 0.238
726.20 0.2378
726.30 0.2377
726.40 0.2376
726.50 0.2375
726.60 0.2373
726.70 0.2372
726.80 0.2371
726.90 0.237
727.00 0.2368
727.10 0.2367
727.20 0.2366
727.30 0.2365
727.40 0.2363
727.50 0.2362
727.60 0.2361
727.70 0.236
727.80 0.2358
727.90 0.2357
728.00 0.2356
728.10 0.2355
728.20 0.2353
728.30 0.2352
728.40 0.2351
728.50 0.235
728.60 0.2348
728.70 0.2347
728.80 0.2346
728.90 0.2345
729.00 0.2343
729.10 0.2342
729.20 0.2341
729.30 0.234
729.40 0.2338
729.50 0.2337
729.60 0.2336
729.70 0.2335
729.80 0.2333
729.90 0.2332
730.00 0.2331
730.10 0.233
730.20 0.2328
730.30 0.2327
730.40 0.2326
730.50 0.2325
730.60 0.2324
730.70 0.2322
730.80 0.2321
730.90 0.232
731.00 0.2319
731.10 0.2317
731.20 0.2316
731.30 0.2315
731.40 0.2314
731.50 0.2313
731.60 0.2311
731.70 0.231
731.80 0.2309
731.90 0.2308
732.00 0.2307
732.10 0.2305
732.20 0.2304
732.30 0.2303
732.40 0.2302
732.50 0.23
732.60 0.2299
732.70 0.2298
732.80 0.2297
732.90 0.2296
733.00 0.2294
733.10 0.2293
733.20 0.2292
733.30 0.2291
733.40 0.229
733.50 0.2288
733.60 0.2287
733.70 0.2286
733.80 0.2285
733.90 0.2284
734.00 0.2282
734.10 0.2281
734.20 0.228
734.30 0.2279
734.40 0.2278
734.50 0.2276
734.60 0.2275
734.70 0.2274
734.80 0.2273
734.90 0.2272
735.00 0.227
735.10 0.2269
735.20 0.2268
735.30 0.2267
735.40 0.2266
735.50 0.2264
735.60 0.2263
735.70 0.2262
735.80 0.2261
735.90 0.226
736.00 0.2259
736.10 0.2257
736.20 0.2256
736.30 0.2255
736.40 0.2254
736.50 0.2253
736.60 0.2251
736.70 0.225
736.80 0.2249
736.90 0.2248
737.00 0.2247
737.10 0.2245
737.20 0.2244
737.30 0.2243
737.40 0.2242
737.50 0.2241
737.60 0.224
737.70 0.2238
737.80 0.2237
737.90 0.2236
738.00 0.2235
738.10 0.2234
738.20 0.2232
738.30 0.2231
738.40 0.223
738.50 0.2229
738.60 0.2228
738.70 0.2227
738.80 0.2225
738.90 0.2224
739.00 0.2223
739.10 0.2222
739.20 0.2221
739.30 0.222
739.40 0.2218
739.50 0.2217
739.60 0.2216
739.70 0.2215
739.80 0.2214
739.90 0.2213
740.00 0.2211
740.10 0.221
740.20 0.2209
740.30 0.2208
740.40 0.2207
740.50 0.2206
740.60 0.2205
740.70 0.2203
740.80 0.2202
740.90 0.2201
741.00 0.22
741.10 0.2199
741.20 0.2198
741.30 0.2197
741.40 0.2195
741.50 0.2194
741.60 0.2193
741.70 0.2192
741.80 0.2191
741.90 0.219
742.00 0.2189
742.10 0.2187
742.20 0.2186
742.30 0.2185
742.40 0.2184
742.50 0.2183
742.60 0.2182
742.70 0.2181
742.80 0.218
742.90 0.2178
743.00 0.2177
743.10 0.2176
743.20 0.2175
743.30 0.2174
743.40 0.2173
743.50 0.2172
743.60 0.2171
743.70 0.2169
743.80 0.2168
743.90 0.2167
744.00 0.2166
744.10 0.2165
744.20 0.2164
744.30 0.2163
744.40 0.2162
744.50 0.216
744.60 0.2159
744.70 0.2158
744.80 0.2157
744.90 0.2156
745.00 0.2155
745.10 0.2154
745.20 0.2153
745.30 0.2151
745.40 0.215
745.50 0.2149
745.60 0.2148
745.70 0.2147
745.80 0.2146
745.90 0.2145
746.00 0.2144
746.10 0.2143
746.20 0.2141
746.30 0.214
746.40 0.2139
746.50 0.2138
746.60 0.2137
746.70 0.2136
746.80 0.2135
746.90 0.2134
747.00 0.2133
747.10 0.2131
747.20 0.213
747.30 0.2129
747.40 0.2128
747.50 0.2127
747.60 0.2126
747.70 0.2125
747.80 0.2124
747.90 0.2123
748.00 0.2121
748.10 0.212
748.20 0.2119
748.30 0.2118
748.40 0.2117
748.50 0.2116
748.60 0.2115
748.70 0.2114
748.80 0.2113
748.90 0.2112
749.00 0.211
749.10 0.2109
749.20 0.2108
749.30 0.2107
749.40 0.2106
749.50 0.2105
749.60 0.2104
749.70 0.2103
749.80 0.2102
749.90 0.2101
750.00 0.2099
750.10 0.2098
750.20 0.2097
750.30 0.2096
750.40 0.2095
750.50 0.2094
750.60 0.2093
750.70 0.2092
750.80 0.2091
750.90 0.209
751.00 0.2089
751.10 0.2088
751.20 0.2087
751.30 0.2086
751.40 0.2085
751.50 0.2083
751.60 0.2082
751.70 0.2081
751.80 0.208
751.90 0.2079
752.00 0.2078
752.10 0.2077
752.20 0.2076
752.30 0.2075
752.40 0.2074
752.50 0.2073
752.60 0.2072
752.70 0.2071
752.80 0.207
752.90 0.2069
753.00 0.2068
753.10 0.2066
753.20 0.2065
753.30 0.2064
753.40 0.2063
753.50 0.2062
753.60 0.2061
753.70 0.206
753.80 0.2059
753.90 0.2058
754.00 0.2057
754.10 0.2056
754.20 0.2055
754.30 0.2054
754.40 0.2053
754.50 0.2052
754.60 0.2051
754.70 0.205
754.80 0.2049
754.90 0.2047
755.00 0.2046
755.10 0.2045
755.20 0.2044
755.30 0.2043
755.40 0.2042
755.50 0.2041
755.60 0.204
755.70 0.2039
755.80 0.2038
755.90 0.2037
756.00 0.2036
756.10 0.2035
756.20 0.2034
756.30 0.2033
756.40 0.2032
756.50 0.2031
756.60 0.203
756.70 0.2029
756.80 0.2028
756.90 0.2027
757.00 0.2026
757.10 0.2025
757.20 0.2023
757.30 0.2022
757.40 0.2021
757.50 0.202
757.60 0.2019
757.70 0.2018
757.80 0.2017
757.90 0.2016
758.00 0.2015
758.10 0.2014
758.20 0.2013
758.30 0.2012
758.40 0.2011
758.50 0.201
758.60 0.2009
758.70 0.2008
758.80 0.2007
758.90 0.2006
759.00 0.2005
759.10 0.2004
759.20 0.2003
759.30 0.2002
759.40 0.2001
759.50 0.2
759.60 0.1999
759.70 0.1998
759.80 0.1997
759.90 0.1996
760.00 0.1995
760.10 0.1994
760.20 0.1993
760.30 0.1992
760.40 0.1991
760.50 0.199
760.60 0.1989
760.70 0.1988
760.80 0.1987
760.90 0.1986
761.00 0.1985
761.10 0.1984
761.20 0.1983
761.30 0.1982
761.40 0.1981
761.50 0.198
761.60 0.1979
761.70 0.1978
761.80 0.1977
761.90 0.1976
762.00 0.1975
762.10 0.1974
762.20 0.1973
762.30 0.1972
762.40 0.1971
762.50 0.197
762.60 0.1969
762.70 0.1968
762.80 0.1967
762.90 0.1966
763.00 0.1965
763.10 0.1964
763.20 0.1963
763.30 0.1962
763.40 0.1961
763.50 0.196
763.60 0.1959
763.70 0.1958
763.80 0.1957
763.90 0.1956
764.00 0.1955
764.10 0.1954
764.20 0.1953
764.30 0.1952
764.40 0.1951
764.50 0.195
764.60 0.1949
764.70 0.1948
764.80 0.1947
764.90 0.1946
765.00 0.1945
765.10 0.1944
765.20 0.1943
765.30 0.1942
765.40 0.1941
765.50 0.194
765.60 0.1939
765.70 0.1938
765.80 0.1937
765.90 0.1936
766.00 0.1935
766.10 0.1934
766.20 0.1933
766.30 0.1932
766.40 0.1931
766.50 0.193
766.60 0.1929
766.70 0.1928
766.80 0.1927
766.90 0.1926
767.00 0.1925
767.10 0.1924
767.20 0.1923
767.30 0.1922
767.40 0.1921
767.50 0.192
767.60 0.1919
767.70 0.1918
767.80 0.1917
767.90 0.1916
768.00 0.1915
768.10 0.1915
768.20 0.1914
768.30 0.1913
768.40 0.1912
768.50 0.1911
768.60 0.191
768.70 0.1909
768.80 0.1908
768.90 0.1907
769.00 0.1906
769.10 0.1905
769.20 0.1904
769.30 0.1903
769.40 0.1902
769.50 0.1901
769.60 0.19
769.70 0.1899
769.80 0.1898
769.90 0.1897
770.00 0.1896
770.10 0.1895
770.20 0.1894
770.30 0.1893
770.40 0.1892
770.50 0.1891
770.60 0.1891
770.70 0.189
770.80 0.1889
770.90 0.1888
771.00 0.1887
771.10 0.1886
771.20 0.1885
771.30 0.1884
771.40 0.1883
771.50 0.1882
771.60 0.1881
771.70 0.188
771.80 0.1879
771.90 0.1878
772.00 0.1877
772.10 0.1876
772.20 0.1875
772.30 0.1875
772.40 0.1874
772.50 0.1873
772.60 0.1872
772.70 0.1871
772.80 0.187
772.90 0.1869
773.00 0.1868
773.10 0.1867
773.20 0.1866
773.30 0.1865
773.40 0.1864
773.50 0.1863
773.60 0.1862
773.70 0.1861
773.80 0.1861
773.90 0.186
774.00 0.1859
774.10 0.1858
774.20 0.1857
774.30 0.1856
774.40 0.1855
774.50 0.1854
774.60 0.1853
774.70 0.1852
774.80 0.1851
774.90 0.185
775.00 0.1849
775.10 0.1849
775.20 0.1848
775.30 0.1847
775.40 0.1846
775.50 0.1845
775.60 0.1844
775.70 0.1843
775.80 0.1842
775.90 0.1841
776.00 0.184
776.10 0.1839
776.20 0.1838
776.30 0.1837
776.40 0.1837
776.50 0.1836
776.60 0.1835
776.70 0.1834
776.80 0.1833
776.90 0.1832
777.00 0.1831
777.10 0.183
777.20 0.1829
777.30 0.1828
777.40 0.1827
777.50 0.1826
777.60 0.1826
777.70 0.1825
777.80 0.1824
777.90 0.1823
778.00 0.1822
778.10 0.1821
778.20 0.182
778.30 0.1819
778.40 0.1818
778.50 0.1817
778.60 0.1816
778.70 0.1816
778.80 0.1815
778.90 0.1814
779.00 0.1813
779.10 0.1812
779.20 0.1811
779.30 0.181
779.40 0.1809
779.50 0.1808
779.60 0.1807
779.70 0.1806
779.80 0.1806
779.90 0.1805
780.00 0.1804
780.10 0.1803
780.20 0.1802
780.30 0.1801
780.40 0.18
780.50 0.1799
780.60 0.1798
780.70 0.1798
780.80 0.1797
780.90 0.1796
781.00 0.1795
781.10 0.1794
781.20 0.1793
781.30 0.1792
781.40 0.1791
781.50 0.179
781.60 0.179
781.70 0.1789
781.80 0.1788
781.90 0.1787
782.00 0.1786
782.10 0.1785
782.20 0.1784
782.30 0.1783
782.40 0.1783
782.50 0.1782
782.60 0.1781
782.70 0.178
782.80 0.1779
782.90 0.1778
783.00 0.1777
783.10 0.1776
783.20 0.1776
783.30 0.1775
783.40 0.1774
783.50 0.1773
783.60 0.1772
783.70 0.1771
783.80 0.177
783.90 0.1769
784.00 0.1769
784.10 0.1768
784.20 0.1767
784.30 0.1766
784.40 0.1765
784.50 0.1764
784.60 0.1763
784.70 0.1762
784.80 0.1762
784.90 0.1761
785.00 0.176
785.10 0.1759
785.20 0.1758
785.30 0.1757
785.40 0.1756
785.50 0.1756
785.60 0.1755
785.70 0.1754
785.80 0.1753
785.90 0.1752
786.00 0.1751
786.10 0.175
786.20 0.1749
786.30 0.1749
786.40 0.1748
786.50 0.1747
786.60 0.1746
786.70 0.1745
786.80 0.1744
786.90 0.1743
787.00 0.1743
787.10 0.1742
787.20 0.1741
787.30 0.174
787.40 0.1739
787.50 0.1738
787.60 0.1737
787.70 0.1737
787.80 0.1736
787.90 0.1735
788.00 0.1734
788.10 0.1733
788.20 0.1732
788.30 0.1731
788.40 0.1731
788.50 0.173
788.60 0.1729
788.70 0.1728
788.80 0.1727
788.90 0.1726
789.00 0.1725
789.10 0.1725
789.20 0.1724
789.30 0.1723
789.40 0.1722
789.50 0.1721
789.60 0.172
789.70 0.1719
789.80 0.1719
789.90 0.1718
790.00 0.1717
790.10 0.1716
790.20 0.1715
790.30 0.1714
790.40 0.1714
790.50 0.1713
790.60 0.1712
790.70 0.1711
790.80 0.171
790.90 0.1709
791.00 0.1709
791.10 0.1708
791.20 0.1707
791.30 0.1706
791.40 0.1705
791.50 0.1704
791.60 0.1704
791.70 0.1703
791.80 0.1702
791.90 0.1701
792.00 0.17
792.10 0.1699
792.20 0.1699
792.30 0.1698
792.40 0.1697
792.50 0.1696
792.60 0.1695
792.70 0.1695
792.80 0.1694
792.90 0.1693
793.00 0.1692
793.10 0.1691
793.20 0.169
793.30 0.169
793.40 0.1689
793.50 0.1688
793.60 0.1687
793.70 0.1686
793.80 0.1685
793.90 0.1685
794.00 0.1684
794.10 0.1683
794.20 0.1682
794.30 0.1681
794.40 0.1681
794.50 0.168
794.60 0.1679
794.70 0.1678
794.80 0.1677
794.90 0.1676
795.00 0.1676
795.10 0.1675
795.20 0.1674
795.30 0.1673
795.40 0.1672
795.50 0.1672
795.60 0.1671
795.70 0.167
795.80 0.1669
795.90 0.1668
796.00 0.1667
796.10 0.1667
796.20 0.1666
796.30 0.1665
796.40 0.1664
796.50 0.1663
796.60 0.1663
796.70 0.1662
796.80 0.1661
796.90 0.166
797.00 0.1659
797.10 0.1659
797.20 0.1658
797.30 0.1657
797.40 0.1656
797.50 0.1655
797.60 0.1655
797.70 0.1654
797.80 0.1653
797.90 0.1652
798.00 0.1651
798.10 0.165
798.20 0.165
798.30 0.1649
798.40 0.1648
798.50 0.1647
798.60 0.1646
798.70 0.1646
798.80 0.1645
798.90 0.1644
799.00 0.1643
799.10 0.1642
799.20 0.1642
799.30 0.1641
799.40 0.164
799.50 0.1639
799.60 0.1638
799.70 0.1638
799.80 0.1637
799.90 0.1636
800.00 0.1635
800.10 0.1634
800.20 0.1634
800.30 0.1633
800.40 0.1632
800.50 0.1631
800.60 0.1631
800.70 0.163
800.80 0.1629
800.90 0.1628
801.00 0.1627
801.10 0.1627
801.20 0.1626
801.30 0.1625
801.40 0.1624
801.50 0.1624
801.60 0.1623
801.70 0.1622
801.80 0.1621
801.90 0.162
802.00 0.162
802.10 0.1619
802.20 0.1618
802.30 0.1617
802.40 0.1616
802.50 0.1616
802.60 0.1615
802.70 0.1614
802.80 0.1613
802.90 0.1613
803.00 0.1612
803.10 0.1611
803.20 0.161
803.30 0.161
803.40 0.1609
803.50 0.1608
803.60 0.1607
803.70 0.1606
803.80 0.1606
803.90 0.1605
804.00 0.1604
804.10 0.1603
804.20 0.1603
804.30 0.1602
804.40 0.1601
804.50 0.16
804.60 0.1599
804.70 0.1599
804.80 0.1598
804.90 0.1597
805.00 0.1596
805.10 0.1596
805.20 0.1595
805.30 0.1594
805.40 0.1593
805.50 0.1593
805.60 0.1592
805.70 0.1591
805.80 0.159
805.90 0.159
806.00 0.1589
806.10 0.1588
806.20 0.1587
806.30 0.1586
806.40 0.1586
806.50 0.1585
806.60 0.1584
806.70 0.1583
806.80 0.1583
806.90 0.1582
807.00 0.1581
807.10 0.158
807.20 0.158
807.30 0.1579
807.40 0.1578
807.50 0.1577
807.60 0.1577
807.70 0.1576
807.80 0.1575
807.90 0.1574
808.00 0.1573
808.10 0.1573
808.20 0.1572
808.30 0.1571
808.40 0.157
808.50 0.157
808.60 0.1569
808.70 0.1568
808.80 0.1567
808.90 0.1567
809.00 0.1566
809.10 0.1565
809.20 0.1564
809.30 0.1564
809.40 0.1563
809.50 0.1562
809.60 0.1561
809.70 0.1561
809.80 0.156
809.90 0.1559
810.00 0.1558
810.10 0.1558
810.20 0.1557
810.30 0.1556
810.40 0.1555
810.50 0.1555
810.60 0.1554
810.70 0.1553
810.80 0.1552
810.90 0.1552
811.00 0.1551
811.10 0.155
811.20 0.155
811.30 0.1549
811.40 0.1548
811.50 0.1547
811.60 0.1547
811.70 0.1546
811.80 0.1545
811.90 0.1544
812.00 0.1544
812.10 0.1543
812.20 0.1542
812.30 0.1541
812.40 0.1541
812.50 0.154
812.60 0.1539
812.70 0.1539
812.80 0.1538
812.90 0.1537
813.00 0.1536
813.10 0.1536
813.20 0.1535
813.30 0.1534
813.40 0.1533
813.50 0.1533
813.60 0.1532
813.70 0.1531
813.80 0.1531
813.90 0.153
814.00 0.1529
814.10 0.1528
814.20 0.1528
814.30 0.1527
814.40 0.1526
814.50 0.1525
814.60 0.1525
814.70 0.1524
814.80 0.1523
814.90 0.1523
815.00 0.1522
815.10 0.1521
815.20 0.152
815.30 0.152
815.40 0.1519
815.50 0.1518
815.60 0.1517
815.70 0.1517
815.80 0.1516
815.90 0.1515
816.00 0.1515
816.10 0.1514
816.20 0.1513
816.30 0.1512
816.40 0.1512
816.50 0.1511
816.60 0.151
816.70 0.151
816.80 0.1509
816.90 0.1508
817.00 0.1507
817.10 0.1507
817.20 0.1506
817.30 0.1505
817.40 0.1505
817.50 0.1504
817.60 0.1503
817.70 0.1502
817.80 0.1502
817.90 0.1501
818.00 0.15
818.10 0.15
818.20 0.1499
818.30 0.1498
818.40 0.1497
818.50 0.1497
818.60 0.1496
818.70 0.1495
818.80 0.1495
818.90 0.1494
819.00 0.1493
819.10 0.1492
819.20 0.1492
819.30 0.1491
819.40 0.149
819.50 0.149
819.60 0.1489
819.70 0.1488
819.80 0.1487
819.90 0.1487
820.00 0.1486
820.10 0.1485
820.20 0.1485
820.30 0.1484
820.40 0.1483
820.50 0.1483
820.60 0.1482
820.70 0.1481
820.80 0.148
820.90 0.148
821.00 0.1479
821.10 0.1478
821.20 0.1478
821.30 0.1477
821.40 0.1476
821.50 0.1476
821.60 0.1475
821.70 0.1474
821.80 0.1473
821.90 0.1473
822.00 0.1472
822.10 0.1471
822.20 0.1471
822.30 0.147
822.40 0.1469
822.50 0.1469
822.60 0.1468
822.70 0.1467
822.80 0.1467
822.90 0.1466
823.00 0.1465
823.10 0.1464
823.20 0.1464
823.30 0.1463
823.40 0.1462
823.50 0.1462
823.60 0.1461
823.70 0.146
823.80 0.146
823.90 0.1459
824.00 0.1458
824.10 0.1458
824.20 0.1457
824.30 0.1456
824.40 0.1456
824.50 0.1455
824.60 0.1454
824.70 0.1453
824.80 0.1453
824.90 0.1452
825.00 0.1451
825.10 0.1451
825.20 0.145
825.30 0.1449
825.40 0.1449
825.50 0.1448
825.60 0.1447
825.70 0.1447
825.80 0.1446
825.90 0.1445
826.00 0.1445
826.10 0.1444
826.20 0.1443
826.30 0.1443
826.40 0.1442
826.50 0.1441
826.60 0.1441
826.70 0.144
826.80 0.1439
826.90 0.1439
827.00 0.1438
827.10 0.1437
827.20 0.1436
827.30 0.1436
827.40 0.1435
827.50 0.1434
827.60 0.1434
827.70 0.1433
827.80 0.1432
827.90 0.1432
828.00 0.1431
828.10 0.143
828.20 0.143
828.30 0.1429
828.40 0.1428
828.50 0.1428
828.60 0.1427
828.70 0.1426
828.80 0.1426
828.90 0.1425
829.00 0.1424
829.10 0.1424
829.20 0.1423
829.30 0.1422
829.40 0.1422
829.50 0.1421
829.60 0.142
829.70 0.142
829.80 0.1419
829.90 0.1418
830.00 0.1418
830.10 0.1417
830.20 0.1416
830.30 0.1416
830.40 0.1415
830.50 0.1414
830.60 0.1414
830.70 0.1413
830.80 0.1413
830.90 0.1412
831.00 0.1411
831.10 0.1411
831.20 0.141
831.30 0.1409
831.40 0.1409
831.50 0.1408
831.60 0.1407
831.70 0.1407
831.80 0.1406
831.90 0.1405
832.00 0.1405
832.10 0.1404
832.20 0.1403
832.30 0.1403
832.40 0.1402
832.50 0.1401
832.60 0.1401
832.70 0.14
832.80 0.1399
832.90 0.1399
833.00 0.1398
833.10 0.1397
833.20 0.1397
833.30 0.1396
833.40 0.1395
833.50 0.1395
833.60 0.1394
833.70 0.1394
833.80 0.1393
833.90 0.1392
834.00 0.1392
834.10 0.1391
834.20 0.139
834.30 0.139
834.40 0.1389
834.50 0.1388
834.60 0.1388
834.70 0.1387
834.80 0.1386
834.90 0.1386
835.00 0.1385
835.10 0.1384
835.20 0.1384
835.30 0.1383
835.40 0.1383
835.50 0.1382
835.60 0.1381
835.70 0.1381
835.80 0.138
835.90 0.1379
836.00 0.1379
836.10 0.1378
836.20 0.1377
836.30 0.1377
836.40 0.1376
836.50 0.1375
836.60 0.1375
836.70 0.1374
836.80 0.1374
836.90 0.1373
837.00 0.1372
837.10 0.1372
837.20 0.1371
837.30 0.137
837.40 0.137
837.50 0.1369
837.60 0.1368
837.70 0.1368
837.80 0.1367
837.90 0.1367
838.00 0.1366
838.10 0.1365
838.20 0.1365
838.30 0.1364
838.40 0.1363
838.50 0.1363
838.60 0.1362
838.70 0.1361
838.80 0.1361
838.90 0.136
839.00 0.136
839.10 0.1359
839.20 0.1358
839.30 0.1358
839.40 0.1357
839.50 0.1356
839.60 0.1356
839.70 0.1355
839.80 0.1355
839.90 0.1354
840.00 0.1353
840.10 0.1353
840.20 0.1352
840.30 0.1351
840.40 0.1351
840.50 0.135
840.60 0.135
840.70 0.1349
840.80 0.1348
840.90 0.1348
841.00 0.1347
841.10 0.1346
841.20 0.1346
841.30 0.1345
841.40 0.1345
841.50 0.1344
841.60 0.1343
841.70 0.1343
841.80 0.1342
841.90 0.1341
842.00 0.1341
842.10 0.134
842.20 0.134
842.30 0.1339
842.40 0.1338
842.50 0.1338
842.60 0.1337
842.70 0.1337
842.80 0.1336
842.90 0.1335
843.00 0.1335
843.10 0.1334
843.20 0.1333
843.30 0.1333
843.40 0.1332
843.50 0.1332
843.60 0.1331
843.70 0.133
843.80 0.133
843.90 0.1329
844.00 0.1329
844.10 0.1328
844.20 0.1327
844.30 0.1327
844.40 0.1326
844.50 0.1326
844.60 0.1325
844.70 0.1324
844.80 0.1324
844.90 0.1323
845.00 0.1322
845.10 0.1322
845.20 0.1321
845.30 0.1321
845.40 0.132
845.50 0.1319
845.60 0.1319
845.70 0.1318
845.80 0.1318
845.90 0.1317
846.00 0.1316
846.10 0.1316
846.20 0.1315
846.30 0.1315
846.40 0.1314
846.50 0.1313
846.60 0.1313
846.70 0.1312
846.80 0.1312
846.90 0.1311
847.00 0.131
847.10 0.131
847.20 0.1309
847.30 0.1309
847.40 0.1308
847.50 0.1307
847.60 0.1307
847.70 0.1306
847.80 0.1306
847.90 0.1305
848.00 0.1304
848.10 0.1304
848.20 0.1303
848.30 0.1303
848.40 0.1302
848.50 0.1301
848.60 0.1301
848.70 0.13
848.80 0.13
848.90 0.1299
849.00 0.1298
849.10 0.1298
849.20 0.1297
849.30 0.1297
849.40 0.1296
849.50 0.1295
849.60 0.1295
849.70 0.1294
849.80 0.1294
849.90 0.1293
850.00 0.1292
850.10 0.1292
850.20 0.1291
850.30 0.1291
850.40 0.129
850.50 0.129
850.60 0.1289
850.70 0.1288
850.80 0.1288
850.90 0.1287
851.00 0.1287
851.10 0.1286
851.20 0.1285
851.30 0.1285
851.40 0.1284
851.50 0.1284
851.60 0.1283
851.70 0.1282
851.80 0.1282
851.90 0.1281
852.00 0.1281
852.10 0.128
852.20 0.128
852.30 0.1279
852.40 0.1278
852.50 0.1278
852.60 0.1277
852.70 0.1277
852.80 0.1276
852.90 0.1275
853.00 0.1275
853.10 0.1274
853.20 0.1274
853.30 0.1273
853.40 0.1273
853.50 0.1272
853.60 0.1271
853.70 0.1271
853.80 0.127
853.90 0.127
854.00 0.1269
854.10 0.1269
854.20 0.1268
854.30 0.1267
854.40 0.1267
854.50 0.1266
854.60 0.1266
854.70 0.1265
854.80 0.1264
854.90 0.1264
855.00 0.1263
855.10 0.1263
855.20 0.1262
855.30 0.1262
855.40 0.1261
855.50 0.126
855.60 0.126
855.70 0.1259
855.80 0.1259
855.90 0.1258
856.00 0.1258
856.10 0.1257
856.20 0.1256
856.30 0.1256
856.40 0.1255
856.50 0.1255
856.60 0.1254
856.70 0.1254
856.80 0.1253
856.90 0.1252
857.00 0.1252
857.10 0.1251
857.20 0.1251
857.30 0.125
857.40 0.125
857.50 0.1249
857.60 0.1249
857.70 0.1248
857.80 0.1247
857.90 0.1247
858.00 0.1246
858.10 0.1246
858.20 0.1245
858.30 0.1245
858.40 0.1244
858.50 0.1243
858.60 0.1243
858.70 0.1242
858.80 0.1242
858.90 0.1241
859.00 0.1241
859.10 0.124
859.20 0.124
859.30 0.1239
859.40 0.1238
859.50 0.1238
859.60 0.1237
859.70 0.1237
859.80 0.1236
859.90 0.1236
860.00 0.1235
860.10 0.1235
860.20 0.1234
860.30 0.1233
860.40 0.1233
860.50 0.1232
860.60 0.1232
860.70 0.1231
860.80 0.1231
860.90 0.123
861.00 0.123
861.10 0.1229
861.20 0.1228
861.30 0.1228
861.40 0.1227
861.50 0.1227
861.60 0.1226
861.70 0.1226
861.80 0.1225
861.90 0.1225
862.00 0.1224
862.10 0.1223
862.20 0.1223
862.30 0.1222
862.40 0.1222
862.50 0.1221
862.60 0.1221
862.70 0.122
862.80 0.122
862.90 0.1219
863.00 0.1219
863.10 0.1218
863.20 0.1217
863.30 0.1217
863.40 0.1216
863.50 0.1216
863.60 0.1215
863.70 0.1215
863.80 0.1214
863.90 0.1214
864.00 0.1213
864.10 0.1213
864.20 0.1212
864.30 0.1211
864.40 0.1211
864.50 0.121
864.60 0.121
864.70 0.1209
864.80 0.1209
864.90 0.1208
865.00 0.1208
865.10 0.1207
865.20 0.1207
865.30 0.1206
865.40 0.1206
865.50 0.1205
865.60 0.1204
865.70 0.1204
865.80 0.1203
865.90 0.1203
866.00 0.1202
866.10 0.1202
866.20 0.1201
866.30 0.1201
866.40 0.12
866.50 0.12
866.60 0.1199
866.70 0.1199
866.80 0.1198
866.90 0.1198
867.00 0.1197
867.10 0.1196
867.20 0.1196
867.30 0.1195
867.40 0.1195
867.50 0.1194
867.60 0.1194
867.70 0.1193
867.80 0.1193
867.90 0.1192
868.00 0.1192
868.10 0.1191
868.20 0.1191
868.30 0.119
868.40 0.119
868.50 0.1189
868.60 0.1188
868.70 0.1188
868.80 0.1187
868.90 0.1187
869.00 0.1186
869.10 0.1186
869.20 0.1185
869.30 0.1185
869.40 0.1184
869.50 0.1184
869.60 0.1183
869.70 0.1183
869.80 0.1182
869.90 0.1182
870.00 0.1181
870.10 0.1181
870.20 0.118
870.30 0.1179
870.40 0.1179
870.50 0.1178
870.60 0.1178
870.70 0.1177
870.80 0.1177
870.90 0.1176
871.00 0.1176
871.10 0.1175
871.20 0.1175
871.30 0.1174
871.40 0.1174
871.50 0.1173
871.60 0.1173
871.70 0.1172
871.80 0.1172
871.90 0.1171
872.00 0.1171
872.10 0.117
872.20 0.117
872.30 0.1169
872.40 0.1168
872.50 0.1168
872.60 0.1167
872.70 0.1167
872.80 0.1166
872.90 0.1166
873.00 0.1165
873.10 0.1165
873.20 0.1164
873.30 0.1164
873.40 0.1163
873.50 0.1163
873.60 0.1162
873.70 0.1162
873.80 0.1161
873.90 0.1161
874.00 0.116
874.10 0.116
874.20 0.1159
874.30 0.1159
874.40 0.1158
874.50 0.1158
874.60 0.1157
874.70 0.1157
874.80 0.1156
874.90 0.1156
875.00 0.1155
875.10 0.1155
875.20 0.1154
875.30 0.1154
875.40 0.1153
875.50 0.1153
875.60 0.1152
875.70 0.1152
875.80 0.1151
875.90 0.1151
876.00 0.115
876.10 0.115
876.20 0.1149
876.30 0.1149
876.40 0.1148
876.50 0.1148
876.60 0.1147
876.70 0.1147
876.80 0.1146
876.90 0.1146
877.00 0.1145
877.10 0.1145
877.20 0.1144
877.30 0.1143
877.40 0.1143
877.50 0.1142
877.60 0.1142
877.70 0.1141
877.80 0.1141
877.90 0.114
878.00 0.114
878.10 0.1139
878.20 0.1139
878.30 0.1138
878.40 0.1138
878.50 0.1137
878.60 0.1137
878.70 0.1136
878.80 0.1136
878.90 0.1135
879.00 0.1135
879.10 0.1134
879.20 0.1134
879.30 0.1133
879.40 0.1133
879.50 0.1132
879.60 0.1132
879.70 0.1131
879.80 0.1131
879.90 0.113
880.00 0.113
880.10 0.1129
880.20 0.1129
880.30 0.1128
880.40 0.1128
880.50 0.1127
880.60 0.1127
880.70 0.1126
880.80 0.1126
880.90 0.1125
881.00 0.1125
881.10 0.1125
881.20 0.1124
881.30 0.1124
881.40 0.1123
881.50 0.1123
881.60 0.1122
881.70 0.1122
881.80 0.1121
881.90 0.1121
882.00 0.112
882.10 0.112
882.20 0.1119
882.30 0.1119
882.40 0.1118
882.50 0.1118
882.60 0.1117
882.70 0.1117
882.80 0.1116
882.90 0.1116
883.00 0.1115
883.10 0.1115
883.20 0.1114
883.30 0.1114
883.40 0.1113
883.50 0.1113
883.60 0.1112
883.70 0.1112
883.80 0.1111
883.90 0.1111
884.00 0.111
884.10 0.111
884.20 0.1109
884.30 0.1109
884.40 0.1108
884.50 0.1108
884.60 0.1107
884.70 0.1107
884.80 0.1106
884.90 0.1106
885.00 0.1105
885.10 0.1105
885.20 0.1104
885.30 0.1104
885.40 0.1104
885.50 0.1103
885.60 0.1103
885.70 0.1102
885.80 0.1102
885.90 0.1101
886.00 0.1101
886.10 0.11
886.20 0.11
886.30 0.1099
886.40 0.1099
886.50 0.1098
886.60 0.1098
886.70 0.1097
886.80 0.1097
886.90 0.1096
887.00 0.1096
887.10 0.1095
887.20 0.1095
887.30 0.1094
887.40 0.1094
887.50 0.1093
887.60 0.1093
887.70 0.1093
887.80 0.1092
887.90 0.1092
888.00 0.1091
888.10 0.1091
888.20 0.109
888.30 0.109
888.40 0.1089
888.50 0.1089
888.60 0.1088
888.70 0.1088
888.80 0.1087
888.90 0.1087
889.00 0.1086
889.10 0.1086
889.20 0.1086
889.30 0.1085
889.40 0.1085
889.50 0.1084
889.60 0.1084
889.70 0.1083
889.80 0.1083
889.90 0.1082
890.00 0.1082
890.10 0.1081
890.20 0.1081
890.30 0.108
890.40 0.108
890.50 0.1079
890.60 0.1079
890.70 0.1079
890.80 0.1078
890.90 0.1078
891.00 0.1077
891.10 0.1077
891.20 0.1076
891.30 0.1076
891.40 0.1075
891.50 0.1075
891.60 0.1074
891.70 0.1074
891.80 0.1073
891.90 0.1073
892.00 0.1073
892.10 0.1072
892.20 0.1072
892.30 0.1071
892.40 0.1071
892.50 0.107
892.60 0.107
892.70 0.1069
892.80 0.1069
892.90 0.1068
893.00 0.1068
893.10 0.1067
893.20 0.1067
893.30 0.1066
893.40 0.1066
893.50 0.1065
893.60 0.1065
893.70 0.1064
893.80 0.1064
893.90 0.1064
894.00 0.1063
894.10 0.1063
894.20 0.1062
894.30 0.1062
894.40 0.1061
894.50 0.1061
894.60 0.106
894.70 0.106
894.80 0.1059
894.90 0.1059
895.00 0.1058
895.10 0.1058
895.20 0.1057
895.30 0.1057
895.40 0.1056
895.50 0.1056
895.60 0.1056
895.70 0.1055
895.80 0.1055
895.90 0.1054
896.00 0.1054
896.10 0.1053
896.20 0.1053
896.30 0.1052
896.40 0.1052
896.50 0.1051
896.60 0.1051
896.70 0.105
896.80 0.105
896.90 0.1049
897.00 0.1049
897.10 0.1049
897.20 0.1048
897.30 0.1048
897.40 0.1047
897.50 0.1047
897.60 0.1046
897.70 0.1046
897.80 0.1045
897.90 0.1045
898.00 0.1044
898.10 0.1044
898.20 0.1043
898.30 0.1043
898.40 0.1042
898.50 0.1042
898.60 0.1042
898.70 0.1041
898.80 0.1041
898.90 0.104
899.00 0.104
899.10 0.1039
899.20 0.1039
899.30 0.1038
899.40 0.1038
899.50 0.1037
899.60 0.1037
899.70 0.1036
899.80 0.1036
899.90 0.1035
900.00 0.1035
900.10 0.1035
900.20 0.1034
900.30 0.1034
900.40 0.1033
900.50 0.1033
900.60 0.1032
900.70 0.1032
900.80 0.1031
900.90 0.1031
901.00 0.103
901.10 0.103
901.20 0.1029
901.30 0.1029
901.40 0.1029
901.50 0.1028
901.60 0.1028
901.70 0.1027
901.80 0.1027
901.90 0.1026
902.00 0.1026
902.10 0.1025
902.20 0.1025
902.30 0.1025
902.40 0.1024
902.50 0.1024
902.60 0.1023
902.70 0.1023
902.80 0.1023
902.90 0.1022
903.00 0.1022
903.10 0.1021
903.20 0.1021
903.30 0.1021
903.40 0.102
903.50 0.102
903.60 0.1019
903.70 0.1019
903.80 0.1018
903.90 0.1018
904.00 0.1018
904.10 0.1017
904.20 0.1017
904.30 0.1016
904.40 0.1016
904.50 0.1016
904.60 0.1015
904.70 0.1015
904.80 0.1014
904.90 0.1014
905.00 0.1014
905.10 0.1013
905.20 0.1013
905.30 0.1012
905.40 0.1012
905.50 0.1012
905.60 0.1011
905.70 0.1011
905.80 0.101
905.90 0.101
906.00 0.101
906.10 0.1009
906.20 0.1009
906.30 0.1008
906.40 0.1008
906.50 0.1008
906.60 0.1007
906.70 0.1007
906.80 0.1006
906.90 0.1006
907.00 0.1006
907.10 0.1005
907.20 0.1005
907.30 0.1004
907.40 0.1004
907.50 0.1004
907.60 0.1003
907.70 0.1003
907.80 0.1002
907.90 0.1002
908.00 0.1001
908.10 0.1001
908.20 0.1001
908.30 0.1
908.40 0.09998
908.50 0.09994
908.60 0.0999
908.70 0.09986
908.80 0.09981
908.90 0.09977
909.00 0.09973
909.10 0.09969
909.20 0.09965
909.30 0.09961
909.40 0.09957
909.50 0.09953
909.60 0.09948
909.70 0.09944
909.80 0.0994
909.90 0.09936
910.00 0.09932
910.10 0.09928
910.20 0.09924
910.30 0.0992
910.40 0.09915
910.50 0.09911
910.60 0.09907
910.70 0.09903
910.80 0.09899
910.90 0.09895
911.00 0.09891
911.10 0.09887
911.20 0.09883
911.30 0.09879
911.40 0.09874
911.50 0.0987
911.60 0.09866
911.70 0.09862
911.80 0.09858
911.90 0.09854
912.00 0.0985
912.10 0.09846
912.20 0.09841
912.30 0.09837
912.40 0.09832
912.50 0.09828
912.60 0.09823
912.70 0.09819
912.80 0.09815
912.90 0.0981
913.00 0.09806
913.10 0.09801
913.20 0.09797
913.30 0.09793
913.40 0.09788
913.50 0.09784
913.60 0.09779
913.70 0.09775
913.80 0.09771
913.90 0.09766
914.00 0.09762
914.10 0.09757
914.20 0.09753
914.30 0.09749
914.40 0.09744
914.50 0.0974
914.60 0.09735
914.70 0.09731
914.80 0.09727
914.90 0.09722
915.00 0.09718
915.10 0.09713
915.20 0.09709
915.30 0.09705
915.40 0.097
915.50 0.09696
915.60 0.09692
915.70 0.09687
915.80 0.09683
915.90 0.09678
916.00 0.09674
916.10 0.0967
916.20 0.09665
916.30 0.09661
916.40 0.09657
916.50 0.09652
916.60 0.09648
916.70 0.09644
916.80 0.09639
916.90 0.09635
917.00 0.09631
917.10 0.09626
917.20 0.09621
917.30 0.09616
917.40 0.09612
917.50 0.09607
917.60 0.09602
917.70 0.09597
917.80 0.09593
917.90 0.09588
918.00 0.09583
918.10 0.09579
918.20 0.09574
918.30 0.09569
918.40 0.09564
918.50 0.0956
918.60 0.09555
918.70 0.0955
918.80 0.09546
918.90 0.09541
919.00 0.09536
919.10 0.09532
919.20 0.09527
919.30 0.09522
919.40 0.09517
919.50 0.09513
919.60 0.09508
919.70 0.09503
919.80 0.09499
919.90 0.09494
920.00 0.09489
920.10 0.09485
920.20 0.0948
920.30 0.09475
920.40 0.09471
920.50 0.09466
920.60 0.09461
920.70 0.09457
920.80 0.09452
920.90 0.09447
921.00 0.09443
921.10 0.09438
921.20 0.09433
921.30 0.09429
921.40 0.09424
921.50 0.09419
921.60 0.09415
921.70 0.0941
921.80 0.09405
921.90 0.09401
922.00 0.09396
922.10 0.09393
922.20 0.09389
922.30 0.09386
922.40 0.09382
922.50 0.09379
922.60 0.09375
922.70 0.09372
922.80 0.09369
922.90 0.09365
923.00 0.09362
923.10 0.09358
923.20 0.09355
923.30 0.09351
923.40 0.09348
923.50 0.09345
923.60 0.09341
923.70 0.09338
923.80 0.09334
923.90 0.09331
924.00 0.09328
924.10 0.09324
924.20 0.09321
924.30 0.09317
924.40 0.09314
924.50 0.09311
924.60 0.09307
924.70 0.09304
924.80 0.093
924.90 0.09297
925.00 0.09294
925.10 0.0929
925.20 0.09287
925.30 0.09283
925.40 0.0928
925.50 0.09277
925.60 0.09273
925.70 0.0927
925.80 0.09266
925.90 0.09263
926.00 0.0926
926.10 0.09256
926.20 0.09253
926.30 0.09249
926.40 0.09246
926.50 0.09243
926.60 0.09239
926.70 0.09236
926.80 0.09233
926.90 0.09229
927.00 0.09226
927.10 0.09222
927.20 0.09219
927.30 0.09216
927.40 0.09212
927.50 0.09209
927.60 0.09206
927.70 0.09202
927.80 0.09199
927.90 0.09196
928.00 0.09192
928.10 0.09189
928.20 0.09185
928.30 0.09182
928.40 0.09179
928.50 0.09175
928.60 0.09172
928.70 0.09169
928.80 0.09165
928.90 0.09162
929.00 0.09159
929.10 0.09155
929.20 0.09152
929.30 0.09149
929.40 0.09145
929.50 0.09142
929.60 0.09139
929.70 0.09135
929.80 0.09132
929.90 0.09129
930.00 0.09125
930.10 0.09122
930.20 0.09119
930.30 0.09115
930.40 0.09112
930.50 0.09109
930.60 0.09105
930.70 0.09102
930.80 0.09099
930.90 0.09095
931.00 0.09092
931.10 0.09089
931.20 0.09085
931.30 0.09082
931.40 0.09079
931.50 0.09076
931.60 0.09072
931.70 0.09069
931.80 0.09066
931.90 0.09062
932.00 0.09059
932.10 0.09055
932.20 0.09052
932.30 0.09048
932.40 0.09045
932.50 0.09041
932.60 0.09038
932.70 0.09034
932.80 0.0903
932.90 0.09027
933.00 0.09023
933.10 0.0902
933.20 0.09016
933.30 0.09013
933.40 0.09009
933.50 0.09006
933.60 0.09002
933.70 0.08998
933.80 0.08995
933.90 0.08991
934.00 0.08988
934.10 0.08984
934.20 0.08981
934.30 0.08977
934.40 0.08974
934.50 0.0897
934.60 0.08966
934.70 0.08963
934.80 0.08959
934.90 0.08955
935.00 0.08952
935.10 0.08948
935.20 0.08944
935.30 0.08941
935.40 0.08937
935.50 0.08934
935.60 0.0893
935.70 0.08926
935.80 0.08923
935.90 0.08919
936.00 0.08916
936.10 0.08912
936.20 0.08908
936.30 0.08905
936.40 0.08901
936.50 0.08897
936.60 0.08894
936.70 0.0889
936.80 0.08887
936.90 0.08883
937.00 0.08879
937.10 0.08876
937.20 0.08872
937.30 0.08868
937.40 0.08865
937.50 0.08861
937.60 0.08858
937.70 0.08854
937.80 0.0885
937.90 0.08847
938.00 0.08843
938.10 0.08839
938.20 0.08836
938.30 0.08832
938.40 0.08828
938.50 0.08825
938.60 0.08821
938.70 0.08817
938.80 0.08814
938.90 0.0881
939.00 0.08806
939.10 0.08803
939.20 0.08799
939.30 0.08795
939.40 0.08792
939.50 0.08788
939.60 0.08784
939.70 0.08781
939.80 0.08777
939.90 0.08773
940.00 0.0877
940.10 0.08766
940.20 0.08762
940.30 0.08759
940.40 0.08755
940.50 0.08751
940.60 0.08747
940.70 0.08744
940.80 0.0874
940.90 0.08736
941.00 0.08733
941.10 0.08729
941.20 0.08725
941.30 0.08721
941.40 0.08718
941.50 0.08714
941.60 0.0871
941.70 0.08707
941.80 0.08703
941.90 0.08699
942.00 0.08696
942.10 0.08692
942.20 0.08688
942.30 0.08684
942.40 0.08681
942.50 0.08677
942.60 0.08673
942.70 0.08669
942.80 0.08665
942.90 0.08662
943.00 0.08658
943.10 0.08654
943.20 0.0865
943.30 0.08647
943.40 0.08643
943.50 0.08639
943.60 0.08635
943.70 0.08632
943.80 0.08628
943.90 0.08624
944.00 0.0862
944.10 0.08617
944.20 0.08613
944.30 0.08609
944.40 0.08605
944.50 0.08601
944.60 0.08597
944.70 0.08594
944.80 0.0859
944.90 0.08586
945.00 0.08582
945.10 0.08578
945.20 0.08574
945.30 0.08571
945.40 0.08567
945.50 0.08563
945.60 0.08559
945.70 0.08555
945.80 0.08551
945.90 0.08547
946.00 0.08543
946.10 0.08539
946.20 0.08535
946.30 0.08531
946.40 0.08527
946.50 0.08523
946.60 0.08519
946.70 0.08515
946.80 0.08511
946.90 0.08507
947.00 0.08504
947.10 0.08499
947.20 0.08495
947.30 0.08491
947.40 0.08487
947.50 0.08483
947.60 0.08479
947.70 0.08474
947.80 0.0847
947.90 0.08466
948.00 0.08462
948.10 0.08458
948.20 0.08453
948.30 0.08449
948.40 0.08445
948.50 0.08441
948.60 0.08436
948.70 0.08432
948.80 0.08428
948.90 0.08424
949.00 0.0842
949.10 0.08415
949.20 0.08411
949.30 0.08407
949.40 0.08402
949.50 0.08398
949.60 0.08393
949.70 0.08389
949.80 0.08384
949.90 0.08379
950.00 0.08375
950.10 0.0837
950.20 0.08366
950.30 0.08361
950.40 0.08356
950.50 0.08352
950.60 0.08347
950.70 0.08342
950.80 0.08338
950.90 0.08333
951.00 0.08329
951.10 0.08324
951.20 0.08319
951.30 0.08315
951.40 0.0831
951.50 0.08305
951.60 0.083
951.70 0.08295
951.80 0.0829
951.90 0.08285
952.00 0.0828
952.10 0.08276
952.20 0.08271
952.30 0.08266
952.40 0.08261
952.50 0.08256
952.60 0.08251
952.70 0.08246
952.80 0.08241
952.90 0.08236
953.00 0.08231
953.10 0.08226
953.20 0.08222
953.30 0.08217
953.40 0.08212
953.50 0.08207
953.60 0.08203
953.70 0.08199
953.80 0.08195
953.90 0.08191
954.00 0.08188
954.10 0.08185
954.20 0.08182
954.30 0.0818
954.40 0.08178
954.50 0.08177
954.60 0.08173
954.70 0.0817
954.80 0.08166
954.90 0.08161
955.00 0.08156
955.10 0.08152
955.20 0.08149
955.30 0.08146
955.40 0.08144
955.50 0.08141
955.60 0.08138
955.70 0.08136
955.80 0.08133
955.90 0.08131
956.00 0.08129
956.10 0.08128
956.20 0.08126
956.30 0.08124
956.40 0.08122
956.50 0.08121
956.60 0.08119
956.70 0.08117
956.80 0.08115
956.90 0.08114
957.00 0.08112
957.10 0.0811
957.20 0.08109
957.30 0.08107
957.40 0.08105
957.50 0.08103
957.60 0.08101
957.70 0.08099
957.80 0.08097
957.90 0.08095
958.00 0.08093
958.10 0.08091
958.20 0.08089
958.30 0.08087
958.40 0.08085
958.50 0.08083
958.60 0.08081
958.70 0.08079
958.80 0.08077
958.90 0.08075
959.00 0.08073
959.10 0.08072
959.20 0.0807
959.30 0.08068
959.40 0.08065
959.50 0.08063
959.60 0.0806
959.70 0.08058
959.80 0.08056
959.90 0.08053
960.00 0.08051
960.10 0.08048
960.20 0.08046
960.30 0.08043
960.40 0.08041
960.50 0.08039
960.60 0.08036
960.70 0.08034
960.80 0.08031
960.90 0.08029
961.00 0.08027
961.10 0.08024
961.20 0.08022
961.30 0.08019
961.40 0.08017
961.50 0.08014
961.60 0.08011
961.70 0.08009
961.80 0.08006
961.90 0.08003
962.00 0.08001
962.10 0.07998
962.20 0.07995
962.30 0.07993
962.40 0.0799
962.50 0.07987
962.60 0.07984
962.70 0.07981
962.80 0.07979
962.90 0.07976
963.00 0.07973
963.10 0.0797
963.20 0.07968
963.30 0.07965
963.40 0.07962
963.50 0.07959
963.60 0.07956
963.70 0.07953
963.80 0.07951
963.90 0.07948
964.00 0.07945
964.10 0.07942
964.20 0.07939
964.30 0.07936
964.40 0.07933
964.50 0.0793
964.60 0.07927
964.70 0.07925
964.80 0.07922
964.90 0.07919
965.00 0.07916
965.10 0.07913
965.20 0.0791
965.30 0.07907
965.40 0.07904
965.50 0.07901
965.60 0.07898
965.70 0.07895
965.80 0.07892
965.90 0.07889
966.00 0.07886
966.10 0.07883
966.20 0.0788
966.30 0.07877
966.40 0.07874
966.50 0.07871
966.60 0.07868
966.70 0.07866
966.80 0.07863
966.90 0.0786
967.00 0.07857
967.10 0.07854
967.20 0.0785
967.30 0.07847
967.40 0.07844
967.50 0.07841
967.60 0.07838
967.70 0.07835
967.80 0.07832
967.90 0.07829
968.00 0.07826
968.10 0.07823
968.20 0.0782
968.30 0.07817
968.40 0.07814
968.50 0.07811
968.60 0.07808
968.70 0.07805
968.80 0.07802
968.90 0.07799
969.00 0.07796
969.10 0.07793
969.20 0.0779
969.30 0.07787
969.40 0.07784
969.50 0.07781
969.60 0.07778
969.70 0.07775
969.80 0.07772
969.90 0.07769
970.00 0.07766
970.10 0.07763
970.20 0.0776
970.30 0.07757
970.40 0.07754
970.50 0.07751
970.60 0.07748
970.70 0.07745
970.80 0.07742
970.90 0.07739
971.00 0.07735
971.10 0.07732
971.20 0.07729
971.30 0.07726
971.40 0.07723
971.50 0.0772
971.60 0.07717
971.70 0.07714
971.80 0.07711
971.90 0.07708
972.00 0.07705
972.10 0.07702
972.20 0.07699
972.30 0.07696
972.40 0.07693
972.50 0.0769
972.60 0.07687
972.70 0.07684
972.80 0.07681
972.90 0.07678
973.00 0.07675
973.10 0.07672
973.20 0.07669
973.30 0.07666
973.40 0.07663
973.50 0.0766
973.60 0.07657
973.70 0.07654
973.80 0.07651
973.90 0.07648
974.00 0.07645
974.10 0.07642
974.20 0.07639
974.30 0.07635
974.40 0.07632
974.50 0.07629
974.60 0.07626
974.70 0.07623
974.80 0.0762
974.90 0.07617
975.00 0.07614
975.10 0.07611
975.20 0.07608
975.30 0.07605
975.40 0.07602
975.50 0.07599
975.60 0.07596
975.70 0.07593
975.80 0.0759
975.90 0.07587
976.00 0.07584
976.10 0.07581
976.20 0.07578
976.30 0.07575
976.40 0.07572
976.50 0.07569
976.60 0.07566
976.70 0.07563
976.80 0.0756
976.90 0.07557
977.00 0.07554
977.10 0.07551
977.20 0.07548
977.30 0.07545
977.40 0.07542
977.50 0.07539
977.60 0.07536
977.70 0.07533
977.80 0.0753
977.90 0.07527
978.00 0.07524
978.10 0.07521
978.20 0.07518
978.30 0.07515
978.40 0.07512
978.50 0.07509
978.60 0.07506
978.70 0.07503
978.80 0.075
978.90 0.07497
979.00 0.07495
979.10 0.07492
979.20 0.07489
979.30 0.07486
979.40 0.07483
979.50 0.0748
979.60 0.07477
979.70 0.07474
979.80 0.07471
979.90 0.07468
980.00 0.07465
980.10 0.07462
980.20 0.07459
980.30 0.07456
980.40 0.07453
980.50 0.0745
980.60 0.07447
980.70 0.07444
980.80 0.07441
980.90 0.07438
981.00 0.07435
981.10 0.07432
981.20 0.07429
981.30 0.07426
981.40 0.07423
981.50 0.0742
981.60 0.07417
981.70 0.07415
981.80 0.07412
981.90 0.07409
982.00 0.07406
982.10 0.07403
982.20 0.074
982.30 0.07397
982.40 0.07394
982.50 0.07391
982.60 0.07388
982.70 0.07385
982.80 0.07382
982.90 0.07379
983.00 0.07376
983.10 0.07373
983.20 0.0737
983.30 0.07367
983.40 0.07364
983.50 0.07362
983.60 0.07359
983.70 0.07356
983.80 0.07353
983.90 0.0735
984.00 0.07347
984.10 0.07344
984.20 0.07341
984.30 0.07338
984.40 0.07335
984.50 0.07332
984.60 0.07329
984.70 0.07326
984.80 0.07324
984.90 0.07321
985.00 0.07318
985.10 0.07315
985.20 0.07312
985.30 0.07309
985.40 0.07306
985.50 0.07303
985.60 0.073
985.70 0.07297
985.80 0.07294
985.90 0.07291
986.00 0.07288
986.10 0.07286
986.20 0.07283
986.30 0.0728
986.40 0.07277
986.50 0.07274
986.60 0.07271
986.70 0.07268
986.80 0.07265
986.90 0.07262
987.00 0.07259
987.10 0.07256
987.20 0.07254
987.30 0.07251
987.40 0.07248
987.50 0.07245
987.60 0.07242
987.70 0.07239
987.80 0.07236
987.90 0.07233
988.00 0.0723
988.10 0.07227
988.20 0.07224
988.30 0.07222
988.40 0.07219
988.50 0.07216
988.60 0.07213
988.70 0.0721
988.80 0.07207
988.90 0.07204
989.00 0.07201
989.10 0.07198
989.20 0.07195
989.30 0.07192
989.40 0.0719
989.50 0.07187
989.60 0.07184
989.70 0.07181
989.80 0.07178
989.90 0.07175
990.00 0.07172
990.10 0.07169
990.20 0.07166
990.30 0.07163
990.40 0.0716
990.50 0.07158
990.60 0.07155
990.70 0.07152
990.80 0.07149
990.90 0.07146
991.00 0.07143
991.10 0.0714
991.20 0.07137
991.30 0.07134
991.40 0.07131
991.50 0.07128
991.60 0.07125
991.70 0.07123
991.80 0.0712
991.90 0.07117
992.00 0.07114
992.10 0.07111
992.20 0.07108
992.30 0.07105
992.40 0.07102
992.50 0.07099
992.60 0.07096
992.70 0.07093
992.80 0.0709
992.90 0.07087
993.00 0.07084
993.10 0.07081
993.20 0.07078
993.30 0.07075
993.40 0.07072
993.50 0.07069
993.60 0.07066
993.70 0.07063
993.80 0.0706
993.90 0.07057
994.00 0.07054
994.10 0.07051
994.20 0.07048
994.30 0.07045
994.40 0.07042
994.50 0.07039
994.60 0.07036
994.70 0.07033
994.80 0.0703
994.90 0.07027
995.00 0.07024
995.10 0.07021
995.20 0.07018
995.30 0.07015
995.40 0.07012
995.50 0.07009
995.60 0.07006
995.70 0.07003
995.80 0.06999
995.90 0.06996
996.00 0.06993
996.10 0.0699
996.20 0.06987
996.30 0.06983
996.40 0.0698
996.50 0.06977
996.60 0.06974
996.70 0.06971
996.80 0.06968
996.90 0.06964
997.00 0.06961
997.10 0.06958
997.20 0.06955
997.30 0.06951
997.40 0.06948
997.50 0.06945
997.60 0.06941
997.70 0.06938
997.80 0.06934
997.90 0.06931
998.00 0.06927
998.10 0.06923
998.20 0.0692
998.30 0.06916
998.40 0.06913
998.50 0.06909
998.60 0.06905
998.70 0.06902
998.80 0.06898
998.90 0.06895
999.00 0.06891
999.10 0.06887
999.20 0.06884
999.30 0.0688
999.40 0.06877
999.50 0.06873
999.60 0.0687
999.70 0.06865
999.80 0.06861
999.90 0.06857
1000.00 0.06852
1000.10 0.06848
1000.20 0.06844
1000.30 0.06839
1000.40 0.06835
1000.50 0.06831
1000.60 0.06826
1000.70 0.06822
1000.80 0.06818
1000.90 0.06813
1001.00 0.06809
1001.10 0.06805
1001.20 0.068
1001.30 0.06796
1001.40 0.06792
1001.50 0.06787
1001.60 0.06783
1001.70 0.06778
1001.80 0.06773
1001.90 0.06768
1002.00 0.06764
1002.10 0.06758
1002.20 0.06753
1002.30 0.06748
1002.40 0.06742
1002.50 0.06737
1002.60 0.06732
1002.70 0.06727
1002.80 0.06721
1002.90 0.06716
1003.00 0.06711
1003.10 0.06706
1003.20 0.067
1003.30 0.06695
1003.40 0.06689
1003.50 0.06684
1003.60 0.06679
1003.70 0.06673
1003.80 0.06668
1003.90 0.06663
1004.00 0.06659
1004.10 0.06655
1004.20 0.06651
1004.30 0.06649
1004.40 0.06647
1004.50 0.06647
1004.60 0.0665
1004.70 0.06656
1004.80 0.06663
1004.90 0.06663
1005.00 0.06662
1005.10 0.06654
1005.20 0.06644
1005.30 0.06634
1005.40 0.06624
1005.50 0.0662
1005.60 0.06619
1005.70 0.06617
1005.80 0.06615
1005.90 0.06614
1006.00 0.06612
1006.10 0.0661
1006.20 0.0661
1006.30 0.06611
1006.40 0.06611
1006.50 0.06611
1006.60 0.06612
1006.70 0.06612
1006.80 0.06612
1006.90 0.06612
1007.00 0.06613
1007.10 0.06613
1007.20 0.06613
1007.30 0.06613
1007.40 0.06613
1007.50 0.06613
1007.60 0.06613
1007.70 0.06613
1007.80 0.06612
1007.90 0.06612
1008.00 0.06611
1008.10 0.0661
1008.20 0.0661
1008.30 0.06609
1008.40 0.06608
1008.50 0.06608
1008.60 0.06607
1008.70 0.06606
1008.80 0.06606
1008.90 0.06605
1009.00 0.06604
1009.10 0.06604
1009.20 0.06603
1009.30 0.06602
1009.40 0.06602
1009.50 0.06601
1009.60 0.066
1009.70 0.06599
1009.80 0.06597
1009.90 0.06596
1010.00 0.06594
1010.10 0.06593
1010.20 0.06591
1010.30 0.0659
1010.40 0.06588
1010.50 0.06587
1010.60 0.06585
1010.70 0.06584
1010.80 0.06582
1010.90 0.06581
1011.00 0.06579
1011.10 0.06577
1011.20 0.06576
1011.30 0.06574
1011.40 0.06573
1011.50 0.06571
1011.60 0.0657
1011.70 0.06568
1011.80 0.06566
1011.90 0.06564
1012.00 0.06563
1012.10 0.06561
1012.20 0.06558
1012.30 0.06556
1012.40 0.06554
1012.50 0.06552
1012.60 0.0655
1012.70 0.06548
1012.80 0.06546
1012.90 0.06544
1013.00 0.06542
1013.10 0.0654
1013.20 0.06538
1013.30 0.06536
1013.40 0.06534
1013.50 0.06532
1013.60 0.0653
1013.70 0.06528
1013.80 0.06526
1013.90 0.06524
1014.00 0.06522
1014.10 0.06519
1014.20 0.06517
1014.30 0.06515
1014.40 0.06513
1014.50 0.06511
1014.60 0.06509
1014.70 0.06506
1014.80 0.06504
1014.90 0.06502
1015.00 0.065
1015.10 0.06497
1015.20 0.06495
1015.30 0.06493
1015.40 0.06491
1015.50 0.06488
1015.60 0.06486
1015.70 0.06484
1015.80 0.06481
1015.90 0.06479
1016.00 0.06477
1016.10 0.06475
1016.20 0.06472
1016.30 0.0647
1016.40 0.06468
1016.50 0.06466
1016.60 0.06463
1016.70 0.06461
1016.80 0.06459
1016.90 0.06456
1017.00 0.06454
1017.10 0.06452
1017.20 0.06449
1017.30 0.06447
1017.40 0.06445
1017.50 0.06442
1017.60 0.0644
1017.70 0.06438
1017.80 0.06435
1017.90 0.06433
1018.00 0.06431
1018.10 0.06428
1018.20 0.06426
1018.30 0.06424
1018.40 0.06421
1018.50 0.06419
1018.60 0.06417
1018.70 0.06414
1018.80 0.06412
1018.90 0.0641
1019.00 0.06407
1019.10 0.06405
1019.20 0.06403
1019.30 0.064
1019.40 0.06398
1019.50 0.06395
1019.60 0.06393
1019.70 0.06391
1019.80 0.06388
1019.90 0.06386
1020.00 0.06384
1020.10 0.06381
1020.20 0.06379
1020.30 0.06377
1020.40 0.06374
1020.50 0.06372
1020.60 0.0637
1020.70 0.06367
1020.80 0.06365
1020.90 0.06362
1021.00 0.0636
1021.10 0.06358
1021.20 0.06355
1021.30 0.06353
1021.40 0.06351
1021.50 0.06348
1021.60 0.06346
1021.70 0.06344
1021.80 0.06341
1021.90 0.06339
1022.00 0.06336
1022.10 0.06334
1022.20 0.06332
1022.30 0.06329
1022.40 0.06327
1022.50 0.06325
1022.60 0.06322
1022.70 0.0632
1022.80 0.06317
1022.90 0.06315
1023.00 0.06313
1023.10 0.0631
1023.20 0.06308
1023.30 0.06306
1023.40 0.06303
1023.50 0.06301
1023.60 0.06299
1023.70 0.06296
1023.80 0.06294
1023.90 0.06291
1024.00 0.06289
1024.10 0.06287
1024.20 0.06284
1024.30 0.06282
1024.40 0.0628
1024.50 0.06277
1024.60 0.06275
1024.70 0.06273
1024.80 0.0627
1024.90 0.06268
1025.00 0.06266
1025.10 0.06263
1025.20 0.06261
1025.30 0.06259
1025.40 0.06256
1025.50 0.06254
1025.60 0.06251
1025.70 0.06249
1025.80 0.06247
1025.90 0.06244
1026.00 0.06242
1026.10 0.0624
1026.20 0.06237
1026.30 0.06235
1026.40 0.06233
1026.50 0.0623
1026.60 0.06228
1026.70 0.06226
1026.80 0.06223
1026.90 0.06221
1027.00 0.06219
1027.10 0.06216
1027.20 0.06214
1027.30 0.06212
1027.40 0.06209
1027.50 0.06207
1027.60 0.06205
1027.70 0.06202
1027.80 0.062
1027.90 0.06198
1028.00 0.06195
1028.10 0.06193
1028.20 0.06191
1028.30 0.06188
1028.40 0.06186
1028.50 0.06184
1028.60 0.06181
1028.70 0.06179
1028.80 0.06177
1028.90 0.06174
1029.00 0.06172
1029.10 0.0617
1029.20 0.06167
1029.30 0.06165
1029.40 0.06163
1029.50 0.0616
1029.60 0.06158
1029.70 0.06156
1029.80 0.06154
1029.90 0.06151
1030.00 0.06149
1030.10 0.06147
1030.20 0.06144
1030.30 0.06142
1030.40 0.0614
1030.50 0.06137
1030.60 0.06135
1030.70 0.06133
1030.80 0.0613
1030.90 0.06128
1031.00 0.06126
1031.10 0.06124
1031.20 0.06121
1031.30 0.06119
1031.40 0.06117
1031.50 0.06114
1031.60 0.06112
1031.70 0.0611
1031.80 0.06107
1031.90 0.06105
1032.00 0.06103
1032.10 0.06101
1032.20 0.06098
1032.30 0.06096
1032.40 0.06094
1032.50 0.06091
1032.60 0.06089
1032.70 0.06087
1032.80 0.06085
1032.90 0.06082
1033.00 0.0608
1033.10 0.06078
1033.20 0.06075
1033.30 0.06073
1033.40 0.06071
1033.50 0.06069
1033.60 0.06066
1033.70 0.06064
1033.80 0.06062
1033.90 0.06059
1034.00 0.06057
1034.10 0.06055
1034.20 0.06053
1034.30 0.0605
1034.40 0.06048
1034.50 0.06046
1034.60 0.06044
1034.70 0.06041
1034.80 0.06039
1034.90 0.06037
1035.00 0.06035
1035.10 0.06032
1035.20 0.0603
1035.30 0.06028
1035.40 0.06025
1035.50 0.06023
1035.60 0.06021
1035.70 0.06019
1035.80 0.06016
1035.90 0.06014
1036.00 0.06012
1036.10 0.0601
1036.20 0.06007
1036.30 0.06005
1036.40 0.06003
1036.50 0.06001
1036.60 0.05998
1036.70 0.05996
1036.80 0.05994
1036.90 0.05992
1037.00 0.05989
1037.10 0.05987
1037.20 0.05985
1037.30 0.05983
1037.40 0.0598
1037.50 0.05978
1037.60 0.05976
1037.70 0.05974
1037.80 0.05971
1037.90 0.05969
1038.00 0.05967
1038.10 0.05965
1038.20 0.05963
1038.30 0.0596
1038.40 0.05958
1038.50 0.05956
1038.60 0.05954
1038.70 0.05951
1038.80 0.05949
1038.90 0.05947
1039.00 0.05945
1039.10 0.05943
1039.20 0.0594
1039.30 0.05938
1039.40 0.05936
1039.50 0.05934
1039.60 0.05931
1039.70 0.05929
1039.80 0.05927
1039.90 0.05925
1040.00 0.05923
1040.10 0.0592
1040.20 0.05918
1040.30 0.05916
1040.40 0.05914
1040.50 0.05911
1040.60 0.05909
1040.70 0.05907
1040.80 0.05905
1040.90 0.05903
1041.00 0.059
1041.10 0.05898
1041.20 0.05896
1041.30 0.05894
1041.40 0.05892
1041.50 0.05889
1041.60 0.05887
1041.70 0.05885
1041.80 0.05883
1041.90 0.05881
1042.00 0.05878
1042.10 0.05876
1042.20 0.05874
1042.30 0.05872
1042.40 0.0587
1042.50 0.05867
1042.60 0.05865
1042.70 0.05863
1042.80 0.05861
1042.90 0.05859
1043.00 0.05857
1043.10 0.05854
1043.20 0.05852
1043.30 0.0585
1043.40 0.05848
1043.50 0.05846
1043.60 0.05843
1043.70 0.05841
1043.80 0.05839
1043.90 0.05837
1044.00 0.05835
1044.10 0.05833
1044.20 0.0583
1044.30 0.05828
1044.40 0.05826
1044.50 0.05824
1044.60 0.05822
1044.70 0.0582
1044.80 0.05817
1044.90 0.05815
1045.00 0.05813
1045.10 0.05811
1045.20 0.05809
1045.30 0.05807
1045.40 0.05804
1045.50 0.05802
1045.60 0.058
1045.70 0.05798
1045.80 0.05796
1045.90 0.05794
1046.00 0.05791
1046.10 0.05789
1046.20 0.05787
1046.30 0.05785
1046.40 0.05783
1046.50 0.05781
1046.60 0.05778
1046.70 0.05776
1046.80 0.05774
1046.90 0.05772
1047.00 0.0577
1047.10 0.05768
1047.20 0.05766
1047.30 0.05763
1047.40 0.05761
1047.50 0.05759
1047.60 0.05757
1047.70 0.05755
1047.80 0.05753
1047.90 0.05751
1048.00 0.05749
1048.10 0.05746
1048.20 0.05744
1048.30 0.05742
1048.40 0.0574
1048.50 0.05738
1048.60 0.05736
1048.70 0.05734
1048.80 0.05731
1048.90 0.05729
1049.00 0.05727
1049.10 0.05725
1049.20 0.05723
1049.30 0.05721
1049.40 0.05719
1049.50 0.05717
1049.60 0.05714
1049.70 0.05712
1049.80 0.0571
1049.90 0.05708
1050.00 0.05706
1050.10 0.05704
1050.20 0.05702
1050.30 0.057
1050.40 0.05698
1050.50 0.05695
1050.60 0.05693
1050.70 0.05691
1050.80 0.05689
1050.90 0.05687
1051.00 0.05685
1051.10 0.05683
1051.20 0.05681
1051.30 0.05679
1051.40 0.05676
1051.50 0.05674
1051.60 0.05672
1051.70 0.0567
1051.80 0.05668
1051.90 0.05666
1052.00 0.05664
1052.10 0.05662
1052.20 0.0566
1052.30 0.05658
1052.40 0.05655
1052.50 0.05653
1052.60 0.05651
1052.70 0.05649
1052.80 0.05647
1052.90 0.05645
1053.00 0.05643
1053.10 0.05641
1053.20 0.05639
1053.30 0.05637
1053.40 0.05635
1053.50 0.05632
1053.60 0.0563
1053.70 0.05628
1053.80 0.05626
1053.90 0.05624
1054.00 0.05622
1054.10 0.0562
1054.20 0.05618
1054.30 0.05616
1054.40 0.05614
1054.50 0.05612
1054.60 0.0561
1054.70 0.05608
1054.80 0.05605
1054.90 0.05603
1055.00 0.05601
1055.10 0.05599
1055.20 0.05597
1055.30 0.05595
1055.40 0.05593
1055.50 0.05591
1055.60 0.05589
1055.70 0.05587
1055.80 0.05585
1055.90 0.05583
1056.00 0.05581
1056.10 0.05579
1056.20 0.05577
1056.30 0.05574
1056.40 0.05572
1056.50 0.0557
1056.60 0.05568
1056.70 0.05566
1056.80 0.05564
1056.90 0.05562
1057.00 0.0556
1057.10 0.05558
1057.20 0.05556
1057.30 0.05554
1057.40 0.05552
1057.50 0.0555
1057.60 0.05548
1057.70 0.05546
1057.80 0.05544
1057.90 0.05542
1058.00 0.0554
1058.10 0.05538
1058.20 0.05536
1058.30 0.05534
1058.40 0.05531
1058.50 0.05529
1058.60 0.05527
1058.70 0.05525
1058.80 0.05523
1058.90 0.05521
1059.00 0.05519
1059.10 0.05517
1059.20 0.05515
1059.30 0.05513
1059.40 0.05511
1059.50 0.05509
1059.60 0.05507
1059.70 0.05505
1059.80 0.05503
1059.90 0.05501
1060.00 0.05499
1060.10 0.05497
1060.20 0.05495
1060.30 0.05493
1060.40 0.05491
1060.50 0.05489
1060.60 0.05487
1060.70 0.05485
1060.80 0.05483
1060.90 0.05481
1061.00 0.05479
1061.10 0.05477
1061.20 0.05475
1061.30 0.05473
1061.40 0.05471
1061.50 0.05469
1061.60 0.05467
1061.70 0.05465
1061.80 0.05463
1061.90 0.05461
1062.00 0.05459
1062.10 0.05457
1062.20 0.05455
1062.30 0.05453
1062.40 0.05451
1062.50 0.05449
1062.60 0.05447
1062.70 0.05445
1062.80 0.05443
1062.90 0.05441
1063.00 0.05439
1063.10 0.05437
1063.20 0.05435
1063.30 0.05433
1063.40 0.05431
1063.50 0.05429
1063.60 0.05427
1063.70 0.05425
1063.80 0.05423
1063.90 0.05421
1064.00 0.05419
1064.10 0.05417
1064.20 0.05415
1064.30 0.05413
1064.40 0.05411
1064.50 0.05409
1064.60 0.05407
1064.70 0.05405
1064.80 0.05403
1064.90 0.05401
1065.00 0.05399
1065.10 0.05397
1065.20 0.05395
1065.30 0.05393
1065.40 0.05391
1065.50 0.05389
1065.60 0.05387
1065.70 0.05385
1065.80 0.05383
1065.90 0.05381
1066.00 0.05379
1066.10 0.05377
1066.20 0.05375
1066.30 0.05373
1066.40 0.05371
1066.50 0.05369
1066.60 0.05367
1066.70 0.05365
1066.80 0.05363
1066.90 0.05361
1067.00 0.05359
1067.10 0.05357
1067.20 0.05355
1067.30 0.05353
1067.40 0.05351
1067.50 0.05349
1067.60 0.05348
1067.70 0.05346
1067.80 0.05344
1067.90 0.05342
1068.00 0.0534
1068.10 0.05338
1068.20 0.05336
1068.30 0.05334
1068.40 0.05332
1068.50 0.0533
1068.60 0.05328
1068.70 0.05326
1068.80 0.05324
1068.90 0.05322
1069.00 0.0532
1069.10 0.05318
1069.20 0.05316
1069.30 0.05314
1069.40 0.05312
1069.50 0.0531
1069.60 0.05308
1069.70 0.05306
1069.80 0.05305
1069.90 0.05303
1070.00 0.05301
1070.10 0.05299
1070.20 0.05297
1070.30 0.05295
1070.40 0.05293
1070.50 0.05291
1070.60 0.05289
1070.70 0.05287
1070.80 0.05285
1070.90 0.05283
1071.00 0.05281
1071.10 0.05279
1071.20 0.05277
1071.30 0.05275
1071.40 0.05273
1071.50 0.05272
1071.60 0.0527
1071.70 0.05268
1071.80 0.05266
1071.90 0.05264
1072.00 0.05262
1072.10 0.0526
1072.20 0.05258
1072.30 0.05256
1072.40 0.05254
1072.50 0.05252
1072.60 0.0525
1072.70 0.05248
1072.80 0.05246
1072.90 0.05245
1073.00 0.05243
1073.10 0.05241
1073.20 0.05239
1073.30 0.05237
1073.40 0.05235
1073.50 0.05233
1073.60 0.05231
1073.70 0.05229
1073.80 0.05227
1073.90 0.05225
1074.00 0.05223
1074.10 0.05221
1074.20 0.0522
1074.30 0.05218
1074.40 0.05216
1074.50 0.05214
1074.60 0.05212
1074.70 0.0521
1074.80 0.05208
1074.90 0.05206
1075.00 0.05204
1075.10 0.05202
1075.20 0.052
1075.30 0.05198
1075.40 0.05196
1075.50 0.05195
1075.60 0.05193
1075.70 0.05191
1075.80 0.05189
1075.90 0.05187
1076.00 0.05185
1076.10 0.05183
1076.20 0.05181
1076.30 0.05179
1076.40 0.05177
1076.50 0.05175
1076.60 0.05174
1076.70 0.05172
1076.80 0.0517
1076.90 0.05168
1077.00 0.05166
1077.10 0.05164
1077.20 0.05162
1077.30 0.0516
1077.40 0.05158
1077.50 0.05156
1077.60 0.05154
1077.70 0.05152
1077.80 0.05151
1077.90 0.05149
1078.00 0.05147
1078.10 0.05145
1078.20 0.05143
1078.30 0.05141
1078.40 0.05139
1078.50 0.05137
1078.60 0.05135
1078.70 0.05133
1078.80 0.05131
1078.90 0.05129
1079.00 0.05128
1079.10 0.05126
1079.20 0.05124
1079.30 0.05122
1079.40 0.0512
1079.50 0.05118
1079.60 0.05116
1079.70 0.05114
1079.80 0.05112
1079.90 0.0511
1080.00 0.05108
1080.10 0.05106
1080.20 0.05104
1080.30 0.05102
1080.40 0.05101
1080.50 0.05099
1080.60 0.05097
1080.70 0.05095
1080.80 0.05093
1080.90 0.05091
1081.00 0.05089
1081.10 0.05087
1081.20 0.05085
1081.30 0.05083
1081.40 0.05081
1081.50 0.05079
1081.60 0.05077
1081.70 0.05075
1081.80 0.05073
1081.90 0.05071
1082.00 0.05069
1082.10 0.05067
1082.20 0.05065
1082.30 0.05063
1082.40 0.05061
1082.50 0.05059
1082.60 0.05057
1082.70 0.05056
1082.80 0.05054
1082.90 0.05052
1083.00 0.0505
1083.10 0.05048
1083.20 0.05046
1083.30 0.05044
1083.40 0.05042
1083.50 0.0504
1083.60 0.05038
1083.70 0.05035
1083.80 0.05033
1083.90 0.05031
1084.00 0.05029
1084.10 0.05027
1084.20 0.05025
1084.30 0.05023
1084.40 0.05021
1084.50 0.05019
1084.60 0.05017
1084.70 0.05015
1084.80 0.05012
1084.90 0.0501
1085.00 0.05008
1085.10 0.05006
1085.20 0.05004
1085.30 0.05002
1085.40 0.04999
1085.50 0.04997
1085.60 0.04995
1085.70 0.04993
1085.80 0.04991
1085.90 0.04988
1086.00 0.04986
1086.10 0.04984
1086.20 0.04982
1086.30 0.0498
1086.40 0.04978
1086.50 0.04975
1086.60 0.04973
1086.70 0.04971
1086.80 0.04968
1086.90 0.04966
1087.00 0.04964
1087.10 0.04961
1087.20 0.04958
1087.30 0.04956
1087.40 0.04953
1087.50 0.0495
1087.60 0.04948
1087.70 0.04945
1087.80 0.04943
1087.90 0.0494
1088.00 0.04937
1088.10 0.04935
1088.20 0.04932
1088.30 0.0493
1088.40 0.04927
1088.50 0.04924
1088.60 0.04921
1088.70 0.04918
1088.80 0.04914
1088.90 0.04911
1089.00 0.04908
1089.10 0.04904
1089.20 0.04901
1089.30 0.04898
1089.40 0.04894
1089.50 0.04891
1089.60 0.04888
1089.70 0.04884
1089.80 0.04881
1089.90 0.04878
1090.00 0.04874
1090.10 0.04871
1090.20 0.04868
1090.30 0.04865
1090.40 0.04861
1090.50 0.04858
1090.60 0.04853
1090.70 0.04849
1090.80 0.04844
1090.90 0.0484
1091.00 0.04835
1091.10 0.04831
1091.20 0.04826
1091.30 0.04822
1091.40 0.04817
1091.50 0.04813
1091.60 0.04808
1091.70 0.04804
1091.80 0.048
1091.90 0.04795
1092.00 0.04791
1092.10 0.04786
1092.20 0.04781
1092.30 0.04776
1092.40 0.04771
1092.50 0.04767
1092.60 0.04762
1092.70 0.04758
1092.80 0.04754
1092.90 0.04751
1093.00 0.04748
1093.10 0.04746
1093.20 0.04746
1093.30 0.04746
1093.40 0.04749
1093.50 0.04753
1093.60 0.04763
1093.70 0.0477
1093.80 0.04775
1093.90 0.04774
1094.00 0.04763
1094.10 0.04751
1094.20 0.04739
1094.30 0.04731
1094.40 0.04729
1094.50 0.04728
1094.60 0.04726
1094.70 0.04725
1094.80 0.04723
1094.90 0.04722
1095.00 0.04721
1095.10 0.04723
1095.20 0.04724
1095.30 0.04725
1095.40 0.04727
1095.50 0.04728
1095.60 0.04729
1095.70 0.04731
1095.80 0.04732
1095.90 0.04733
1096.00 0.04735
1096.10 0.04736
1096.20 0.04737
1096.30 0.04739
1096.40 0.0474
1096.50 0.04741
1096.60 0.04742
1096.70 0.04743
1096.80 0.04744
1096.90 0.04744
1097.00 0.04745
1097.10 0.04745
1097.20 0.04745
1097.30 0.04745
1097.40 0.04745
1097.50 0.04745
1097.60 0.04746
1097.70 0.04746
1097.80 0.04746
1097.90 0.04746
1098.00 0.04746
1098.10 0.04746
1098.20 0.04746
1098.30 0.04746
1098.40 0.04746
1098.50 0.04746
1098.60 0.04745
1098.70 0.04744
1098.80 0.04744
1098.90 0.04743
1099.00 0.04742
1099.10 0.04741
1099.20 0.04741
1099.30 0.0474
1099.40 0.04739
1099.50 0.04738
1099.60 0.04738
1099.70 0.04737
1099.80 0.04736
1099.90 0.04735
1100.00 0.04735
1100.10 0.04734
1100.20 0.04733
1100.30 0.04732
1100.40 0.04732
1100.50 0.04731
1100.60 0.0473
1100.70 0.04728
1100.80 0.04727
1100.90 0.04726
1101.00 0.04725
1101.10 0.04724
1101.20 0.04722
1101.30 0.04721
1101.40 0.0472
1101.50 0.04719
1101.60 0.04718
1101.70 0.04717
1101.80 0.04715
1101.90 0.04714
1102.00 0.04713
1102.10 0.04712
1102.20 0.0471
1102.30 0.04709
1102.40 0.04708
1102.50 0.04706
1102.60 0.04705
1102.70 0.04704
1102.80 0.04702
1102.90 0.04701
1103.00 0.04699
1103.10 0.04698
1103.20 0.04697
1103.30 0.04695
1103.40 0.04694
1103.50 0.04692
1103.60 0.04691
1103.70 0.04689
1103.80 0.04688
1103.90 0.04686
1104.00 0.04685
1104.10 0.04683
1104.20 0.04682
1104.30 0.04681
1104.40 0.04679
1104.50 0.04678
1104.60 0.04676
1104.70 0.04675
1104.80 0.04673
1104.90 0.04672
1105.00 0.0467
1105.10 0.04669
1105.20 0.04667
1105.30 0.04666
1105.40 0.04664
1105.50 0.04663
1105.60 0.04661
1105.70 0.0466
1105.80 0.04658
1105.90 0.04657
1106.00 0.04655
1106.10 0.04654
1106.20 0.04652
1106.30 0.04651
1106.40 0.04649
1106.50 0.04647
1106.60 0.04646
1106.70 0.04644
1106.80 0.04643
1106.90 0.04641
1107.00 0.0464
1107.10 0.04638
1107.20 0.04637
1107.30 0.04635
1107.40 0.04634
1107.50 0.04632
1107.60 0.0463
1107.70 0.04629
1107.80 0.04627
1107.90 0.04626
1108.00 0.04624
1108.10 0.04623
1108.20 0.04621
1108.30 0.04619
1108.40 0.04618
1108.50 0.04616
1108.60 0.04615
1108.70 0.04613
1108.80 0.04612
1108.90 0.0461
1109.00 0.04609
1109.10 0.04607
1109.20 0.04605
1109.30 0.04604
1109.40 0.04602
1109.50 0.04601
1109.60 0.04599
1109.70 0.04598
1109.80 0.04596
1109.90 0.04594
1110.00 0.04593
1110.10 0.04591
1110.20 0.0459
1110.30 0.04588
1110.40 0.04587
1110.50 0.04585
1110.60 0.04583
1110.70 0.04582
1110.80 0.0458
1110.90 0.04579
1111.00 0.04577
1111.10 0.04576
1111.20 0.04574
1111.30 0.04572
1111.40 0.04571
1111.50 0.04569
1111.60 0.04568
1111.70 0.04566
1111.80 0.04565
1111.90 0.04563
1112.00 0.04561
1112.10 0.0456
1112.20 0.04558
1112.30 0.04557
1112.40 0.04555
1112.50 0.04554
1112.60 0.04552
1112.70 0.0455
1112.80 0.04549
1112.90 0.04547
1113.00 0.04546
1113.10 0.04544
1113.20 0.04543
1113.30 0.04541
1113.40 0.0454
1113.50 0.04538
1113.60 0.04536
1113.70 0.04535
1113.80 0.04533
1113.90 0.04532
1114.00 0.0453
1114.10 0.04529
1114.20 0.04527
1114.30 0.04525
1114.40 0.04524
1114.50 0.04522
1114.60 0.04521
1114.70 0.04519
1114.80 0.04518
1114.90 0.04516
1115.00 0.04514
1115.10 0.04513
1115.20 0.04511
1115.30 0.0451
1115.40 0.04508
1115.50 0.04507
1115.60 0.04505
1115.70 0.04504
1115.80 0.04502
1115.90 0.045
1116.00 0.04499
1116.10 0.04497
1116.20 0.04496
1116.30 0.04494
1116.40 0.04493
1116.50 0.04491
1116.60 0.0449
1116.70 0.04488
1116.80 0.04486
1116.90 0.04485
1117.00 0.04483
1117.10 0.04482
1117.20 0.0448
1117.30 0.04479
1117.40 0.04477
1117.50 0.04476
1117.60 0.04474
1117.70 0.04472
1117.80 0.04471
1117.90 0.04469
1118.00 0.04468
1118.10 0.04466
1118.20 0.04465
1118.30 0.04463
1118.40 0.04462
1118.50 0.0446
1118.60 0.04459
1118.70 0.04457
1118.80 0.04455
1118.90 0.04454
1119.00 0.04452
1119.10 0.04451
1119.20 0.04449
1119.30 0.04448
1119.40 0.04446
1119.50 0.04445
1119.60 0.04443
1119.70 0.04442
1119.80 0.0444
1119.90 0.04439
1120.00 0.04437
1120.10 0.04435
1120.20 0.04434
1120.30 0.04432
1120.40 0.04431
1120.50 0.04429
1120.60 0.04428
1120.70 0.04426
1120.80 0.04425
1120.90 0.04423
1121.00 0.04422
1121.10 0.0442
1121.20 0.04419
1121.30 0.04417
1121.40 0.04416
1121.50 0.04414
1121.60 0.04412
1121.70 0.04411
1121.80 0.04409
1121.90 0.04408
1122.00 0.04406
1122.10 0.04405
1122.20 0.04403
1122.30 0.04402
1122.40 0.044
1122.50 0.04399
1122.60 0.04397
1122.70 0.04396
1122.80 0.04394
1122.90 0.04393
1123.00 0.04391
1123.10 0.0439
1123.20 0.04388
1123.30 0.04387
1123.40 0.04385
1123.50 0.04384
1123.60 0.04382
1123.70 0.04381
1123.80 0.04379
1123.90 0.04378
1124.00 0.04376
1124.10 0.04375
1124.20 0.04373
1124.30 0.04371
1124.40 0.0437
1124.50 0.04368
1124.60 0.04367
1124.70 0.04365
1124.80 0.04364
1124.90 0.04362
1125.00 0.04361
1125.10 0.04359
1125.20 0.04358
1125.30 0.04356
1125.40 0.04355
1125.50 0.04353
1125.60 0.04352
1125.70 0.0435
1125.80 0.04349
1125.90 0.04347
1126.00 0.04346
1126.10 0.04344
1126.20 0.04343
1126.30 0.04341
1126.40 0.0434
1126.50 0.04338
1126.60 0.04337
1126.70 0.04335
1126.80 0.04334
1126.90 0.04332
1127.00 0.04331
1127.10 0.04329
1127.20 0.04328
1127.30 0.04326
1127.40 0.04325
1127.50 0.04323
1127.60 0.04322
1127.70 0.0432
1127.80 0.04319
1127.90 0.04317
1128.00 0.04316
1128.10 0.04314
1128.20 0.04313
1128.30 0.04312
1128.40 0.0431
1128.50 0.04309
1128.60 0.04307
1128.70 0.04306
1128.80 0.04304
1128.90 0.04303
1129.00 0.04301
1129.10 0.043
1129.20 0.04298
1129.30 0.04297
1129.40 0.04295
1129.50 0.04294
1129.60 0.04292
1129.70 0.04291
1129.80 0.04289
1129.90 0.04288
1130.00 0.04286
1130.10 0.04285
1130.20 0.04283
1130.30 0.04282
1130.40 0.0428
1130.50 0.04279
1130.60 0.04277
1130.70 0.04276
1130.80 0.04275
1130.90 0.04273
1131.00 0.04272
1131.10 0.0427
1131.20 0.04269
1131.30 0.04267
1131.40 0.04266
1131.50 0.04264
1131.60 0.04263
1131.70 0.04261
1131.80 0.0426
1131.90 0.04258
1132.00 0.04257
1132.10 0.04255
1132.20 0.04254
1132.30 0.04252
1132.40 0.04251
1132.50 0.0425
1132.60 0.04248
1132.70 0.04247
1132.80 0.04245
1132.90 0.04244
1133.00 0.04242
1133.10 0.04241
1133.20 0.04239
1133.30 0.04238
1133.40 0.04236
1133.50 0.04235
1133.60 0.04234
1133.70 0.04232
1133.80 0.04231
1133.90 0.04229
1134.00 0.04228
1134.10 0.04226
1134.20 0.04225
1134.30 0.04223
1134.40 0.04222
1134.50 0.04221
1134.60 0.04219
1134.70 0.04218
1134.80 0.04216
1134.90 0.04215
1135.00 0.04213
1135.10 0.04212
1135.20 0.0421
1135.30 0.04209
1135.40 0.04207
1135.50 0.04206
1135.60 0.04205
1135.70 0.04203
1135.80 0.04202
1135.90 0.042
1136.00 0.04199
1136.10 0.04197
1136.20 0.04196
1136.30 0.04195
1136.40 0.04193
1136.50 0.04192
1136.60 0.0419
1136.70 0.04189
1136.80 0.04187
1136.90 0.04186
1137.00 0.04184
1137.10 0.04183
1137.20 0.04182
1137.30 0.0418
1137.40 0.04179
1137.50 0.04177
1137.60 0.04176
1137.70 0.04174
1137.80 0.04173
1137.90 0.04172
1138.00 0.0417
1138.10 0.04169
1138.20 0.04167
1138.30 0.04166
1138.40 0.04164
1138.50 0.04163
1138.60 0.04162
1138.70 0.0416
1138.80 0.04159
1138.90 0.04157
1139.00 0.04156
1139.10 0.04155
1139.20 0.04153
1139.30 0.04152
1139.40 0.0415
1139.50 0.04149
1139.60 0.04147
1139.70 0.04146
1139.80 0.04145
1139.90 0.04143
1140.00 0.04142
1140.10 0.0414
1140.20 0.04139
1140.30 0.04138
1140.40 0.04136
1140.50 0.04135
1140.60 0.04133
1140.70 0.04132
1140.80 0.0413
1140.90 0.04129
1141.00 0.04128
1141.10 0.04126
1141.20 0.04125
1141.30 0.04123
1141.40 0.04122
1141.50 0.04121
1141.60 0.04119
1141.70 0.04118
1141.80 0.04116
1141.90 0.04115
1142.00 0.04114
1142.10 0.04112
1142.20 0.04111
1142.30 0.04109
1142.40 0.04108
1142.50 0.04107
1142.60 0.04105
1142.70 0.04104
1142.80 0.04102
1142.90 0.04101
1143.00 0.041
1143.10 0.04098
1143.20 0.04097
1143.30 0.04095
1143.40 0.04094
1143.50 0.04093
1143.60 0.04091
1143.70 0.0409
1143.80 0.04088
1143.90 0.04087
1144.00 0.04086
1144.10 0.04084
1144.20 0.04083
1144.30 0.04081
1144.40 0.0408
1144.50 0.04079
1144.60 0.04077
1144.70 0.04076
1144.80 0.04074
1144.90 0.04073
1145.00 0.04072
1145.10 0.0407
1145.20 0.04069
1145.30 0.04068
1145.40 0.04066
1145.50 0.04065
1145.60 0.04063
1145.70 0.04062
1145.80 0.04061
1145.90 0.04059
1146.00 0.04058
1146.10 0.04056
1146.20 0.04055
1146.30 0.04054
1146.40 0.04052
1146.50 0.04051
1146.60 0.0405
1146.70 0.04048
1146.80 0.04047
1146.90 0.04045
1147.00 0.04044
1147.10 0.04043
1147.20 0.04041
1147.30 0.0404
1147.40 0.04039
1147.50 0.04037
1147.60 0.04036
1147.70 0.04034
1147.80 0.04033
1147.90 0.04032
1148.00 0.0403
1148.10 0.04029
1148.20 0.04028
1148.30 0.04026
1148.40 0.04025
1148.50 0.04024
1148.60 0.04022
1148.70 0.04021
1148.80 0.04019
1148.90 0.04018
1149.00 0.04017
1149.10 0.04015
1149.20 0.04014
1149.30 0.04013
1149.40 0.04011
1149.50 0.0401
1149.60 0.04009
1149.70 0.04007
1149.80 0.04006
1149.90 0.04004
1150.00 0.04003
1150.10 0.04002
1150.20 0.04
1150.30 0.03999
1150.40 0.03998
1150.50 0.03996
1150.60 0.03995
1150.70 0.03994
1150.80 0.03992
1150.90 0.03991
1151.00 0.0399
1151.10 0.03988
1151.20 0.03987
1151.30 0.03986
1151.40 0.03984
1151.50 0.03983
1151.60 0.03981
1151.70 0.0398
1151.80 0.03979
1151.90 0.03977
1152.00 0.03976
1152.10 0.03975
1152.20 0.03973
1152.30 0.03972
1152.40 0.03971
1152.50 0.03969
1152.60 0.03968
1152.70 0.03967
1152.80 0.03965
1152.90 0.03964
1153.00 0.03963
1153.10 0.03961
1153.20 0.0396
1153.30 0.03959
1153.40 0.03957
1153.50 0.03956
1153.60 0.03955
1153.70 0.03953
1153.80 0.03952
1153.90 0.03951
1154.00 0.03949
1154.10 0.03948
1154.20 0.03947
1154.30 0.03945
1154.40 0.03944
1154.50 0.03943
1154.60 0.03941
1154.70 0.0394
1154.80 0.03939
1154.90 0.03937
1155.00 0.03936
1155.10 0.03935
1155.20 0.03933
1155.30 0.03932
1155.40 0.03931
1155.50 0.03929
1155.60 0.03928
1155.70 0.03927
1155.80 0.03925
1155.90 0.03924
1156.00 0.03923
1156.10 0.03921
1156.20 0.0392
1156.30 0.03919
1156.40 0.03917
1156.50 0.03916
1156.60 0.03915
1156.70 0.03913
1156.80 0.03912
1156.90 0.03911
1157.00 0.03909
1157.10 0.03908
1157.20 0.03907
1157.30 0.03906
1157.40 0.03904
1157.50 0.03903
1157.60 0.03902
1157.70 0.039
1157.80 0.03899
1157.90 0.03898
1158.00 0.03896
1158.10 0.03895
1158.20 0.03894
1158.30 0.03892
1158.40 0.03891
1158.50 0.0389
1158.60 0.03889
1158.70 0.03887
1158.80 0.03886
1158.90 0.03885
1159.00 0.03883
1159.10 0.03882
1159.20 0.03881
1159.30 0.03879
1159.40 0.03878
1159.50 0.03877
1159.60 0.03875
1159.70 0.03874
1159.80 0.03873
1159.90 0.03872
1160.00 0.0387
1160.10 0.03869
1160.20 0.03868
1160.30 0.03866
1160.40 0.03865
1160.50 0.03864
1160.60 0.03862
1160.70 0.03861
1160.80 0.0386
1160.90 0.03859
1161.00 0.03857
1161.10 0.03856
1161.20 0.03855
1161.30 0.03853
1161.40 0.03852
1161.50 0.03851
1161.60 0.03849
1161.70 0.03848
1161.80 0.03847
1161.90 0.03846
1162.00 0.03844
1162.10 0.03843
1162.20 0.03842
1162.30 0.0384
1162.40 0.03839
1162.50 0.03838
1162.60 0.03837
1162.70 0.03835
1162.80 0.03834
1162.90 0.03833
1163.00 0.03831
1163.10 0.0383
1163.20 0.03829
1163.30 0.03828
1163.40 0.03826
1163.50 0.03825
1163.60 0.03824
1163.70 0.03822
1163.80 0.03821
1163.90 0.0382
1164.00 0.03819
1164.10 0.03817
1164.20 0.03816
1164.30 0.03815
1164.40 0.03814
1164.50 0.03812
1164.60 0.03811
1164.70 0.0381
1164.80 0.03808
1164.90 0.03807
1165.00 0.03806
1165.10 0.03805
1165.20 0.03803
1165.30 0.03802
1165.40 0.03801
1165.50 0.038
1165.60 0.03798
1165.70 0.03797
1165.80 0.03796
1165.90 0.03794
1166.00 0.03793
1166.10 0.03792
1166.20 0.03791
1166.30 0.03789
1166.40 0.03788
1166.50 0.03787
1166.60 0.03786
1166.70 0.03784
1166.80 0.03783
1166.90 0.03782
1167.00 0.0378
1167.10 0.03779
1167.20 0.03778
1167.30 0.03777
1167.40 0.03775
1167.50 0.03774
1167.60 0.03773
1167.70 0.03772
1167.80 0.0377
1167.90 0.03769
1168.00 0.03768
1168.10 0.03767
1168.20 0.03765
1168.30 0.03764
1168.40 0.03763
1168.50 0.03762
1168.60 0.0376
1168.70 0.03759
1168.80 0.03758
1168.90 0.03757
1169.00 0.03755
1169.10 0.03754
1169.20 0.03753
1169.30 0.03752
1169.40 0.0375
1169.50 0.03749
1169.60 0.03748
1169.70 0.03747
1169.80 0.03745
1169.90 0.03744
1170.00 0.03743
1170.10 0.03742
1170.20 0.0374
1170.30 0.03739
1170.40 0.03738
1170.50 0.03737
1170.60 0.03735
1170.70 0.03734
1170.80 0.03733
1170.90 0.03732
1171.00 0.0373
1171.10 0.03729
1171.20 0.03728
1171.30 0.03727
1171.40 0.03725
1171.50 0.03724
1171.60 0.03723
1171.70 0.03722
1171.80 0.0372
1171.90 0.03719
1172.00 0.03718
1172.10 0.03717
1172.20 0.03715
1172.30 0.03714
1172.40 0.03713
1172.50 0.03712
1172.60 0.03711
1172.70 0.03709
1172.80 0.03708
1172.90 0.03707
1173.00 0.03706
1173.10 0.03704
1173.20 0.03703
1173.30 0.03702
1173.40 0.03701
1173.50 0.03699
1173.60 0.03698
1173.70 0.03697
1173.80 0.03696
1173.90 0.03695
1174.00 0.03693
1174.10 0.03692
1174.20 0.03691
1174.30 0.0369
1174.40 0.03688
1174.50 0.03687
1174.60 0.03686
1174.70 0.03685
1174.80 0.03684
1174.90 0.03682
1175.00 0.03681
1175.10 0.0368
1175.20 0.03679
1175.30 0.03677
1175.40 0.03676
1175.50 0.03675
1175.60 0.03674
1175.70 0.03673
1175.80 0.03671
1175.90 0.0367
1176.00 0.03669
1176.10 0.03668
1176.20 0.03666
1176.30 0.03665
1176.40 0.03664
1176.50 0.03663
1176.60 0.03662
1176.70 0.0366
1176.80 0.03659
1176.90 0.03658
1177.00 0.03657
1177.10 0.03656
1177.20 0.03654
1177.30 0.03653
1177.40 0.03652
1177.50 0.03651
1177.60 0.03649
1177.70 0.03648
1177.80 0.03647
1177.90 0.03646
1178.00 0.03645
1178.10 0.03643
1178.20 0.03642
1178.30 0.03641
1178.40 0.0364
1178.50 0.03639
1178.60 0.03637
1178.70 0.03636
1178.80 0.03635
1178.90 0.03634
1179.00 0.03633
1179.10 0.03631
1179.20 0.0363
1179.30 0.03629
1179.40 0.03628
1179.50 0.03627
1179.60 0.03625
1179.70 0.03624
1179.80 0.03623
1179.90 0.03622
1180.00 0.03621
1180.10 0.03619
1180.20 0.03618
1180.30 0.03617
1180.40 0.03616
1180.50 0.03615
1180.60 0.03613
1180.70 0.03612
1180.80 0.03611
1180.90 0.0361
1181.00 0.03609
1181.10 0.03607
1181.20 0.03606
1181.30 0.03605
1181.40 0.03604
1181.50 0.03603
1181.60 0.03601
1181.70 0.036
1181.80 0.03599
1181.90 0.03598
1182.00 0.03597
1182.10 0.03596
1182.20 0.03594
1182.30 0.03593
1182.40 0.03592
1182.50 0.03591
1182.60 0.0359
1182.70 0.03588
1182.80 0.03587
1182.90 0.03586
1183.00 0.03585
1183.10 0.03584
1183.20 0.03583
1183.30 0.03581
1183.40 0.0358
1183.50 0.03579
1183.60 0.03578
1183.70 0.03577
1183.80 0.03575
1183.90 0.03574
1184.00 0.03573
1184.10 0.03572
1184.20 0.03571
1184.30 0.0357
1184.40 0.03568
1184.50 0.03567
1184.60 0.03566
1184.70 0.03565
1184.80 0.03564
1184.90 0.03563
1185.00 0.03561
1185.10 0.0356
1185.20 0.03559
1185.30 0.03558
1185.40 0.03557
1185.50 0.03556
1185.60 0.03554
1185.70 0.03553
1185.80 0.03552
1185.90 0.03551
1186.00 0.0355
1186.10 0.03548
1186.20 0.03547
1186.30 0.03546
1186.40 0.03545
1186.50 0.03544
1186.60 0.03543
1186.70 0.03541
1186.80 0.0354
1186.90 0.03539
1187.00 0.03538
1187.10 0.03537
1187.20 0.03536
1187.30 0.03534
1187.40 0.03533
1187.50 0.03532
1187.60 0.03531
1187.70 0.0353
1187.80 0.03529
1187.90 0.03528
1188.00 0.03526
1188.10 0.03525
1188.20 0.03524
1188.30 0.03523
1188.40 0.03522
1188.50 0.03521
1188.60 0.03519
1188.70 0.03518
1188.80 0.03517
1188.90 0.03516
1189.00 0.03515
1189.10 0.03514
1189.20 0.03513
1189.30 0.03511
1189.40 0.0351
1189.50 0.03509
1189.60 0.03508
1189.70 0.03507
1189.80 0.03506
1189.90 0.03504
1190.00 0.03503
1190.10 0.03502
1190.20 0.03501
1190.30 0.035
1190.40 0.03499
1190.50 0.03498
1190.60 0.03496
1190.70 0.03495
1190.80 0.03494
1190.90 0.03493
1191.00 0.03492
1191.10 0.03491
1191.20 0.0349
1191.30 0.03488
1191.40 0.03487
1191.50 0.03486
1191.60 0.03485
1191.70 0.03484
1191.80 0.03483
1191.90 0.03482
1192.00 0.0348
1192.10 0.03479
1192.20 0.03478
1192.30 0.03477
1192.40 0.03476
1192.50 0.03475
1192.60 0.03474
1192.70 0.03472
1192.80 0.03471
1192.90 0.0347
1193.00 0.03469
1193.10 0.03468
1193.20 0.03467
1193.30 0.03466
1193.40 0.03465
1193.50 0.03463
1193.60 0.03462
1193.70 0.03461
1193.80 0.0346
1193.90 0.03459
1194.00 0.03458
1194.10 0.03457
1194.20 0.03456
1194.30 0.03454
1194.40 0.03453
1194.50 0.03452
1194.60 0.03451
1194.70 0.0345
1194.80 0.03449
1194.90 0.03448
1195.00 0.03447
1195.10 0.03445
1195.20 0.03444
1195.30 0.03443
1195.40 0.03442
1195.50 0.03441
1195.60 0.0344
1195.70 0.03439
1195.80 0.03438
1195.90 0.03436
1196.00 0.03435
1196.10 0.03434
1196.20 0.03433
1196.30 0.03432
1196.40 0.03431
1196.50 0.0343
1196.60 0.03429
1196.70 0.03427
1196.80 0.03426
1196.90 0.03425
1197.00 0.03424
1197.10 0.03423
1197.20 0.03422
1197.30 0.03421
1197.40 0.0342
1197.50 0.03418
1197.60 0.03417
1197.70 0.03416
1197.80 0.03415
1197.90 0.03414
1198.00 0.03413
1198.10 0.03412
1198.20 0.03411
1198.30 0.0341
1198.40 0.03409
1198.50 0.03407
1198.60 0.03406
1198.70 0.03405
1198.80 0.03404
1198.90 0.03403
1199.00 0.03402
1199.10 0.03401
1199.20 0.034
1199.30 0.03399
1199.40 0.03397
1199.50 0.03396
1199.60 0.03395
1199.70 0.03394
1199.80 0.03393
1199.90 0.03392
1200.00 0
