# Version 2.1 - nm, norm@500 to 1, cut digits, bergeron_85000_95.dat_85000
# Wavelength(nm)  Flambda(ergs/cm^s/s/nm)
300.00 6.769
300.10 6.76
300.20 6.752
300.30 6.743
300.40 6.735
300.50 6.726
300.60 6.718
300.70 6.71
300.80 6.701
300.90 6.693
301.00 6.685
301.10 6.676
301.20 6.668
301.30 6.66
301.40 6.651
301.50 6.643
301.60 6.635
301.70 6.627
301.80 6.618
301.90 6.61
302.00 6.602
302.10 6.594
302.20 6.586
302.30 6.578
302.40 6.569
302.50 6.561
302.60 6.553
302.70 6.545
302.80 6.537
302.90 6.529
303.00 6.521
303.10 6.513
303.20 6.505
303.30 6.497
303.40 6.489
303.50 6.481
303.60 6.473
303.70 6.465
303.80 6.457
303.90 6.449
304.00 6.441
304.10 6.433
304.20 6.425
304.30 6.417
304.40 6.409
304.50 6.401
304.60 6.393
304.70 6.385
304.80 6.378
304.90 6.37
305.00 6.362
305.10 6.354
305.20 6.346
305.30 6.338
305.40 6.331
305.50 6.323
305.60 6.315
305.70 6.307
305.80 6.3
305.90 6.292
306.00 6.284
306.10 6.277
306.20 6.269
306.30 6.261
306.40 6.253
306.50 6.246
306.60 6.238
306.70 6.231
306.80 6.223
306.90 6.215
307.00 6.208
307.10 6.2
307.20 6.193
307.30 6.185
307.40 6.177
307.50 6.17
307.60 6.162
307.70 6.155
307.80 6.147
307.90 6.14
308.00 6.132
308.10 6.125
308.20 6.118
308.30 6.11
308.40 6.103
308.50 6.095
308.60 6.088
308.70 6.08
308.80 6.073
308.90 6.066
309.00 6.058
309.10 6.051
309.20 6.044
309.30 6.036
309.40 6.029
309.50 6.022
309.60 6.014
309.70 6.007
309.80 6
309.90 5.993
310.00 5.985
310.10 5.978
310.20 5.971
310.30 5.964
310.40 5.956
310.50 5.949
310.60 5.942
310.70 5.935
310.80 5.928
310.90 5.921
311.00 5.913
311.10 5.906
311.20 5.899
311.30 5.892
311.40 5.885
311.50 5.878
311.60 5.871
311.70 5.864
311.80 5.857
311.90 5.85
312.00 5.843
312.10 5.835
312.20 5.828
312.30 5.821
312.40 5.814
312.50 5.807
312.60 5.801
312.70 5.794
312.80 5.787
312.90 5.78
313.00 5.773
313.10 5.766
313.20 5.759
313.30 5.752
313.40 5.745
313.50 5.738
313.60 5.731
313.70 5.724
313.80 5.718
313.90 5.711
314.00 5.704
314.10 5.697
314.20 5.69
314.30 5.684
314.40 5.677
314.50 5.67
314.60 5.663
314.70 5.656
314.80 5.65
314.90 5.643
315.00 5.636
315.10 5.63
315.20 5.623
315.30 5.616
315.40 5.609
315.50 5.603
315.60 5.596
315.70 5.589
315.80 5.583
315.90 5.576
316.00 5.57
316.10 5.563
316.20 5.556
316.30 5.55
316.40 5.543
316.50 5.537
316.60 5.53
316.70 5.523
316.80 5.517
316.90 5.51
317.00 5.504
317.10 5.497
317.20 5.491
317.30 5.484
317.40 5.478
317.50 5.471
317.60 5.465
317.70 5.458
317.80 5.452
317.90 5.445
318.00 5.439
318.10 5.433
318.20 5.426
318.30 5.42
318.40 5.413
318.50 5.407
318.60 5.401
318.70 5.394
318.80 5.388
318.90 5.382
319.00 5.375
319.10 5.369
319.20 5.363
319.30 5.356
319.40 5.35
319.50 5.344
319.60 5.337
319.70 5.331
319.80 5.325
319.90 5.319
320.00 5.312
320.10 5.306
320.20 5.3
320.30 5.294
320.40 5.287
320.50 5.281
320.60 5.275
320.70 5.269
320.80 5.263
320.90 5.257
321.00 5.25
321.10 5.244
321.20 5.238
321.30 5.232
321.40 5.226
321.50 5.22
321.60 5.214
321.70 5.208
321.80 5.202
321.90 5.195
322.00 5.189
322.10 5.183
322.20 5.177
322.30 5.171
322.40 5.165
322.50 5.159
322.60 5.153
322.70 5.147
322.80 5.141
322.90 5.135
323.00 5.129
323.10 5.123
323.20 5.117
323.30 5.111
323.40 5.105
323.50 5.099
323.60 5.094
323.70 5.088
323.80 5.082
323.90 5.076
324.00 5.07
324.10 5.064
324.20 5.058
324.30 5.052
324.40 5.046
324.50 5.041
324.60 5.035
324.70 5.029
324.80 5.023
324.90 5.017
325.00 5.012
325.10 5.006
325.20 5
325.30 4.994
325.40 4.988
325.50 4.983
325.60 4.977
325.70 4.971
325.80 4.965
325.90 4.96
326.00 4.954
326.10 4.948
326.20 4.942
326.30 4.937
326.40 4.931
326.50 4.925
326.60 4.92
326.70 4.914
326.80 4.908
326.90 4.903
327.00 4.897
327.10 4.891
327.20 4.886
327.30 4.88
327.40 4.875
327.50 4.869
327.60 4.863
327.70 4.858
327.80 4.852
327.90 4.847
328.00 4.841
328.10 4.836
328.20 4.83
328.30 4.825
328.40 4.819
328.50 4.814
328.60 4.808
328.70 4.803
328.80 4.797
328.90 4.792
329.00 4.786
329.10 4.781
329.20 4.775
329.30 4.77
329.40 4.764
329.50 4.759
329.60 4.753
329.70 4.748
329.80 4.742
329.90 4.737
330.00 4.732
330.10 4.726
330.20 4.721
330.30 4.716
330.40 4.71
330.50 4.705
330.60 4.7
330.70 4.694
330.80 4.689
330.90 4.684
331.00 4.678
331.10 4.673
331.20 4.668
331.30 4.662
331.40 4.657
331.50 4.652
331.60 4.646
331.70 4.641
331.80 4.636
331.90 4.631
332.00 4.625
332.10 4.62
332.20 4.615
332.30 4.61
332.40 4.604
332.50 4.599
332.60 4.594
332.70 4.589
332.80 4.584
332.90 4.578
333.00 4.573
333.10 4.568
333.20 4.563
333.30 4.558
333.40 4.553
333.50 4.547
333.60 4.542
333.70 4.537
333.80 4.532
333.90 4.527
334.00 4.522
334.10 4.517
334.20 4.512
334.30 4.507
334.40 4.502
334.50 4.496
334.60 4.491
334.70 4.486
334.80 4.481
334.90 4.476
335.00 4.471
335.10 4.466
335.20 4.461
335.30 4.456
335.40 4.451
335.50 4.446
335.60 4.441
335.70 4.436
335.80 4.431
335.90 4.426
336.00 4.421
336.10 4.416
336.20 4.411
336.30 4.406
336.40 4.402
336.50 4.397
336.60 4.392
336.70 4.387
336.80 4.382
336.90 4.377
337.00 4.372
337.10 4.367
337.20 4.362
337.30 4.357
337.40 4.353
337.50 4.348
337.60 4.343
337.70 4.338
337.80 4.333
337.90 4.328
338.00 4.323
338.10 4.319
338.20 4.314
338.30 4.309
338.40 4.304
338.50 4.3
338.60 4.295
338.70 4.29
338.80 4.285
338.90 4.28
339.00 4.276
339.10 4.271
339.20 4.266
339.30 4.261
339.40 4.257
339.50 4.252
339.60 4.247
339.70 4.243
339.80 4.238
339.90 4.233
340.00 4.228
340.10 4.224
340.20 4.219
340.30 4.214
340.40 4.21
340.50 4.205
340.60 4.2
340.70 4.196
340.80 4.191
340.90 4.187
341.00 4.182
341.10 4.177
341.20 4.173
341.30 4.168
341.40 4.163
341.50 4.159
341.60 4.154
341.70 4.15
341.80 4.145
341.90 4.141
342.00 4.136
342.10 4.131
342.20 4.127
342.30 4.122
342.40 4.118
342.50 4.113
342.60 4.109
342.70 4.104
342.80 4.1
342.90 4.095
343.00 4.091
343.10 4.086
343.20 4.082
343.30 4.077
343.40 4.073
343.50 4.068
343.60 4.064
343.70 4.059
343.80 4.055
343.90 4.05
344.00 4.046
344.10 4.042
344.20 4.037
344.30 4.033
344.40 4.028
344.50 4.024
344.60 4.02
344.70 4.015
344.80 4.011
344.90 4.006
345.00 4.002
345.10 3.998
345.20 3.993
345.30 3.989
345.40 3.985
345.50 3.98
345.60 3.976
345.70 3.971
345.80 3.967
345.90 3.963
346.00 3.958
346.10 3.954
346.20 3.95
346.30 3.946
346.40 3.941
346.50 3.937
346.60 3.933
346.70 3.928
346.80 3.924
346.90 3.92
347.00 3.916
347.10 3.911
347.20 3.907
347.30 3.903
347.40 3.899
347.50 3.894
347.60 3.89
347.70 3.886
347.80 3.882
347.90 3.878
348.00 3.873
348.10 3.869
348.20 3.865
348.30 3.861
348.40 3.857
348.50 3.852
348.60 3.848
348.70 3.844
348.80 3.84
348.90 3.836
349.00 3.832
349.10 3.828
349.20 3.823
349.30 3.819
349.40 3.815
349.50 3.811
349.60 3.807
349.70 3.803
349.80 3.799
349.90 3.795
350.00 3.79
350.10 3.786
350.20 3.782
350.30 3.778
350.40 3.774
350.50 3.77
350.60 3.766
350.70 3.762
350.80 3.758
350.90 3.754
351.00 3.75
351.10 3.746
351.20 3.742
351.30 3.738
351.40 3.734
351.50 3.73
351.60 3.726
351.70 3.722
351.80 3.718
351.90 3.714
352.00 3.71
352.10 3.706
352.20 3.702
352.30 3.698
352.40 3.694
352.50 3.69
352.60 3.686
352.70 3.682
352.80 3.678
352.90 3.674
353.00 3.67
353.10 3.666
353.20 3.663
353.30 3.659
353.40 3.655
353.50 3.651
353.60 3.647
353.70 3.643
353.80 3.639
353.90 3.635
354.00 3.631
354.10 3.627
354.20 3.624
354.30 3.62
354.40 3.616
354.50 3.612
354.60 3.608
354.70 3.604
354.80 3.601
354.90 3.597
355.00 3.593
355.10 3.589
355.20 3.585
355.30 3.581
355.40 3.578
355.50 3.574
355.60 3.57
355.70 3.566
355.80 3.562
355.90 3.559
356.00 3.555
356.10 3.551
356.20 3.547
356.30 3.544
356.40 3.54
356.50 3.536
356.60 3.532
356.70 3.529
356.80 3.525
356.90 3.521
357.00 3.517
357.10 3.514
357.20 3.51
357.30 3.506
357.40 3.503
357.50 3.499
357.60 3.495
357.70 3.491
357.80 3.488
357.90 3.484
358.00 3.48
358.10 3.477
358.20 3.473
358.30 3.469
358.40 3.466
358.50 3.462
358.60 3.459
358.70 3.455
358.80 3.451
358.90 3.448
359.00 3.444
359.10 3.44
359.20 3.437
359.30 3.433
359.40 3.43
359.50 3.426
359.60 3.422
359.70 3.419
359.80 3.415
359.90 3.412
360.00 3.408
360.10 3.404
360.20 3.401
360.30 3.397
360.40 3.394
360.50 3.39
360.60 3.387
360.70 3.383
360.80 3.38
360.90 3.376
361.00 3.372
361.10 3.369
361.20 3.365
361.30 3.362
361.40 3.358
361.50 3.355
361.60 3.351
361.70 3.348
361.80 3.344
361.90 3.341
362.00 3.337
362.10 3.334
362.20 3.33
362.30 3.327
362.40 3.323
362.50 3.32
362.60 3.316
362.70 3.313
362.80 3.31
362.90 3.306
363.00 3.303
363.10 3.299
363.20 3.296
363.30 3.292
363.40 3.289
363.50 3.286
363.60 3.282
363.70 3.279
363.80 3.275
363.90 3.272
364.00 3.269
364.10 3.265
364.20 3.262
364.30 3.258
364.40 3.255
364.50 3.252
364.60 3.248
364.70 3.245
364.80 3.242
364.90 3.238
365.00 3.235
365.10 3.231
365.20 3.228
365.30 3.225
365.40 3.221
365.50 3.218
365.60 3.215
365.70 3.211
365.80 3.208
365.90 3.205
366.00 3.202
366.10 3.198
366.20 3.195
366.30 3.192
366.40 3.188
366.50 3.185
366.60 3.182
366.70 3.178
366.80 3.175
366.90 3.172
367.00 3.169
367.10 3.165
367.20 3.162
367.30 3.159
367.40 3.156
367.50 3.152
367.60 3.149
367.70 3.146
367.80 3.142
367.90 3.139
368.00 3.136
368.10 3.133
368.20 3.129
368.30 3.126
368.40 3.123
368.50 3.12
368.60 3.116
368.70 3.113
368.80 3.11
368.90 3.107
369.00 3.103
369.10 3.1
369.20 3.097
369.30 3.093
369.40 3.09
369.50 3.087
369.60 3.084
369.70 3.081
369.80 3.077
369.90 3.074
370.00 3.071
370.10 3.068
370.20 3.064
370.30 3.061
370.40 3.058
370.50 3.055
370.60 3.052
370.70 3.048
370.80 3.045
370.90 3.042
371.00 3.039
371.10 3.035
371.20 3.032
371.30 3.029
371.40 3.026
371.50 3.023
371.60 3.02
371.70 3.016
371.80 3.013
371.90 3.01
372.00 3.007
372.10 3.004
372.20 3.001
372.30 2.998
372.40 2.995
372.50 2.992
372.60 2.989
372.70 2.986
372.80 2.983
372.90 2.98
373.00 2.977
373.10 2.974
373.20 2.971
373.30 2.968
373.40 2.965
373.50 2.962
373.60 2.959
373.70 2.956
373.80 2.954
373.90 2.951
374.00 2.948
374.10 2.945
374.20 2.942
374.30 2.938
374.40 2.935
374.50 2.932
374.60 2.929
374.70 2.926
374.80 2.923
374.90 2.92
375.00 2.917
375.10 2.914
375.20 2.911
375.30 2.908
375.40 2.905
375.50 2.902
375.60 2.899
375.70 2.896
375.80 2.893
375.90 2.89
376.00 2.887
376.10 2.884
376.20 2.881
376.30 2.878
376.40 2.875
376.50 2.872
376.60 2.869
376.70 2.866
376.80 2.863
376.90 2.86
377.00 2.857
377.10 2.854
377.20 2.851
377.30 2.848
377.40 2.846
377.50 2.843
377.60 2.84
377.70 2.837
377.80 2.834
377.90 2.831
378.00 2.828
378.10 2.825
378.20 2.823
378.30 2.82
378.40 2.817
378.50 2.814
378.60 2.811
378.70 2.808
378.80 2.806
378.90 2.803
379.00 2.8
379.10 2.797
379.20 2.794
379.30 2.791
379.40 2.788
379.50 2.786
379.60 2.783
379.70 2.78
379.80 2.777
379.90 2.774
380.00 2.772
380.10 2.769
380.20 2.766
380.30 2.763
380.40 2.76
380.50 2.758
380.60 2.755
380.70 2.752
380.80 2.749
380.90 2.747
381.00 2.744
381.10 2.741
381.20 2.738
381.30 2.736
381.40 2.733
381.50 2.73
381.60 2.727
381.70 2.725
381.80 2.722
381.90 2.719
382.00 2.717
382.10 2.714
382.20 2.711
382.30 2.708
382.40 2.706
382.50 2.703
382.60 2.7
382.70 2.698
382.80 2.695
382.90 2.692
383.00 2.69
383.10 2.687
383.20 2.684
383.30 2.682
383.40 2.679
383.50 2.676
383.60 2.674
383.70 2.671
383.80 2.668
383.90 2.666
384.00 2.663
384.10 2.661
384.20 2.658
384.30 2.655
384.40 2.653
384.50 2.65
384.60 2.648
384.70 2.645
384.80 2.642
384.90 2.64
385.00 2.637
385.10 2.635
385.20 2.632
385.30 2.629
385.40 2.627
385.50 2.624
385.60 2.622
385.70 2.619
385.80 2.617
385.90 2.614
386.00 2.612
386.10 2.609
386.20 2.607
386.30 2.604
386.40 2.601
386.50 2.599
386.60 2.596
386.70 2.594
386.80 2.591
386.90 2.589
387.00 2.586
387.10 2.584
387.20 2.581
387.30 2.579
387.40 2.576
387.50 2.574
387.60 2.571
387.70 2.569
387.80 2.566
387.90 2.564
388.00 2.561
388.10 2.559
388.20 2.557
388.30 2.554
388.40 2.552
388.50 2.549
388.60 2.547
388.70 2.544
388.80 2.542
388.90 2.54
389.00 2.537
389.10 2.535
389.20 2.532
389.30 2.53
389.40 2.528
389.50 2.525
389.60 2.523
389.70 2.52
389.80 2.518
389.90 2.516
390.00 2.513
390.10 2.511
390.20 2.509
390.30 2.506
390.40 2.504
390.50 2.501
390.60 2.499
390.70 2.497
390.80 2.494
390.90 2.492
391.00 2.49
391.10 2.487
391.20 2.485
391.30 2.483
391.40 2.48
391.50 2.478
391.60 2.476
391.70 2.473
391.80 2.471
391.90 2.469
392.00 2.466
392.10 2.464
392.20 2.462
392.30 2.46
392.40 2.457
392.50 2.455
392.60 2.453
392.70 2.45
392.80 2.448
392.90 2.446
393.00 2.443
393.10 2.441
393.20 2.439
393.30 2.436
393.40 2.434
393.50 2.432
393.60 2.429
393.70 2.427
393.80 2.425
393.90 2.422
394.00 2.42
394.10 2.418
394.20 2.415
394.30 2.413
394.40 2.411
394.50 2.408
394.60 2.406
394.70 2.404
394.80 2.401
394.90 2.399
395.00 2.397
395.10 2.394
395.20 2.392
395.30 2.39
395.40 2.387
395.50 2.385
395.60 2.383
395.70 2.381
395.80 2.378
395.90 2.376
396.00 2.374
396.10 2.371
396.20 2.369
396.30 2.367
396.40 2.365
396.50 2.362
396.60 2.36
396.70 2.358
396.80 2.356
396.90 2.354
397.00 2.351
397.10 2.349
397.20 2.347
397.30 2.345
397.40 2.343
397.50 2.341
397.60 2.339
397.70 2.337
397.80 2.335
397.90 2.333
398.00 2.331
398.10 2.329
398.20 2.327
398.30 2.325
398.40 2.323
398.50 2.322
398.60 2.32
398.70 2.318
398.80 2.316
398.90 2.314
399.00 2.312
399.10 2.31
399.20 2.308
399.30 2.306
399.40 2.304
399.50 2.302
399.60 2.3
399.70 2.298
399.80 2.296
399.90 2.294
400.00 2.292
400.10 2.29
400.20 2.288
400.30 2.286
400.40 2.284
400.50 2.282
400.60 2.28
400.70 2.278
400.80 2.276
400.90 2.274
401.00 2.272
401.10 2.27
401.20 2.268
401.30 2.266
401.40 2.264
401.50 2.262
401.60 2.26
401.70 2.258
401.80 2.256
401.90 2.254
402.00 2.252
402.10 2.25
402.20 2.247
402.30 2.245
402.40 2.243
402.50 2.241
402.60 2.239
402.70 2.237
402.80 2.235
402.90 2.233
403.00 2.23
403.10 2.228
403.20 2.226
403.30 2.224
403.40 2.222
403.50 2.22
403.60 2.217
403.70 2.215
403.80 2.213
403.90 2.211
404.00 2.209
404.10 2.206
404.20 2.204
404.30 2.202
404.40 2.2
404.50 2.197
404.60 2.195
404.70 2.193
404.80 2.19
404.90 2.188
405.00 2.186
405.10 2.183
405.20 2.181
405.30 2.179
405.40 2.177
405.50 2.174
405.60 2.172
405.70 2.169
405.80 2.167
405.90 2.165
406.00 2.162
406.10 2.16
406.20 2.158
406.30 2.155
406.40 2.153
406.50 2.15
406.60 2.148
406.70 2.145
406.80 2.143
406.90 2.141
407.00 2.138
407.10 2.136
407.20 2.133
407.30 2.131
407.40 2.128
407.50 2.126
407.60 2.123
407.70 2.121
407.80 2.118
407.90 2.116
408.00 2.114
408.10 2.111
408.20 2.109
408.30 2.106
408.40 2.104
408.50 2.101
408.60 2.099
408.70 2.097
408.80 2.094
408.90 2.092
409.00 2.09
409.10 2.087
409.20 2.085
409.30 2.083
409.40 2.081
409.50 2.079
409.60 2.077
409.70 2.075
409.80 2.073
409.90 2.072
410.00 2.07
410.10 2.069
410.20 2.067
410.30 2.065
410.40 2.063
410.50 2.061
410.60 2.059
410.70 2.057
410.80 2.056
410.90 2.054
411.00 2.053
411.10 2.051
411.20 2.05
411.30 2.049
411.40 2.047
411.50 2.046
411.60 2.045
411.70 2.044
411.80 2.042
411.90 2.041
412.00 2.04
412.10 2.039
412.20 2.038
412.30 2.037
412.40 2.035
412.50 2.034
412.60 2.033
412.70 2.032
412.80 2.031
412.90 2.03
413.00 2.029
413.10 2.027
413.20 2.026
413.30 2.025
413.40 2.024
413.50 2.023
413.60 2.022
413.70 2.02
413.80 2.019
413.90 2.018
414.00 2.017
414.10 2.016
414.20 2.014
414.30 2.013
414.40 2.012
414.50 2.011
414.60 2.01
414.70 2.008
414.80 2.007
414.90 2.006
415.00 2.004
415.10 2.003
415.20 2.002
415.30 2.001
415.40 1.999
415.50 1.998
415.60 1.997
415.70 1.995
415.80 1.994
415.90 1.993
416.00 1.991
416.10 1.99
416.20 1.988
416.30 1.987
416.40 1.986
416.50 1.984
416.60 1.983
416.70 1.981
416.80 1.98
416.90 1.978
417.00 1.977
417.10 1.976
417.20 1.974
417.30 1.973
417.40 1.971
417.50 1.97
417.60 1.968
417.70 1.967
417.80 1.965
417.90 1.964
418.00 1.962
418.10 1.961
418.20 1.959
418.30 1.957
418.40 1.956
418.50 1.954
418.60 1.953
418.70 1.951
418.80 1.95
418.90 1.948
419.00 1.946
419.10 1.945
419.20 1.943
419.30 1.942
419.40 1.94
419.50 1.938
419.60 1.937
419.70 1.935
419.80 1.933
419.90 1.932
420.00 1.93
420.10 1.928
420.20 1.927
420.30 1.925
420.40 1.923
420.50 1.922
420.60 1.92
420.70 1.918
420.80 1.917
420.90 1.915
421.00 1.913
421.10 1.911
421.20 1.91
421.30 1.908
421.40 1.906
421.50 1.904
421.60 1.903
421.70 1.901
421.80 1.899
421.90 1.897
422.00 1.895
422.10 1.894
422.20 1.892
422.30 1.89
422.40 1.888
422.50 1.886
422.60 1.885
422.70 1.883
422.80 1.881
422.90 1.879
423.00 1.877
423.10 1.875
423.20 1.873
423.30 1.871
423.40 1.87
423.50 1.868
423.60 1.866
423.70 1.864
423.80 1.862
423.90 1.86
424.00 1.858
424.10 1.856
424.20 1.854
424.30 1.852
424.40 1.85
424.50 1.848
424.60 1.846
424.70 1.844
424.80 1.842
424.90 1.84
425.00 1.838
425.10 1.836
425.20 1.834
425.30 1.832
425.40 1.83
425.50 1.827
425.60 1.825
425.70 1.823
425.80 1.821
425.90 1.819
426.00 1.817
426.10 1.815
426.20 1.812
426.30 1.81
426.40 1.808
426.50 1.806
426.60 1.804
426.70 1.801
426.80 1.799
426.90 1.797
427.00 1.795
427.10 1.792
427.20 1.79
427.30 1.788
427.40 1.785
427.50 1.783
427.60 1.781
427.70 1.778
427.80 1.776
427.90 1.773
428.00 1.771
428.10 1.769
428.20 1.766
428.30 1.764
428.40 1.761
428.50 1.759
428.60 1.756
428.70 1.754
428.80 1.751
428.90 1.748
429.00 1.746
429.10 1.743
429.20 1.741
429.30 1.738
429.40 1.735
429.50 1.733
429.60 1.73
429.70 1.727
429.80 1.725
429.90 1.722
430.00 1.719
430.10 1.716
430.20 1.713
430.30 1.711
430.40 1.708
430.50 1.705
430.60 1.702
430.70 1.699
430.80 1.696
430.90 1.694
431.00 1.691
431.10 1.688
431.20 1.685
431.30 1.682
431.40 1.679
431.50 1.676
431.60 1.673
431.70 1.67
431.80 1.667
431.90 1.664
432.00 1.661
432.10 1.658
432.20 1.655
432.30 1.652
432.40 1.648
432.50 1.645
432.60 1.642
432.70 1.639
432.80 1.636
432.90 1.633
433.00 1.629
433.10 1.626
433.20 1.622
433.30 1.619
433.40 1.615
433.50 1.612
433.60 1.608
433.70 1.604
433.80 1.599
433.90 1.595
434.00 1.592
434.10 1.591
434.20 1.592
434.30 1.594
434.40 1.596
434.50 1.597
434.60 1.598
434.70 1.599
434.80 1.6
434.90 1.601
435.00 1.602
435.10 1.602
435.20 1.603
435.30 1.603
435.40 1.604
435.50 1.604
435.60 1.605
435.70 1.605
435.80 1.605
435.90 1.606
436.00 1.606
436.10 1.606
436.20 1.606
436.30 1.607
436.40 1.607
436.50 1.607
436.60 1.607
436.70 1.607
436.80 1.608
436.90 1.608
437.00 1.608
437.10 1.608
437.20 1.608
437.30 1.608
437.40 1.608
437.50 1.608
437.60 1.608
437.70 1.608
437.80 1.608
437.90 1.608
438.00 1.608
438.10 1.608
438.20 1.607
438.30 1.607
438.40 1.607
438.50 1.607
438.60 1.607
438.70 1.606
438.80 1.606
438.90 1.606
439.00 1.606
439.10 1.605
439.20 1.605
439.30 1.605
439.40 1.604
439.50 1.604
439.60 1.603
439.70 1.603
439.80 1.603
439.90 1.602
440.00 1.602
440.10 1.601
440.20 1.601
440.30 1.6
440.40 1.599
440.50 1.599
440.60 1.598
440.70 1.598
440.80 1.597
440.90 1.597
441.00 1.596
441.10 1.595
441.20 1.595
441.30 1.594
441.40 1.593
441.50 1.592
441.60 1.592
441.70 1.591
441.80 1.59
441.90 1.589
442.00 1.589
442.10 1.588
442.20 1.587
442.30 1.586
442.40 1.585
442.50 1.585
442.60 1.584
442.70 1.583
442.80 1.582
442.90 1.581
443.00 1.58
443.10 1.579
443.20 1.579
443.30 1.578
443.40 1.577
443.50 1.576
443.60 1.575
443.70 1.574
443.80 1.573
443.90 1.572
444.00 1.571
444.10 1.57
444.20 1.569
444.30 1.568
444.40 1.567
444.50 1.566
444.60 1.565
444.70 1.564
444.80 1.563
444.90 1.562
445.00 1.561
445.10 1.56
445.20 1.559
445.30 1.558
445.40 1.557
445.50 1.556
445.60 1.555
445.70 1.554
445.80 1.553
445.90 1.552
446.00 1.55
446.10 1.549
446.20 1.548
446.30 1.547
446.40 1.546
446.50 1.545
446.60 1.544
446.70 1.543
446.80 1.542
446.90 1.541
447.00 1.539
447.10 1.538
447.20 1.537
447.30 1.536
447.40 1.535
447.50 1.534
447.60 1.533
447.70 1.532
447.80 1.53
447.90 1.529
448.00 1.528
448.10 1.527
448.20 1.526
448.30 1.525
448.40 1.523
448.50 1.522
448.60 1.521
448.70 1.52
448.80 1.519
448.90 1.518
449.00 1.517
449.10 1.515
449.20 1.514
449.30 1.513
449.40 1.512
449.50 1.511
449.60 1.509
449.70 1.508
449.80 1.507
449.90 1.506
450.00 1.505
450.10 1.504
450.20 1.502
450.30 1.501
450.40 1.5
450.50 1.499
450.60 1.498
450.70 1.496
450.80 1.495
450.90 1.494
451.00 1.493
451.10 1.492
451.20 1.491
451.30 1.489
451.40 1.488
451.50 1.487
451.60 1.486
451.70 1.485
451.80 1.483
451.90 1.482
452.00 1.481
452.10 1.48
452.20 1.479
452.30 1.477
452.40 1.476
452.50 1.475
452.60 1.474
452.70 1.473
452.80 1.471
452.90 1.47
453.00 1.469
453.10 1.468
453.20 1.467
453.30 1.465
453.40 1.464
453.50 1.463
453.60 1.462
453.70 1.461
453.80 1.459
453.90 1.458
454.00 1.457
454.10 1.456
454.20 1.455
454.30 1.453
454.40 1.452
454.50 1.451
454.60 1.45
454.70 1.449
454.80 1.447
454.90 1.446
455.00 1.445
455.10 1.444
455.20 1.443
455.30 1.442
455.40 1.44
455.50 1.439
455.60 1.438
455.70 1.437
455.80 1.436
455.90 1.434
456.00 1.433
456.10 1.432
456.20 1.431
456.30 1.43
456.40 1.428
456.50 1.427
456.60 1.426
456.70 1.425
456.80 1.424
456.90 1.422
457.00 1.421
457.10 1.42
457.20 1.419
457.30 1.418
457.40 1.417
457.50 1.415
457.60 1.414
457.70 1.413
457.80 1.412
457.90 1.411
458.00 1.409
458.10 1.408
458.20 1.407
458.30 1.406
458.40 1.405
458.50 1.404
458.60 1.402
458.70 1.401
458.80 1.4
458.90 1.399
459.00 1.398
459.10 1.396
459.20 1.395
459.30 1.394
459.40 1.393
459.50 1.392
459.60 1.391
459.70 1.389
459.80 1.388
459.90 1.387
460.00 1.386
460.10 1.385
460.20 1.384
460.30 1.382
460.40 1.381
460.50 1.38
460.60 1.379
460.70 1.378
460.80 1.376
460.90 1.375
461.00 1.374
461.10 1.373
461.20 1.372
461.30 1.371
461.40 1.369
461.50 1.368
461.60 1.367
461.70 1.366
461.80 1.365
461.90 1.364
462.00 1.362
462.10 1.361
462.20 1.36
462.30 1.359
462.40 1.358
462.50 1.357
462.60 1.356
462.70 1.354
462.80 1.353
462.90 1.352
463.00 1.351
463.10 1.35
463.20 1.349
463.30 1.347
463.40 1.346
463.50 1.345
463.60 1.344
463.70 1.343
463.80 1.342
463.90 1.34
464.00 1.339
464.10 1.338
464.20 1.337
464.30 1.336
464.40 1.335
464.50 1.334
464.60 1.332
464.70 1.331
464.80 1.33
464.90 1.329
465.00 1.328
465.10 1.327
465.20 1.325
465.30 1.324
465.40 1.323
465.50 1.322
465.60 1.321
465.70 1.32
465.80 1.319
465.90 1.317
466.00 1.316
466.10 1.315
466.20 1.314
466.30 1.313
466.40 1.312
466.50 1.31
466.60 1.309
466.70 1.308
466.80 1.307
466.90 1.306
467.00 1.305
467.10 1.304
467.20 1.302
467.30 1.301
467.40 1.3
467.50 1.299
467.60 1.298
467.70 1.297
467.80 1.295
467.90 1.294
468.00 1.293
468.10 1.292
468.20 1.291
468.30 1.29
468.40 1.289
468.50 1.287
468.60 1.286
468.70 1.285
468.80 1.284
468.90 1.283
469.00 1.282
469.10 1.28
469.20 1.279
469.30 1.278
469.40 1.277
469.50 1.276
469.60 1.275
469.70 1.273
469.80 1.272
469.90 1.271
470.00 1.27
470.10 1.269
470.20 1.268
470.30 1.266
470.40 1.265
470.50 1.264
470.60 1.263
470.70 1.262
470.80 1.261
470.90 1.259
471.00 1.258
471.10 1.257
471.20 1.256
471.30 1.255
471.40 1.253
471.50 1.252
471.60 1.251
471.70 1.25
471.80 1.249
471.90 1.248
472.00 1.246
472.10 1.245
472.20 1.244
472.30 1.243
472.40 1.242
472.50 1.24
472.60 1.239
472.70 1.238
472.80 1.237
472.90 1.235
473.00 1.234
473.10 1.233
473.20 1.232
473.30 1.231
473.40 1.229
473.50 1.228
473.60 1.227
473.70 1.226
473.80 1.224
473.90 1.223
474.00 1.222
474.10 1.221
474.20 1.219
474.30 1.218
474.40 1.217
474.50 1.215
474.60 1.214
474.70 1.213
474.80 1.212
474.90 1.21
475.00 1.209
475.10 1.208
475.20 1.206
475.30 1.205
475.40 1.204
475.50 1.202
475.60 1.201
475.70 1.2
475.80 1.198
475.90 1.197
476.00 1.196
476.10 1.194
476.20 1.193
476.30 1.192
476.40 1.19
476.50 1.189
476.60 1.187
476.70 1.186
476.80 1.185
476.90 1.183
477.00 1.182
477.10 1.18
477.20 1.179
477.30 1.178
477.40 1.176
477.50 1.175
477.60 1.173
477.70 1.172
477.80 1.17
477.90 1.169
478.00 1.167
478.10 1.166
478.20 1.164
478.30 1.162
478.40 1.161
478.50 1.159
478.60 1.158
478.70 1.156
478.80 1.154
478.90 1.153
479.00 1.151
479.10 1.15
479.20 1.148
479.30 1.146
479.40 1.145
479.50 1.143
479.60 1.141
479.70 1.139
479.80 1.138
479.90 1.136
480.00 1.134
480.10 1.132
480.20 1.131
480.30 1.129
480.40 1.127
480.50 1.125
480.60 1.123
480.70 1.121
480.80 1.119
480.90 1.117
481.00 1.115
481.10 1.114
481.20 1.111
481.30 1.109
481.40 1.107
481.50 1.105
481.60 1.103
481.70 1.101
481.80 1.099
481.90 1.097
482.00 1.095
482.10 1.093
482.20 1.09
482.30 1.088
482.40 1.086
482.50 1.083
482.60 1.081
482.70 1.079
482.80 1.076
482.90 1.074
483.00 1.072
483.10 1.069
483.20 1.067
483.30 1.064
483.40 1.062
483.50 1.059
483.60 1.057
483.70 1.054
483.80 1.052
483.90 1.049
484.00 1.047
484.10 1.044
484.20 1.042
484.30 1.039
484.40 1.036
484.50 1.034
484.60 1.031
484.70 1.028
484.80 1.026
484.90 1.023
485.00 1.021
485.10 1.018
485.20 1.016
485.30 1.014
485.40 1.012
485.50 1.01
485.60 1.009
485.70 1.009
485.80 1.01
485.90 1.013
486.00 1.018
486.10 1.023
486.20 1.021
486.30 1.013
486.40 1.008
486.50 1.004
486.60 1.002
486.70 1.001
486.80 1.001
486.90 1.001
487.00 1.001
487.10 1.002
487.20 1.003
487.30 1.004
487.40 1.005
487.50 1.006
487.60 1.007
487.70 1.008
487.80 1.009
487.90 1.01
488.00 1.011
488.10 1.012
488.20 1.013
488.30 1.014
488.40 1.015
488.50 1.016
488.60 1.016
488.70 1.017
488.80 1.018
488.90 1.019
489.00 1.02
489.10 1.021
489.20 1.022
489.30 1.022
489.40 1.023
489.50 1.023
489.60 1.024
489.70 1.025
489.80 1.025
489.90 1.026
490.00 1.027
490.10 1.027
490.20 1.028
490.30 1.028
490.40 1.028
490.50 1.029
490.60 1.029
490.70 1.029
490.80 1.03
490.90 1.03
491.00 1.03
491.10 1.031
491.20 1.031
491.30 1.031
491.40 1.031
491.50 1.031
491.60 1.032
491.70 1.032
491.80 1.032
491.90 1.032
492.00 1.032
492.10 1.032
492.20 1.032
492.30 1.032
492.40 1.032
492.50 1.032
492.60 1.032
492.70 1.032
492.80 1.032
492.90 1.032
493.00 1.032
493.10 1.032
493.20 1.031
493.30 1.031
493.40 1.031
493.50 1.031
493.60 1.031
493.70 1.03
493.80 1.03
493.90 1.03
494.00 1.03
494.10 1.029
494.20 1.029
494.30 1.029
494.40 1.029
494.50 1.028
494.60 1.028
494.70 1.028
494.80 1.027
494.90 1.027
495.00 1.027
495.10 1.026
495.20 1.026
495.30 1.025
495.40 1.025
495.50 1.024
495.60 1.024
495.70 1.024
495.80 1.023
495.90 1.023
496.00 1.022
496.10 1.022
496.20 1.021
496.30 1.021
496.40 1.02
496.50 1.02
496.60 1.019
496.70 1.019
496.80 1.018
496.90 1.018
497.00 1.017
497.10 1.017
497.20 1.016
497.30 1.016
497.40 1.015
497.50 1.015
497.60 1.014
497.70 1.014
497.80 1.013
497.90 1.013
498.00 1.012
498.10 1.011
498.20 1.011
498.30 1.01
498.40 1.01
498.50 1.009
498.60 1.009
498.70 1.008
498.80 1.007
498.90 1.007
499.00 1.006
499.10 1.006
499.20 1.005
499.30 1.004
499.40 1.004
499.50 1.003
499.60 1.002
499.70 1.002
499.80 1.001
499.90 1.001
500.00 1
500.10 0.9994
500.20 0.9987
500.30 0.9981
500.40 0.9975
500.50 0.9968
500.60 0.9962
500.70 0.9955
500.80 0.9949
500.90 0.9942
501.00 0.9936
501.10 0.9929
501.20 0.9923
501.30 0.9916
501.40 0.991
501.50 0.9903
501.60 0.9896
501.70 0.989
501.80 0.9883
501.90 0.9877
502.00 0.987
502.10 0.9863
502.20 0.9857
502.30 0.985
502.40 0.9843
502.50 0.9837
502.60 0.983
502.70 0.9823
502.80 0.9816
502.90 0.981
503.00 0.9803
503.10 0.9796
503.20 0.979
503.30 0.9783
503.40 0.9776
503.50 0.9769
503.60 0.9762
503.70 0.9756
503.80 0.9749
503.90 0.9742
504.00 0.9735
504.10 0.9728
504.20 0.9722
504.30 0.9715
504.40 0.9708
504.50 0.9701
504.60 0.9694
504.70 0.9687
504.80 0.968
504.90 0.9674
505.00 0.9667
505.10 0.966
505.20 0.9653
505.30 0.9646
505.40 0.9639
505.50 0.9632
505.60 0.9626
505.70 0.9619
505.80 0.9612
505.90 0.9605
506.00 0.9598
506.10 0.9591
506.20 0.9584
506.30 0.9577
506.40 0.9571
506.50 0.9564
506.60 0.9557
506.70 0.955
506.80 0.9543
506.90 0.9536
507.00 0.9529
507.10 0.9522
507.20 0.9516
507.30 0.9509
507.40 0.9502
507.50 0.9495
507.60 0.9488
507.70 0.9481
507.80 0.9474
507.90 0.9467
508.00 0.9461
508.10 0.9454
508.20 0.9447
508.30 0.944
508.40 0.9433
508.50 0.9426
508.60 0.9419
508.70 0.9413
508.80 0.9406
508.90 0.9399
509.00 0.9392
509.10 0.9385
509.20 0.9378
509.30 0.9371
509.40 0.9365
509.50 0.9358
509.60 0.9351
509.70 0.9344
509.80 0.9337
509.90 0.933
510.00 0.9323
510.10 0.9317
510.20 0.931
510.30 0.9303
510.40 0.9296
510.50 0.9289
510.60 0.9283
510.70 0.9276
510.80 0.9269
510.90 0.9262
511.00 0.9255
511.10 0.9249
511.20 0.9242
511.30 0.9235
511.40 0.9228
511.50 0.9221
511.60 0.9215
511.70 0.9208
511.80 0.9201
511.90 0.9194
512.00 0.9188
512.10 0.9181
512.20 0.9174
512.30 0.9167
512.40 0.9161
512.50 0.9154
512.60 0.9147
512.70 0.914
512.80 0.9134
512.90 0.9127
513.00 0.912
513.10 0.9113
513.20 0.9107
513.30 0.91
513.40 0.9093
513.50 0.9087
513.60 0.908
513.70 0.9073
513.80 0.9067
513.90 0.906
514.00 0.9053
514.10 0.9047
514.20 0.904
514.30 0.9033
514.40 0.9027
514.50 0.902
514.60 0.9013
514.70 0.9007
514.80 0.9
514.90 0.8993
515.00 0.8987
515.10 0.898
515.20 0.8973
515.30 0.8967
515.40 0.896
515.50 0.8954
515.60 0.8947
515.70 0.894
515.80 0.8934
515.90 0.8927
516.00 0.8921
516.10 0.8914
516.20 0.8907
516.30 0.8901
516.40 0.8894
516.50 0.8888
516.60 0.8881
516.70 0.8875
516.80 0.8868
516.90 0.8862
517.00 0.8855
517.10 0.8848
517.20 0.8842
517.30 0.8835
517.40 0.8829
517.50 0.8822
517.60 0.8816
517.70 0.8809
517.80 0.8803
517.90 0.8796
518.00 0.879
518.10 0.8783
518.20 0.8777
518.30 0.877
518.40 0.8764
518.50 0.8758
518.60 0.8751
518.70 0.8745
518.80 0.8738
518.90 0.8732
519.00 0.8725
519.10 0.8719
519.20 0.8712
519.30 0.8706
519.40 0.87
519.50 0.8693
519.60 0.8687
519.70 0.868
519.80 0.8674
519.90 0.8668
520.00 0.8661
520.10 0.8655
520.20 0.8649
520.30 0.8642
520.40 0.8636
520.50 0.8629
520.60 0.8623
520.70 0.8617
520.80 0.861
520.90 0.8604
521.00 0.8598
521.10 0.8591
521.20 0.8585
521.30 0.8579
521.40 0.8572
521.50 0.8566
521.60 0.856
521.70 0.8554
521.80 0.8547
521.90 0.8541
522.00 0.8535
522.10 0.8528
522.20 0.8522
522.30 0.8516
522.40 0.851
522.50 0.8503
522.60 0.8497
522.70 0.8491
522.80 0.8485
522.90 0.8478
523.00 0.8472
523.10 0.8466
523.20 0.846
523.30 0.8454
523.40 0.8447
523.50 0.8441
523.60 0.8435
523.70 0.8429
523.80 0.8423
523.90 0.8416
524.00 0.841
524.10 0.8404
524.20 0.8398
524.30 0.8392
524.40 0.8386
524.50 0.8379
524.60 0.8373
524.70 0.8367
524.80 0.8361
524.90 0.8355
525.00 0.8349
525.10 0.8343
525.20 0.8337
525.30 0.8331
525.40 0.8324
525.50 0.8318
525.60 0.8312
525.70 0.8306
525.80 0.83
525.90 0.8294
526.00 0.8288
526.10 0.8282
526.20 0.8276
526.30 0.827
526.40 0.8264
526.50 0.8258
526.60 0.8252
526.70 0.8246
526.80 0.824
526.90 0.8234
527.00 0.8227
527.10 0.8221
527.20 0.8215
527.30 0.8209
527.40 0.8203
527.50 0.8197
527.60 0.8192
527.70 0.8186
527.80 0.818
527.90 0.8174
528.00 0.8168
528.10 0.8162
528.20 0.8156
528.30 0.815
528.40 0.8144
528.50 0.8138
528.60 0.8132
528.70 0.8126
528.80 0.812
528.90 0.8114
529.00 0.8108
529.10 0.8102
529.20 0.8097
529.30 0.8091
529.40 0.8085
529.50 0.8079
529.60 0.8073
529.70 0.8067
529.80 0.8061
529.90 0.8055
530.00 0.805
530.10 0.8044
530.20 0.8038
530.30 0.8032
530.40 0.8026
530.50 0.802
530.60 0.8014
530.70 0.8009
530.80 0.8003
530.90 0.7997
531.00 0.7991
531.10 0.7985
531.20 0.798
531.30 0.7974
531.40 0.7968
531.50 0.7962
531.60 0.7956
531.70 0.7951
531.80 0.7945
531.90 0.7939
532.00 0.7933
532.10 0.7928
532.20 0.7922
532.30 0.7916
532.40 0.791
532.50 0.7905
532.60 0.7899
532.70 0.7893
532.80 0.7887
532.90 0.7882
533.00 0.7876
533.10 0.787
533.20 0.7865
533.30 0.7859
533.40 0.7853
533.50 0.7848
533.60 0.7842
533.70 0.7836
533.80 0.7831
533.90 0.7825
534.00 0.7819
534.10 0.7814
534.20 0.7808
534.30 0.7802
534.40 0.7797
534.50 0.7791
534.60 0.7785
534.70 0.778
534.80 0.7774
534.90 0.7769
535.00 0.7763
535.10 0.7757
535.20 0.7752
535.30 0.7746
535.40 0.7741
535.50 0.7735
535.60 0.7729
535.70 0.7724
535.80 0.7718
535.90 0.7713
536.00 0.7707
536.10 0.7702
536.20 0.7696
536.30 0.7691
536.40 0.7685
536.50 0.7679
536.60 0.7674
536.70 0.7668
536.80 0.7663
536.90 0.7657
537.00 0.7652
537.10 0.7646
537.20 0.7641
537.30 0.7635
537.40 0.763
537.50 0.7624
537.60 0.7619
537.70 0.7613
537.80 0.7608
537.90 0.7603
538.00 0.7597
538.10 0.7592
538.20 0.7586
538.30 0.7581
538.40 0.7575
538.50 0.757
538.60 0.7564
538.70 0.7559
538.80 0.7554
538.90 0.7548
539.00 0.7543
539.10 0.7537
539.20 0.7532
539.30 0.7526
539.40 0.7521
539.50 0.7516
539.60 0.751
539.70 0.7505
539.80 0.75
539.90 0.7494
540.00 0.7489
540.10 0.7483
540.20 0.7478
540.30 0.7473
540.40 0.7467
540.50 0.7462
540.60 0.7457
540.70 0.7451
540.80 0.7446
540.90 0.7441
541.00 0.7435
541.10 0.743
541.20 0.7425
541.30 0.742
541.40 0.7414
541.50 0.7409
541.60 0.7404
541.70 0.7398
541.80 0.7393
541.90 0.7388
542.00 0.7383
542.10 0.7377
542.20 0.7372
542.30 0.7367
542.40 0.7362
542.50 0.7356
542.60 0.7351
542.70 0.7346
542.80 0.7341
542.90 0.7335
543.00 0.733
543.10 0.7325
543.20 0.732
543.30 0.7314
543.40 0.7309
543.50 0.7304
543.60 0.7299
543.70 0.7294
543.80 0.7288
543.90 0.7283
544.00 0.7278
544.10 0.7273
544.20 0.7268
544.30 0.7263
544.40 0.7257
544.50 0.7252
544.60 0.7247
544.70 0.7242
544.80 0.7237
544.90 0.7232
545.00 0.7227
545.10 0.7221
545.20 0.7216
545.30 0.7211
545.40 0.7206
545.50 0.7201
545.60 0.7196
545.70 0.7191
545.80 0.7186
545.90 0.7181
546.00 0.7175
546.10 0.717
546.20 0.7165
546.30 0.716
546.40 0.7155
546.50 0.715
546.60 0.7145
546.70 0.714
546.80 0.7135
546.90 0.713
547.00 0.7125
547.10 0.712
547.20 0.7115
547.30 0.711
547.40 0.7105
547.50 0.71
547.60 0.7095
547.70 0.709
547.80 0.7085
547.90 0.708
548.00 0.7075
548.10 0.707
548.20 0.7065
548.30 0.706
548.40 0.7055
548.50 0.705
548.60 0.7045
548.70 0.704
548.80 0.7035
548.90 0.703
549.00 0.7025
549.10 0.702
549.20 0.7015
549.30 0.701
549.40 0.7005
549.50 0.7
549.60 0.6995
549.70 0.699
549.80 0.6985
549.90 0.698
550.00 0.6976
550.10 0.6971
550.20 0.6966
550.30 0.6961
550.40 0.6956
550.50 0.6951
550.60 0.6946
550.70 0.6941
550.80 0.6936
550.90 0.6932
551.00 0.6927
551.10 0.6922
551.20 0.6917
551.30 0.6912
551.40 0.6907
551.50 0.6902
551.60 0.6898
551.70 0.6893
551.80 0.6888
551.90 0.6883
552.00 0.6878
552.10 0.6873
552.20 0.6869
552.30 0.6864
552.40 0.6859
552.50 0.6854
552.60 0.6849
552.70 0.6845
552.80 0.684
552.90 0.6835
553.00 0.683
553.10 0.6825
553.20 0.6821
553.30 0.6816
553.40 0.6811
553.50 0.6806
553.60 0.6802
553.70 0.6797
553.80 0.6792
553.90 0.6787
554.00 0.6783
554.10 0.6778
554.20 0.6773
554.30 0.6768
554.40 0.6764
554.50 0.6759
554.60 0.6754
554.70 0.6749
554.80 0.6745
554.90 0.674
555.00 0.6735
555.10 0.6731
555.20 0.6726
555.30 0.6721
555.40 0.6717
555.50 0.6712
555.60 0.6707
555.70 0.6703
555.80 0.6698
555.90 0.6693
556.00 0.6689
556.10 0.6684
556.20 0.6679
556.30 0.6675
556.40 0.667
556.50 0.6665
556.60 0.6661
556.70 0.6656
556.80 0.6651
556.90 0.6647
557.00 0.6642
557.10 0.6637
557.20 0.6633
557.30 0.6628
557.40 0.6624
557.50 0.6619
557.60 0.6614
557.70 0.661
557.80 0.6605
557.90 0.6601
558.00 0.6596
558.10 0.6592
558.20 0.6587
558.30 0.6582
558.40 0.6578
558.50 0.6573
558.60 0.6569
558.70 0.6564
558.80 0.656
558.90 0.6555
559.00 0.655
559.10 0.6546
559.20 0.6541
559.30 0.6537
559.40 0.6532
559.50 0.6528
559.60 0.6523
559.70 0.6519
559.80 0.6514
559.90 0.651
560.00 0.6505
560.10 0.6501
560.20 0.6496
560.30 0.6492
560.40 0.6487
560.50 0.6483
560.60 0.6478
560.70 0.6474
560.80 0.6469
560.90 0.6465
561.00 0.646
561.10 0.6456
561.20 0.6452
561.30 0.6447
561.40 0.6443
561.50 0.6438
561.60 0.6434
561.70 0.6429
561.80 0.6425
561.90 0.642
562.00 0.6416
562.10 0.6412
562.20 0.6407
562.30 0.6403
562.40 0.6398
562.50 0.6394
562.60 0.639
562.70 0.6385
562.80 0.6381
562.90 0.6376
563.00 0.6372
563.10 0.6368
563.20 0.6363
563.30 0.6359
563.40 0.6354
563.50 0.635
563.60 0.6346
563.70 0.6341
563.80 0.6337
563.90 0.6333
564.00 0.6328
564.10 0.6324
564.20 0.632
564.30 0.6315
564.40 0.6311
564.50 0.6307
564.60 0.6302
564.70 0.6298
564.80 0.6294
564.90 0.6289
565.00 0.6285
565.10 0.6281
565.20 0.6276
565.30 0.6272
565.40 0.6268
565.50 0.6263
565.60 0.6259
565.70 0.6255
565.80 0.6251
565.90 0.6246
566.00 0.6242
566.10 0.6238
566.20 0.6233
566.30 0.6229
566.40 0.6225
566.50 0.6221
566.60 0.6216
566.70 0.6212
566.80 0.6208
566.90 0.6204
567.00 0.6199
567.10 0.6195
567.20 0.6191
567.30 0.6187
567.40 0.6182
567.50 0.6178
567.60 0.6174
567.70 0.617
567.80 0.6166
567.90 0.6161
568.00 0.6157
568.10 0.6153
568.20 0.6149
568.30 0.6145
568.40 0.614
568.50 0.6136
568.60 0.6132
568.70 0.6128
568.80 0.6124
568.90 0.6119
569.00 0.6115
569.10 0.6111
569.20 0.6107
569.30 0.6103
569.40 0.6099
569.50 0.6095
569.60 0.609
569.70 0.6086
569.80 0.6082
569.90 0.6078
570.00 0.6074
570.10 0.607
570.20 0.6066
570.30 0.6061
570.40 0.6057
570.50 0.6053
570.60 0.6049
570.70 0.6045
570.80 0.6041
570.90 0.6037
571.00 0.6033
571.10 0.6029
571.20 0.6024
571.30 0.602
571.40 0.6016
571.50 0.6012
571.60 0.6008
571.70 0.6004
571.80 0.6
571.90 0.5996
572.00 0.5992
572.10 0.5988
572.20 0.5984
572.30 0.598
572.40 0.5976
572.50 0.5972
572.60 0.5968
572.70 0.5964
572.80 0.5959
572.90 0.5955
573.00 0.5951
573.10 0.5947
573.20 0.5943
573.30 0.5939
573.40 0.5935
573.50 0.5931
573.60 0.5927
573.70 0.5923
573.80 0.5919
573.90 0.5915
574.00 0.5911
574.10 0.5907
574.20 0.5903
574.30 0.5899
574.40 0.5895
574.50 0.5891
574.60 0.5887
574.70 0.5883
574.80 0.5879
574.90 0.5875
575.00 0.5871
575.10 0.5868
575.20 0.5864
575.30 0.586
575.40 0.5856
575.50 0.5852
575.60 0.5848
575.70 0.5844
575.80 0.584
575.90 0.5836
576.00 0.5832
576.10 0.5828
576.20 0.5824
576.30 0.582
576.40 0.5816
576.50 0.5812
576.60 0.5809
576.70 0.5805
576.80 0.5801
576.90 0.5797
577.00 0.5793
577.10 0.5789
577.20 0.5785
577.30 0.5781
577.40 0.5777
577.50 0.5773
577.60 0.577
577.70 0.5766
577.80 0.5762
577.90 0.5758
578.00 0.5754
578.10 0.575
578.20 0.5746
578.30 0.5743
578.40 0.5739
578.50 0.5735
578.60 0.5731
578.70 0.5727
578.80 0.5723
578.90 0.5719
579.00 0.5716
579.10 0.5712
579.20 0.5708
579.30 0.5704
579.40 0.57
579.50 0.5696
579.60 0.5693
579.70 0.5689
579.80 0.5685
579.90 0.5681
580.00 0.5677
580.10 0.5674
580.20 0.567
580.30 0.5666
580.40 0.5662
580.50 0.5658
580.60 0.5655
580.70 0.5651
580.80 0.5647
580.90 0.5643
581.00 0.564
581.10 0.5636
581.20 0.5632
581.30 0.5628
581.40 0.5625
581.50 0.5621
581.60 0.5617
581.70 0.5613
581.80 0.561
581.90 0.5606
582.00 0.5602
582.10 0.5598
582.20 0.5595
582.30 0.5591
582.40 0.5587
582.50 0.5583
582.60 0.558
582.70 0.5576
582.80 0.5572
582.90 0.5569
583.00 0.5565
583.10 0.5561
583.20 0.5557
583.30 0.5554
583.40 0.555
583.50 0.5546
583.60 0.5543
583.70 0.5539
583.80 0.5535
583.90 0.5532
584.00 0.5528
584.10 0.5524
584.20 0.5521
584.30 0.5517
584.40 0.5513
584.50 0.551
584.60 0.5506
584.70 0.5502
584.80 0.5499
584.90 0.5495
585.00 0.5491
585.10 0.5488
585.20 0.5484
585.30 0.548
585.40 0.5477
585.50 0.5473
585.60 0.547
585.70 0.5466
585.80 0.5462
585.90 0.5459
586.00 0.5455
586.10 0.5451
586.20 0.5448
586.30 0.5444
586.40 0.5441
586.50 0.5437
586.60 0.5433
586.70 0.543
586.80 0.5426
586.90 0.5423
587.00 0.5419
587.10 0.5415
587.20 0.5412
587.30 0.5408
587.40 0.5405
587.50 0.5401
587.60 0.5398
587.70 0.5394
587.80 0.539
587.90 0.5387
588.00 0.5383
588.10 0.538
588.20 0.5376
588.30 0.5373
588.40 0.5369
588.50 0.5366
588.60 0.5362
588.70 0.5359
588.80 0.5355
588.90 0.5351
589.00 0.5348
589.10 0.5344
589.20 0.5341
589.30 0.5337
589.40 0.5334
589.50 0.533
589.60 0.5327
589.70 0.5323
589.80 0.532
589.90 0.5316
590.00 0.5313
590.10 0.5309
590.20 0.5306
590.30 0.5302
590.40 0.5299
590.50 0.5295
590.60 0.5292
590.70 0.5288
590.80 0.5285
590.90 0.5281
591.00 0.5278
591.10 0.5274
591.20 0.5271
591.30 0.5268
591.40 0.5264
591.50 0.5261
591.60 0.5257
591.70 0.5254
591.80 0.525
591.90 0.5247
592.00 0.5243
592.10 0.524
592.20 0.5236
592.30 0.5233
592.40 0.523
592.50 0.5226
592.60 0.5223
592.70 0.5219
592.80 0.5216
592.90 0.5213
593.00 0.5209
593.10 0.5206
593.20 0.5202
593.30 0.5199
593.40 0.5195
593.50 0.5192
593.60 0.5189
593.70 0.5185
593.80 0.5182
593.90 0.5178
594.00 0.5175
594.10 0.5172
594.20 0.5168
594.30 0.5165
594.40 0.5162
594.50 0.5158
594.60 0.5155
594.70 0.5151
594.80 0.5148
594.90 0.5145
595.00 0.5141
595.10 0.5138
595.20 0.5135
595.30 0.5131
595.40 0.5128
595.50 0.5125
595.60 0.5121
595.70 0.5118
595.80 0.5115
595.90 0.5111
596.00 0.5108
596.10 0.5105
596.20 0.5101
596.30 0.5098
596.40 0.5095
596.50 0.5091
596.60 0.5088
596.70 0.5085
596.80 0.5081
596.90 0.5078
597.00 0.5075
597.10 0.5071
597.20 0.5068
597.30 0.5065
597.40 0.5062
597.50 0.5058
597.60 0.5055
597.70 0.5052
597.80 0.5048
597.90 0.5045
598.00 0.5042
598.10 0.5038
598.20 0.5035
598.30 0.5032
598.40 0.5029
598.50 0.5025
598.60 0.5022
598.70 0.5019
598.80 0.5016
598.90 0.5012
599.00 0.5009
599.10 0.5006
599.20 0.5003
599.30 0.4999
599.40 0.4996
599.50 0.4993
599.60 0.499
599.70 0.4986
599.80 0.4983
599.90 0.498
600.00 0.4977
600.10 0.4973
600.20 0.497
600.30 0.4967
600.40 0.4964
600.50 0.4961
600.60 0.4957
600.70 0.4954
600.80 0.4951
600.90 0.4948
601.00 0.4945
601.10 0.4941
601.20 0.4938
601.30 0.4935
601.40 0.4932
601.50 0.4929
601.60 0.4925
601.70 0.4922
601.80 0.4919
601.90 0.4916
602.00 0.4913
602.10 0.491
602.20 0.4906
602.30 0.4903
602.40 0.49
602.50 0.4897
602.60 0.4894
602.70 0.4891
602.80 0.4887
602.90 0.4884
603.00 0.4881
603.10 0.4878
603.20 0.4875
603.30 0.4872
603.40 0.4868
603.50 0.4865
603.60 0.4862
603.70 0.4859
603.80 0.4856
603.90 0.4853
604.00 0.485
604.10 0.4847
604.20 0.4843
604.30 0.484
604.40 0.4837
604.50 0.4834
604.60 0.4831
604.70 0.4828
604.80 0.4825
604.90 0.4822
605.00 0.4819
605.10 0.4815
605.20 0.4812
605.30 0.4809
605.40 0.4806
605.50 0.4803
605.60 0.48
605.70 0.4797
605.80 0.4794
605.90 0.4791
606.00 0.4788
606.10 0.4785
606.20 0.4781
606.30 0.4778
606.40 0.4775
606.50 0.4772
606.60 0.4769
606.70 0.4766
606.80 0.4763
606.90 0.476
607.00 0.4757
607.10 0.4754
607.20 0.4751
607.30 0.4748
607.40 0.4745
607.50 0.4742
607.60 0.4739
607.70 0.4736
607.80 0.4733
607.90 0.473
608.00 0.4727
608.10 0.4724
608.20 0.472
608.30 0.4717
608.40 0.4714
608.50 0.4711
608.60 0.4708
608.70 0.4705
608.80 0.4702
608.90 0.4699
609.00 0.4696
609.10 0.4693
609.20 0.469
609.30 0.4687
609.40 0.4684
609.50 0.4681
609.60 0.4678
609.70 0.4675
609.80 0.4672
609.90 0.4669
610.00 0.4666
610.10 0.4663
610.20 0.466
610.30 0.4657
610.40 0.4654
610.50 0.4652
610.60 0.4649
610.70 0.4646
610.80 0.4643
610.90 0.464
611.00 0.4637
611.10 0.4634
611.20 0.4631
611.30 0.4628
611.40 0.4625
611.50 0.4622
611.60 0.4619
611.70 0.4616
611.80 0.4613
611.90 0.461
612.00 0.4607
612.10 0.4604
612.20 0.4601
612.30 0.4598
612.40 0.4595
612.50 0.4593
612.60 0.459
612.70 0.4587
612.80 0.4584
612.90 0.4581
613.00 0.4578
613.10 0.4575
613.20 0.4572
613.30 0.4569
613.40 0.4566
613.50 0.4563
613.60 0.456
613.70 0.4558
613.80 0.4555
613.90 0.4552
614.00 0.4549
614.10 0.4546
614.20 0.4543
614.30 0.454
614.40 0.4537
614.50 0.4534
614.60 0.4532
614.70 0.4529
614.80 0.4526
614.90 0.4523
615.00 0.452
615.10 0.4517
615.20 0.4514
615.30 0.4511
615.40 0.4509
615.50 0.4506
615.60 0.4503
615.70 0.45
615.80 0.4497
615.90 0.4494
616.00 0.4491
616.10 0.4489
616.20 0.4486
616.30 0.4483
616.40 0.448
616.50 0.4477
616.60 0.4474
616.70 0.4472
616.80 0.4469
616.90 0.4466
617.00 0.4463
617.10 0.446
617.20 0.4457
617.30 0.4455
617.40 0.4452
617.50 0.4449
617.60 0.4446
617.70 0.4443
617.80 0.444
617.90 0.4438
618.00 0.4435
618.10 0.4432
618.20 0.4429
618.30 0.4426
618.40 0.4424
618.50 0.4421
618.60 0.4418
618.70 0.4415
618.80 0.4412
618.90 0.441
619.00 0.4407
619.10 0.4404
619.20 0.4401
619.30 0.4398
619.40 0.4396
619.50 0.4393
619.60 0.439
619.70 0.4387
619.80 0.4385
619.90 0.4382
620.00 0.4379
620.10 0.4376
620.20 0.4373
620.30 0.4371
620.40 0.4368
620.50 0.4365
620.60 0.4362
620.70 0.436
620.80 0.4357
620.90 0.4354
621.00 0.4351
621.10 0.4349
621.20 0.4346
621.30 0.4343
621.40 0.434
621.50 0.4338
621.60 0.4335
621.70 0.4332
621.80 0.4329
621.90 0.4327
622.00 0.4324
622.10 0.4321
622.20 0.4319
622.30 0.4316
622.40 0.4313
622.50 0.431
622.60 0.4308
622.70 0.4305
622.80 0.4302
622.90 0.4299
623.00 0.4297
623.10 0.4294
623.20 0.4291
623.30 0.4289
623.40 0.4286
623.50 0.4283
623.60 0.4281
623.70 0.4278
623.80 0.4275
623.90 0.4272
624.00 0.427
624.10 0.4267
624.20 0.4264
624.30 0.4262
624.40 0.4259
624.50 0.4256
624.60 0.4254
624.70 0.4251
624.80 0.4248
624.90 0.4246
625.00 0.4243
625.10 0.424
625.20 0.4238
625.30 0.4235
625.40 0.4232
625.50 0.423
625.60 0.4227
625.70 0.4224
625.80 0.4222
625.90 0.4219
626.00 0.4216
626.10 0.4214
626.20 0.4211
626.30 0.4208
626.40 0.4206
626.50 0.4203
626.60 0.42
626.70 0.4198
626.80 0.4195
626.90 0.4192
627.00 0.419
627.10 0.4187
627.20 0.4184
627.30 0.4182
627.40 0.4179
627.50 0.4176
627.60 0.4174
627.70 0.4171
627.80 0.4169
627.90 0.4166
628.00 0.4163
628.10 0.4161
628.20 0.4158
628.30 0.4155
628.40 0.4153
628.50 0.415
628.60 0.4148
628.70 0.4145
628.80 0.4142
628.90 0.414
629.00 0.4137
629.10 0.4134
629.20 0.4132
629.30 0.4129
629.40 0.4127
629.50 0.4124
629.60 0.4121
629.70 0.4119
629.80 0.4116
629.90 0.4114
630.00 0.4111
630.10 0.4108
630.20 0.4106
630.30 0.4103
630.40 0.4101
630.50 0.4098
630.60 0.4095
630.70 0.4093
630.80 0.409
630.90 0.4088
631.00 0.4085
631.10 0.4082
631.20 0.408
631.30 0.4077
631.40 0.4075
631.50 0.4072
631.60 0.4069
631.70 0.4067
631.80 0.4064
631.90 0.4062
632.00 0.4059
632.10 0.4057
632.20 0.4054
632.30 0.4051
632.40 0.4049
632.50 0.4046
632.60 0.4044
632.70 0.4041
632.80 0.4038
632.90 0.4036
633.00 0.4033
633.10 0.4031
633.20 0.4028
633.30 0.4026
633.40 0.4023
633.50 0.402
633.60 0.4018
633.70 0.4015
633.80 0.4013
633.90 0.401
634.00 0.4008
634.10 0.4005
634.20 0.4003
634.30 0.4
634.40 0.3997
634.50 0.3995
634.60 0.3992
634.70 0.399
634.80 0.3987
634.90 0.3985
635.00 0.3982
635.10 0.3979
635.20 0.3977
635.30 0.3974
635.40 0.3972
635.50 0.3969
635.60 0.3967
635.70 0.3964
635.80 0.3962
635.90 0.3959
636.00 0.3956
636.10 0.3954
636.20 0.3951
636.30 0.3949
636.40 0.3946
636.50 0.3944
636.60 0.3941
636.70 0.3938
636.80 0.3936
636.90 0.3933
637.00 0.3931
637.10 0.3928
637.20 0.3926
637.30 0.3923
637.40 0.3921
637.50 0.3918
637.60 0.3915
637.70 0.3913
637.80 0.391
637.90 0.3908
638.00 0.3905
638.10 0.3903
638.20 0.39
638.30 0.3897
638.40 0.3895
638.50 0.3892
638.60 0.389
638.70 0.3887
638.80 0.3885
638.90 0.3882
639.00 0.3879
639.10 0.3877
639.20 0.3874
639.30 0.3872
639.40 0.3869
639.50 0.3866
639.60 0.3864
639.70 0.3861
639.80 0.3859
639.90 0.3856
640.00 0.3853
640.10 0.3851
640.20 0.3848
640.30 0.3846
640.40 0.3843
640.50 0.384
640.60 0.3838
640.70 0.3835
640.80 0.3832
640.90 0.383
641.00 0.3827
641.10 0.3825
641.20 0.3822
641.30 0.3819
641.40 0.3817
641.50 0.3814
641.60 0.3811
641.70 0.3809
641.80 0.3806
641.90 0.3803
642.00 0.3801
642.10 0.3798
642.20 0.3795
642.30 0.3793
642.40 0.379
642.50 0.3787
642.60 0.3785
642.70 0.3782
642.80 0.3779
642.90 0.3776
643.00 0.3774
643.10 0.3771
643.20 0.3768
643.30 0.3766
643.40 0.3763
643.50 0.376
643.60 0.3757
643.70 0.3754
643.80 0.3752
643.90 0.3749
644.00 0.3746
644.10 0.3743
644.20 0.374
644.30 0.3738
644.40 0.3735
644.50 0.3732
644.60 0.3729
644.70 0.3726
644.80 0.3723
644.90 0.372
645.00 0.3717
645.10 0.3715
645.20 0.3712
645.30 0.3709
645.40 0.3706
645.50 0.3703
645.60 0.37
645.70 0.3697
645.80 0.3694
645.90 0.3691
646.00 0.3688
646.10 0.3685
646.20 0.3682
646.30 0.3679
646.40 0.3676
646.50 0.3672
646.60 0.3669
646.70 0.3666
646.80 0.3663
646.90 0.366
647.00 0.3657
647.10 0.3653
647.20 0.365
647.30 0.3647
647.40 0.3644
647.50 0.364
647.60 0.3637
647.70 0.3633
647.80 0.363
647.90 0.3627
648.00 0.3623
648.10 0.362
648.20 0.3617
648.30 0.3613
648.40 0.3609
648.50 0.3606
648.60 0.3602
648.70 0.3598
648.80 0.3595
648.90 0.3591
649.00 0.3587
649.10 0.3584
649.20 0.358
649.30 0.3576
649.40 0.3572
649.50 0.3568
649.60 0.3564
649.70 0.356
649.80 0.3556
649.90 0.3552
650.00 0.3548
650.10 0.3544
650.20 0.354
650.30 0.3536
650.40 0.3532
650.50 0.3527
650.60 0.3523
650.70 0.3518
650.80 0.3514
650.90 0.3509
651.00 0.3505
651.10 0.35
651.20 0.3496
651.30 0.3491
651.40 0.3486
651.50 0.3481
651.60 0.3476
651.70 0.3471
651.80 0.3466
651.90 0.3461
652.00 0.3456
652.10 0.3451
652.20 0.3446
652.30 0.3441
652.40 0.3436
652.50 0.343
652.60 0.3425
652.70 0.3419
652.80 0.3413
652.90 0.3408
653.00 0.3402
653.10 0.3397
653.20 0.3391
653.30 0.3385
653.40 0.3379
653.50 0.3373
653.60 0.3367
653.70 0.336
653.80 0.3354
653.90 0.3348
654.00 0.3342
654.10 0.3336
654.20 0.3329
654.30 0.3323
654.40 0.3317
654.50 0.331
654.60 0.3304
654.70 0.3297
654.80 0.3291
654.90 0.3285
655.00 0.3278
655.10 0.3272
655.20 0.3266
655.30 0.326
655.40 0.3254
655.50 0.3249
655.60 0.3244
655.70 0.3241
655.80 0.324
655.90 0.3242
656.00 0.3255
656.10 0.3271
656.20 0.3352
656.30 0.3444
656.40 0.3305
656.50 0.3255
656.60 0.3238
656.70 0.3224
656.80 0.3221
656.90 0.3219
657.00 0.3219
657.10 0.322
657.20 0.3222
657.30 0.3224
657.40 0.3226
657.50 0.3229
657.60 0.3231
657.70 0.3234
657.80 0.3236
657.90 0.3239
658.00 0.3242
658.10 0.3244
658.20 0.3247
658.30 0.325
658.40 0.3252
658.50 0.3254
658.60 0.3256
658.70 0.3259
658.80 0.3261
658.90 0.3263
659.00 0.3265
659.10 0.3268
659.20 0.327
659.30 0.3272
659.40 0.3274
659.50 0.3275
659.60 0.3277
659.70 0.3278
659.80 0.328
659.90 0.3282
660.00 0.3283
660.10 0.3285
660.20 0.3286
660.30 0.3288
660.40 0.3289
660.50 0.329
660.60 0.329
660.70 0.3291
660.80 0.3292
660.90 0.3293
661.00 0.3294
661.10 0.3295
661.20 0.3296
661.30 0.3297
661.40 0.3297
661.50 0.3297
661.60 0.3298
661.70 0.3298
661.80 0.3298
661.90 0.3299
662.00 0.3299
662.10 0.3299
662.20 0.3299
662.30 0.33
662.40 0.3299
662.50 0.3299
662.60 0.3299
662.70 0.3299
662.80 0.3299
662.90 0.3299
663.00 0.3298
663.10 0.3298
663.20 0.3298
663.30 0.3298
663.40 0.3297
663.50 0.3297
663.60 0.3296
663.70 0.3296
663.80 0.3295
663.90 0.3295
664.00 0.3294
664.10 0.3293
664.20 0.3293
664.30 0.3292
664.40 0.3291
664.50 0.3291
664.60 0.329
664.70 0.3289
664.80 0.3288
664.90 0.3287
665.00 0.3286
665.10 0.3285
665.20 0.3285
665.30 0.3284
665.40 0.3283
665.50 0.3282
665.60 0.3281
665.70 0.3279
665.80 0.3278
665.90 0.3277
666.00 0.3276
666.10 0.3275
666.20 0.3274
666.30 0.3273
666.40 0.3272
666.50 0.327
666.60 0.3269
666.70 0.3268
666.80 0.3267
666.90 0.3266
667.00 0.3264
667.10 0.3263
667.20 0.3262
667.30 0.3261
667.40 0.3259
667.50 0.3258
667.60 0.3256
667.70 0.3255
667.80 0.3254
667.90 0.3252
668.00 0.3251
668.10 0.325
668.20 0.3248
668.30 0.3247
668.40 0.3245
668.50 0.3244
668.60 0.3242
668.70 0.3241
668.80 0.324
668.90 0.3238
669.00 0.3237
669.10 0.3235
669.20 0.3234
669.30 0.3232
669.40 0.3231
669.50 0.3229
669.60 0.3228
669.70 0.3226
669.80 0.3225
669.90 0.3223
670.00 0.3222
670.10 0.322
670.20 0.3218
670.30 0.3217
670.40 0.3215
670.50 0.3214
670.60 0.3212
670.70 0.3211
670.80 0.3209
670.90 0.3207
671.00 0.3206
671.10 0.3204
671.20 0.3203
671.30 0.3201
671.40 0.3199
671.50 0.3198
671.60 0.3196
671.70 0.3195
671.80 0.3193
671.90 0.3191
672.00 0.319
672.10 0.3188
672.20 0.3186
672.30 0.3185
672.40 0.3183
672.50 0.3182
672.60 0.318
672.70 0.3178
672.80 0.3177
672.90 0.3175
673.00 0.3173
673.10 0.3172
673.20 0.317
673.30 0.3168
673.40 0.3167
673.50 0.3165
673.60 0.3163
673.70 0.3162
673.80 0.316
673.90 0.3158
674.00 0.3157
674.10 0.3155
674.20 0.3153
674.30 0.3152
674.40 0.315
674.50 0.3148
674.60 0.3147
674.70 0.3145
674.80 0.3143
674.90 0.3142
675.00 0.314
675.10 0.3138
675.20 0.3137
675.30 0.3135
675.40 0.3133
675.50 0.3131
675.60 0.313
675.70 0.3128
675.80 0.3126
675.90 0.3125
676.00 0.3123
676.10 0.3121
676.20 0.312
676.30 0.3118
676.40 0.3116
676.50 0.3115
676.60 0.3113
676.70 0.3111
676.80 0.3109
676.90 0.3108
677.00 0.3106
677.10 0.3104
677.20 0.3103
677.30 0.3101
677.40 0.3099
677.50 0.3098
677.60 0.3096
677.70 0.3094
677.80 0.3093
677.90 0.3091
678.00 0.3089
678.10 0.3087
678.20 0.3086
678.30 0.3084
678.40 0.3082
678.50 0.3081
678.60 0.3079
678.70 0.3077
678.80 0.3076
678.90 0.3074
679.00 0.3072
679.10 0.307
679.20 0.3069
679.30 0.3067
679.40 0.3065
679.50 0.3064
679.60 0.3062
679.70 0.306
679.80 0.3059
679.90 0.3057
680.00 0.3055
680.10 0.3054
680.20 0.3052
680.30 0.305
680.40 0.3048
680.50 0.3047
680.60 0.3045
680.70 0.3043
680.80 0.3042
680.90 0.304
681.00 0.3038
681.10 0.3037
681.20 0.3035
681.30 0.3033
681.40 0.3032
681.50 0.303
681.60 0.3028
681.70 0.3027
681.80 0.3025
681.90 0.3023
682.00 0.3021
682.10 0.302
682.20 0.3018
682.30 0.3016
682.40 0.3015
682.50 0.3013
682.60 0.3011
682.70 0.301
682.80 0.3008
682.90 0.3006
683.00 0.3005
683.10 0.3003
683.20 0.3001
683.30 0.3
683.40 0.2998
683.50 0.2996
683.60 0.2995
683.70 0.2993
683.80 0.2991
683.90 0.299
684.00 0.2988
684.10 0.2986
684.20 0.2985
684.30 0.2983
684.40 0.2981
684.50 0.298
684.60 0.2978
684.70 0.2976
684.80 0.2975
684.90 0.2973
685.00 0.2971
685.10 0.297
685.20 0.2968
685.30 0.2966
685.40 0.2965
685.50 0.2963
685.60 0.2961
685.70 0.296
685.80 0.2958
685.90 0.2956
686.00 0.2955
686.10 0.2953
686.20 0.2951
686.30 0.295
686.40 0.2948
686.50 0.2947
686.60 0.2945
686.70 0.2943
686.80 0.2942
686.90 0.294
687.00 0.2938
687.10 0.2937
687.20 0.2935
687.30 0.2933
687.40 0.2932
687.50 0.293
687.60 0.2928
687.70 0.2927
687.80 0.2925
687.90 0.2924
688.00 0.2922
688.10 0.292
688.20 0.2919
688.30 0.2917
688.40 0.2915
688.50 0.2914
688.60 0.2912
688.70 0.2911
688.80 0.2909
688.90 0.2907
689.00 0.2906
689.10 0.2904
689.20 0.2902
689.30 0.2901
689.40 0.2899
689.50 0.2898
689.60 0.2896
689.70 0.2894
689.80 0.2893
689.90 0.2891
690.00 0.289
690.10 0.2888
690.20 0.2886
690.30 0.2885
690.40 0.2883
690.50 0.2881
690.60 0.288
690.70 0.2878
690.80 0.2877
690.90 0.2875
691.00 0.2873
691.10 0.2872
691.20 0.287
691.30 0.2869
691.40 0.2867
691.50 0.2865
691.60 0.2864
691.70 0.2862
691.80 0.2861
691.90 0.2859
692.00 0.2857
692.10 0.2856
692.20 0.2854
692.30 0.2853
692.40 0.2851
692.50 0.285
692.60 0.2848
692.70 0.2846
692.80 0.2845
692.90 0.2843
693.00 0.2842
693.10 0.284
693.20 0.2838
693.30 0.2837
693.40 0.2835
693.50 0.2834
693.60 0.2832
693.70 0.283
693.80 0.2829
693.90 0.2827
694.00 0.2826
694.10 0.2824
694.20 0.2823
694.30 0.2821
694.40 0.2819
694.50 0.2818
694.60 0.2816
694.70 0.2815
694.80 0.2813
694.90 0.2812
695.00 0.281
695.10 0.2808
695.20 0.2807
695.30 0.2805
695.40 0.2804
695.50 0.2802
695.60 0.2801
695.70 0.2799
695.80 0.2798
695.90 0.2796
696.00 0.2794
696.10 0.2793
696.20 0.2791
696.30 0.279
696.40 0.2788
696.50 0.2787
696.60 0.2785
696.70 0.2784
696.80 0.2782
696.90 0.2781
697.00 0.2779
697.10 0.2777
697.20 0.2776
697.30 0.2774
697.40 0.2773
697.50 0.2771
697.60 0.277
697.70 0.2768
697.80 0.2767
697.90 0.2765
698.00 0.2764
698.10 0.2762
698.20 0.2761
698.30 0.2759
698.40 0.2757
698.50 0.2756
698.60 0.2754
698.70 0.2753
698.80 0.2751
698.90 0.275
699.00 0.2748
699.10 0.2747
699.20 0.2745
699.30 0.2744
699.40 0.2742
699.50 0.2741
699.60 0.2739
699.70 0.2738
699.80 0.2736
699.90 0.2735
700.00 0.2733
700.10 0.2732
700.20 0.273
700.30 0.2728
700.40 0.2727
700.50 0.2725
700.60 0.2724
700.70 0.2722
700.80 0.2721
700.90 0.2719
701.00 0.2718
701.10 0.2716
701.20 0.2715
701.30 0.2713
701.40 0.2712
701.50 0.271
701.60 0.2709
701.70 0.2707
701.80 0.2706
701.90 0.2704
702.00 0.2703
702.10 0.2702
702.20 0.27
702.30 0.2699
702.40 0.2697
702.50 0.2696
702.60 0.2694
702.70 0.2693
702.80 0.2691
702.90 0.269
703.00 0.2688
703.10 0.2687
703.20 0.2685
703.30 0.2684
703.40 0.2682
703.50 0.2681
703.60 0.2679
703.70 0.2678
703.80 0.2676
703.90 0.2675
704.00 0.2673
704.10 0.2672
704.20 0.267
704.30 0.2669
704.40 0.2667
704.50 0.2666
704.60 0.2664
704.70 0.2663
704.80 0.2661
704.90 0.266
705.00 0.2659
705.10 0.2657
705.20 0.2656
705.30 0.2654
705.40 0.2653
705.50 0.2651
705.60 0.265
705.70 0.2648
705.80 0.2647
705.90 0.2645
706.00 0.2644
706.10 0.2643
706.20 0.2641
706.30 0.264
706.40 0.2638
706.50 0.2637
706.60 0.2635
706.70 0.2634
706.80 0.2632
706.90 0.2631
707.00 0.263
707.10 0.2628
707.20 0.2627
707.30 0.2625
707.40 0.2624
707.50 0.2622
707.60 0.2621
707.70 0.2619
707.80 0.2618
707.90 0.2617
708.00 0.2615
708.10 0.2614
708.20 0.2612
708.30 0.2611
708.40 0.2609
708.50 0.2608
708.60 0.2607
708.70 0.2605
708.80 0.2604
708.90 0.2602
709.00 0.2601
709.10 0.2599
709.20 0.2598
709.30 0.2596
709.40 0.2595
709.50 0.2594
709.60 0.2592
709.70 0.2591
709.80 0.2589
709.90 0.2588
710.00 0.2587
710.10 0.2585
710.20 0.2584
710.30 0.2582
710.40 0.2581
710.50 0.2579
710.60 0.2578
710.70 0.2577
710.80 0.2575
710.90 0.2574
711.00 0.2572
711.10 0.2571
711.20 0.257
711.30 0.2568
711.40 0.2567
711.50 0.2565
711.60 0.2564
711.70 0.2563
711.80 0.2561
711.90 0.256
712.00 0.2558
712.10 0.2557
712.20 0.2556
712.30 0.2554
712.40 0.2553
712.50 0.2551
712.60 0.255
712.70 0.2549
712.80 0.2547
712.90 0.2546
713.00 0.2545
713.10 0.2543
713.20 0.2542
713.30 0.254
713.40 0.2539
713.50 0.2538
713.60 0.2536
713.70 0.2535
713.80 0.2533
713.90 0.2532
714.00 0.2531
714.10 0.2529
714.20 0.2528
714.30 0.2527
714.40 0.2525
714.50 0.2524
714.60 0.2522
714.70 0.2521
714.80 0.252
714.90 0.2518
715.00 0.2517
715.10 0.2516
715.20 0.2514
715.30 0.2513
715.40 0.2511
715.50 0.251
715.60 0.2509
715.70 0.2507
715.80 0.2506
715.90 0.2505
716.00 0.2503
716.10 0.2502
716.20 0.2501
716.30 0.2499
716.40 0.2498
716.50 0.2496
716.60 0.2495
716.70 0.2494
716.80 0.2492
716.90 0.2491
717.00 0.249
717.10 0.2488
717.20 0.2487
717.30 0.2486
717.40 0.2484
717.50 0.2483
717.60 0.2482
717.70 0.248
717.80 0.2479
717.90 0.2478
718.00 0.2476
718.10 0.2475
718.20 0.2474
718.30 0.2472
718.40 0.2471
718.50 0.247
718.60 0.2468
718.70 0.2467
718.80 0.2466
718.90 0.2464
719.00 0.2463
719.10 0.2462
719.20 0.246
719.30 0.2459
719.40 0.2458
719.50 0.2456
719.60 0.2455
719.70 0.2454
719.80 0.2452
719.90 0.2451
720.00 0.245
720.10 0.2448
720.20 0.2447
720.30 0.2446
720.40 0.2444
720.50 0.2443
720.60 0.2442
720.70 0.244
720.80 0.2439
720.90 0.2438
721.00 0.2436
721.10 0.2435
721.20 0.2434
721.30 0.2432
721.40 0.2431
721.50 0.243
721.60 0.2429
721.70 0.2427
721.80 0.2426
721.90 0.2425
722.00 0.2423
722.10 0.2422
722.20 0.2421
722.30 0.2419
722.40 0.2418
722.50 0.2417
722.60 0.2415
722.70 0.2414
722.80 0.2413
722.90 0.2412
723.00 0.241
723.10 0.2409
723.20 0.2408
723.30 0.2406
723.40 0.2405
723.50 0.2404
723.60 0.2402
723.70 0.2401
723.80 0.24
723.90 0.2399
724.00 0.2397
724.10 0.2396
724.20 0.2395
724.30 0.2393
724.40 0.2392
724.50 0.2391
724.60 0.239
724.70 0.2388
724.80 0.2387
724.90 0.2386
725.00 0.2384
725.10 0.2383
725.20 0.2382
725.30 0.2381
725.40 0.2379
725.50 0.2378
725.60 0.2377
725.70 0.2375
725.80 0.2374
725.90 0.2373
726.00 0.2372
726.10 0.237
726.20 0.2369
726.30 0.2368
726.40 0.2367
726.50 0.2365
726.60 0.2364
726.70 0.2363
726.80 0.2362
726.90 0.236
727.00 0.2359
727.10 0.2358
727.20 0.2357
727.30 0.2355
727.40 0.2354
727.50 0.2353
727.60 0.2351
727.70 0.235
727.80 0.2349
727.90 0.2348
728.00 0.2346
728.10 0.2345
728.20 0.2344
728.30 0.2343
728.40 0.2341
728.50 0.234
728.60 0.2339
728.70 0.2338
728.80 0.2336
728.90 0.2335
729.00 0.2334
729.10 0.2333
729.20 0.2331
729.30 0.233
729.40 0.2329
729.50 0.2328
729.60 0.2326
729.70 0.2325
729.80 0.2324
729.90 0.2323
730.00 0.2321
730.10 0.232
730.20 0.2319
730.30 0.2318
730.40 0.2317
730.50 0.2315
730.60 0.2314
730.70 0.2313
730.80 0.2312
730.90 0.231
731.00 0.2309
731.10 0.2308
731.20 0.2307
731.30 0.2306
731.40 0.2304
731.50 0.2303
731.60 0.2302
731.70 0.2301
731.80 0.2299
731.90 0.2298
732.00 0.2297
732.10 0.2296
732.20 0.2295
732.30 0.2293
732.40 0.2292
732.50 0.2291
732.60 0.229
732.70 0.2288
732.80 0.2287
732.90 0.2286
733.00 0.2285
733.10 0.2284
733.20 0.2282
733.30 0.2281
733.40 0.228
733.50 0.2279
733.60 0.2278
733.70 0.2276
733.80 0.2275
733.90 0.2274
734.00 0.2273
734.10 0.2272
734.20 0.227
734.30 0.2269
734.40 0.2268
734.50 0.2267
734.60 0.2266
734.70 0.2264
734.80 0.2263
734.90 0.2262
735.00 0.2261
735.10 0.226
735.20 0.2258
735.30 0.2257
735.40 0.2256
735.50 0.2255
735.60 0.2254
735.70 0.2252
735.80 0.2251
735.90 0.225
736.00 0.2249
736.10 0.2248
736.20 0.2246
736.30 0.2245
736.40 0.2244
736.50 0.2243
736.60 0.2242
736.70 0.224
736.80 0.2239
736.90 0.2238
737.00 0.2237
737.10 0.2236
737.20 0.2235
737.30 0.2233
737.40 0.2232
737.50 0.2231
737.60 0.223
737.70 0.2229
737.80 0.2227
737.90 0.2226
738.00 0.2225
738.10 0.2224
738.20 0.2223
738.30 0.2222
738.40 0.222
738.50 0.2219
738.60 0.2218
738.70 0.2217
738.80 0.2216
738.90 0.2214
739.00 0.2213
739.10 0.2212
739.20 0.2211
739.30 0.221
739.40 0.2209
739.50 0.2207
739.60 0.2206
739.70 0.2205
739.80 0.2204
739.90 0.2203
740.00 0.2202
740.10 0.22
740.20 0.2199
740.30 0.2198
740.40 0.2197
740.50 0.2196
740.60 0.2195
740.70 0.2194
740.80 0.2192
740.90 0.2191
741.00 0.219
741.10 0.2189
741.20 0.2188
741.30 0.2187
741.40 0.2186
741.50 0.2184
741.60 0.2183
741.70 0.2182
741.80 0.2181
741.90 0.218
742.00 0.2179
742.10 0.2178
742.20 0.2176
742.30 0.2175
742.40 0.2174
742.50 0.2173
742.60 0.2172
742.70 0.2171
742.80 0.217
742.90 0.2168
743.00 0.2167
743.10 0.2166
743.20 0.2165
743.30 0.2164
743.40 0.2163
743.50 0.2162
743.60 0.2161
743.70 0.2159
743.80 0.2158
743.90 0.2157
744.00 0.2156
744.10 0.2155
744.20 0.2154
744.30 0.2153
744.40 0.2152
744.50 0.215
744.60 0.2149
744.70 0.2148
744.80 0.2147
744.90 0.2146
745.00 0.2145
745.10 0.2144
745.20 0.2143
745.30 0.2141
745.40 0.214
745.50 0.2139
745.60 0.2138
745.70 0.2137
745.80 0.2136
745.90 0.2135
746.00 0.2134
746.10 0.2132
746.20 0.2131
746.30 0.213
746.40 0.2129
746.50 0.2128
746.60 0.2127
746.70 0.2126
746.80 0.2125
746.90 0.2124
747.00 0.2122
747.10 0.2121
747.20 0.212
747.30 0.2119
747.40 0.2118
747.50 0.2117
747.60 0.2116
747.70 0.2115
747.80 0.2114
747.90 0.2112
748.00 0.2111
748.10 0.211
748.20 0.2109
748.30 0.2108
748.40 0.2107
748.50 0.2106
748.60 0.2105
748.70 0.2104
748.80 0.2103
748.90 0.2101
749.00 0.21
749.10 0.2099
749.20 0.2098
749.30 0.2097
749.40 0.2096
749.50 0.2095
749.60 0.2094
749.70 0.2093
749.80 0.2092
749.90 0.209
750.00 0.2089
750.10 0.2088
750.20 0.2087
750.30 0.2086
750.40 0.2085
750.50 0.2084
750.60 0.2083
750.70 0.2082
750.80 0.2081
750.90 0.208
751.00 0.2079
751.10 0.2078
751.20 0.2076
751.30 0.2075
751.40 0.2074
751.50 0.2073
751.60 0.2072
751.70 0.2071
751.80 0.207
751.90 0.2069
752.00 0.2068
752.10 0.2067
752.20 0.2066
752.30 0.2065
752.40 0.2064
752.50 0.2063
752.60 0.2062
752.70 0.206
752.80 0.2059
752.90 0.2058
753.00 0.2057
753.10 0.2056
753.20 0.2055
753.30 0.2054
753.40 0.2053
753.50 0.2052
753.60 0.2051
753.70 0.205
753.80 0.2049
753.90 0.2048
754.00 0.2047
754.10 0.2046
754.20 0.2045
754.30 0.2043
754.40 0.2042
754.50 0.2041
754.60 0.204
754.70 0.2039
754.80 0.2038
754.90 0.2037
755.00 0.2036
755.10 0.2035
755.20 0.2034
755.30 0.2033
755.40 0.2032
755.50 0.2031
755.60 0.203
755.70 0.2029
755.80 0.2028
755.90 0.2027
756.00 0.2026
756.10 0.2025
756.20 0.2024
756.30 0.2022
756.40 0.2021
756.50 0.202
756.60 0.2019
756.70 0.2018
756.80 0.2017
756.90 0.2016
757.00 0.2015
757.10 0.2014
757.20 0.2013
757.30 0.2012
757.40 0.2011
757.50 0.201
757.60 0.2009
757.70 0.2008
757.80 0.2007
757.90 0.2006
758.00 0.2005
758.10 0.2004
758.20 0.2003
758.30 0.2002
758.40 0.2001
758.50 0.2
758.60 0.1999
758.70 0.1998
758.80 0.1997
758.90 0.1995
759.00 0.1994
759.10 0.1993
759.20 0.1992
759.30 0.1991
759.40 0.199
759.50 0.1989
759.60 0.1988
759.70 0.1987
759.80 0.1986
759.90 0.1985
760.00 0.1984
760.10 0.1983
760.20 0.1982
760.30 0.1981
760.40 0.198
760.50 0.1979
760.60 0.1978
760.70 0.1977
760.80 0.1976
760.90 0.1975
761.00 0.1974
761.10 0.1973
761.20 0.1972
761.30 0.1971
761.40 0.197
761.50 0.1969
761.60 0.1968
761.70 0.1967
761.80 0.1966
761.90 0.1965
762.00 0.1964
762.10 0.1963
762.20 0.1962
762.30 0.1961
762.40 0.196
762.50 0.1959
762.60 0.1958
762.70 0.1957
762.80 0.1956
762.90 0.1955
763.00 0.1954
763.10 0.1953
763.20 0.1952
763.30 0.1951
763.40 0.195
763.50 0.1949
763.60 0.1948
763.70 0.1947
763.80 0.1946
763.90 0.1945
764.00 0.1944
764.10 0.1943
764.20 0.1942
764.30 0.1941
764.40 0.194
764.50 0.1939
764.60 0.1938
764.70 0.1937
764.80 0.1936
764.90 0.1935
765.00 0.1934
765.10 0.1933
765.20 0.1932
765.30 0.1931
765.40 0.193
765.50 0.1929
765.60 0.1928
765.70 0.1927
765.80 0.1926
765.90 0.1925
766.00 0.1924
766.10 0.1923
766.20 0.1922
766.30 0.1921
766.40 0.1921
766.50 0.192
766.60 0.1919
766.70 0.1918
766.80 0.1917
766.90 0.1916
767.00 0.1915
767.10 0.1914
767.20 0.1913
767.30 0.1912
767.40 0.1911
767.50 0.191
767.60 0.1909
767.70 0.1908
767.80 0.1907
767.90 0.1906
768.00 0.1905
768.10 0.1904
768.20 0.1903
768.30 0.1902
768.40 0.1901
768.50 0.19
768.60 0.1899
768.70 0.1898
768.80 0.1897
768.90 0.1896
769.00 0.1895
769.10 0.1894
769.20 0.1893
769.30 0.1892
769.40 0.1891
769.50 0.189
769.60 0.1889
769.70 0.1888
769.80 0.1887
769.90 0.1886
770.00 0.1886
770.10 0.1885
770.20 0.1884
770.30 0.1883
770.40 0.1882
770.50 0.1881
770.60 0.188
770.70 0.1879
770.80 0.1878
770.90 0.1877
771.00 0.1876
771.10 0.1875
771.20 0.1874
771.30 0.1873
771.40 0.1872
771.50 0.1871
771.60 0.187
771.70 0.1869
771.80 0.1869
771.90 0.1868
772.00 0.1867
772.10 0.1866
772.20 0.1865
772.30 0.1864
772.40 0.1863
772.50 0.1862
772.60 0.1861
772.70 0.186
772.80 0.1859
772.90 0.1858
773.00 0.1857
773.10 0.1856
773.20 0.1855
773.30 0.1854
773.40 0.1854
773.50 0.1853
773.60 0.1852
773.70 0.1851
773.80 0.185
773.90 0.1849
774.00 0.1848
774.10 0.1847
774.20 0.1846
774.30 0.1845
774.40 0.1844
774.50 0.1843
774.60 0.1842
774.70 0.1841
774.80 0.1841
774.90 0.184
775.00 0.1839
775.10 0.1838
775.20 0.1837
775.30 0.1836
775.40 0.1835
775.50 0.1834
775.60 0.1833
775.70 0.1832
775.80 0.1831
775.90 0.183
776.00 0.1829
776.10 0.1829
776.20 0.1828
776.30 0.1827
776.40 0.1826
776.50 0.1825
776.60 0.1824
776.70 0.1823
776.80 0.1822
776.90 0.1821
777.00 0.182
777.10 0.1819
777.20 0.1818
777.30 0.1818
777.40 0.1817
777.50 0.1816
777.60 0.1815
777.70 0.1814
777.80 0.1813
777.90 0.1812
778.00 0.1811
778.10 0.181
778.20 0.1809
778.30 0.1808
778.40 0.1807
778.50 0.1807
778.60 0.1806
778.70 0.1805
778.80 0.1804
778.90 0.1803
779.00 0.1802
779.10 0.1801
779.20 0.18
779.30 0.1799
779.40 0.1798
779.50 0.1797
779.60 0.1797
779.70 0.1796
779.80 0.1795
779.90 0.1794
780.00 0.1793
780.10 0.1792
780.20 0.1791
780.30 0.179
780.40 0.1789
780.50 0.1788
780.60 0.1788
780.70 0.1787
780.80 0.1786
780.90 0.1785
781.00 0.1784
781.10 0.1783
781.20 0.1782
781.30 0.1781
781.40 0.1781
781.50 0.178
781.60 0.1779
781.70 0.1778
781.80 0.1777
781.90 0.1776
782.00 0.1775
782.10 0.1774
782.20 0.1773
782.30 0.1773
782.40 0.1772
782.50 0.1771
782.60 0.177
782.70 0.1769
782.80 0.1768
782.90 0.1767
783.00 0.1766
783.10 0.1766
783.20 0.1765
783.30 0.1764
783.40 0.1763
783.50 0.1762
783.60 0.1761
783.70 0.176
783.80 0.1759
783.90 0.1759
784.00 0.1758
784.10 0.1757
784.20 0.1756
784.30 0.1755
784.40 0.1754
784.50 0.1753
784.60 0.1752
784.70 0.1752
784.80 0.1751
784.90 0.175
785.00 0.1749
785.10 0.1748
785.20 0.1747
785.30 0.1746
785.40 0.1745
785.50 0.1745
785.60 0.1744
785.70 0.1743
785.80 0.1742
785.90 0.1741
786.00 0.174
786.10 0.1739
786.20 0.1739
786.30 0.1738
786.40 0.1737
786.50 0.1736
786.60 0.1735
786.70 0.1734
786.80 0.1733
786.90 0.1733
787.00 0.1732
787.10 0.1731
787.20 0.173
787.30 0.1729
787.40 0.1728
787.50 0.1727
787.60 0.1726
787.70 0.1726
787.80 0.1725
787.90 0.1724
788.00 0.1723
788.10 0.1722
788.20 0.1721
788.30 0.172
788.40 0.172
788.50 0.1719
788.60 0.1718
788.70 0.1717
788.80 0.1716
788.90 0.1715
789.00 0.1714
789.10 0.1714
789.20 0.1713
789.30 0.1712
789.40 0.1711
789.50 0.171
789.60 0.1709
789.70 0.1709
789.80 0.1708
789.90 0.1707
790.00 0.1706
790.10 0.1705
790.20 0.1704
790.30 0.1703
790.40 0.1703
790.50 0.1702
790.60 0.1701
790.70 0.17
790.80 0.1699
790.90 0.1698
791.00 0.1698
791.10 0.1697
791.20 0.1696
791.30 0.1695
791.40 0.1694
791.50 0.1693
791.60 0.1693
791.70 0.1692
791.80 0.1691
791.90 0.169
792.00 0.1689
792.10 0.1689
792.20 0.1688
792.30 0.1687
792.40 0.1686
792.50 0.1685
792.60 0.1684
792.70 0.1684
792.80 0.1683
792.90 0.1682
793.00 0.1681
793.10 0.168
793.20 0.1679
793.30 0.1679
793.40 0.1678
793.50 0.1677
793.60 0.1676
793.70 0.1675
793.80 0.1674
793.90 0.1674
794.00 0.1673
794.10 0.1672
794.20 0.1671
794.30 0.167
794.40 0.167
794.50 0.1669
794.60 0.1668
794.70 0.1667
794.80 0.1666
794.90 0.1665
795.00 0.1665
795.10 0.1664
795.20 0.1663
795.30 0.1662
795.40 0.1661
795.50 0.1661
795.60 0.166
795.70 0.1659
795.80 0.1658
795.90 0.1657
796.00 0.1656
796.10 0.1656
796.20 0.1655
796.30 0.1654
796.40 0.1653
796.50 0.1652
796.60 0.1652
796.70 0.1651
796.80 0.165
796.90 0.1649
797.00 0.1648
797.10 0.1648
797.20 0.1647
797.30 0.1646
797.40 0.1645
797.50 0.1644
797.60 0.1644
797.70 0.1643
797.80 0.1642
797.90 0.1641
798.00 0.164
798.10 0.1639
798.20 0.1639
798.30 0.1638
798.40 0.1637
798.50 0.1636
798.60 0.1635
798.70 0.1635
798.80 0.1634
798.90 0.1633
799.00 0.1632
799.10 0.1631
799.20 0.1631
799.30 0.163
799.40 0.1629
799.50 0.1628
799.60 0.1627
799.70 0.1627
799.80 0.1626
799.90 0.1625
800.00 0.1624
800.10 0.1623
800.20 0.1623
800.30 0.1622
800.40 0.1621
800.50 0.162
800.60 0.162
800.70 0.1619
800.80 0.1618
800.90 0.1617
801.00 0.1616
801.10 0.1616
801.20 0.1615
801.30 0.1614
801.40 0.1613
801.50 0.1612
801.60 0.1612
801.70 0.1611
801.80 0.161
801.90 0.1609
802.00 0.1609
802.10 0.1608
802.20 0.1607
802.30 0.1606
802.40 0.1605
802.50 0.1605
802.60 0.1604
802.70 0.1603
802.80 0.1602
802.90 0.1602
803.00 0.1601
803.10 0.16
803.20 0.1599
803.30 0.1598
803.40 0.1598
803.50 0.1597
803.60 0.1596
803.70 0.1595
803.80 0.1595
803.90 0.1594
804.00 0.1593
804.10 0.1592
804.20 0.1592
804.30 0.1591
804.40 0.159
804.50 0.1589
804.60 0.1588
804.70 0.1588
804.80 0.1587
804.90 0.1586
805.00 0.1585
805.10 0.1585
805.20 0.1584
805.30 0.1583
805.40 0.1582
805.50 0.1582
805.60 0.1581
805.70 0.158
805.80 0.1579
805.90 0.1578
806.00 0.1578
806.10 0.1577
806.20 0.1576
806.30 0.1575
806.40 0.1575
806.50 0.1574
806.60 0.1573
806.70 0.1572
806.80 0.1572
806.90 0.1571
807.00 0.157
807.10 0.1569
807.20 0.1569
807.30 0.1568
807.40 0.1567
807.50 0.1566
807.60 0.1565
807.70 0.1565
807.80 0.1564
807.90 0.1563
808.00 0.1562
808.10 0.1562
808.20 0.1561
808.30 0.156
808.40 0.1559
808.50 0.1559
808.60 0.1558
808.70 0.1557
808.80 0.1556
808.90 0.1556
809.00 0.1555
809.10 0.1554
809.20 0.1553
809.30 0.1553
809.40 0.1552
809.50 0.1551
809.60 0.155
809.70 0.155
809.80 0.1549
809.90 0.1548
810.00 0.1547
810.10 0.1547
810.20 0.1546
810.30 0.1545
810.40 0.1544
810.50 0.1544
810.60 0.1543
810.70 0.1542
810.80 0.1541
810.90 0.1541
811.00 0.154
811.10 0.1539
811.20 0.1538
811.30 0.1538
811.40 0.1537
811.50 0.1536
811.60 0.1536
811.70 0.1535
811.80 0.1534
811.90 0.1533
812.00 0.1533
812.10 0.1532
812.20 0.1531
812.30 0.153
812.40 0.153
812.50 0.1529
812.60 0.1528
812.70 0.1527
812.80 0.1527
812.90 0.1526
813.00 0.1525
813.10 0.1525
813.20 0.1524
813.30 0.1523
813.40 0.1522
813.50 0.1522
813.60 0.1521
813.70 0.152
813.80 0.1519
813.90 0.1519
814.00 0.1518
814.10 0.1517
814.20 0.1517
814.30 0.1516
814.40 0.1515
814.50 0.1514
814.60 0.1514
814.70 0.1513
814.80 0.1512
814.90 0.1511
815.00 0.1511
815.10 0.151
815.20 0.1509
815.30 0.1509
815.40 0.1508
815.50 0.1507
815.60 0.1506
815.70 0.1506
815.80 0.1505
815.90 0.1504
816.00 0.1504
816.10 0.1503
816.20 0.1502
816.30 0.1501
816.40 0.1501
816.50 0.15
816.60 0.1499
816.70 0.1498
816.80 0.1498
816.90 0.1497
817.00 0.1496
817.10 0.1496
817.20 0.1495
817.30 0.1494
817.40 0.1493
817.50 0.1493
817.60 0.1492
817.70 0.1491
817.80 0.1491
817.90 0.149
818.00 0.1489
818.10 0.1488
818.20 0.1488
818.30 0.1487
818.40 0.1486
818.50 0.1486
818.60 0.1485
818.70 0.1484
818.80 0.1483
818.90 0.1483
819.00 0.1482
819.10 0.1481
819.20 0.1481
819.30 0.148
819.40 0.1479
819.50 0.1478
819.60 0.1478
819.70 0.1477
819.80 0.1476
819.90 0.1476
820.00 0.1475
820.10 0.1474
820.20 0.1474
820.30 0.1473
820.40 0.1472
820.50 0.1471
820.60 0.1471
820.70 0.147
820.80 0.1469
820.90 0.1469
821.00 0.1468
821.10 0.1467
821.20 0.1467
821.30 0.1466
821.40 0.1465
821.50 0.1464
821.60 0.1464
821.70 0.1463
821.80 0.1462
821.90 0.1462
822.00 0.1461
822.10 0.146
822.20 0.146
822.30 0.1459
822.40 0.1458
822.50 0.1457
822.60 0.1457
822.70 0.1456
822.80 0.1455
822.90 0.1455
823.00 0.1454
823.10 0.1453
823.20 0.1453
823.30 0.1452
823.40 0.1451
823.50 0.1451
823.60 0.145
823.70 0.1449
823.80 0.1449
823.90 0.1448
824.00 0.1447
824.10 0.1446
824.20 0.1446
824.30 0.1445
824.40 0.1444
824.50 0.1444
824.60 0.1443
824.70 0.1442
824.80 0.1442
824.90 0.1441
825.00 0.144
825.10 0.144
825.20 0.1439
825.30 0.1438
825.40 0.1438
825.50 0.1437
825.60 0.1436
825.70 0.1436
825.80 0.1435
825.90 0.1434
826.00 0.1434
826.10 0.1433
826.20 0.1432
826.30 0.1431
826.40 0.1431
826.50 0.143
826.60 0.1429
826.70 0.1429
826.80 0.1428
826.90 0.1427
827.00 0.1427
827.10 0.1426
827.20 0.1425
827.30 0.1425
827.40 0.1424
827.50 0.1423
827.60 0.1423
827.70 0.1422
827.80 0.1421
827.90 0.1421
828.00 0.142
828.10 0.1419
828.20 0.1419
828.30 0.1418
828.40 0.1417
828.50 0.1417
828.60 0.1416
828.70 0.1415
828.80 0.1415
828.90 0.1414
829.00 0.1413
829.10 0.1413
829.20 0.1412
829.30 0.1411
829.40 0.1411
829.50 0.141
829.60 0.1409
829.70 0.1409
829.80 0.1408
829.90 0.1407
830.00 0.1407
830.10 0.1406
830.20 0.1405
830.30 0.1405
830.40 0.1404
830.50 0.1403
830.60 0.1403
830.70 0.1402
830.80 0.1401
830.90 0.1401
831.00 0.14
831.10 0.1399
831.20 0.1399
831.30 0.1398
831.40 0.1397
831.50 0.1397
831.60 0.1396
831.70 0.1396
831.80 0.1395
831.90 0.1394
832.00 0.1394
832.10 0.1393
832.20 0.1392
832.30 0.1392
832.40 0.1391
832.50 0.139
832.60 0.139
832.70 0.1389
832.80 0.1388
832.90 0.1388
833.00 0.1387
833.10 0.1386
833.20 0.1386
833.30 0.1385
833.40 0.1384
833.50 0.1384
833.60 0.1383
833.70 0.1382
833.80 0.1382
833.90 0.1381
834.00 0.1381
834.10 0.138
834.20 0.1379
834.30 0.1379
834.40 0.1378
834.50 0.1377
834.60 0.1377
834.70 0.1376
834.80 0.1375
834.90 0.1375
835.00 0.1374
835.10 0.1373
835.20 0.1373
835.30 0.1372
835.40 0.1372
835.50 0.1371
835.60 0.137
835.70 0.137
835.80 0.1369
835.90 0.1368
836.00 0.1368
836.10 0.1367
836.20 0.1366
836.30 0.1366
836.40 0.1365
836.50 0.1364
836.60 0.1364
836.70 0.1363
836.80 0.1363
836.90 0.1362
837.00 0.1361
837.10 0.1361
837.20 0.136
837.30 0.1359
837.40 0.1359
837.50 0.1358
837.60 0.1357
837.70 0.1357
837.80 0.1356
837.90 0.1356
838.00 0.1355
838.10 0.1354
838.20 0.1354
838.30 0.1353
838.40 0.1352
838.50 0.1352
838.60 0.1351
838.70 0.1351
838.80 0.135
838.90 0.1349
839.00 0.1349
839.10 0.1348
839.20 0.1347
839.30 0.1347
839.40 0.1346
839.50 0.1346
839.60 0.1345
839.70 0.1344
839.80 0.1344
839.90 0.1343
840.00 0.1342
840.10 0.1342
840.20 0.1341
840.30 0.1341
840.40 0.134
840.50 0.1339
840.60 0.1339
840.70 0.1338
840.80 0.1337
840.90 0.1337
841.00 0.1336
841.10 0.1336
841.20 0.1335
841.30 0.1334
841.40 0.1334
841.50 0.1333
841.60 0.1332
841.70 0.1332
841.80 0.1331
841.90 0.1331
842.00 0.133
842.10 0.1329
842.20 0.1329
842.30 0.1328
842.40 0.1327
842.50 0.1327
842.60 0.1326
842.70 0.1326
842.80 0.1325
842.90 0.1324
843.00 0.1324
843.10 0.1323
843.20 0.1323
843.30 0.1322
843.40 0.1321
843.50 0.1321
843.60 0.132
843.70 0.1319
843.80 0.1319
843.90 0.1318
844.00 0.1318
844.10 0.1317
844.20 0.1316
844.30 0.1316
844.40 0.1315
844.50 0.1315
844.60 0.1314
844.70 0.1313
844.80 0.1313
844.90 0.1312
845.00 0.1312
845.10 0.1311
845.20 0.131
845.30 0.131
845.40 0.1309
845.50 0.1309
845.60 0.1308
845.70 0.1307
845.80 0.1307
845.90 0.1306
846.00 0.1305
846.10 0.1305
846.20 0.1304
846.30 0.1304
846.40 0.1303
846.50 0.1302
846.60 0.1302
846.70 0.1301
846.80 0.1301
846.90 0.13
847.00 0.1299
847.10 0.1299
847.20 0.1298
847.30 0.1298
847.40 0.1297
847.50 0.1296
847.60 0.1296
847.70 0.1295
847.80 0.1295
847.90 0.1294
848.00 0.1293
848.10 0.1293
848.20 0.1292
848.30 0.1292
848.40 0.1291
848.50 0.129
848.60 0.129
848.70 0.1289
848.80 0.1289
848.90 0.1288
849.00 0.1288
849.10 0.1287
849.20 0.1286
849.30 0.1286
849.40 0.1285
849.50 0.1285
849.60 0.1284
849.70 0.1283
849.80 0.1283
849.90 0.1282
850.00 0.1282
850.10 0.1281
850.20 0.128
850.30 0.128
850.40 0.1279
850.50 0.1279
850.60 0.1278
850.70 0.1277
850.80 0.1277
850.90 0.1276
851.00 0.1276
851.10 0.1275
851.20 0.1274
851.30 0.1274
851.40 0.1273
851.50 0.1273
851.60 0.1272
851.70 0.1272
851.80 0.1271
851.90 0.127
852.00 0.127
852.10 0.1269
852.20 0.1269
852.30 0.1268
852.40 0.1267
852.50 0.1267
852.60 0.1266
852.70 0.1266
852.80 0.1265
852.90 0.1265
853.00 0.1264
853.10 0.1263
853.20 0.1263
853.30 0.1262
853.40 0.1262
853.50 0.1261
853.60 0.1261
853.70 0.126
853.80 0.1259
853.90 0.1259
854.00 0.1258
854.10 0.1258
854.20 0.1257
854.30 0.1256
854.40 0.1256
854.50 0.1255
854.60 0.1255
854.70 0.1254
854.80 0.1254
854.90 0.1253
855.00 0.1252
855.10 0.1252
855.20 0.1251
855.30 0.1251
855.40 0.125
855.50 0.125
855.60 0.1249
855.70 0.1248
855.80 0.1248
855.90 0.1247
856.00 0.1247
856.10 0.1246
856.20 0.1246
856.30 0.1245
856.40 0.1244
856.50 0.1244
856.60 0.1243
856.70 0.1243
856.80 0.1242
856.90 0.1242
857.00 0.1241
857.10 0.124
857.20 0.124
857.30 0.1239
857.40 0.1239
857.50 0.1238
857.60 0.1238
857.70 0.1237
857.80 0.1236
857.90 0.1236
858.00 0.1235
858.10 0.1235
858.20 0.1234
858.30 0.1234
858.40 0.1233
858.50 0.1233
858.60 0.1232
858.70 0.1231
858.80 0.1231
858.90 0.123
859.00 0.123
859.10 0.1229
859.20 0.1229
859.30 0.1228
859.40 0.1228
859.50 0.1227
859.60 0.1226
859.70 0.1226
859.80 0.1225
859.90 0.1225
860.00 0.1224
860.10 0.1224
860.20 0.1223
860.30 0.1223
860.40 0.1222
860.50 0.1221
860.60 0.1221
860.70 0.122
860.80 0.122
860.90 0.1219
861.00 0.1219
861.10 0.1218
861.20 0.1218
861.30 0.1217
861.40 0.1217
861.50 0.1216
861.60 0.1215
861.70 0.1215
861.80 0.1214
861.90 0.1214
862.00 0.1213
862.10 0.1213
862.20 0.1212
862.30 0.1212
862.40 0.1211
862.50 0.121
862.60 0.121
862.70 0.1209
862.80 0.1209
862.90 0.1208
863.00 0.1208
863.10 0.1207
863.20 0.1207
863.30 0.1206
863.40 0.1206
863.50 0.1205
863.60 0.1204
863.70 0.1204
863.80 0.1203
863.90 0.1203
864.00 0.1202
864.10 0.1202
864.20 0.1201
864.30 0.1201
864.40 0.12
864.50 0.12
864.60 0.1199
864.70 0.1198
864.80 0.1198
864.90 0.1197
865.00 0.1197
865.10 0.1196
865.20 0.1196
865.30 0.1195
865.40 0.1195
865.50 0.1194
865.60 0.1194
865.70 0.1193
865.80 0.1192
865.90 0.1192
866.00 0.1191
866.10 0.1191
866.20 0.119
866.30 0.119
866.40 0.1189
866.50 0.1189
866.60 0.1188
866.70 0.1188
866.80 0.1187
866.90 0.1187
867.00 0.1186
867.10 0.1185
867.20 0.1185
867.30 0.1184
867.40 0.1184
867.50 0.1183
867.60 0.1183
867.70 0.1182
867.80 0.1182
867.90 0.1181
868.00 0.1181
868.10 0.118
868.20 0.118
868.30 0.1179
868.40 0.1179
868.50 0.1178
868.60 0.1177
868.70 0.1177
868.80 0.1176
868.90 0.1176
869.00 0.1175
869.10 0.1175
869.20 0.1174
869.30 0.1174
869.40 0.1173
869.50 0.1173
869.60 0.1172
869.70 0.1172
869.80 0.1171
869.90 0.1171
870.00 0.117
870.10 0.117
870.20 0.1169
870.30 0.1169
870.40 0.1168
870.50 0.1167
870.60 0.1167
870.70 0.1166
870.80 0.1166
870.90 0.1165
871.00 0.1165
871.10 0.1164
871.20 0.1164
871.30 0.1163
871.40 0.1163
871.50 0.1162
871.60 0.1162
871.70 0.1161
871.80 0.1161
871.90 0.116
872.00 0.116
872.10 0.1159
872.20 0.1159
872.30 0.1158
872.40 0.1158
872.50 0.1157
872.60 0.1156
872.70 0.1156
872.80 0.1155
872.90 0.1155
873.00 0.1154
873.10 0.1154
873.20 0.1153
873.30 0.1153
873.40 0.1152
873.50 0.1152
873.60 0.1151
873.70 0.1151
873.80 0.115
873.90 0.115
874.00 0.1149
874.10 0.1149
874.20 0.1148
874.30 0.1148
874.40 0.1147
874.50 0.1147
874.60 0.1146
874.70 0.1146
874.80 0.1145
874.90 0.1145
875.00 0.1144
875.10 0.1144
875.20 0.1143
875.30 0.1143
875.40 0.1142
875.50 0.1142
875.60 0.1141
875.70 0.1141
875.80 0.114
875.90 0.1139
876.00 0.1139
876.10 0.1138
876.20 0.1138
876.30 0.1137
876.40 0.1137
876.50 0.1136
876.60 0.1136
876.70 0.1135
876.80 0.1135
876.90 0.1134
877.00 0.1134
877.10 0.1133
877.20 0.1133
877.30 0.1132
877.40 0.1132
877.50 0.1131
877.60 0.1131
877.70 0.113
877.80 0.113
877.90 0.1129
878.00 0.1129
878.10 0.1128
878.20 0.1128
878.30 0.1127
878.40 0.1127
878.50 0.1126
878.60 0.1126
878.70 0.1125
878.80 0.1125
878.90 0.1124
879.00 0.1124
879.10 0.1123
879.20 0.1123
879.30 0.1122
879.40 0.1122
879.50 0.1121
879.60 0.1121
879.70 0.112
879.80 0.112
879.90 0.1119
880.00 0.1119
880.10 0.1118
880.20 0.1118
880.30 0.1117
880.40 0.1117
880.50 0.1116
880.60 0.1116
880.70 0.1115
880.80 0.1115
880.90 0.1114
881.00 0.1114
881.10 0.1113
881.20 0.1113
881.30 0.1112
881.40 0.1112
881.50 0.1111
881.60 0.1111
881.70 0.111
881.80 0.111
881.90 0.1109
882.00 0.1109
882.10 0.1108
882.20 0.1108
882.30 0.1107
882.40 0.1107
882.50 0.1106
882.60 0.1106
882.70 0.1105
882.80 0.1105
882.90 0.1104
883.00 0.1104
883.10 0.1104
883.20 0.1103
883.30 0.1103
883.40 0.1102
883.50 0.1102
883.60 0.1101
883.70 0.1101
883.80 0.11
883.90 0.11
884.00 0.1099
884.10 0.1099
884.20 0.1098
884.30 0.1098
884.40 0.1097
884.50 0.1097
884.60 0.1096
884.70 0.1096
884.80 0.1095
884.90 0.1095
885.00 0.1094
885.10 0.1094
885.20 0.1093
885.30 0.1093
885.40 0.1092
885.50 0.1092
885.60 0.1091
885.70 0.1091
885.80 0.109
885.90 0.109
886.00 0.1089
886.10 0.1089
886.20 0.1088
886.30 0.1088
886.40 0.1087
886.50 0.1087
886.60 0.1087
886.70 0.1086
886.80 0.1086
886.90 0.1085
887.00 0.1085
887.10 0.1084
887.20 0.1084
887.30 0.1083
887.40 0.1083
887.50 0.1082
887.60 0.1082
887.70 0.1081
887.80 0.1081
887.90 0.108
888.00 0.108
888.10 0.1079
888.20 0.1079
888.30 0.1078
888.40 0.1078
888.50 0.1077
888.60 0.1077
888.70 0.1077
888.80 0.1076
888.90 0.1076
889.00 0.1075
889.10 0.1075
889.20 0.1074
889.30 0.1074
889.40 0.1073
889.50 0.1073
889.60 0.1072
889.70 0.1072
889.80 0.1071
889.90 0.1071
890.00 0.107
890.10 0.107
890.20 0.1069
890.30 0.1069
890.40 0.1068
890.50 0.1068
890.60 0.1068
890.70 0.1067
890.80 0.1067
890.90 0.1066
891.00 0.1066
891.10 0.1065
891.20 0.1065
891.30 0.1064
891.40 0.1064
891.50 0.1063
891.60 0.1063
891.70 0.1062
891.80 0.1062
891.90 0.1061
892.00 0.1061
892.10 0.1061
892.20 0.106
892.30 0.106
892.40 0.1059
892.50 0.1059
892.60 0.1058
892.70 0.1058
892.80 0.1057
892.90 0.1057
893.00 0.1056
893.10 0.1056
893.20 0.1055
893.30 0.1055
893.40 0.1055
893.50 0.1054
893.60 0.1054
893.70 0.1053
893.80 0.1053
893.90 0.1052
894.00 0.1052
894.10 0.1051
894.20 0.1051
894.30 0.105
894.40 0.105
894.50 0.1049
894.60 0.1049
894.70 0.1049
894.80 0.1048
894.90 0.1048
895.00 0.1047
895.10 0.1047
895.20 0.1046
895.30 0.1046
895.40 0.1045
895.50 0.1045
895.60 0.1044
895.70 0.1044
895.80 0.1043
895.90 0.1043
896.00 0.1043
896.10 0.1042
896.20 0.1042
896.30 0.1041
896.40 0.1041
896.50 0.104
896.60 0.104
896.70 0.1039
896.80 0.1039
896.90 0.1038
897.00 0.1038
897.10 0.1038
897.20 0.1037
897.30 0.1037
897.40 0.1036
897.50 0.1036
897.60 0.1035
897.70 0.1035
897.80 0.1034
897.90 0.1034
898.00 0.1034
898.10 0.1033
898.20 0.1033
898.30 0.1032
898.40 0.1032
898.50 0.1031
898.60 0.1031
898.70 0.103
898.80 0.103
898.90 0.1029
899.00 0.1029
899.10 0.1029
899.20 0.1028
899.30 0.1028
899.40 0.1027
899.50 0.1027
899.60 0.1026
899.70 0.1026
899.80 0.1025
899.90 0.1025
900.00 0.1025
900.10 0.1024
900.20 0.1024
900.30 0.1023
900.40 0.1023
900.50 0.1022
900.60 0.1022
900.70 0.1021
900.80 0.1021
900.90 0.1021
901.00 0.102
901.10 0.102
901.20 0.1019
901.30 0.1019
901.40 0.1018
901.50 0.1018
901.60 0.1017
901.70 0.1017
901.80 0.1017
901.90 0.1016
902.00 0.1016
902.10 0.1015
902.20 0.1015
902.30 0.1014
902.40 0.1014
902.50 0.1013
902.60 0.1013
902.70 0.1013
902.80 0.1012
902.90 0.1012
903.00 0.1011
903.10 0.1011
903.20 0.101
903.30 0.101
903.40 0.101
903.50 0.1009
903.60 0.1009
903.70 0.1008
903.80 0.1008
903.90 0.1007
904.00 0.1007
904.10 0.1006
904.20 0.1006
904.30 0.1006
904.40 0.1005
904.50 0.1005
904.60 0.1004
904.70 0.1004
904.80 0.1003
904.90 0.1003
905.00 0.1003
905.10 0.1002
905.20 0.1002
905.30 0.1001
905.40 0.1001
905.50 0.1
905.60 0.1
905.70 0.09995
905.80 0.09991
905.90 0.09987
906.00 0.09982
906.10 0.09978
906.20 0.09974
906.30 0.09969
906.40 0.09965
906.50 0.09961
906.60 0.09956
906.70 0.09952
906.80 0.09948
906.90 0.09944
907.00 0.09939
907.10 0.09935
907.20 0.09931
907.30 0.09926
907.40 0.09922
907.50 0.09918
907.60 0.09914
907.70 0.09909
907.80 0.09905
907.90 0.09901
908.00 0.09897
908.10 0.09892
908.20 0.09888
908.30 0.09884
908.40 0.0988
908.50 0.09875
908.60 0.09871
908.70 0.09867
908.80 0.09863
908.90 0.09858
909.00 0.09854
909.10 0.0985
909.20 0.09846
909.30 0.09841
909.40 0.09837
909.50 0.09833
909.60 0.09829
909.70 0.09825
909.80 0.0982
909.90 0.09816
910.00 0.09812
910.10 0.09808
910.20 0.09803
910.30 0.09799
910.40 0.09795
910.50 0.09791
910.60 0.09787
910.70 0.09782
910.80 0.09778
910.90 0.09774
911.00 0.0977
911.10 0.09765
911.20 0.09761
911.30 0.09757
911.40 0.09753
911.50 0.09749
911.60 0.09744
911.70 0.0974
911.80 0.09736
911.90 0.09732
912.00 0.09728
912.10 0.09724
912.20 0.09719
912.30 0.09715
912.40 0.09711
912.50 0.09707
912.60 0.09703
912.70 0.09699
912.80 0.09695
912.90 0.0969
913.00 0.09686
913.10 0.09682
913.20 0.09678
913.30 0.09674
913.40 0.0967
913.50 0.09666
913.60 0.09661
913.70 0.09657
913.80 0.09653
913.90 0.09649
914.00 0.09645
914.10 0.09641
914.20 0.09637
914.30 0.09633
914.40 0.09628
914.50 0.09624
914.60 0.0962
914.70 0.09616
914.80 0.09612
914.90 0.09608
915.00 0.09604
915.10 0.096
915.20 0.09596
915.30 0.09591
915.40 0.09587
915.50 0.09583
915.60 0.09579
915.70 0.09575
915.80 0.09571
915.90 0.09567
916.00 0.09563
916.10 0.09559
916.20 0.09555
916.30 0.09551
916.40 0.09546
916.50 0.09542
916.60 0.09538
916.70 0.09534
916.80 0.0953
916.90 0.09526
917.00 0.09522
917.10 0.09518
917.20 0.09514
917.30 0.0951
917.40 0.09506
917.50 0.09502
917.60 0.09498
917.70 0.09494
917.80 0.0949
917.90 0.09486
918.00 0.09482
918.10 0.09478
918.20 0.09474
918.30 0.0947
918.40 0.09466
918.50 0.09462
918.60 0.09458
918.70 0.09454
918.80 0.0945
918.90 0.09445
919.00 0.09441
919.10 0.09437
919.20 0.09433
919.30 0.09429
919.40 0.09425
919.50 0.09421
919.60 0.09417
919.70 0.09413
919.80 0.09409
919.90 0.09405
920.00 0.09401
920.10 0.09397
920.20 0.09393
920.30 0.09389
920.40 0.09385
920.50 0.09382
920.60 0.09378
920.70 0.09374
920.80 0.0937
920.90 0.09366
921.00 0.09362
921.10 0.09358
921.20 0.09354
921.30 0.0935
921.40 0.09346
921.50 0.09342
921.60 0.09338
921.70 0.09334
921.80 0.0933
921.90 0.09326
922.00 0.09322
922.10 0.09318
922.20 0.09314
922.30 0.0931
922.40 0.09306
922.50 0.09302
922.60 0.09298
922.70 0.09294
922.80 0.0929
922.90 0.09286
923.00 0.09283
923.10 0.09279
923.20 0.09275
923.30 0.09271
923.40 0.09267
923.50 0.09263
923.60 0.09259
923.70 0.09255
923.80 0.09251
923.90 0.09247
924.00 0.09243
924.10 0.09239
924.20 0.09236
924.30 0.09232
924.40 0.09228
924.50 0.09224
924.60 0.0922
924.70 0.09216
924.80 0.09212
924.90 0.09208
925.00 0.09204
925.10 0.092
925.20 0.09197
925.30 0.09193
925.40 0.09189
925.50 0.09185
925.60 0.09181
925.70 0.09177
925.80 0.09173
925.90 0.09169
926.00 0.09165
926.10 0.09162
926.20 0.09158
926.30 0.09154
926.40 0.0915
926.50 0.09146
926.60 0.09142
926.70 0.09138
926.80 0.09134
926.90 0.09131
927.00 0.09127
927.10 0.09123
927.20 0.09119
927.30 0.09115
927.40 0.09111
927.50 0.09107
927.60 0.09104
927.70 0.091
927.80 0.09096
927.90 0.09092
928.00 0.09088
928.10 0.09085
928.20 0.09081
928.30 0.09077
928.40 0.09073
928.50 0.09069
928.60 0.09065
928.70 0.09062
928.80 0.09058
928.90 0.09054
929.00 0.0905
929.10 0.09046
929.20 0.09043
929.30 0.09039
929.40 0.09035
929.50 0.09031
929.60 0.09027
929.70 0.09024
929.80 0.0902
929.90 0.09016
930.00 0.09012
930.10 0.09008
930.20 0.09005
930.30 0.09001
930.40 0.08997
930.50 0.08993
930.60 0.0899
930.70 0.08986
930.80 0.08982
930.90 0.08978
931.00 0.08974
931.10 0.08971
931.20 0.08967
931.30 0.08963
931.40 0.08959
931.50 0.08956
931.60 0.08952
931.70 0.08948
931.80 0.08944
931.90 0.0894
932.00 0.08937
932.10 0.08933
932.20 0.08929
932.30 0.08925
932.40 0.08922
932.50 0.08918
932.60 0.08914
932.70 0.08911
932.80 0.08907
932.90 0.08903
933.00 0.08899
933.10 0.08896
933.20 0.08892
933.30 0.08888
933.40 0.08884
933.50 0.08881
933.60 0.08877
933.70 0.08873
933.80 0.0887
933.90 0.08866
934.00 0.08862
934.10 0.08858
934.20 0.08855
934.30 0.08851
934.40 0.08847
934.50 0.08844
934.60 0.0884
934.70 0.08836
934.80 0.08832
934.90 0.08829
935.00 0.08825
935.10 0.08821
935.20 0.08818
935.30 0.08814
935.40 0.0881
935.50 0.08807
935.60 0.08803
935.70 0.08799
935.80 0.08796
935.90 0.08792
936.00 0.08788
936.10 0.08785
936.20 0.08781
936.30 0.08777
936.40 0.08774
936.50 0.0877
936.60 0.08766
936.70 0.08763
936.80 0.08759
936.90 0.08755
937.00 0.08752
937.10 0.08748
937.20 0.08744
937.30 0.08741
937.40 0.08737
937.50 0.08733
937.60 0.0873
937.70 0.08726
937.80 0.08723
937.90 0.08719
938.00 0.08715
938.10 0.08712
938.20 0.08708
938.30 0.08704
938.40 0.08701
938.50 0.08697
938.60 0.08693
938.70 0.0869
938.80 0.08686
938.90 0.08683
939.00 0.08679
939.10 0.08675
939.20 0.08672
939.30 0.08668
939.40 0.08665
939.50 0.08661
939.60 0.08657
939.70 0.08654
939.80 0.0865
939.90 0.08647
940.00 0.08643
940.10 0.08639
940.20 0.08636
940.30 0.08632
940.40 0.08629
940.50 0.08625
940.60 0.08621
940.70 0.08618
940.80 0.08614
940.90 0.08611
941.00 0.08607
941.10 0.08604
941.20 0.086
941.30 0.08596
941.40 0.08593
941.50 0.08589
941.60 0.08586
941.70 0.08582
941.80 0.08579
941.90 0.08575
942.00 0.08571
942.10 0.08568
942.20 0.08564
942.30 0.08561
942.40 0.08557
942.50 0.08554
942.60 0.0855
942.70 0.08547
942.80 0.08543
942.90 0.0854
943.00 0.08536
943.10 0.08532
943.20 0.08529
943.30 0.08525
943.40 0.08522
943.50 0.08518
943.60 0.08515
943.70 0.08511
943.80 0.08508
943.90 0.08504
944.00 0.08501
944.10 0.08497
944.20 0.08494
944.30 0.0849
944.40 0.08487
944.50 0.08483
944.60 0.0848
944.70 0.08476
944.80 0.08473
944.90 0.08469
945.00 0.08466
945.10 0.08462
945.20 0.08459
945.30 0.08455
945.40 0.08452
945.50 0.08448
945.60 0.08445
945.70 0.08441
945.80 0.08438
945.90 0.08434
946.00 0.08431
946.10 0.08427
946.20 0.08424
946.30 0.0842
946.40 0.08417
946.50 0.08413
946.60 0.0841
946.70 0.08406
946.80 0.08403
946.90 0.08399
947.00 0.08396
947.10 0.08392
947.20 0.08389
947.30 0.08386
947.40 0.08382
947.50 0.08379
947.60 0.08375
947.70 0.08372
947.80 0.08368
947.90 0.08365
948.00 0.08361
948.10 0.08358
948.20 0.08355
948.30 0.08351
948.40 0.08348
948.50 0.08344
948.60 0.08341
948.70 0.08337
948.80 0.08334
948.90 0.08331
949.00 0.08327
949.10 0.08324
949.20 0.0832
949.30 0.08317
949.40 0.08313
949.50 0.0831
949.60 0.08307
949.70 0.08303
949.80 0.083
949.90 0.08296
950.00 0.08293
950.10 0.0829
950.20 0.08286
950.30 0.08283
950.40 0.08279
950.50 0.08276
950.60 0.08273
950.70 0.08269
950.80 0.08266
950.90 0.08262
951.00 0.08259
951.10 0.08256
951.20 0.08252
951.30 0.08249
951.40 0.08245
951.50 0.08242
951.60 0.08239
951.70 0.08235
951.80 0.08232
951.90 0.08229
952.00 0.08225
952.10 0.08222
952.20 0.08219
952.30 0.08215
952.40 0.08212
952.50 0.08208
952.60 0.08205
952.70 0.08202
952.80 0.08198
952.90 0.08195
953.00 0.08192
953.10 0.08188
953.20 0.08185
953.30 0.08182
953.40 0.08178
953.50 0.08175
953.60 0.08172
953.70 0.08168
953.80 0.08165
953.90 0.08162
954.00 0.08158
954.10 0.08155
954.20 0.08152
954.30 0.08148
954.40 0.08145
954.50 0.08142
954.60 0.08138
954.70 0.08135
954.80 0.08132
954.90 0.08128
955.00 0.08125
955.10 0.08122
955.20 0.08118
955.30 0.08115
955.40 0.08112
955.50 0.08108
955.60 0.08105
955.70 0.08102
955.80 0.08098
955.90 0.08095
956.00 0.08092
956.10 0.08089
956.20 0.08085
956.30 0.08082
956.40 0.08079
956.50 0.08075
956.60 0.08072
956.70 0.08069
956.80 0.08065
956.90 0.08062
957.00 0.08059
957.10 0.08055
957.20 0.08052
957.30 0.08049
957.40 0.08046
957.50 0.08042
957.60 0.08039
957.70 0.08036
957.80 0.08032
957.90 0.08029
958.00 0.08026
958.10 0.08023
958.20 0.08019
958.30 0.08016
958.40 0.08013
958.50 0.0801
958.60 0.08006
958.70 0.08003
958.80 0.08
958.90 0.07997
959.00 0.07993
959.10 0.0799
959.20 0.07987
959.30 0.07983
959.40 0.0798
959.50 0.07977
959.60 0.07974
959.70 0.0797
959.80 0.07967
959.90 0.07964
960.00 0.07961
960.10 0.07958
960.20 0.07954
960.30 0.07951
960.40 0.07948
960.50 0.07945
960.60 0.07941
960.70 0.07938
960.80 0.07935
960.90 0.07932
961.00 0.07928
961.10 0.07925
961.20 0.07922
961.30 0.07919
961.40 0.07916
961.50 0.07912
961.60 0.07909
961.70 0.07906
961.80 0.07903
961.90 0.07899
962.00 0.07896
962.10 0.07893
962.20 0.0789
962.30 0.07887
962.40 0.07883
962.50 0.0788
962.60 0.07877
962.70 0.07874
962.80 0.07871
962.90 0.07868
963.00 0.07864
963.10 0.07861
963.20 0.07858
963.30 0.07855
963.40 0.07852
963.50 0.07848
963.60 0.07845
963.70 0.07842
963.80 0.07839
963.90 0.07836
964.00 0.07833
964.10 0.07829
964.20 0.07826
964.30 0.07823
964.40 0.0782
964.50 0.07817
964.60 0.07814
964.70 0.0781
964.80 0.07807
964.90 0.07804
965.00 0.07801
965.10 0.07798
965.20 0.07795
965.30 0.07791
965.40 0.07788
965.50 0.07785
965.60 0.07782
965.70 0.07779
965.80 0.07776
965.90 0.07773
966.00 0.07769
966.10 0.07766
966.20 0.07763
966.30 0.0776
966.40 0.07757
966.50 0.07754
966.60 0.07751
966.70 0.07747
966.80 0.07744
966.90 0.07741
967.00 0.07738
967.10 0.07735
967.20 0.07732
967.30 0.07729
967.40 0.07726
967.50 0.07722
967.60 0.07719
967.70 0.07716
967.80 0.07713
967.90 0.0771
968.00 0.07707
968.10 0.07704
968.20 0.07701
968.30 0.07698
968.40 0.07695
968.50 0.07691
968.60 0.07688
968.70 0.07685
968.80 0.07682
968.90 0.07679
969.00 0.07676
969.10 0.07673
969.20 0.0767
969.30 0.07667
969.40 0.07664
969.50 0.0766
969.60 0.07657
969.70 0.07654
969.80 0.07651
969.90 0.07648
970.00 0.07645
970.10 0.07642
970.20 0.07639
970.30 0.07636
970.40 0.07633
970.50 0.0763
970.60 0.07627
970.70 0.07623
970.80 0.0762
970.90 0.07617
971.00 0.07614
971.10 0.07611
971.20 0.07608
971.30 0.07605
971.40 0.07602
971.50 0.07599
971.60 0.07596
971.70 0.07593
971.80 0.0759
971.90 0.07587
972.00 0.07584
972.10 0.07581
972.20 0.07578
972.30 0.07575
972.40 0.07572
972.50 0.07568
972.60 0.07565
972.70 0.07562
972.80 0.07559
972.90 0.07556
973.00 0.07553
973.10 0.0755
973.20 0.07547
973.30 0.07544
973.40 0.07541
973.50 0.07538
973.60 0.07535
973.70 0.07532
973.80 0.07529
973.90 0.07526
974.00 0.07523
974.10 0.0752
974.20 0.07517
974.30 0.07514
974.40 0.07511
974.50 0.07508
974.60 0.07505
974.70 0.07502
974.80 0.07499
974.90 0.07496
975.00 0.07493
975.10 0.0749
975.20 0.07487
975.30 0.07484
975.40 0.07481
975.50 0.07478
975.60 0.07475
975.70 0.07472
975.80 0.07469
975.90 0.07466
976.00 0.07463
976.10 0.0746
976.20 0.07457
976.30 0.07454
976.40 0.07451
976.50 0.07448
976.60 0.07445
976.70 0.07442
976.80 0.07439
976.90 0.07436
977.00 0.07433
977.10 0.0743
977.20 0.07427
977.30 0.07424
977.40 0.07421
977.50 0.07418
977.60 0.07415
977.70 0.07412
977.80 0.07409
977.90 0.07406
978.00 0.07403
978.10 0.074
978.20 0.07397
978.30 0.07394
978.40 0.07391
978.50 0.07388
978.60 0.07385
978.70 0.07382
978.80 0.07379
978.90 0.07376
979.00 0.07373
979.10 0.07371
979.20 0.07368
979.30 0.07365
979.40 0.07362
979.50 0.07359
979.60 0.07356
979.70 0.07353
979.80 0.0735
979.90 0.07347
980.00 0.07344
980.10 0.07341
980.20 0.07338
980.30 0.07335
980.40 0.07332
980.50 0.07329
980.60 0.07326
980.70 0.07323
980.80 0.0732
980.90 0.07318
981.00 0.07315
981.10 0.07312
981.20 0.07309
981.30 0.07306
981.40 0.07303
981.50 0.073
981.60 0.07297
981.70 0.07294
981.80 0.07291
981.90 0.07288
982.00 0.07285
982.10 0.07282
982.20 0.07279
982.30 0.07277
982.40 0.07274
982.50 0.07271
982.60 0.07268
982.70 0.07265
982.80 0.07262
982.90 0.07259
983.00 0.07256
983.10 0.07253
983.20 0.0725
983.30 0.07248
983.40 0.07245
983.50 0.07242
983.60 0.07239
983.70 0.07236
983.80 0.07233
983.90 0.0723
984.00 0.07227
984.10 0.07224
984.20 0.07221
984.30 0.07219
984.40 0.07216
984.50 0.07213
984.60 0.0721
984.70 0.07207
984.80 0.07204
984.90 0.07201
985.00 0.07198
985.10 0.07196
985.20 0.07193
985.30 0.0719
985.40 0.07187
985.50 0.07184
985.60 0.07181
985.70 0.07178
985.80 0.07175
985.90 0.07173
986.00 0.0717
986.10 0.07167
986.20 0.07164
986.30 0.07161
986.40 0.07158
986.50 0.07155
986.60 0.07152
986.70 0.0715
986.80 0.07147
986.90 0.07144
987.00 0.07141
987.10 0.07138
987.20 0.07135
987.30 0.07133
987.40 0.0713
987.50 0.07127
987.60 0.07124
987.70 0.07121
987.80 0.07118
987.90 0.07115
988.00 0.07113
988.10 0.0711
988.20 0.07107
988.30 0.07104
988.40 0.07101
988.50 0.07098
988.60 0.07096
988.70 0.07093
988.80 0.0709
988.90 0.07087
989.00 0.07084
989.10 0.07081
989.20 0.07079
989.30 0.07076
989.40 0.07073
989.50 0.0707
989.60 0.07067
989.70 0.07065
989.80 0.07062
989.90 0.07059
990.00 0.07056
990.10 0.07053
990.20 0.0705
990.30 0.07048
990.40 0.07045
990.50 0.07042
990.60 0.07039
990.70 0.07036
990.80 0.07034
990.90 0.07031
991.00 0.07028
991.10 0.07025
991.20 0.07022
991.30 0.0702
991.40 0.07017
991.50 0.07014
991.60 0.07011
991.70 0.07008
991.80 0.07006
991.90 0.07003
992.00 0.07
992.10 0.06997
992.20 0.06995
992.30 0.06992
992.40 0.06989
992.50 0.06986
992.60 0.06983
992.70 0.06981
992.80 0.06978
992.90 0.06975
993.00 0.06972
993.10 0.0697
993.20 0.06967
993.30 0.06964
993.40 0.06961
993.50 0.06959
993.60 0.06956
993.70 0.06953
993.80 0.0695
993.90 0.06947
994.00 0.06945
994.10 0.06942
994.20 0.06939
994.30 0.06936
994.40 0.06934
994.50 0.06931
994.60 0.06928
994.70 0.06925
994.80 0.06923
994.90 0.0692
995.00 0.06917
995.10 0.06914
995.20 0.06912
995.30 0.06909
995.40 0.06906
995.50 0.06904
995.60 0.06901
995.70 0.06898
995.80 0.06895
995.90 0.06893
996.00 0.0689
996.10 0.06887
996.20 0.06884
996.30 0.06882
996.40 0.06879
996.50 0.06876
996.60 0.06874
996.70 0.06871
996.80 0.06868
996.90 0.06865
997.00 0.06863
997.10 0.0686
997.20 0.06857
997.30 0.06855
997.40 0.06852
997.50 0.06849
997.60 0.06846
997.70 0.06844
997.80 0.06841
997.90 0.06838
998.00 0.06836
998.10 0.06833
998.20 0.0683
998.30 0.06828
998.40 0.06825
998.50 0.06822
998.60 0.0682
998.70 0.06817
998.80 0.06814
998.90 0.06812
999.00 0.06809
999.10 0.06806
999.20 0.06804
999.30 0.06801
999.40 0.06798
999.50 0.06796
999.60 0.06793
999.70 0.0679
999.80 0.06787
999.90 0.06784
1000.00 0.06781
1000.10 0.06779
1000.20 0.06776
1000.30 0.06773
1000.40 0.0677
1000.50 0.06767
1000.60 0.06764
1000.70 0.06761
1000.80 0.06759
1000.90 0.06756
1001.00 0.06753
1001.10 0.0675
1001.20 0.06747
1001.30 0.06744
1001.40 0.06741
1001.50 0.06738
1001.60 0.06736
1001.70 0.06733
1001.80 0.0673
1001.90 0.06728
1002.00 0.06725
1002.10 0.06723
1002.20 0.0672
1002.30 0.06717
1002.40 0.06715
1002.50 0.06712
1002.60 0.0671
1002.70 0.06707
1002.80 0.06705
1002.90 0.06702
1003.00 0.06699
1003.10 0.06697
1003.20 0.06694
1003.30 0.06692
1003.40 0.06689
1003.50 0.06687
1003.60 0.06684
1003.70 0.06682
1003.80 0.06679
1003.90 0.06677
1004.00 0.06674
1004.10 0.06671
1004.20 0.06669
1004.30 0.06666
1004.40 0.06664
1004.50 0.06661
1004.60 0.06659
1004.70 0.06656
1004.80 0.06653
1004.90 0.06651
1005.00 0.06648
1005.10 0.06646
1005.20 0.06643
1005.30 0.06641
1005.40 0.06638
1005.50 0.06635
1005.60 0.06633
1005.70 0.0663
1005.80 0.06628
1005.90 0.06625
1006.00 0.06622
1006.10 0.0662
1006.20 0.06617
1006.30 0.06615
1006.40 0.06612
1006.50 0.06609
1006.60 0.06607
1006.70 0.06604
1006.80 0.06602
1006.90 0.06599
1007.00 0.06596
1007.10 0.06594
1007.20 0.06591
1007.30 0.06589
1007.40 0.06586
1007.50 0.06583
1007.60 0.06581
1007.70 0.06578
1007.80 0.06576
1007.90 0.06573
1008.00 0.06571
1008.10 0.06568
1008.20 0.06566
1008.30 0.06563
1008.40 0.0656
1008.50 0.06558
1008.60 0.06555
1008.70 0.06553
1008.80 0.0655
1008.90 0.06548
1009.00 0.06545
1009.10 0.06543
1009.20 0.0654
1009.30 0.06538
1009.40 0.06535
1009.50 0.06533
1009.60 0.0653
1009.70 0.06528
1009.80 0.06525
1009.90 0.06523
1010.00 0.0652
1010.10 0.06517
1010.20 0.06515
1010.30 0.06512
1010.40 0.0651
1010.50 0.06508
1010.60 0.06505
1010.70 0.06503
1010.80 0.065
1010.90 0.06498
1011.00 0.06495
1011.10 0.06493
1011.20 0.0649
1011.30 0.06488
1011.40 0.06485
1011.50 0.06483
1011.60 0.0648
1011.70 0.06478
1011.80 0.06475
1011.90 0.06473
1012.00 0.0647
1012.10 0.06468
1012.20 0.06465
1012.30 0.06463
1012.40 0.0646
1012.50 0.06458
1012.60 0.06455
1012.70 0.06453
1012.80 0.06451
1012.90 0.06448
1013.00 0.06446
1013.10 0.06443
1013.20 0.06441
1013.30 0.06438
1013.40 0.06436
1013.50 0.06433
1013.60 0.06431
1013.70 0.06428
1013.80 0.06426
1013.90 0.06424
1014.00 0.06421
1014.10 0.06419
1014.20 0.06416
1014.30 0.06414
1014.40 0.06411
1014.50 0.06409
1014.60 0.06406
1014.70 0.06404
1014.80 0.06402
1014.90 0.06399
1015.00 0.06397
1015.10 0.06394
1015.20 0.06392
1015.30 0.0639
1015.40 0.06387
1015.50 0.06385
1015.60 0.06382
1015.70 0.0638
1015.80 0.06377
1015.90 0.06375
1016.00 0.06373
1016.10 0.0637
1016.20 0.06368
1016.30 0.06365
1016.40 0.06363
1016.50 0.06361
1016.60 0.06358
1016.70 0.06356
1016.80 0.06353
1016.90 0.06351
1017.00 0.06348
1017.10 0.06346
1017.20 0.06344
1017.30 0.06341
1017.40 0.06339
1017.50 0.06336
1017.60 0.06334
1017.70 0.06332
1017.80 0.06329
1017.90 0.06327
1018.00 0.06325
1018.10 0.06322
1018.20 0.0632
1018.30 0.06317
1018.40 0.06315
1018.50 0.06313
1018.60 0.0631
1018.70 0.06308
1018.80 0.06305
1018.90 0.06303
1019.00 0.06301
1019.10 0.06298
1019.20 0.06296
1019.30 0.06294
1019.40 0.06291
1019.50 0.06289
1019.60 0.06286
1019.70 0.06284
1019.80 0.06282
1019.90 0.06279
1020.00 0.06277
1020.10 0.06275
1020.20 0.06272
1020.30 0.0627
1020.40 0.06267
1020.50 0.06265
1020.60 0.06263
1020.70 0.0626
1020.80 0.06258
1020.90 0.06256
1021.00 0.06253
1021.10 0.06251
1021.20 0.06249
1021.30 0.06246
1021.40 0.06244
1021.50 0.06241
1021.60 0.06239
1021.70 0.06237
1021.80 0.06234
1021.90 0.06232
1022.00 0.0623
1022.10 0.06227
1022.20 0.06225
1022.30 0.06223
1022.40 0.0622
1022.50 0.06218
1022.60 0.06216
1022.70 0.06213
1022.80 0.06211
1022.90 0.06209
1023.00 0.06206
1023.10 0.06204
1023.20 0.06202
1023.30 0.06199
1023.40 0.06197
1023.50 0.06195
1023.60 0.06192
1023.70 0.0619
1023.80 0.06188
1023.90 0.06185
1024.00 0.06183
1024.10 0.06181
1024.20 0.06178
1024.30 0.06176
1024.40 0.06174
1024.50 0.06171
1024.60 0.06169
1024.70 0.06167
1024.80 0.06164
1024.90 0.06162
1025.00 0.0616
1025.10 0.06157
1025.20 0.06155
1025.30 0.06153
1025.40 0.0615
1025.50 0.06148
1025.60 0.06146
1025.70 0.06143
1025.80 0.06141
1025.90 0.06139
1026.00 0.06136
1026.10 0.06134
1026.20 0.06132
1026.30 0.0613
1026.40 0.06127
1026.50 0.06125
1026.60 0.06123
1026.70 0.0612
1026.80 0.06118
1026.90 0.06116
1027.00 0.06113
1027.10 0.06111
1027.20 0.06109
1027.30 0.06106
1027.40 0.06104
1027.50 0.06102
1027.60 0.061
1027.70 0.06097
1027.80 0.06095
1027.90 0.06093
1028.00 0.0609
1028.10 0.06088
1028.20 0.06086
1028.30 0.06084
1028.40 0.06081
1028.50 0.06079
1028.60 0.06077
1028.70 0.06074
1028.80 0.06072
1028.90 0.0607
1029.00 0.06068
1029.10 0.06065
1029.20 0.06063
1029.30 0.06061
1029.40 0.06058
1029.50 0.06056
1029.60 0.06054
1029.70 0.06052
1029.80 0.06049
1029.90 0.06047
1030.00 0.06045
1030.10 0.06042
1030.20 0.0604
1030.30 0.06038
1030.40 0.06036
1030.50 0.06033
1030.60 0.06031
1030.70 0.06029
1030.80 0.06027
1030.90 0.06024
1031.00 0.06022
1031.10 0.0602
1031.20 0.06017
1031.30 0.06015
1031.40 0.06013
1031.50 0.06011
1031.60 0.06008
1031.70 0.06006
1031.80 0.06004
1031.90 0.06002
1032.00 0.05999
1032.10 0.05997
1032.20 0.05995
1032.30 0.05993
1032.40 0.0599
1032.50 0.05988
1032.60 0.05986
1032.70 0.05984
1032.80 0.05981
1032.90 0.05979
1033.00 0.05977
1033.10 0.05975
1033.20 0.05972
1033.30 0.0597
1033.40 0.05968
1033.50 0.05966
1033.60 0.05963
1033.70 0.05961
1033.80 0.05959
1033.90 0.05957
1034.00 0.05954
1034.10 0.05952
1034.20 0.0595
1034.30 0.05948
1034.40 0.05945
1034.50 0.05943
1034.60 0.05941
1034.70 0.05939
1034.80 0.05936
1034.90 0.05934
1035.00 0.05932
1035.10 0.0593
1035.20 0.05928
1035.30 0.05925
1035.40 0.05923
1035.50 0.05921
1035.60 0.05919
1035.70 0.05916
1035.80 0.05914
1035.90 0.05912
1036.00 0.0591
1036.10 0.05908
1036.20 0.05905
1036.30 0.05903
1036.40 0.05901
1036.50 0.05899
1036.60 0.05896
1036.70 0.05894
1036.80 0.05892
1036.90 0.0589
1037.00 0.05888
1037.10 0.05885
1037.20 0.05883
1037.30 0.05881
1037.40 0.05879
1037.50 0.05876
1037.60 0.05874
1037.70 0.05872
1037.80 0.0587
1037.90 0.05868
1038.00 0.05865
1038.10 0.05863
1038.20 0.05861
1038.30 0.05859
1038.40 0.05857
1038.50 0.05854
1038.60 0.05852
1038.70 0.0585
1038.80 0.05848
1038.90 0.05846
1039.00 0.05843
1039.10 0.05841
1039.20 0.05839
1039.30 0.05837
1039.40 0.05835
1039.50 0.05832
1039.60 0.0583
1039.70 0.05828
1039.80 0.05826
1039.90 0.05824
1040.00 0.05822
1040.10 0.05819
1040.20 0.05817
1040.30 0.05815
1040.40 0.05813
1040.50 0.05811
1040.60 0.05808
1040.70 0.05806
1040.80 0.05804
1040.90 0.05802
1041.00 0.058
1041.10 0.05797
1041.20 0.05795
1041.30 0.05793
1041.40 0.05791
1041.50 0.05789
1041.60 0.05787
1041.70 0.05784
1041.80 0.05782
1041.90 0.0578
1042.00 0.05778
1042.10 0.05776
1042.20 0.05774
1042.30 0.05771
1042.40 0.05769
1042.50 0.05767
1042.60 0.05765
1042.70 0.05763
1042.80 0.05761
1042.90 0.05758
1043.00 0.05756
1043.10 0.05754
1043.20 0.05752
1043.30 0.0575
1043.40 0.05748
1043.50 0.05745
1043.60 0.05743
1043.70 0.05741
1043.80 0.05739
1043.90 0.05737
1044.00 0.05735
1044.10 0.05732
1044.20 0.0573
1044.30 0.05728
1044.40 0.05726
1044.50 0.05724
1044.60 0.05722
1044.70 0.0572
1044.80 0.05717
1044.90 0.05715
1045.00 0.05713
1045.10 0.05711
1045.20 0.05709
1045.30 0.05707
1045.40 0.05705
1045.50 0.05702
1045.60 0.057
1045.70 0.05698
1045.80 0.05696
1045.90 0.05694
1046.00 0.05692
1046.10 0.0569
1046.20 0.05687
1046.30 0.05685
1046.40 0.05683
1046.50 0.05681
1046.60 0.05679
1046.70 0.05677
1046.80 0.05675
1046.90 0.05672
1047.00 0.0567
1047.10 0.05668
1047.20 0.05666
1047.30 0.05664
1047.40 0.05662
1047.50 0.0566
1047.60 0.05658
1047.70 0.05655
1047.80 0.05653
1047.90 0.05651
1048.00 0.05649
1048.10 0.05647
1048.20 0.05645
1048.30 0.05643
1048.40 0.05641
1048.50 0.05638
1048.60 0.05636
1048.70 0.05634
1048.80 0.05632
1048.90 0.0563
1049.00 0.05628
1049.10 0.05626
1049.20 0.05624
1049.30 0.05622
1049.40 0.05619
1049.50 0.05617
1049.60 0.05615
1049.70 0.05613
1049.80 0.05611
1049.90 0.05609
1050.00 0.05607
1050.10 0.05605
1050.20 0.05603
1050.30 0.056
1050.40 0.05598
1050.50 0.05596
1050.60 0.05594
1050.70 0.05592
1050.80 0.0559
1050.90 0.05588
1051.00 0.05586
1051.10 0.05584
1051.20 0.05582
1051.30 0.05579
1051.40 0.05577
1051.50 0.05575
1051.60 0.05573
1051.70 0.05571
1051.80 0.05569
1051.90 0.05567
1052.00 0.05565
1052.10 0.05563
1052.20 0.05561
1052.30 0.05559
1052.40 0.05556
1052.50 0.05554
1052.60 0.05552
1052.70 0.0555
1052.80 0.05548
1052.90 0.05546
1053.00 0.05544
1053.10 0.05542
1053.20 0.0554
1053.30 0.05538
1053.40 0.05536
1053.50 0.05534
1053.60 0.05531
1053.70 0.05529
1053.80 0.05527
1053.90 0.05525
1054.00 0.05523
1054.10 0.05521
1054.20 0.05519
1054.30 0.05517
1054.40 0.05515
1054.50 0.05513
1054.60 0.05511
1054.70 0.05509
1054.80 0.05507
1054.90 0.05505
1055.00 0.05502
1055.10 0.055
1055.20 0.05498
1055.30 0.05496
1055.40 0.05494
1055.50 0.05492
1055.60 0.0549
1055.70 0.05488
1055.80 0.05486
1055.90 0.05484
1056.00 0.05482
1056.10 0.0548
1056.20 0.05478
1056.30 0.05476
1056.40 0.05474
1056.50 0.05471
1056.60 0.05469
1056.70 0.05467
1056.80 0.05465
1056.90 0.05463
1057.00 0.05461
1057.10 0.05459
1057.20 0.05457
1057.30 0.05455
1057.40 0.05453
1057.50 0.05451
1057.60 0.05449
1057.70 0.05447
1057.80 0.05445
1057.90 0.05443
1058.00 0.05441
1058.10 0.05439
1058.20 0.05437
1058.30 0.05435
1058.40 0.05433
1058.50 0.0543
1058.60 0.05428
1058.70 0.05426
1058.80 0.05424
1058.90 0.05422
1059.00 0.0542
1059.10 0.05418
1059.20 0.05416
1059.30 0.05414
1059.40 0.05412
1059.50 0.0541
1059.60 0.05408
1059.70 0.05406
1059.80 0.05404
1059.90 0.05402
1060.00 0.054
1060.10 0.05398
1060.20 0.05396
1060.30 0.05394
1060.40 0.05392
1060.50 0.0539
1060.60 0.05388
1060.70 0.05386
1060.80 0.05384
1060.90 0.05382
1061.00 0.0538
1061.10 0.05378
1061.20 0.05376
1061.30 0.05374
1061.40 0.05372
1061.50 0.0537
1061.60 0.05368
1061.70 0.05366
1061.80 0.05363
1061.90 0.05361
1062.00 0.05359
1062.10 0.05357
1062.20 0.05355
1062.30 0.05353
1062.40 0.05351
1062.50 0.05349
1062.60 0.05347
1062.70 0.05345
1062.80 0.05343
1062.90 0.05341
1063.00 0.05339
1063.10 0.05337
1063.20 0.05335
1063.30 0.05333
1063.40 0.05331
1063.50 0.05329
1063.60 0.05327
1063.70 0.05325
1063.80 0.05323
1063.90 0.05321
1064.00 0.05319
1064.10 0.05317
1064.20 0.05315
1064.30 0.05313
1064.40 0.05311
1064.50 0.05309
1064.60 0.05307
1064.70 0.05305
1064.80 0.05303
1064.90 0.05301
1065.00 0.05299
1065.10 0.05297
1065.20 0.05295
1065.30 0.05293
1065.40 0.05291
1065.50 0.05289
1065.60 0.05287
1065.70 0.05285
1065.80 0.05283
1065.90 0.05281
1066.00 0.05279
1066.10 0.05277
1066.20 0.05275
1066.30 0.05273
1066.40 0.05271
1066.50 0.05269
1066.60 0.05267
1066.70 0.05265
1066.80 0.05263
1066.90 0.05261
1067.00 0.05259
1067.10 0.05257
1067.20 0.05255
1067.30 0.05253
1067.40 0.05251
1067.50 0.05249
1067.60 0.05247
1067.70 0.05245
1067.80 0.05243
1067.90 0.05242
1068.00 0.0524
1068.10 0.05238
1068.20 0.05236
1068.30 0.05234
1068.40 0.05232
1068.50 0.0523
1068.60 0.05228
1068.70 0.05226
1068.80 0.05224
1068.90 0.05222
1069.00 0.0522
1069.10 0.05218
1069.20 0.05216
1069.30 0.05214
1069.40 0.05212
1069.50 0.0521
1069.60 0.05208
1069.70 0.05206
1069.80 0.05204
1069.90 0.05202
1070.00 0.052
1070.10 0.05198
1070.20 0.05196
1070.30 0.05194
1070.40 0.05192
1070.50 0.0519
1070.60 0.05188
1070.70 0.05186
1070.80 0.05184
1070.90 0.05182
1071.00 0.0518
1071.10 0.05178
1071.20 0.05177
1071.30 0.05175
1071.40 0.05173
1071.50 0.05171
1071.60 0.05169
1071.70 0.05167
1071.80 0.05165
1071.90 0.05163
1072.00 0.05161
1072.10 0.05159
1072.20 0.05157
1072.30 0.05155
1072.40 0.05153
1072.50 0.05151
1072.60 0.05149
1072.70 0.05147
1072.80 0.05145
1072.90 0.05143
1073.00 0.05141
1073.10 0.05139
1073.20 0.05137
1073.30 0.05135
1073.40 0.05134
1073.50 0.05132
1073.60 0.0513
1073.70 0.05128
1073.80 0.05126
1073.90 0.05124
1074.00 0.05122
1074.10 0.0512
1074.20 0.05118
1074.30 0.05116
1074.40 0.05114
1074.50 0.05112
1074.60 0.0511
1074.70 0.05108
1074.80 0.05106
1074.90 0.05104
1075.00 0.05102
1075.10 0.05101
1075.20 0.05099
1075.30 0.05097
1075.40 0.05095
1075.50 0.05093
1075.60 0.05091
1075.70 0.05089
1075.80 0.05087
1075.90 0.05085
1076.00 0.05083
1076.10 0.05081
1076.20 0.05079
1076.30 0.05077
1076.40 0.05075
1076.50 0.05074
1076.60 0.05072
1076.70 0.0507
1076.80 0.05068
1076.90 0.05066
1077.00 0.05064
1077.10 0.05062
1077.20 0.0506
1077.30 0.05058
1077.40 0.05056
1077.50 0.05054
1077.60 0.05052
1077.70 0.0505
1077.80 0.05049
1077.90 0.05047
1078.00 0.05045
1078.10 0.05043
1078.20 0.05041
1078.30 0.05039
1078.40 0.05037
1078.50 0.05035
1078.60 0.05033
1078.70 0.05031
1078.80 0.05029
1078.90 0.05027
1079.00 0.05026
1079.10 0.05024
1079.20 0.05022
1079.30 0.0502
1079.40 0.05018
1079.50 0.05016
1079.60 0.05014
1079.70 0.05012
1079.80 0.0501
1079.90 0.05008
1080.00 0.05006
1080.10 0.05005
1080.20 0.05003
1080.30 0.05001
1080.40 0.04999
1080.50 0.04997
1080.60 0.04995
1080.70 0.04993
1080.80 0.04991
1080.90 0.04989
1081.00 0.04987
1081.10 0.04986
1081.20 0.04984
1081.30 0.04982
1081.40 0.0498
1081.50 0.04978
1081.60 0.04976
1081.70 0.04974
1081.80 0.04972
1081.90 0.0497
1082.00 0.04968
1082.10 0.04967
1082.20 0.04965
1082.30 0.04963
1082.40 0.04961
1082.50 0.04959
1082.60 0.04957
1082.70 0.04955
1082.80 0.04953
1082.90 0.04952
1083.00 0.0495
1083.10 0.04948
1083.20 0.04946
1083.30 0.04944
1083.40 0.04942
1083.50 0.0494
1083.60 0.04938
1083.70 0.04936
1083.80 0.04935
1083.90 0.04933
1084.00 0.04931
1084.10 0.04929
1084.20 0.04927
1084.30 0.04925
1084.40 0.04923
1084.50 0.04921
1084.60 0.0492
1084.70 0.04918
1084.80 0.04916
1084.90 0.04914
1085.00 0.04912
1085.10 0.0491
1085.20 0.04908
1085.30 0.04907
1085.40 0.04905
1085.50 0.04903
1085.60 0.04901
1085.70 0.04899
1085.80 0.04897
1085.90 0.04895
1086.00 0.04894
1086.10 0.04892
1086.20 0.0489
1086.30 0.04888
1086.40 0.04886
1086.50 0.04884
1086.60 0.04882
1086.70 0.04881
1086.80 0.04879
1086.90 0.04877
1087.00 0.04875
1087.10 0.04873
1087.20 0.04871
1087.30 0.04869
1087.40 0.04868
1087.50 0.04866
1087.60 0.04864
1087.70 0.04862
1087.80 0.0486
1087.90 0.04858
1088.00 0.04857
1088.10 0.04855
1088.20 0.04853
1088.30 0.04851
1088.40 0.04849
1088.50 0.04847
1088.60 0.04845
1088.70 0.04844
1088.80 0.04842
1088.90 0.0484
1089.00 0.04838
1089.10 0.04836
1089.20 0.04835
1089.30 0.04833
1089.40 0.04831
1089.50 0.04829
1089.60 0.04827
1089.70 0.04825
1089.80 0.04824
1089.90 0.04822
1090.00 0.0482
1090.10 0.04818
1090.20 0.04816
1090.30 0.04814
1090.40 0.04813
1090.50 0.04811
1090.60 0.04809
1090.70 0.04807
1090.80 0.04805
1090.90 0.04804
1091.00 0.04802
1091.10 0.048
1091.20 0.04798
1091.30 0.04796
1091.40 0.04795
1091.50 0.04793
1091.60 0.04791
1091.70 0.04789
1091.80 0.04787
1091.90 0.04786
1092.00 0.04784
1092.10 0.04782
1092.20 0.0478
1092.30 0.04778
1092.40 0.04777
1092.50 0.04775
1092.60 0.04773
1092.70 0.04771
1092.80 0.0477
1092.90 0.04768
1093.00 0.04766
1093.10 0.04764
1093.20 0.04763
1093.30 0.04761
1093.40 0.0476
1093.50 0.04758
1093.60 0.04757
1093.70 0.04755
1093.80 0.04754
1093.90 0.04752
1094.00 0.04751
1094.10 0.04749
1094.20 0.04748
1094.30 0.04746
1094.40 0.04744
1094.50 0.04743
1094.60 0.04741
1094.70 0.04739
1094.80 0.04738
1094.90 0.04736
1095.00 0.04734
1095.10 0.04733
1095.20 0.04731
1095.30 0.04729
1095.40 0.04728
1095.50 0.04726
1095.60 0.04725
1095.70 0.04723
1095.80 0.04721
1095.90 0.0472
1096.00 0.04718
1096.10 0.04717
1096.20 0.04715
1096.30 0.04713
1096.40 0.04712
1096.50 0.0471
1096.60 0.04709
1096.70 0.04707
1096.80 0.04706
1096.90 0.04704
1097.00 0.04702
1097.10 0.04701
1097.20 0.04699
1097.30 0.04698
1097.40 0.04696
1097.50 0.04695
1097.60 0.04693
1097.70 0.04691
1097.80 0.0469
1097.90 0.04688
1098.00 0.04687
1098.10 0.04685
1098.20 0.04684
1098.30 0.04682
1098.40 0.0468
1098.50 0.04679
1098.60 0.04677
1098.70 0.04676
1098.80 0.04674
1098.90 0.04673
1099.00 0.04671
1099.10 0.04669
1099.20 0.04668
1099.30 0.04666
1099.40 0.04665
1099.50 0.04663
1099.60 0.04662
1099.70 0.0466
1099.80 0.04659
1099.90 0.04657
1100.00 0.04655
1100.10 0.04654
1100.20 0.04652
1100.30 0.04651
1100.40 0.04649
1100.50 0.04648
1100.60 0.04646
1100.70 0.04645
1100.80 0.04643
1100.90 0.04641
1101.00 0.0464
1101.10 0.04638
1101.20 0.04637
1101.30 0.04635
1101.40 0.04634
1101.50 0.04632
1101.60 0.04631
1101.70 0.04629
1101.80 0.04628
1101.90 0.04626
1102.00 0.04624
1102.10 0.04623
1102.20 0.04621
1102.30 0.0462
1102.40 0.04618
1102.50 0.04617
1102.60 0.04615
1102.70 0.04614
1102.80 0.04612
1102.90 0.04611
1103.00 0.04609
1103.10 0.04608
1103.20 0.04606
1103.30 0.04604
1103.40 0.04603
1103.50 0.04601
1103.60 0.046
1103.70 0.04598
1103.80 0.04597
1103.90 0.04595
1104.00 0.04594
1104.10 0.04592
1104.20 0.04591
1104.30 0.04589
1104.40 0.04588
1104.50 0.04586
1104.60 0.04585
1104.70 0.04583
1104.80 0.04581
1104.90 0.0458
1105.00 0.04578
1105.10 0.04577
1105.20 0.04575
1105.30 0.04574
1105.40 0.04572
1105.50 0.04571
1105.60 0.04569
1105.70 0.04568
1105.80 0.04566
1105.90 0.04565
1106.00 0.04563
1106.10 0.04562
1106.20 0.0456
1106.30 0.04559
1106.40 0.04557
1106.50 0.04556
1106.60 0.04554
1106.70 0.04552
1106.80 0.04551
1106.90 0.04549
1107.00 0.04548
1107.10 0.04546
1107.20 0.04545
1107.30 0.04543
1107.40 0.04542
1107.50 0.0454
1107.60 0.04539
1107.70 0.04537
1107.80 0.04536
1107.90 0.04534
1108.00 0.04533
1108.10 0.04531
1108.20 0.0453
1108.30 0.04528
1108.40 0.04527
1108.50 0.04525
1108.60 0.04524
1108.70 0.04522
1108.80 0.04521
1108.90 0.04519
1109.00 0.04518
1109.10 0.04516
1109.20 0.04515
1109.30 0.04513
1109.40 0.04512
1109.50 0.0451
1109.60 0.04509
1109.70 0.04507
1109.80 0.04506
1109.90 0.04504
1110.00 0.04502
1110.10 0.04501
1110.20 0.04499
1110.30 0.04498
1110.40 0.04496
1110.50 0.04495
1110.60 0.04493
1110.70 0.04492
1110.80 0.0449
1110.90 0.04489
1111.00 0.04487
1111.10 0.04486
1111.20 0.04484
1111.30 0.04483
1111.40 0.04481
1111.50 0.0448
1111.60 0.04478
1111.70 0.04477
1111.80 0.04475
1111.90 0.04474
1112.00 0.04472
1112.10 0.04471
1112.20 0.04469
1112.30 0.04468
1112.40 0.04466
1112.50 0.04465
1112.60 0.04463
1112.70 0.04462
1112.80 0.0446
1112.90 0.04459
1113.00 0.04457
1113.10 0.04456
1113.20 0.04454
1113.30 0.04453
1113.40 0.04451
1113.50 0.0445
1113.60 0.04448
1113.70 0.04447
1113.80 0.04445
1113.90 0.04444
1114.00 0.04442
1114.10 0.04441
1114.20 0.04439
1114.30 0.04438
1114.40 0.04436
1114.50 0.04435
1114.60 0.04433
1114.70 0.04432
1114.80 0.0443
1114.90 0.04429
1115.00 0.04427
1115.10 0.04426
1115.20 0.04425
1115.30 0.04423
1115.40 0.04422
1115.50 0.0442
1115.60 0.04419
1115.70 0.04417
1115.80 0.04416
1115.90 0.04414
1116.00 0.04413
1116.10 0.04411
1116.20 0.0441
1116.30 0.04408
1116.40 0.04407
1116.50 0.04405
1116.60 0.04404
1116.70 0.04402
1116.80 0.04401
1116.90 0.04399
1117.00 0.04398
1117.10 0.04396
1117.20 0.04395
1117.30 0.04393
1117.40 0.04392
1117.50 0.0439
1117.60 0.04389
1117.70 0.04387
1117.80 0.04386
1117.90 0.04384
1118.00 0.04383
1118.10 0.04381
1118.20 0.0438
1118.30 0.04378
1118.40 0.04377
1118.50 0.04376
1118.60 0.04374
1118.70 0.04373
1118.80 0.04371
1118.90 0.0437
1119.00 0.04368
1119.10 0.04367
1119.20 0.04365
1119.30 0.04364
1119.40 0.04362
1119.50 0.04361
1119.60 0.04359
1119.70 0.04358
1119.80 0.04356
1119.90 0.04355
1120.00 0.04353
1120.10 0.04352
1120.20 0.0435
1120.30 0.04349
1120.40 0.04347
1120.50 0.04346
1120.60 0.04345
1120.70 0.04343
1120.80 0.04342
1120.90 0.0434
1121.00 0.04339
1121.10 0.04337
1121.20 0.04336
1121.30 0.04334
1121.40 0.04333
1121.50 0.04331
1121.60 0.0433
1121.70 0.04328
1121.80 0.04327
1121.90 0.04325
1122.00 0.04324
1122.10 0.04323
1122.20 0.04321
1122.30 0.0432
1122.40 0.04318
1122.50 0.04317
1122.60 0.04315
1122.70 0.04314
1122.80 0.04312
1122.90 0.04311
1123.00 0.04309
1123.10 0.04308
1123.20 0.04306
1123.30 0.04305
1123.40 0.04303
1123.50 0.04302
1123.60 0.04301
1123.70 0.04299
1123.80 0.04298
1123.90 0.04296
1124.00 0.04295
1124.10 0.04293
1124.20 0.04292
1124.30 0.0429
1124.40 0.04289
1124.50 0.04287
1124.60 0.04286
1124.70 0.04285
1124.80 0.04283
1124.90 0.04282
1125.00 0.0428
1125.10 0.04279
1125.20 0.04277
1125.30 0.04276
1125.40 0.04274
1125.50 0.04273
1125.60 0.04271
1125.70 0.0427
1125.80 0.04269
1125.90 0.04267
1126.00 0.04266
1126.10 0.04264
1126.20 0.04263
1126.30 0.04261
1126.40 0.0426
1126.50 0.04258
1126.60 0.04257
1126.70 0.04256
1126.80 0.04254
1126.90 0.04253
1127.00 0.04251
1127.10 0.0425
1127.20 0.04248
1127.30 0.04247
1127.40 0.04245
1127.50 0.04244
1127.60 0.04243
1127.70 0.04241
1127.80 0.0424
1127.90 0.04238
1128.00 0.04237
1128.10 0.04235
1128.20 0.04234
1128.30 0.04232
1128.40 0.04231
1128.50 0.0423
1128.60 0.04228
1128.70 0.04227
1128.80 0.04225
1128.90 0.04224
1129.00 0.04222
1129.10 0.04221
1129.20 0.04219
1129.30 0.04218
1129.40 0.04217
1129.50 0.04215
1129.60 0.04214
1129.70 0.04212
1129.80 0.04211
1129.90 0.04209
1130.00 0.04208
1130.10 0.04207
1130.20 0.04205
1130.30 0.04204
1130.40 0.04202
1130.50 0.04201
1130.60 0.04199
1130.70 0.04198
1130.80 0.04197
1130.90 0.04195
1131.00 0.04194
1131.10 0.04192
1131.20 0.04191
1131.30 0.04189
1131.40 0.04188
1131.50 0.04187
1131.60 0.04185
1131.70 0.04184
1131.80 0.04182
1131.90 0.04181
1132.00 0.04179
1132.10 0.04178
1132.20 0.04177
1132.30 0.04175
1132.40 0.04174
1132.50 0.04172
1132.60 0.04171
1132.70 0.0417
1132.80 0.04168
1132.90 0.04167
1133.00 0.04165
1133.10 0.04164
1133.20 0.04162
1133.30 0.04161
1133.40 0.0416
1133.50 0.04158
1133.60 0.04157
1133.70 0.04155
1133.80 0.04154
1133.90 0.04153
1134.00 0.04151
1134.10 0.0415
1134.20 0.04148
1134.30 0.04147
1134.40 0.04145
1134.50 0.04144
1134.60 0.04143
1134.70 0.04141
1134.80 0.0414
1134.90 0.04138
1135.00 0.04137
1135.10 0.04136
1135.20 0.04134
1135.30 0.04133
1135.40 0.04131
1135.50 0.0413
1135.60 0.04129
1135.70 0.04127
1135.80 0.04126
1135.90 0.04124
1136.00 0.04123
1136.10 0.04122
1136.20 0.0412
1136.30 0.04119
1136.40 0.04117
1136.50 0.04116
1136.60 0.04115
1136.70 0.04113
1136.80 0.04112
1136.90 0.0411
1137.00 0.04109
1137.10 0.04107
1137.20 0.04106
1137.30 0.04105
1137.40 0.04103
1137.50 0.04102
1137.60 0.04101
1137.70 0.04099
1137.80 0.04098
1137.90 0.04096
1138.00 0.04095
1138.10 0.04094
1138.20 0.04092
1138.30 0.04091
1138.40 0.04089
1138.50 0.04088
1138.60 0.04087
1138.70 0.04085
1138.80 0.04084
1138.90 0.04082
1139.00 0.04081
1139.10 0.0408
1139.20 0.04078
1139.30 0.04077
1139.40 0.04075
1139.50 0.04074
1139.60 0.04073
1139.70 0.04071
1139.80 0.0407
1139.90 0.04069
1140.00 0.04067
1140.10 0.04066
1140.20 0.04064
1140.30 0.04063
1140.40 0.04062
1140.50 0.0406
1140.60 0.04059
1140.70 0.04057
1140.80 0.04056
1140.90 0.04055
1141.00 0.04053
1141.10 0.04052
1141.20 0.04051
1141.30 0.04049
1141.40 0.04048
1141.50 0.04046
1141.60 0.04045
1141.70 0.04044
1141.80 0.04042
1141.90 0.04041
1142.00 0.0404
1142.10 0.04038
1142.20 0.04037
1142.30 0.04035
1142.40 0.04034
1142.50 0.04033
1142.60 0.04031
1142.70 0.0403
1142.80 0.04029
1142.90 0.04027
1143.00 0.04026
1143.10 0.04024
1143.20 0.04023
1143.30 0.04022
1143.40 0.0402
1143.50 0.04019
1143.60 0.04018
1143.70 0.04016
1143.80 0.04015
1143.90 0.04014
1144.00 0.04012
1144.10 0.04011
1144.20 0.04009
1144.30 0.04008
1144.40 0.04007
1144.50 0.04005
1144.60 0.04004
1144.70 0.04003
1144.80 0.04001
1144.90 0.04
1145.00 0.03999
1145.10 0.03997
1145.20 0.03996
1145.30 0.03994
1145.40 0.03993
1145.50 0.03992
1145.60 0.0399
1145.70 0.03989
1145.80 0.03988
1145.90 0.03986
1146.00 0.03985
1146.10 0.03984
1146.20 0.03982
1146.30 0.03981
1146.40 0.0398
1146.50 0.03978
1146.60 0.03977
1146.70 0.03975
1146.80 0.03974
1146.90 0.03973
1147.00 0.03971
1147.10 0.0397
1147.20 0.03969
1147.30 0.03967
1147.40 0.03966
1147.50 0.03965
1147.60 0.03963
1147.70 0.03962
1147.80 0.03961
1147.90 0.03959
1148.00 0.03958
1148.10 0.03957
1148.20 0.03955
1148.30 0.03954
1148.40 0.03953
1148.50 0.03951
1148.60 0.0395
1148.70 0.03949
1148.80 0.03947
1148.90 0.03946
1149.00 0.03945
1149.10 0.03943
1149.20 0.03942
1149.30 0.03941
1149.40 0.03939
1149.50 0.03938
1149.60 0.03937
1149.70 0.03935
1149.80 0.03934
1149.90 0.03933
1150.00 0.03931
1150.10 0.0393
1150.20 0.03929
1150.30 0.03927
1150.40 0.03926
1150.50 0.03925
1150.60 0.03923
1150.70 0.03922
1150.80 0.03921
1150.90 0.03919
1151.00 0.03918
1151.10 0.03917
1151.20 0.03915
1151.30 0.03914
1151.40 0.03913
1151.50 0.03911
1151.60 0.0391
1151.70 0.03909
1151.80 0.03907
1151.90 0.03906
1152.00 0.03905
1152.10 0.03903
1152.20 0.03902
1152.30 0.03901
1152.40 0.03899
1152.50 0.03898
1152.60 0.03897
1152.70 0.03895
1152.80 0.03894
1152.90 0.03893
1153.00 0.03891
1153.10 0.0389
1153.20 0.03889
1153.30 0.03887
1153.40 0.03886
1153.50 0.03885
1153.60 0.03884
1153.70 0.03882
1153.80 0.03881
1153.90 0.0388
1154.00 0.03878
1154.10 0.03877
1154.20 0.03876
1154.30 0.03874
1154.40 0.03873
1154.50 0.03872
1154.60 0.0387
1154.70 0.03869
1154.80 0.03868
1154.90 0.03866
1155.00 0.03865
1155.10 0.03864
1155.20 0.03863
1155.30 0.03861
1155.40 0.0386
1155.50 0.03859
1155.60 0.03857
1155.70 0.03856
1155.80 0.03855
1155.90 0.03853
1156.00 0.03852
1156.10 0.03851
1156.20 0.03849
1156.30 0.03848
1156.40 0.03847
1156.50 0.03846
1156.60 0.03844
1156.70 0.03843
1156.80 0.03842
1156.90 0.0384
1157.00 0.03839
1157.10 0.03838
1157.20 0.03836
1157.30 0.03835
1157.40 0.03834
1157.50 0.03833
1157.60 0.03831
1157.70 0.0383
1157.80 0.03829
1157.90 0.03827
1158.00 0.03826
1158.10 0.03825
1158.20 0.03824
1158.30 0.03822
1158.40 0.03821
1158.50 0.0382
1158.60 0.03818
1158.70 0.03817
1158.80 0.03816
1158.90 0.03815
1159.00 0.03813
1159.10 0.03812
1159.20 0.03811
1159.30 0.03809
1159.40 0.03808
1159.50 0.03807
1159.60 0.03806
1159.70 0.03804
1159.80 0.03803
1159.90 0.03802
1160.00 0.038
1160.10 0.03799
1160.20 0.03798
1160.30 0.03797
1160.40 0.03795
1160.50 0.03794
1160.60 0.03793
1160.70 0.03791
1160.80 0.0379
1160.90 0.03789
1161.00 0.03788
1161.10 0.03786
1161.20 0.03785
1161.30 0.03784
1161.40 0.03782
1161.50 0.03781
1161.60 0.0378
1161.70 0.03779
1161.80 0.03777
1161.90 0.03776
1162.00 0.03775
1162.10 0.03774
1162.20 0.03772
1162.30 0.03771
1162.40 0.0377
1162.50 0.03768
1162.60 0.03767
1162.70 0.03766
1162.80 0.03765
1162.90 0.03763
1163.00 0.03762
1163.10 0.03761
1163.20 0.0376
1163.30 0.03758
1163.40 0.03757
1163.50 0.03756
1163.60 0.03755
1163.70 0.03753
1163.80 0.03752
1163.90 0.03751
1164.00 0.03749
1164.10 0.03748
1164.20 0.03747
1164.30 0.03746
1164.40 0.03744
1164.50 0.03743
1164.60 0.03742
1164.70 0.03741
1164.80 0.03739
1164.90 0.03738
1165.00 0.03737
1165.10 0.03736
1165.20 0.03734
1165.30 0.03733
1165.40 0.03732
1165.50 0.03731
1165.60 0.03729
1165.70 0.03728
1165.80 0.03727
1165.90 0.03726
1166.00 0.03724
1166.10 0.03723
1166.20 0.03722
1166.30 0.03721
1166.40 0.03719
1166.50 0.03718
1166.60 0.03717
1166.70 0.03716
1166.80 0.03714
1166.90 0.03713
1167.00 0.03712
1167.10 0.03711
1167.20 0.03709
1167.30 0.03708
1167.40 0.03707
1167.50 0.03706
1167.60 0.03704
1167.70 0.03703
1167.80 0.03702
1167.90 0.03701
1168.00 0.03699
1168.10 0.03698
1168.20 0.03697
1168.30 0.03696
1168.40 0.03694
1168.50 0.03693
1168.60 0.03692
1168.70 0.03691
1168.80 0.03689
1168.90 0.03688
1169.00 0.03687
1169.10 0.03686
1169.20 0.03685
1169.30 0.03683
1169.40 0.03682
1169.50 0.03681
1169.60 0.0368
1169.70 0.03678
1169.80 0.03677
1169.90 0.03676
1170.00 0.03675
1170.10 0.03673
1170.20 0.03672
1170.30 0.03671
1170.40 0.0367
1170.50 0.03668
1170.60 0.03667
1170.70 0.03666
1170.80 0.03665
1170.90 0.03664
1171.00 0.03662
1171.10 0.03661
1171.20 0.0366
1171.30 0.03659
1171.40 0.03657
1171.50 0.03656
1171.60 0.03655
1171.70 0.03654
1171.80 0.03652
1171.90 0.03651
1172.00 0.0365
1172.10 0.03649
1172.20 0.03648
1172.30 0.03646
1172.40 0.03645
1172.50 0.03644
1172.60 0.03643
1172.70 0.03642
1172.80 0.0364
1172.90 0.03639
1173.00 0.03638
1173.10 0.03637
1173.20 0.03635
1173.30 0.03634
1173.40 0.03633
1173.50 0.03632
1173.60 0.03631
1173.70 0.03629
1173.80 0.03628
1173.90 0.03627
1174.00 0.03626
1174.10 0.03625
1174.20 0.03623
1174.30 0.03622
1174.40 0.03621
1174.50 0.0362
1174.60 0.03618
1174.70 0.03617
1174.80 0.03616
1174.90 0.03615
1175.00 0.03614
1175.10 0.03612
1175.20 0.03611
1175.30 0.0361
1175.40 0.03609
1175.50 0.03608
1175.60 0.03606
1175.70 0.03605
1175.80 0.03604
1175.90 0.03603
1176.00 0.03602
1176.10 0.036
1176.20 0.03599
1176.30 0.03598
1176.40 0.03597
1176.50 0.03596
1176.60 0.03594
1176.70 0.03593
1176.80 0.03592
1176.90 0.03591
1177.00 0.0359
1177.10 0.03588
1177.20 0.03587
1177.30 0.03586
1177.40 0.03585
1177.50 0.03584
1177.60 0.03582
1177.70 0.03581
1177.80 0.0358
1177.90 0.03579
1178.00 0.03578
1178.10 0.03576
1178.20 0.03575
1178.30 0.03574
1178.40 0.03573
1178.50 0.03572
1178.60 0.0357
1178.70 0.03569
1178.80 0.03568
1178.90 0.03567
1179.00 0.03566
1179.10 0.03565
1179.20 0.03563
1179.30 0.03562
1179.40 0.03561
1179.50 0.0356
1179.60 0.03559
1179.70 0.03557
1179.80 0.03556
1179.90 0.03555
1180.00 0.03554
1180.10 0.03553
1180.20 0.03551
1180.30 0.0355
1180.40 0.03549
1180.50 0.03548
1180.60 0.03547
1180.70 0.03546
1180.80 0.03544
1180.90 0.03543
1181.00 0.03542
1181.10 0.03541
1181.20 0.0354
1181.30 0.03538
1181.40 0.03537
1181.50 0.03536
1181.60 0.03535
1181.70 0.03534
1181.80 0.03533
1181.90 0.03531
1182.00 0.0353
1182.10 0.03529
1182.20 0.03528
1182.30 0.03527
1182.40 0.03526
1182.50 0.03524
1182.60 0.03523
1182.70 0.03522
1182.80 0.03521
1182.90 0.0352
1183.00 0.03519
1183.10 0.03517
1183.20 0.03516
1183.30 0.03515
1183.40 0.03514
1183.50 0.03513
1183.60 0.03512
1183.70 0.0351
1183.80 0.03509
1183.90 0.03508
1184.00 0.03507
1184.10 0.03506
1184.20 0.03505
1184.30 0.03503
1184.40 0.03502
1184.50 0.03501
1184.60 0.035
1184.70 0.03499
1184.80 0.03498
1184.90 0.03496
1185.00 0.03495
1185.10 0.03494
1185.20 0.03493
1185.30 0.03492
1185.40 0.03491
1185.50 0.03489
1185.60 0.03488
1185.70 0.03487
1185.80 0.03486
1185.90 0.03485
1186.00 0.03484
1186.10 0.03482
1186.20 0.03481
1186.30 0.0348
1186.40 0.03479
1186.50 0.03478
1186.60 0.03477
1186.70 0.03476
1186.80 0.03474
1186.90 0.03473
1187.00 0.03472
1187.10 0.03471
1187.20 0.0347
1187.30 0.03469
1187.40 0.03467
1187.50 0.03466
1187.60 0.03465
1187.70 0.03464
1187.80 0.03463
1187.90 0.03462
1188.00 0.03461
1188.10 0.03459
1188.20 0.03458
1188.30 0.03457
1188.40 0.03456
1188.50 0.03455
1188.60 0.03454
1188.70 0.03453
1188.80 0.03451
1188.90 0.0345
1189.00 0.03449
1189.10 0.03448
1189.20 0.03447
1189.30 0.03446
1189.40 0.03445
1189.50 0.03443
1189.60 0.03442
1189.70 0.03441
1189.80 0.0344
1189.90 0.03439
1190.00 0.03438
1190.10 0.03437
1190.20 0.03436
1190.30 0.03434
1190.40 0.03433
1190.50 0.03432
1190.60 0.03431
1190.70 0.0343
1190.80 0.03429
1190.90 0.03428
1191.00 0.03426
1191.10 0.03425
1191.20 0.03424
1191.30 0.03423
1191.40 0.03422
1191.50 0.03421
1191.60 0.0342
1191.70 0.03418
1191.80 0.03417
1191.90 0.03416
1192.00 0.03415
1192.10 0.03414
1192.20 0.03413
1192.30 0.03412
1192.40 0.03411
1192.50 0.03409
1192.60 0.03408
1192.70 0.03407
1192.80 0.03406
1192.90 0.03405
1193.00 0.03404
1193.10 0.03403
1193.20 0.03402
1193.30 0.034
1193.40 0.03399
1193.50 0.03398
1193.60 0.03397
1193.70 0.03396
1193.80 0.03395
1193.90 0.03394
1194.00 0.03393
1194.10 0.03392
1194.20 0.0339
1194.30 0.03389
1194.40 0.03388
1194.50 0.03387
1194.60 0.03386
1194.70 0.03385
1194.80 0.03384
1194.90 0.03383
1195.00 0.03381
1195.10 0.0338
1195.20 0.03379
1195.30 0.03378
1195.40 0.03377
1195.50 0.03376
1195.60 0.03375
1195.70 0.03374
1195.80 0.03373
1195.90 0.03371
1196.00 0.0337
1196.10 0.03369
1196.20 0.03368
1196.30 0.03367
1196.40 0.03366
1196.50 0.03365
1196.60 0.03364
1196.70 0.03363
1196.80 0.03361
1196.90 0.0336
1197.00 0.03359
1197.10 0.03358
1197.20 0.03357
1197.30 0.03356
1197.40 0.03355
1197.50 0.03354
1197.60 0.03353
1197.70 0.03352
1197.80 0.0335
1197.90 0.03349
1198.00 0.03348
1198.10 0.03347
1198.20 0.03346
1198.30 0.03345
1198.40 0.03344
1198.50 0.03343
1198.60 0.03342
1198.70 0.03341
1198.80 0.03339
1198.90 0.03338
1199.00 0.03337
1199.10 0.03336
1199.20 0.03335
1199.30 0.03334
1199.40 0.03333
1199.50 0.03332
1199.60 0.03331
1199.70 0.0333
1199.80 0.03328
1199.90 0.03327
1200.00 0
